time,acc_x,acc_y,acc_z,mag_x,mag_y,mag_z,gyr_x,gyr_y,gyr_z
1589477944.1384175,-0.25,-4.42,8.85,0.4977777777777778,0.3088888888888889,-0.6466666666666666,0.006544984694978735,-0.002181661564992912,0.004363323129985824
1589477944.1484175,-0.26,-4.399855181258015,8.85028963748397,0.4722222222222222,0.3022222222222222,-0.6166666666666667,0.0005375167541662497,-0.003778414553327704,0.0021658642908289555
1589477944.1584175,-0.2396124737488608,-4.404903118437216,8.804515592186076,0.4722222222222222,0.3022222222222222,-0.6166666666666667,0.0022027978431813167,-0.008212935286006027,0.002160525286804507
1589477944.1684175,-0.2241840036985668,-4.4,8.800920018492834,0.4722222222222222,0.3022222222222222,-0.6166666666666667,0.002359684341794229,-0.008904669036772965,0.00017802277680131707
1589477944.1784174,-0.22523090750482436,-4.4,8.85384546247588,0.4722222222222222,0.3022222222222222,-0.6166666666666667,0.002131285362158544,-0.0060751336079820605,0.000469851086996676
1589477944.1884174,-0.2448307630234018,-4.390067694790639,8.884966152604681,0.4760847853591958,0.30829196429460937,-0.606734361457306,0.0027307691343133396,-0.0011129838509296528,0.001098215138640855
1589477944.1984174,-0.26306474000783003,-4.38,8.89,0.48,0.3144444444444445,-0.5966666666666667,0.0014251420565853973,0.006720778615438001,0.0015130390168150295
1589477944.2084174,-0.2717052956875966,-4.385852647843798,8.825620873718218,0.48,0.3144444444444445,-0.5966666666666667,0.0004524059397837879,0.006172946889120975,0.0015432367222802438
1589477944.2184174,-0.24956110040534257,-4.396087779918932,8.786087779918931,0.48,0.3144444444444445,-0.5966666666666667,-0.0013281475465268498,0.002371101810195549,0.0017549045557598809
1589477944.2284174,-0.25359547925384224,-4.376404520746158,8.795898869813461,0.48,0.3144444444444445,-0.5966666666666667,-0.002181661564992912,-0.0014830367272883067,0.0015381946875467213
1589477944.2384174,-0.27,-4.372344145523047,8.83703243656914,0.4861720727615235,0.3185591596187935,-0.6096965980521052,-0.0028549302610006884,-0.003272492347489368,0.001090830782496456
1589477944.2484174,-0.25644177384215333,-4.393558226157847,8.86,0.49,0.3211111111111111,-0.6177777777777778,-0.007709411482197704,-0.010667357572003258,0.00035134426004506693
1589477944.2584174,-0.23653967344600402,-4.393269836723002,8.779238040676024,0.49,0.3211111111111111,-0.6177777777777778,-0.006146742405579787,-0.009775918608187946,0.0
1589477944.2684174,-0.23688247764321743,-4.39,8.801942298788957,0.49,0.3211111111111111,-0.6177777777777778,-0.004363323129985824,-0.0046327680882491,-0.000750761847306523
1589477944.2784173,-0.24373240969563492,-4.39,8.848662048478175,0.49,0.3211111111111111,-0.6177777777777778,-0.005584751346651862,0.00039179230250874697,0.0005377401730582616
1589477944.2884173,-0.2491030385290088,-4.39,8.875515192645045,0.49,0.3211111111111111,-0.6177777777777778,-0.00734228552249404,0.005664394830035281,0.0028811190741811652
1589477944.2984173,-0.2538692983511855,-4.385477193404742,8.91,0.4844444444444445,0.3088888888888889,-0.6255555555555555,-0.01108370196690887,0.015024950122081103,0.003272492347489368
1589477944.3084173,-0.26,-4.41,8.853357733312732,0.4844444444444445,0.3088888888888889,-0.6255555555555555,-0.010843164732035808,0.015800760572966425,0.0015873888540481203
1589477944.3184173,-0.26,-4.406840464880494,8.796840464880495,0.4844444444444445,0.3088888888888889,-0.6255555555555555,-0.007348038993277416,0.014582327321603267,0.0013786072666942312
1589477944.3284173,-0.25631967404735667,-4.4,8.799200814881608,0.4844444444444445,0.3088888888888889,-0.6255555555555555,-0.003961861846109427,0.012889238748019272,0.003961861846109427
1589477944.3384173,-0.24,-4.3933458739478235,8.833345873947824,0.48888052847922886,0.301865089167147,-0.6277735975729477,-0.00036703018291146003,0.010547433501795853,0.002181661564992912
1589477944.3484173,-0.23514789533560865,-4.38,8.817573947667805,0.4977777777777778,0.2877777777777778,-0.6322222222222222,0.0027432098347080955,0.008165097990256465,0.0032402265905554567
1589477944.3584173,-0.24401838705923426,-4.392009193529617,8.767967822646341,0.4977777777777778,0.2877777777777778,-0.6322222222222222,-0.00021916901500990712,0.013092476536234013,0.003269985201212828
1589477944.3684173,-0.25426299520052065,-4.3942629952005205,8.791633043195315,0.4977777777777778,0.2877777777777778,-0.6322222222222222,-0.001090830782496456,0.015897441098410584,0.001090830782496456
1589477944.3784173,-0.2614564714875958,-4.393818823829198,8.837637647658397,0.4977777777777778,0.2877777777777778,-0.6322222222222222,-0.0006742617239143744,0.017612168913193085,0.0015073998410785375
1589477944.3884172,-0.2738958556354183,-4.403052072182291,8.862208288729164,0.4977777777777778,0.2921863264855313,-0.6193356952303274,0.0013317177147376064,0.01963495408493621,0.0015158027076241087
1589477944.3984172,-0.26434091822199496,-4.41,8.872636327112021,0.4977777777777778,0.3022222222222222,-0.59,0.0038898024079006355,0.020581995529106587,0.001420562166255566
1589477944.4084172,-0.2738879227738936,-4.406112077226107,8.83833623167832,0.4977777777777778,0.3022222222222222,-0.59,0.004120705515835797,0.020544295897409474,0.002848385763316153
1589477944.4184172,-0.28,-4.390100116134716,8.829899883865284,0.4977777777777778,0.3022222222222222,-0.59,0.004374244106143131,0.015844348786591876,0.0027216164681624867
1589477944.4284172,-0.27621562903116303,-4.383784370968836,8.84,0.4977777777777778,0.3022222222222222,-0.59,0.0024468706784507035,0.010200293548322144,0.0028596815129700356
1589477944.4384172,-0.2670088630869988,-4.392991136913001,8.845982273826003,0.49378959522710947,0.3042163134975564,-0.6006351534684489,0.00043826593862381633,0.00447530664667332,0.002507943986929232
1589477944.4484172,-0.26317004704859054,-4.393659905902819,8.831469576562684,0.4844444444444445,0.3088888888888889,-0.6255555555555555,-0.0024740247435222867,0.0018358630747364543,0.0025808953669764524
1589477944.4584172,-0.3256554199569275,-4.3142254127781765,8.542318736539842,0.4844444444444445,0.3088888888888889,-0.6255555555555555,-0.004902238955193334,0.001090830782496456,0.0005389158252075097
1589477944.4684172,-0.19886569733484982,-4.502490240078695,8.907314254096093,0.4844444444444445,0.3088888888888889,-0.6255555555555555,-0.02292451424061748,-0.015674116027106326,0.0017962443010288696
1589477944.4784172,-0.17389893123135586,-4.510684328019123,8.975207925877635,0.4844444444444445,0.3088888888888889,-0.6255555555555555,-0.004097074995535445,0.005217191995330005,0.01032394111821499
1589477944.4884171,-0.2927146520772782,-4.387679945289793,8.772575824927337,0.48621036834406645,0.30676978020934254,-0.6227300773161604,0.017114126019507653,0.024157696287050254,0.021216798593566476
1589477944.4984171,-0.33358803986710966,-4.46921829196795,9.047246433457103,0.49,0.3022222222222222,-0.6166666666666667,-0.00034875887437252334,0.0012652102196827177,0.03285474875270106
1589477944.5084171,-0.5109000312313676,-4.292700093694103,8.539275148348997,0.49,0.3022222222222222,-0.6166666666666667,-0.011772802292237594,-0.012116425912572004,0.0548851627451572
1589477944.5184171,-0.46755048778972225,-4.344795873982477,8.640408252035046,0.49,0.3022222222222222,-0.6166666666666667,0.003595478035589513,-0.008014112041019136,0.07807245299883182
1589477944.528417,-0.3946372095305064,-4.383015813314582,8.779047439943746,0.49,0.3022222222222222,-0.6166666666666667,0.017965323505222,0.0016882002653216162,0.10277553936169881
1589477944.538417,-0.3603425945610047,-4.479040735229187,9.06712220568756,0.49,0.3022222222222222,-0.6166666666666667,0.004497859699487357,-0.014023840841368802,0.12522131237125655
1589477944.548417,-0.29176239094115464,-4.4,8.840955448301466,0.4844444444444445,0.3022222222222222,-0.6111111111111112,0.0020774383231605513,-0.011790692123796295,0.15808243967487803
1589477944.558417,-0.18338738172823996,-4.367819873581721,8.77935141926112,0.4844444444444445,0.3022222222222222,-0.6111111111111112,0.0030700520385552564,-0.016547214750508348,0.16706417543914664
1589477944.568417,-0.17856376761773807,-4.274308697146786,8.644308697146785,0.4844444444444445,0.3022222222222222,-0.6111111111111112,-0.006390265966598523,-0.019401901031886517,0.15201130062747853
1589477944.578417,-0.14423097194233453,-4.373076112230661,8.734614168345992,0.4844444444444445,0.3022222222222222,-0.6111111111111112,-0.014152933343597096,-0.02259976147012042,0.12861992351114288
1589477944.588417,-0.1547634845890411,-4.3035203339041095,8.665324486301369,0.48071996289954344,0.2978205622146119,-0.6128040572678843,-0.01397440153980691,-0.01308037325443508,0.08914812235126124
1589477944.598417,-0.16565343285502865,-4.398261373142011,8.902609870664692,0.4722222222222222,0.2877777777777778,-0.6166666666666667,0.010054440218692801,0.002371316334589812,0.051458490975387475
1589477944.608417,-0.28223309153297416,-4.427766908467026,8.929659723685399,0.4722222222222222,0.2877777777777778,-0.6166666666666667,-0.004696928950217448,0.0014880024575549514,0.023113920543003458
1589477944.618417,-0.30748246696565634,-4.402517533034344,8.784475814947475,0.4722222222222222,0.2877777777777778,-0.6166666666666667,-0.005385498849236935,0.009062271346769313,0.010031092461633199
1589477944.628417,-0.3858586063789651,-4.3862120904315525,8.797929303189482,0.4722222222222222,0.2877777777777778,-0.6166666666666667,-0.004363323129985824,0.013277288243602057,0.005867350748339834
1589477944.638417,-0.3513090444231384,-4.484763822307447,9.004945989133908,0.48416366606299494,0.2945272895138667,-0.6109555413515145,-0.013538224493867327,-0.0019060080336027064,0.004801642574802952
1589477944.648417,-0.2953183564651455,-4.470909589900415,8.982455892731123,0.4977777777777778,0.3022222222222222,-0.6044444444444445,-0.004001466341359519,-0.0039220896483338225,0.01627316295779293
1589477944.658417,-0.2473740390608768,-4.4078778828173695,8.752086536463745,0.4977777777777778,0.3022222222222222,-0.6044444444444445,0.013148811472215033,-0.002005135318220228,0.030770867730246093
1589477944.668417,-0.24138738599474419,-4.4220420466841865,8.760654660689442,0.4977777777777778,0.3022222222222222,-0.6044444444444445,0.005828246985749923,-0.014029459837426787,0.038330417722403094
1589477944.678417,-0.2636970904443275,-4.365545635666491,8.689242726110818,0.4977777777777778,0.3022222222222222,-0.6044444444444445,0.004115505829255904,-0.011595848601226422,0.03794099891496131
1589477944.688417,-0.2794639500789415,-4.389195925118412,8.728659875197353,0.4977777777777778,0.3022222222222222,-0.6044444444444445,0.017014737703809187,-0.009875951017952652,0.02762161341531869
1589477944.698417,-0.2738771173066807,-4.385815675960021,8.867754234613361,0.4844444444444445,0.29444444444444445,-0.6044444444444445,0.004819762076660721,-0.005487664968609472,0.015550117012478621
1589477944.708417,-0.29,-4.40298113353437,8.884558493775613,0.4844444444444445,0.29444444444444445,-0.6044444444444445,0.0027941732129082653,-0.0007845749585387793,0.007023303829559839
1589477944.718417,-0.3001563197856186,-4.370156319785619,8.796770879857078,0.4844444444444445,0.29444444444444445,-0.6044444444444445,0.006175690486344383,0.0018294191997651596,0.003272492347489368
1589477944.728417,-0.32197267979108074,-4.39197267979108,8.823808758537565,0.4844444444444445,0.29444444444444445,-0.6044444444444445,0.004378223992422497,0.003272492347489368,0.0030573063634774114
1589477944.738417,-0.33564170459247,-4.40564170459247,8.941283409184939,0.48347593435388225,0.29613933710292834,-0.6121925251689422,-0.00545415391248228,0.0004199946736413744,0.0006154145035217903
1589477944.748417,-0.32,-4.393255045438451,8.908372477280775,0.48,0.3022222222222222,-0.64,-0.005276618724347898,-0.009817477042468105,-0.0007357604062276934
1589477944.758417,-0.33445263133350434,-4.366642105999487,8.726568423997948,0.48,0.3022222222222222,-0.64,-0.00383781062509718,-0.011394014557134036,-0.0004857067321694761
1589477944.768417,-0.28473044547432136,-4.41324222075097,8.740470774614584,0.48,0.3022222222222222,-0.64,-0.005306722039959114,-0.014615641659309779,-0.0006559892956406023
1589477944.7784169,-0.2605584650775782,-4.466281630855073,8.90048211051833,0.48,0.3022222222222222,-0.64,0.000981486088523928,-0.009468620484647545,0.002469599033056315
1589477944.7884169,-0.3699452617174136,-4.349965788573384,8.749904208005473,0.48000684228532325,0.3022169004447485,-0.639980233397955,0.019617041023848345,0.005446690137029002,0.005454900290027607
1589477944.7984169,-0.30799689589760293,-4.332994309145605,8.687986548889612,0.49,0.29444444444444445,-0.6111111111111112,-0.003927442290380138,-0.002509418707308858,0.005890599093829087
1589477944.8084168,-0.3427816337426588,-4.400977042178324,8.835712760277628,0.49,0.29444444444444445,-0.6111111111111112,0.0031659135790980965,0.0033790711158806393,0.0035759215187016764
1589477944.8184168,-0.31,-4.3763400935304215,8.741275350739079,0.49,0.29444444444444445,-0.6111111111111112,0.0018429254486225467,-0.0028732584836818854,0.0008912138505927147
1589477944.8284168,-0.30690939912660536,-4.412362403493579,8.86399660960734,0.49,0.29444444444444445,-0.6111111111111112,-0.007893513722622453,-0.006465550683215068,0.0011702647942601235
1589477944.8384168,-0.3030512081274025,-4.4354231878088966,8.946102416254805,0.49,0.2925798172554762,-0.6111111111111112,-0.009909802300212347,-0.008726646259971648,-0.0009244131950377538
1589477944.8484168,-0.32,-4.4015894502494435,8.957571867331849,0.49,0.2822222222222222,-0.6111111111111112,-0.004363323129985824,-0.009644094916534148,-0.0006116324377083335
1589477944.8584168,-0.32,-4.381141752116613,8.903044672310967,0.49,0.2822222222222222,-0.6111111111111112,-0.004363323129985824,-0.011874592771982845,-0.002098631008007466
1589477944.8684168,-0.31,-4.40297381872993,8.805315879153287,0.49,0.2822222222222222,-0.6111111111111112,-0.00789129463790161,-0.010977221965755344,-0.0013463099429228739
1589477944.8784168,-0.31,-4.382358280359132,8.791572186906087,0.49,0.2822222222222222,-0.6111111111111112,-0.008640896766321703,-0.007978813452074969,-0.0020959120713429677
1589477944.8884168,-0.3161633741434183,-4.378459156464145,8.783081687071709,0.4891439758134141,0.28410547543271114,-0.6133367739962344,-0.008308135301443533,-0.008476215257435618,0.0012589107384885412
1589477944.8984168,-0.35,-4.356467964755793,8.8,0.4844444444444445,0.29444444444444445,-0.6255555555555555,-0.011999138607461015,-0.012720940375102257,0.001443603535282485
1589477944.9084167,-0.3646511705296085,-4.3182790635763135,8.79706976589408,0.4844444444444445,0.29444444444444445,-0.6255555555555555,-0.01040094382613083,-0.008802749044800646,-0.0015981947813301846
1589477944.9184167,-0.3995449326966274,-4.290364053842699,8.790091013460673,0.4844444444444445,0.29444444444444445,-0.6255555555555555,-0.00659462483724139,-0.0011901110670217655,-0.005404513770219625
1589477944.9284167,-0.48182798499687435,-4.279139924984372,8.864569962492185,0.4844444444444445,0.29444444444444445,-0.6255555555555555,-0.004463024245212435,0.010016879272921327,-0.011799736377007793
1589477944.9384167,-0.4628677558265672,-4.37,8.919283061043359,0.4890859749661236,0.2977966609323238,-0.623492653101476,-0.004441529038293399,0.010986513733272136,-0.006020133764259805
1589477944.9484167,-0.37682388124234345,-4.333176118757657,8.960042876702458,0.5044444444444445,0.3088888888888889,-0.6166666666666667,-0.0032818465928678413,0.005444799667103806,0.01129218561745007
1589477944.9584167,-0.46573664565101475,-4.237968696088579,8.951674037828173,0.5044444444444445,0.3088888888888889,-0.6166666666666667,-0.008150796002156166,0.0012624909573901142,0.02072578486743266
1589477944.9684167,-0.6413613972234662,-4.060416480071653,8.83575011195701,0.5044444444444445,0.3088888888888889,-0.6166666666666667,-0.019141075929493344,0.002181661564992912,0.01942587411408601
1589477944.9784167,-0.78,-3.97,8.89,0.5044444444444445,0.3088888888888889,-0.6166666666666667,-0.031634092692397225,0.002181661564992912,0.017453292519943295
1589477944.9884167,-1.2952932682098108,-3.7481223189636865,8.707850499044383,0.5015359241169393,0.30463797456407354,-0.619798919327057,-0.06025240543338972,0.011619143106164097,-0.002211312518520104
1589477944.9984167,-0.6545163703730094,-3.62386013039296,8.62617763368841,0.49,0.2877777777777778,-0.6322222222222222,-0.08324007711924593,0.04893578270129563,-0.02687911354951464
1589477945.0084167,0.4541429361349184,-2.618322406098187,8.534142936134918,0.49,0.2877777777777778,-0.6322222222222222,-0.05527352755227313,0.06336525247879359,-0.0504582801956987
1589477945.0184166,0.1950578451690758,-2.8148760460662663,8.469735564941368,0.49,0.2877777777777778,-0.6322222222222222,-0.0002758626601764432,0.041462386756187596,-0.007931509343409134
1589477945.0284166,0.0817252931323283,-3.0455164712451146,8.938967057509771,0.49,0.2877777777777778,-0.6322222222222222,0.0036488929190040577,0.016400832669494454,0.043443812889273986
1589477945.0384166,0.03933545563072025,-3.0760724233983288,8.893927576601671,0.48770393951452445,0.2893084847680948,-0.6286505725781492,-8.898540008427124e-05,0.005688120403435559,0.07272972082692547
1589477945.0484166,-0.10245526433783067,-3.1872015244772345,8.87813434965149,0.48,0.29444444444444445,-0.6166666666666667,0.001608567448676244,0.010381611699987518,0.09158338773836268
1589477945.0584166,-0.21583015473191797,-3.286254767902123,8.929575386829795,0.48,0.29444444444444445,-0.6166666666666667,-0.0004085414459957939,-0.00018111166716223992,0.10445016800867792
1589477945.0684166,-0.2007373155811443,-3.3088940266282836,8.891843288952861,0.48,0.29444444444444445,-0.6166666666666667,0.0020610185851439432,0.0031116350410240754,0.11926752819551634
1589477945.0784166,-0.25780317421410626,-3.327803174214106,9.001212696856426,0.48,0.29444444444444445,-0.6166666666666667,0.0009317081231587023,-0.005613276571820034,0.13933302773393239
1589477945.0884166,-0.28350511673509404,-3.3535051167350938,9.104020466940376,0.48,0.29444444444444445,-0.6166666666666667,-0.006778321146599513,-0.013323305841578249,0.1491457922590792
1589477945.0984166,-0.2465021479267837,-3.367757517743743,8.954259665670527,0.49,0.3088888888888889,-0.6255555555555555,-0.0070634807703626856,-0.004363323129985824,0.17900392559287587
1589477945.1084166,-0.23176081506374355,-3.3047175548087693,8.846544513788874,0.49,0.3088888888888889,-0.6255555555555555,-0.005323698766893276,-0.006668224658563709,0.18865210539009433
1589477945.1184165,-0.2745800938741124,-3.30394006498977,8.753840173306052,0.49,0.3088888888888889,-0.6255555555555555,-0.011848609473364202,-0.018613939623312495,0.18267924790772
1589477945.1284165,-0.36773963001717636,-3.3496566701545873,8.868970010463762,0.49,0.3088888888888889,-0.6255555555555555,-0.013015066437172281,-0.018118093914286607,0.1850229997457637
1589477945.1384165,-0.36442641151416055,-3.287746220149781,8.670512727346132,0.4896926103115166,0.30852002126270883,-0.6247563423654988,0.0013970358504509105,-0.00672162622058859,0.19973831889826574
1589477945.1484165,-0.4321597125497083,-3.4062794969619894,8.831379317305556,0.4849889088507148,0.30287557950974653,-0.6125267185674138,-0.010609369237121205,-0.026116588285128157,0.2182097113406844
1589477945.1584165,-0.49,-3.5196599419584347,8.774204034824939,0.4844444444444445,0.3022222222222222,-0.6111111111111112,-0.009643824379517793,-0.018754870543347544,0.26779977405160305
1589477945.1684165,-0.4858153604840065,-3.5913847963699514,8.800215674191922,0.4844444444444445,0.3022222222222222,-0.6111111111111112,-0.005960979889179698,-0.022830267603323958,0.3147399703573583
1589477945.1784165,-0.47,-3.715456788649434,8.99818518297415,0.4844444444444445,0.3022222222222222,-0.6111111111111112,-0.010808652000985072,-0.03282323347855369,0.356210115858041
1589477945.1884165,-0.4615070604145045,-3.7215070604145044,9.02,0.48897401222337544,0.3022222222222222,-0.6146970189360982,-0.008006389874824838,-0.029308928747834456,0.389716338597672
1589477945.1984165,-0.432137085756665,-3.6708971856825015,9.038205628634998,0.5111111111111111,0.3022222222222222,-0.6322222222222222,-0.012465378393101993,-0.037614969825726235,0.4230839923974104
1589477945.2084165,-0.4724307964210759,-3.6334256047718987,9.030276814315696,0.5111111111111111,0.3022222222222222,-0.6322222222222222,-0.016736137250832235,-0.031706437197181365,0.43795346129349716
1589477945.2184165,-0.5571206761537008,-3.5323735587179,8.727911862393002,0.5111111111111111,0.3022222222222222,-0.6322222222222222,-0.005885679064740349,-0.019320868576504273,0.45832863751908676
1589477945.2284164,-0.6495994122808808,-3.563199804093627,8.835999020468135,0.5111111111111111,0.3022222222222222,-0.6322222222222222,-0.012653530226607767,-0.03080491170720834,0.5079338685697536
1589477945.2384164,-0.6988835451734798,-3.580223290965304,8.917097217451047,0.5111111111111111,0.3020485514714302,-0.6322222222222222,-0.02162175752320354,-0.04377937489490242,0.5589733948694937
1589477945.2484164,-0.6223317567676637,-3.6151529483930327,8.792515294839303,0.5111111111111111,0.29444444444444445,-0.6322222222222222,-0.0137759096493991,-0.051138532358055246,0.6324408459072186
1589477945.2584164,-0.4733792313031687,-3.7505643351789377,8.806056433517893,0.5111111111111111,0.29444444444444445,-0.6322222222222222,-0.01746868237456406,-0.0563084141732862,0.6605059186184722
1589477945.2684164,-0.6071210561983886,-3.8228789438016113,8.735259406139404,0.5111111111111111,0.29444444444444445,-0.6322222222222222,-0.020928859386490323,-0.057703061939382315,0.6737272745446944
1589477945.2784164,-0.6674657745753989,-3.7574657745753988,8.877602676273803,0.5111111111111111,0.29444444444444445,-0.6322222222222222,-0.012951748834810468,-0.0567232006898157,0.6928605684164352
1589477945.2884164,-0.6501963973237262,-3.7401963973237264,8.929410808028821,0.5111111111111111,0.29444444444444445,-0.6322222222222222,-0.012009850419777039,-0.0567232006898157,0.716408028792271
1589477945.2984164,-0.67,-3.7738574080406426,8.992081481119634,0.4977777777777778,0.27555555555555555,-0.6255555555555555,-0.013953745804605878,-0.05474637296429894,0.7504471373008179
1589477945.3084164,-0.6826126874826863,-3.817387312517314,8.940180062527208,0.4977777777777778,0.27555555555555555,-0.6255555555555555,-0.01764983977360218,-0.05901295676901065,0.7714827214433649
1589477945.3184164,-0.7390414299496194,-3.7595891842641223,8.849589184264122,0.4977777777777778,0.27555555555555555,-0.6255555555555555,-0.018514247939064483,-0.054586352169885693,0.7879682046863196
1589477945.3284163,-0.691056514077292,-3.7331584771115938,8.821052825703864,0.4977777777777778,0.27555555555555555,-0.6255555555555555,-0.01624761626880894,-0.05769918600367426,0.8177789528055556
1589477945.3384163,-0.8629470103684275,-3.758942051555264,8.829647350518421,0.4977777777777778,0.27555555555555555,-0.6255555555555555,-0.015310099045944122,-0.05676166878080944,0.8327792283713925
1589477945.3484163,-0.9155031729494222,-3.68,8.83,0.5111111111111111,0.2677777777777778,-0.6677777777777778,-0.02436500423353078,-0.06642622728718905,0.872087698635026
1589477945.3584163,-0.8226235510691239,-3.6965970100944716,8.842908785629033,0.5111111111111111,0.2677777777777778,-0.6677777777777778,-0.02744081673757612,-0.07845479275216247,0.9264098385699283
1589477945.3684163,-0.7942473715143996,-3.7728315810095996,8.8943368379808,0.5111111111111111,0.2677777777777778,-0.6677777777777778,-0.018003587549969096,-0.08178345826818431,0.9570060835188372
1589477945.3784163,-0.9038091817410044,-3.845872787827336,8.748254424345328,0.5111111111111111,0.2677777777777778,-0.6677777777777778,-0.004060358112160616,-0.052901054432723874,0.9659695881574284
1589477945.3884163,-0.8841407870877102,-3.8435351967719273,8.882225671017595,0.5111111111111111,0.2677777777777778,-0.6677777777777778,-0.023018110166588304,-0.07030946396003598,0.9678864745646527
1589477945.3984163,-0.8852127978420501,-3.9084575902892253,8.998031994605125,0.5263239089531612,0.2584810679854138,-0.6736938658274639,-0.02385900135298782,-0.07076472500033544,0.9802739465786555
1589477945.4084163,-0.9179298493686051,-3.9230175376578487,8.877333215499126,0.5311111111111111,0.25555555555555554,-0.6755555555555556,-0.010824094548859499,-0.058491486682251195,0.981644360353671
1589477945.4184163,-1.0389753200964928,-3.8811178326220075,8.691863054370012,0.5311111111111111,0.25555555555555554,-0.6755555555555556,-0.012121075230837497,-0.06014811381652568,1.015898784218486
1589477945.4284163,-0.9533614770829468,-3.9745147522731488,8.847524587121915,0.5311111111111111,0.25555555555555554,-0.6755555555555556,-0.022309098725418794,-0.07288314318475231,1.0439158488285842
1589477945.4384162,-0.9389282473140314,-3.9642870107438744,8.979282473140314,0.5311111111111111,0.25555555555555554,-0.6755555555555556,-0.03093263219975057,-0.07830599617552927,1.040847746622308
1589477945.4484162,-1.0303961116905094,-3.944933981384915,8.907136897617034,0.5361331173161394,0.24048953694047062,-0.6696965483163559,-0.025060301942397528,-0.06867913021474528,1.028057601906623
1589477945.4584162,-1.1050553301756547,-3.981346827807396,8.864040483422187,0.5377777777777778,0.23555555555555555,-0.6677777777777778,-0.02686623470838561,-0.07855188751150585,1.0135287130623105
1589477945.4684162,-1.0714219812869765,-3.9189335140347676,8.681244233626105,0.5377777777777778,0.23555555555555555,-0.6677777777777778,-0.02411461278691962,-0.07113667200626482,1.0067204766722313
1589477945.4784162,-1.1634044605421152,-3.8658644514871754,8.756702230271058,0.5377777777777778,0.23555555555555555,-0.6677777777777778,-0.030451874421262654,-0.08362842029767464,1.0003832150378882
1589477945.4884162,-1.2955057971299777,-3.9236587862443653,8.822752898564989,0.5377777777777778,0.23555555555555555,-0.6677777777777778,-0.029551248144019118,-0.0800259151887005,1.0012838413151317
1589477945.4984162,-1.4059313153549806,-3.834068684645019,8.907793946064944,0.5488888888888889,0.20222222222222225,-0.7033333333333334,-0.02115712229209312,-0.07895866654355999,1.0300756983345525
1589477945.5084162,-1.4412412608855636,-3.8212412608855635,8.968758739114437,0.5488888888888889,0.20222222222222225,-0.7033333333333334,-0.022907446432425576,-0.08471693163248219,1.0735767776559593
1589477945.5184162,-1.5269827057524838,-3.9069827057524837,8.883017294247518,0.5488888888888889,0.20222222222222225,-0.7033333333333334,-0.022907446432425576,-0.08191104941058541,1.125017951724067
1589477945.5284162,-1.519978073926633,-3.8501754085869346,8.880065778220102,0.5488888888888889,0.20222222222222225,-0.7033333333333334,-0.02617993877991494,-0.08291509828761456,1.1924167675560795
1589477945.5384161,-1.5134557668683035,-3.902353865053571,8.89963269939509,0.5488888888888889,0.20222222222222225,-0.7033333333333334,-0.02617993877991494,-0.08647246494367446,1.2336822207663745
1589477945.5484161,-1.472863922262815,-3.937427215547437,9.20708862189748,0.5290829807623902,0.2071736992538469,-0.7091100565368955,-0.022939204640962718,-0.09807949579906959,1.2782313696260863
1589477945.5584161,-1.3973461512725,-3.642394218544376,8.894918252180313,0.5222222222222223,0.2088888888888889,-0.7111111111111111,0.01064713909614166,-0.11169897479724539,1.2877981112341674
1589477945.568416,-1.3010526198339731,-3.5601169329643847,8.852280639114523,0.5222222222222223,0.2088888888888889,-0.7111111111111111,0.004484523845554195,-0.11311468775218611,1.2832699145588458
1589477945.578416,-1.2203490931502026,-3.383490931502025,8.442691054763163,0.5222222222222223,0.2088888888888889,-0.7111111111111111,-0.01528512467963261,-0.11774465690483284,1.2562046860016158
1589477945.588416,-1.2295811322415917,-3.475811322415918,9.04277359570347,0.5222222222222223,0.2088888888888889,-0.7111111111111111,-0.04448984271531708,-0.05832816159085408,1.2159223162972232
1589477945.598416,-1.3151075341539296,-3.5805816312728256,8.938470174489382,0.5273802545951877,0.17364233434029186,-0.7111111111111111,-0.06353849540691449,-0.06491616171506673,1.1550159857783444
1589477945.608416,-1.5196867448935245,-3.756867448935245,9.23869865275967,0.5288888888888889,0.16333333333333333,-0.7111111111111111,-0.044584742938347716,-0.0520208050657522,1.0684989685583104
1589477945.618416,-1.5123954802259887,-3.683954802259887,8.742892655367232,0.5288888888888889,0.16333333333333333,-0.7111111111111111,-0.015952013544710885,-0.06951858413964138,1.031117349627729
1589477945.628416,-1.7082711388181577,-3.9479568004214594,9.088428308016507,0.5288888888888889,0.16333333333333333,-0.7111111111111111,-0.026128505280029034,-0.055683803407205155,0.9781151774001197
1589477945.638416,-1.505719114935464,-3.708577135832821,8.904290104486787,0.5288888888888889,0.16333333333333333,-0.7111111111111111,-0.0201025966607145,-0.061709712026519696,0.9359338170649179
1589477945.648416,-1.2981726753973633,-3.496649904895166,8.866091082008788,0.5555555555555556,0.13444444444444445,-0.7533333333333333,-0.0012237175775744037,-0.04492339227497161,0.8773437102841556
1589477945.658416,-1.2431522333238594,-3.3957790944270756,9.049492555587136,0.5555555555555556,0.13444444444444445,-0.7533333333333333,-0.005224917036263824,-0.050925191463005746,0.788317022328316
1589477945.668416,-1.4214506195203245,-3.609650749945656,8.888099413086008,0.5555555555555556,0.13444444444444445,-0.7533333333333333,-0.02003861126964814,-0.023141879017084983,0.6748748186077946
1589477945.678416,-1.4576980488816198,-3.5092078044735207,8.944628780723779,0.5555555555555556,0.13444444444444445,-0.7533333333333333,-0.02374717330094891,-0.025845133561284116,0.5700642821467877
1589477945.688416,-1.4661492889108312,-3.383163510694208,8.611789109904286,0.5555555555555556,0.13444444444444445,-0.7533333333333333,-0.013265743399884039,-0.008068787967038329,0.5215308511792823
1589477945.698416,-1.5406654129900188,-3.3292723853609143,8.785447707218285,0.5469900509507049,0.11374447498272178,-0.7533333333333333,-0.03387476925994382,-0.03526951152617934,0.4626913481097766
1589477945.708416,-1.9907231643748378,-3.582072316437484,8.914096044531453,0.5422222222222223,0.10222222222222224,-0.7533333333333333,-0.0314816228662993,-0.07085925819814809,0.44642058736128015
1589477945.718416,-2.1451360639640904,-3.6027626595595454,8.719468368635152,0.5422222222222223,0.10222222222222224,-0.7533333333333333,-0.021629863094165768,-0.03644168951812978,0.49444632676141
1589477945.728416,-1.882159822522844,-3.6333751687118943,8.998910159946632,0.5422222222222223,0.10222222222222224,-0.7533333333333333,-0.029491336787885538,-0.07087661967103057,0.5728439495789417
1589477945.738416,-1.641403527823888,-3.6789236568981836,8.849250841620254,0.5422222222222223,0.10222222222222224,-0.7533333333333333,-0.015295424499376918,-0.041065203865162464,0.5749733364222179
1589477945.748416,-1.4318339431956788,-3.621467154556543,8.80454151420108,0.5525841948849006,0.08586121275483535,-0.7489703974753635,-0.015687012436270856,-0.029947833476372636,0.5250944387928652
1589477945.758416,-1.5306195295897418,-3.4330029175521375,8.977120988365812,0.5633333333333334,0.06888888888888889,-0.7444444444444445,-0.024366392822068567,-0.06628069043668251,0.3694740083511345
1589477945.768416,-2.219712818744372,-3.499197271873862,8.836699618752036,0.5633333333333334,0.06888888888888889,-0.7444444444444445,-0.012771039785350338,-0.0438959234648482,0.2884117550816875
1589477945.778416,-2.6208427834080545,-3.4683144331838904,8.837106958520137,0.5633333333333334,0.06888888888888889,-0.7444444444444445,-0.019319372214808856,-0.0022388271309972257,0.3740529973831595
1589477945.788416,-2.500606038820992,-3.5181020848310567,8.785087706685838,0.5633333333333334,0.06888888888888889,-0.7444444444444445,-0.02404525116450617,-0.03531021595559538,0.5271600910782063
1589477945.798416,-2.295759924253051,-3.7451483377752837,9.114842544536401,0.5567341141815122,0.04154926668848677,-0.7567001371549695,-0.03712110617993086,-0.055136492525025046,0.7400766614511214
1589477945.808416,-1.9215283033847619,-3.7003493264879457,8.93109164527483,0.5555555555555556,0.03666666666666667,-0.7588888888888888,-0.02080675928574855,-0.06649304572150976,0.8222434867473801
1589477945.8184159,-1.894099729288504,-3.6654663057180055,8.973167117852494,0.5555555555555556,0.03666666666666667,-0.7588888888888888,-0.04803683701562078,-0.04017138600299873,0.7942335974352367
1589477945.8284159,-1.9110076705052226,-3.589974431649258,8.734910510772403,0.5555555555555556,0.03666666666666667,-0.7588888888888888,-0.028680203449002115,-0.048983043560578914,0.7393466964850266
1589477945.8384159,-2.143147661586968,-3.5423830793483972,8.718084603258013,0.5555555555555556,0.03666666666666667,-0.7588888888888888,-0.007013875698700279,-0.03980844496448903,0.6921438824299135
1589477945.8484159,-2.26711737690911,-3.3080422941364946,8.862206557727225,0.5555555555555556,0.0037840435757769963,-0.7643693260707038,-0.028501405635839795,-0.04200671324427423,0.6822040335150833
1589477945.8584158,-2.430537248365175,-3.4210629567893323,8.974742915758432,0.5555555555555556,-0.0033333333333333327,-0.7655555555555555,-0.055576282826439505,-0.04885800163966528,0.7511274184315749
1589477945.8684158,-2.4820501739222096,-3.5982006956888375,9.038870243491093,0.5555555555555556,-0.0033333333333333327,-0.7655555555555555,-0.049384060830027596,-0.03624389045771133,0.8484289346998459
1589477945.8784158,-2.4508601416503115,-3.6691398583496886,8.903225531188669,0.5555555555555556,-0.0033333333333333327,-0.7655555555555555,-0.012773210523771332,-0.04235474671946837,0.9354989550565717
1589477945.8884158,-2.425074939987493,-3.6201498799749863,8.858458233312488,0.5555555555555556,-0.0033333333333333327,-0.7655555555555555,-0.04100076283915588,-0.04526130278908318,0.9642126648816697
1589477945.8984158,-2.5685757229743897,-3.6569186493603336,8.9203779740405,0.5729328330964198,-0.038087888415062,-0.771637602694858,-0.05884779527960986,-0.054344944030752754,0.9953387191370541
1589477945.9084158,-2.6675716620290624,-3.6843929155072654,8.990375204275429,0.5777777777777777,-0.04777777777777778,-0.7733333333333333,-0.047262131081361895,-0.04887308304721776,1.0542842655553892
1589477945.9184158,-2.6452671726537558,-3.606125948725792,8.965267172653755,0.5777777777777777,-0.04777777777777778,-0.7733333333333333,-0.04145156973486533,-0.05435418324989309,1.1208244685635225
1589477945.9284158,-2.565680031292783,-3.5252266770975944,8.98170663015842,0.5777777777777777,-0.04777777777777778,-0.7733333333333333,-0.03822853065852454,-0.048194367514438376,1.2194149624483
1589477945.9384158,-2.315365804970556,-3.297097514722028,8.642182852580099,0.5777777777777777,-0.04777777777777778,-0.7733333333333333,-0.02621053299589273,-0.035954845222926406,1.2797573608656259
1589477945.9484158,-2.298935276875545,-3.207697853125248,9.222683593440545,0.5341502724303959,-0.10870584559050059,-0.7680679447569252,-0.03405197274300798,-0.1176826063854746,1.3105076225356516
1589477945.9584157,-2.487437244149224,-3.253048582683247,9.150251023403104,0.5133333333333333,-0.13777777777777778,-0.7655555555555555,-0.07134254061842119,-0.13791060075622838,1.325791537219131
1589477945.9684157,-2.423197654624551,-3.250942689616039,8.592051446945337,0.5133333333333333,-0.13777777777777778,-0.7655555555555555,-0.04083049562450579,-0.08108840309172312,1.3902991754566738
1589477945.9784157,-2.443923212519885,-3.4450584719893373,9.068848187798272,0.5133333333333333,-0.13777777777777778,-0.7655555555555555,-0.041548088491061966,-0.10226129389525355,1.4092149711557143
1589477945.9884157,-2.434644240929905,-3.303408770693906,8.906629975343431,0.5133333333333333,-0.13777777777777778,-0.7655555555555555,-0.03584218664445822,-0.10606388995053974,1.3797090166541222
1589477945.9984157,-2.6391954022988506,-3.3480603448275863,9.078419540229886,0.49008939974457216,-0.16465357598978286,-0.7190676883780331,-0.04379936357420396,-0.08798271212213153,1.3408457498163082
1589477946.0084157,-2.662131902808457,-3.304143893972862,8.866515620069421,0.4777777777777778,-0.17888888888888888,-0.6944444444444444,-0.04908738521234052,-0.08638202567559328,1.3035754859113926
1589477946.0184157,-2.673088659410178,-3.255183505442367,8.995076286166155,0.4777777777777778,-0.17888888888888888,-0.6944444444444444,-0.043673265976916086,-0.09738082544125364,1.2710180349936606
1589477946.0284157,-2.5687465463252903,-3.051333118438018,8.610879535826118,0.4777777777777778,-0.17888888888888888,-0.6944444444444444,-0.02953968352513853,-0.09146397101184355,1.2384914259119608
1589477946.0384157,-2.751077156610142,-3.1846925120338745,8.961731280084686,0.4777777777777778,-0.17888888888888888,-0.6944444444444444,-0.03265570483994468,-0.08944812416470939,1.1948519457649969
1589477946.0484157,-2.844354245860953,-3.193948352235242,8.988782319122867,0.47517015208793667,-0.1693275946928047,-0.6666297704194722,-0.037704102845407414,-0.07238125393446576,1.1443418736052287
1589477946.0584157,-2.863593135823544,-3.1306781069607603,8.977186271647088,0.4744444444444445,-0.16666666666666666,-0.6588888888888889,-0.025311017981405153,-0.07792595603955692,1.1020978901232865
1589477946.0684156,-2.782916823283037,-2.945833646566074,8.911625140954733,0.4744444444444445,-0.16666666666666666,-0.6588888888888889,-0.032265846727977714,-0.07977154780673332,1.0455159391612279
1589477946.0784156,-2.6137455915357486,-2.800949022122475,8.743745591535749,0.4744444444444445,-0.16666666666666666,-0.6588888888888889,-0.02813418363560413,-0.08206560596014957,1.0092513988817264
1589477946.0884156,-2.4679692084424394,-2.6955784459097076,8.731413856200902,0.4744444444444445,-0.16666666666666666,-0.6588888888888889,-0.031701389900182564,-0.07487193784025048,0.9766132421838407
1589477946.0984156,-2.36,-2.643200213703753,8.924356885267796,0.4715802205304009,-0.16380244275262307,-0.6551653978006322,-0.02777487995474982,-0.06798059767664236,0.9340855236176648
1589477946.1084156,-2.206948464279316,-2.6275876346119396,9.147704480761192,0.4633333333333333,-0.15555555555555556,-0.6444444444444445,0.0004693197550187788,-0.06456518767991713,0.8554017625626066
1589477946.1184156,-1.8976006339144216,-2.4276006339144214,8.789667194928684,0.4633333333333333,-0.15555555555555556,-0.6444444444444445,-0.0034979191843158937,-0.03000770029909664,0.7585253482663057
1589477946.1284156,-1.9437594679475336,-2.3866291027772646,9.186904981833857,0.4633333333333333,-0.15555555555555556,-0.6444444444444445,-0.02781756201080854,-0.02395864483844116,0.6021877629542877
1589477946.1384156,-2.1884734647098147,-2.554266021457451,9.400920059851645,0.4633333333333333,-0.15555555555555556,-0.6444444444444445,-0.06993909260428155,-0.07901794687406119,0.41244943582473625
1589477946.1484156,-2.399264868428707,-2.4851645368341444,8.919187884193992,0.4880915321651035,-0.1605071953219096,-0.6487771292400043,-0.03221858795470485,-0.07069092830953277,0.2814111795247839
1589477946.1584156,-2.1431092407627297,-2.1898899909198857,8.553255919536216,0.5077777777777778,-0.16444444444444445,-0.6522222222222223,-0.026565771502032848,-0.055275870834098545,0.17704041884107224
1589477946.1684155,-1.9461154546428188,-2.1416536360715432,9.274476812680732,0.5077777777777778,-0.16444444444444445,-0.6522222222222223,-0.08183100129997913,-0.08001863566552829,0.08786042036968669
1589477946.1784155,-1.8993368801622525,-2.054275888421857,8.001607830457658,0.5077777777777778,-0.16444444444444445,-0.6522222222222223,0.05529900617181421,0.09084330125646942,0.030240614963720935
1589477946.1884155,-1.9325938484860572,-2.193276419196553,9.071091873778274,0.5077777777777778,-0.16444444444444445,-0.6522222222222223,0.058789456213591856,0.006541285783401268,-0.0638228915715931
1589477946.1984155,-2.3666541560164363,-2.543679425372893,9.314265700326786,0.494972803715807,-0.1693694344682794,-0.6453272361888533,-0.04218388435310775,-0.020548573835662682,-0.19403351513421013
1589477946.2084155,-2.0023592101138856,-2.3149587294953506,8.290150454497963,0.4933333333333334,-0.17,-0.6444444444444445,0.01839003248455915,0.10695384403393159,-0.2526006674506708
1589477946.2184155,-1.9861225324987961,-2.477050312951372,9.106958353394319,0.4933333333333334,-0.17,-0.6444444444444445,0.02489481197046395,0.046915754878905466,-0.3545099730797903
1589477946.2284155,-2.0163482821115952,-2.5273034357768096,9.222248100875332,0.4933333333333334,-0.17,-0.6444444444444445,0.0017344011743599397,0.0031193814830198854,-0.4654778914456831
1589477946.2384155,-1.9602684324131328,-2.493867439180746,9.187198013535225,0.4933333333333334,-0.17,-0.6444444444444445,0.007286244017794008,0.007431748313708105,-0.5600748207118771
1589477946.2484155,-1.8934822127025517,-2.479761966846713,9.277678524864966,0.49829366114111884,-0.16490188530866498,-0.6400352641708574,0.032886160820579866,0.03204856369189299,-0.6535397005534517
1589477946.2584155,-2.2481297658411497,-2.708652068290708,9.008087590255752,0.5333333333333333,-0.1288888888888889,-0.6088888888888889,0.009551891141715878,0.05914656161875538,-0.8584691405732695
1589477946.2684155,-2.1301427293255504,-2.6348915683183503,8.94,0.5333333333333333,-0.1288888888888889,-0.6088888888888889,0.025151989598062585,0.05997203691407681,-0.9754150204769922
1589477946.2784154,-2.1755398226513423,-2.740737673460319,9.272662451774496,0.5333333333333333,-0.1288888888888889,-0.6088888888888889,0.027578781025608887,0.054147198960515945,-1.0718688749924508
1589477946.2884154,-2.0697258140355004,-2.6984595039379333,8.848498589396968,0.5333333333333333,-0.1288888888888889,-0.6088888888888889,0.02764102627858144,0.08518876142697807,-1.171602108816228
1589477946.2984154,-2.132527225236086,-2.760118143459916,8.466804500703235,0.5426505034268747,-0.1149131337485768,-0.6164590895898913,0.06302472650731863,0.11079816144016022,-1.2537518063451116
1589477946.3084154,-2.331560095516052,-3.0291998635484974,8.969879467839139,0.5511111111111111,-0.10222222222222224,-0.6233333333333333,0.027131268252471544,0.06329009875001915,-1.3722300629961819
1589477946.3184154,-1.9418770637541276,-2.882073914147828,8.672794005588012,0.5511111111111111,-0.10222222222222224,-0.6233333333333333,0.031033955665501788,0.09432361409719578,-1.452012557170759
1589477946.3284154,-1.6587616742685158,-2.782809581432871,8.179427534208322,0.5511111111111111,-0.10222222222222224,-0.6233333333333333,0.08131118111375557,0.11924335010936288,-1.5431362576681094
1589477946.3384154,-1.6244926431901885,-2.801014713619623,8.171161849815853,0.5511111111111111,-0.10222222222222224,-0.6233333333333333,0.02728515723234147,0.09831672744862645,-1.6589339064060455
1589477946.3484154,-1.8169567483064095,-3.0726089977418796,8.562450929303456,0.5464690328681991,-0.07901183100766218,-0.6491963406867002,0.030004383545228205,0.11893939849350536,-1.7695259137548958
1589477946.3584154,-1.3550810376600673,-2.8486088928790814,8.81734158673156,0.5433333333333333,-0.06333333333333334,-0.6666666666666666,0.07012212626321994,0.14884487311598654,-1.8819676240193703
1589477946.3684154,-1.7868590071647903,-3.310868730808598,9.57584442169908,0.5433333333333333,-0.06333333333333334,-0.6666666666666666,0.010448165925029708,0.07052117731616067,-2.0448438070579
1589477946.3784153,-1.367513633130483,-3.506484232988224,8.710648857978345,0.5433333333333333,-0.06333333333333334,-0.6666666666666666,0.04753515188910898,0.16393734863689674,-2.1319680716784344
1589477946.3884153,-1.4783141113405889,-3.7677806140208387,9.111894971341053,0.5433333333333333,-0.06333333333333334,-0.6666666666666666,0.07806027909834569,0.18580437920604406,-2.2126797064767487
1589477946.3984153,-1.505814085760918,-3.674251446659083,9.201815866264404,0.5547082776925993,-0.045007034087849174,-0.6540278396008156,0.03511132824279346,0.1638836350601485,-2.3644092784450494
1589477946.4084153,-1.1237260665766267,-3.3007475967267816,8.900633987447366,0.5633333333333334,-0.031111111111111114,-0.6444444444444445,0.051732262041688994,0.19075577238292715,-2.519643614412403
1589477946.4184153,-0.9572568559583128,-3.236366437183827,8.752681525997488,0.5633333333333334,-0.031111111111111114,-0.6444444444444445,0.07913491678907528,0.19892756263135655,-2.63228637100433
1589477946.4284153,-1.0806113828368162,-3.506782570031125,9.003442863494886,0.5633333333333334,-0.031111111111111114,-0.6444444444444445,0.06912665967979742,0.19875337006216398,-2.751033132917191
1589477946.4384153,-1.3138055731650173,-3.8651770899368816,9.23836470880075,0.5633333333333334,-0.031111111111111114,-0.6444444444444445,0.0520968286219268,0.21786200710440862,-2.877867256885268
1589477946.4484153,-1.5236365499573012,-4.274862852263023,8.98661759180188,0.5907940032261125,-0.002865850649966792,-0.6499365784230003,0.09870522531860482,0.24986713360687482,-2.965466165279343
1589477946.4584153,-1.3616597216762323,-4.420680871137669,9.179659564431166,0.6022222222222222,0.008888888888888889,-0.6522222222222223,0.08101393273360108,0.24306495444824988,-2.9986984523322464
1589477946.4684153,-1.0543232555172852,-4.284354418384269,8.749657208463178,0.6022222222222222,0.008888888888888889,-0.6522222222222223,0.051382696105482656,0.21354154129843017,-2.9770943060647537
1589477946.4784153,-1.0470807937632884,-4.522295535081502,8.830380935506732,0.6022222222222222,0.008888888888888889,-0.6522222222222223,0.04991722062122195,0.19923054013642888,-2.925425516010304
1589477946.4884152,-1.1143961352657006,-4.533526570048309,9.48487922705314,0.6022222222222222,0.008888888888888889,-0.6522222222222223,0.1002721165668723,0.2508594616906342,-2.9257715197871734
1589477946.4984152,-0.8681934746730988,-3.8937476196521517,8.972773898692395,0.6580717419209231,0.015416754827698081,-0.6290120322175674,0.06500960941550321,0.22504377741866455,-3.033783480680783
1589477946.5084152,-0.9656035963064961,-3.935603596306496,9.035961283006642,0.6877777777777778,0.01888888888888889,-0.6166666666666667,0.030543261909900768,0.19853120241435496,-3.0837786221174808
1589477946.5184152,-1.0345460608586912,-4.126103376406837,9.287402250937891,0.6877777777777778,0.01888888888888889,-0.6166666666666667,0.046863072572984055,0.20720110182911797,-3.1046883795295566
1589477946.5284152,-0.954658377131137,-4.077825919753878,8.779812844507115,0.6877777777777778,0.01888888888888889,-0.6166666666666667,0.06894593094209299,0.22406749370140605,-3.1488965074882853
1589477946.5384152,-0.95,-3.996107939296345,8.561754013565608,0.6877777777777778,0.01888888888888889,-0.6166666666666667,0.06628424493597888,0.2424650203256785,-3.1583355194743685
1589477946.5484152,-0.9074019637738611,-4.066147872578317,8.942900327295643,0.7942728683431252,-0.009904228189890205,-0.6012840424738943,0.058975712702046455,0.24212165734090435,-3.1409220247242637
1589477946.5584152,-0.8265132791697958,-4.174407045811429,9.034601624906124,0.9877777777777778,-0.06222222222222223,-0.5733333333333334,0.06641131519598312,0.22622476479114698,-3.1226469627595854
1589477946.5684152,-0.6516720404173754,-3.9646058544263623,8.399969026885678,0.9877777777777778,-0.06222222222222223,-0.5733333333333334,0.08015713380649425,0.23682385204370252,-3.09483146384414
1589477946.5784152,-0.6742569158328429,-4.148656562683931,8.649512948793408,0.9877777777777778,-0.06222222222222223,-0.5733333333333334,0.05492804891355904,0.20927434471913284,-3.0625729102283197
1589477946.5884151,-0.8845564951421375,-4.256383591219863,9.078476070528968,0.9877777777777778,-0.06222222222222223,-0.5733333333333334,0.03928148769779024,0.20787480199652483,-2.9897777808492143
1589477946.5984151,-0.9992581140977981,-4.03937660852159,8.841215863597368,1.170539807930607,0.005670614494963928,-0.5829343405458647,0.04782177429749703,0.20840375518174004,-2.8650139435810393
1589477946.6084151,-0.978484727127098,-4.133393890850839,9.143229329741144,1.58,0.15777777777777774,-0.6044444444444445,0.04810612599313484,0.18692023070055258,-2.7023457131791373
1589477946.618415,-0.6509608674647056,-4.019519566267647,8.636770626442644,1.58,0.15777777777777774,-0.6044444444444445,0.06504516975091286,0.1794203202336188,-2.4281185282134037
1589477946.628415,-0.598503161063723,-3.994003612644255,8.66797109884596,1.58,0.15777777777777774,-0.6044444444444445,0.02492681339449533,0.15473567651157358,-2.278152394816158
1589477946.638415,-0.56,-3.893121527506065,8.887283564180818,1.58,0.15777777777777774,-0.6044444444444445,0.0285809786304557,0.14225819669651568,-2.134361273422647
1589477946.648415,-0.48967410101973885,-3.9190130598127495,8.826880851571353,1.1989177781753368,0.2263004485790579,-0.6543337573962537,0.059316208694853725,0.1542540368360107,-1.9452041687660484
1589477946.658415,-0.46906287806951574,-3.980937121930484,8.96,0.8755555555555555,0.28444444444444444,-0.6966666666666667,0.04645110084534323,0.1379557993189158,-1.8004155466546152
1589477946.668415,-0.5029430158677356,-3.910506303848841,8.986803832207844,0.8755555555555555,0.28444444444444444,-0.6966666666666667,0.02924185626193653,0.10937649688865514,-1.661808140792923
1589477946.678415,-0.3995124959560013,-3.892720195729537,8.937955758654157,0.8755555555555555,0.28444444444444444,-0.6966666666666667,0.03664404891140052,0.09969952052908085,-1.435509179854384
1589477946.688415,-0.3445189359192766,-3.8772485912724415,8.981319093172585,0.8755555555555555,0.28444444444444444,-0.6966666666666667,0.06902247143080176,0.06662616021268387,-1.2749470656641106
1589477946.698415,-0.42189712884823916,-3.894373202583565,10.082830135307152,0.7555268492763189,0.3128296114699396,-0.6966666666666667,0.0368987873336185,0.07796465008301764,-1.0930386721364607
1589477946.708415,-0.2657833417529679,-3.894725625157868,9.759434200555695,0.5466666666666666,0.3622222222222222,-0.6966666666666667,-0.01888747048830447,0.10006674464086182,-0.8949384179481441
1589477946.718415,-0.08820297991794429,-3.6091513711941268,8.621048153746491,0.5466666666666666,0.3622222222222222,-0.6966666666666667,0.022511770002186415,0.07014529519385652,-0.7339821335909035
1589477946.728415,-0.09792000000000001,-3.6448,8.8852,0.5466666666666666,0.3622222222222222,-0.6966666666666667,0.01737475270360355,0.04449716927959543,-0.6067375345170487
1589477946.738415,-0.10941927124234334,-3.6294192712423436,8.900580728757657,0.5466666666666666,0.3622222222222222,-0.6966666666666667,0.0018368471620367408,0.010873036144841041,-0.49171152775669696
1589477946.748415,-0.08463277903754095,-3.710333837238599,9.010934744268077,0.49968841857730745,0.37900016796842195,-0.6882776937935668,0.015980918317492016,0.031019486913269556,-0.35189406762418207
1589477946.758415,-0.03511061644504325,-3.642455821764005,8.843363013297406,0.4533333333333333,0.3955555555555556,-0.68,0.03311347589584735,0.016265930678804035,-0.22112977927895633
1589477946.768415,-0.00884977885425442,-3.73915148483572,8.888202401010952,0.4533333333333333,0.3955555555555556,-0.68,-0.000518334161575363,0.013940831185023945,-0.10392305578393901
1589477946.778415,0.018141425242056197,-3.9525657009682247,9.053064213577885,0.4533333333333333,0.3955555555555556,-0.68,-0.024760765389639745,0.005582713085363041,0.0077812196223652486
1589477946.788415,0.010779125387412887,-3.883593041795804,8.713895626937065,0.4533333333333333,0.3955555555555556,-0.68,-0.007380847290670855,-0.013651888240526329,0.09189878527682897
1589477946.798415,0.05586377398376896,-3.8986212579945896,8.939318869918846,0.4533333333333333,0.3955555555555556,-0.68,0.0073730694614114,-0.02512715682547919,0.17058634128793432
1589477946.808415,0.0440392897174208,-3.676222641732051,9.202314317739367,0.4388888888888889,0.4155555555555556,-0.7022222222222222,0.02214689157382934,-0.03197151168849714,0.2985716446245281
1589477946.818415,0.12119396345219355,-3.930064677297926,9.517314694408324,0.4388888888888889,0.4155555555555556,-0.7022222222222222,-0.0318969268426798,-0.0024792864308078536,0.38706578546452536
1589477946.828415,0.1368044104499851,-3.4238273567100426,8.56990265223006,0.4388888888888889,0.4155555555555556,-0.7022222222222222,-0.01898947092497481,-0.060006312031711015,0.45175900294327676
1589477946.838415,0.03264477997417306,-3.7224182974073705,8.979597198768253,0.4388888888888889,0.4155555555555556,-0.7022222222222222,-0.012172239051986503,-0.015315569753232117,0.4994796260541948
1589477946.848415,0.06465802978043242,-3.487407251619416,8.867179271473038,0.4398812895506763,0.41919435798210936,-0.6999066206780516,0.0015570056268711507,-0.04409940614423293,0.5815883567708647
1589477946.858415,0.21629522292993633,-3.5883025477707005,9.027409554140126,0.44222222222222224,0.42777777777777776,-0.6944444444444444,-0.0064475742008984795,-0.04441251525250029,0.6301008926328237
1589477946.8684149,0.24377804322669755,-3.4804770614804585,8.797818880883945,0.44222222222222224,0.42777777777777776,-0.6944444444444444,-0.002883744671932473,-0.04571081419524568,0.6228123374706735
1589477946.8784149,-0.027217932323431046,-3.707514509148141,8.912543527444422,0.44222222222222224,0.42777777777777776,-0.6944444444444444,-0.00438266429155822,0.0008197057894143273,0.6290605231300147
1589477946.8884149,-0.42745537258240446,-3.823026151267658,9.177716885258985,0.44222222222222224,0.42777777777777776,-0.6944444444444444,-0.0037841720505135887,-0.011430405688911292,0.8095508557496089
1589477946.8984149,-0.4204995571302037,-3.6840389725420724,8.492116917626218,0.44007479578781616,0.414034248597579,-0.6888611357149886,0.025061861382656397,-0.11201566424701781,1.0831358360677947
1589477946.9084148,-0.6963633945198191,-4.021758446395317,9.253780260707636,0.43666666666666665,0.3922222222222223,-0.68,0.029465199564336964,-0.10468783402732813,1.3588965709120533
1589477946.9184148,-4.973269457231559,-12.459162830532062,9.206437212289904,0.43666666666666665,0.3922222222222223,-0.68,0.023790410948693178,-0.03918676166338087,1.9043823296361793
1589477946.9284148,-4.160945583934888,-27.397791047217847,3.3879730475859393,0.43666666666666665,0.3922222222222223,-0.68,-1.1822389266512439,-0.5122747336719176,5.655514056411233
1589477946.9384148,11.89627019532192,-11.64371217144924,5.873119423679769,0.43666666666666665,0.3922222222222223,-0.68,-2.7405348870274957,-1.9454913082431382,8.859329256371067
1589477946.9484148,3.4257463226428744,-1.2957662165420771,8.21199541837473,0.43666666666666665,0.3922222222222223,-0.68,-2.8219012426793126,-4.2072001772089,7.229933507174087
1589477946.9584148,0.4327152745731426,-1.2516123673281032,-0.745545916012921,0.4266666666666667,0.38666666666666666,-0.6733333333333333,-0.6269654374353788,-1.8429486903842853,6.371257182447505
1589477946.9684148,2.9566502999538535,-1.7238824180895247,7.329497738809416,0.4266666666666667,0.38666666666666666,-0.6733333333333333,-0.4453902858949357,-1.1774546465988474,6.261467555934679
1589477946.9784148,0.9642218999274836,-1.3347454677302393,2.5237273386511965,0.4266666666666667,0.38666666666666666,-0.6733333333333333,0.28248277344254885,0.5346407675438158,6.030297508524346
1589477946.9884148,0.9414102610587382,-1.669316171138506,4.196580855692531,0.4266666666666667,0.38666666666666666,-0.6733333333333333,0.7129697087184581,1.4180099121851324,5.966429504639479
1589477946.9984148,1.6687280100985689,-0.0003964225284018852,7.330038675368625,0.4461635287692817,0.3610129007421731,-0.6842789401277839,3.361671872921396,0.23458943967751542,6.128195254278787
1589477947.0084147,-4.123280856099192,2.8320198590317434,2.8488593918814633,0.49,0.3033333333333333,-0.7088888888888889,1.7937314515801073,0.6335032460037616,5.762196062358902
1589477947.0184147,-3.002506175500257,-0.7753671314179611,9.388329547903645,0.49,0.3033333333333333,-0.7088888888888889,-1.0143345716830832,-0.7286695012295525,5.147591780145102
1589477947.0284147,-0.5272112956302135,-1.4594084334583302,16.03976697023035,0.49,0.3033333333333333,-0.7088888888888889,-1.3543761924300897,-1.6652852128130906,4.815767465267695
1589477947.0384147,-0.9639538936861285,-1.0674423671076605,6.1293396973778025,0.49,0.3033333333333333,-0.7088888888888889,0.08426233553742418,-0.007253856192152103,4.563026869631606
1589477947.0484147,0.865930085014592,2.381031912193884,10.77118544600939,0.5074690535606029,0.2552218415598697,-0.709461644743335,0.17857872951010054,-0.32048545411950424,3.9689351360668206
1589477947.0584147,-0.5148938186019638,4.648083419988446,13.507395956094742,0.5577777777777778,0.11666666666666667,-0.7111111111111111,-0.14849737183193026,0.1062831658099608,1.014545501015573
1589477947.0684147,-14.421457412036146,-12.367794654874062,11.260936358392616,0.5577777777777778,0.11666666666666667,-0.7111111111111111,-0.21814245646498584,-0.1552871340671832,-1.2828639808148092
1589477947.0784147,-13.138693779904305,-13.9433990430622,8.497657894736843,0.5577777777777778,0.11666666666666667,-0.7111111111111111,-0.022493713627983053,-0.18344130699934014,-0.7824684476606789
1589477947.0884147,-1.3652053195068374,-1.781054204349805,5.500344936771487,0.5577777777777778,0.11666666666666667,-0.7111111111111111,0.20066880418185576,0.15358073212225137,-0.14584246304414036
1589477947.0984147,-3.4198494170984457,-2.6423056994818652,8.045778821243523,0.557231937248129,0.0978351683937824,-0.7092006692573403,0.3002282117419739,0.11381148350842354,-0.12370349594438476
1589477947.1084146,-3.712927869828356,-4.150431590435559,8.305821510070444,0.5555555555555556,0.04,-0.7033333333333334,0.16124019050825444,0.06405300128114061,-0.06727173133165557
1589477947.1184146,-1.9131179216561802,-4.398085244570733,9.517696772884108,0.5555555555555556,0.04,-0.7033333333333334,-0.150020914729446,-0.12658286447048686,-0.015617366970770652
1589477947.1284146,-2.3213930048242593,-3.9738757753273606,8.772859235010337,0.5555555555555556,0.04,-0.7033333333333334,-0.008375283725878403,0.0009292923508018129,-0.008573095476150212
1589477947.1384146,-2.6479672685548645,-3.3895736457515553,8.731390180566459,0.5555555555555556,0.04,-0.7033333333333334,0.07672514663955582,0.046013046074208565,0.012302428958485455
1589477947.1484146,-2.46947875610538,-3.7665706149697327,8.759464989533633,0.5561987499030893,0.03951760423934977,-0.7054237149628177,-0.03952727486834326,-0.0008888212725465215,0.0023253104863758443
1589477947.1584146,-2.2480059215116825,-4.130418843230807,9.139132705979973,0.5597141917220368,0.03688102287513908,-0.7168489008743972,-0.08266823655790599,-0.04748105989727426,-0.002851604916371683
1589477947.1684146,-2.4822360447707994,-3.701987238896414,8.7222360447708,0.56,0.03666666666666667,-0.7177777777777777,0.040848568245774465,0.01924872673188362,0.003272492347489368
1589477947.1784146,-2.489711449347687,-3.5749053610893275,8.729711449347686,0.56,0.03666666666666667,-0.7177777777777777,0.042479448530591206,0.0070171245957580605,0.003272492347489368
1589477947.1884146,-2.351726108582919,-3.837242036194306,8.942401312308181,0.56,0.03666666666666667,-0.7177777777777777,-0.027348578848833523,-0.010458076048931522,-0.0007899836008702771
1589477947.1984146,-2.33158285390646,-3.8278895281247207,9.08105523593764,0.56026380898441,0.03687185143231884,-0.7176019051215045,0.0014937101277473306,0.002498209621975742,8.633128826804455e-05
1589477947.2084146,-2.3992150204535525,-3.7592150204535524,9.062866873187973,0.57,0.04444444444444445,-0.7111111111111111,0.010130204394763693,0.008149583389212171,0.0026693706691651928
1589477947.2184145,-2.438861163165335,-3.798576453956669,8.811423546043331,0.57,0.04444444444444445,-0.7111111111111111,-0.016614754683985374,-0.01789192720780581,3.105695688733047e-05
1589477947.2284145,-2.40848476549127,-3.6990914070523795,8.88545429647381,0.57,0.04444444444444445,-0.7111111111111111,0.016009830738855493,0.007756985702704229,0.0017078603411725297
1589477947.2384145,-2.402652922473955,-3.6310050190965626,8.98155432022236,0.57,0.04444444444444445,-0.7111111111111111,0.014935933665610053,0.011543602402744744,0.0021251448868460122
1589477947.2484145,-2.3122208619509057,-3.8533803664432593,9.079122694167202,0.57,0.04376550766939413,-0.7107150646589985,-0.02643758878711842,-0.00610062161482248,-0.001959480024914784
1589477947.2584145,-2.5210960097939537,-3.7402396613616085,8.722294316601996,0.57,0.03216133278922481,-0.7039459626455663,-0.0121971237267625,0.0014942930840340088,0.0018379773245134601
1589477947.2684145,-2.4600866518120705,-3.708205450494201,8.871621245881657,0.57,0.031111111111111114,-0.7033333333333334,0.0065260802021856554,0.0013891893819406292,0.0005967171988883466
1589477947.2784145,-2.506272252756749,-3.671397905216219,8.68258114694597,0.57,0.031111111111111114,-0.7033333333333334,0.011009966361022163,0.007330839869302378,0.0010400015144676536
