time,acc_x,acc_y,acc_z,mag_x,mag_y,mag_z,gyr_x,gyr_y,gyr_z
1589477975.6477196,-0.39,-4.43,8.88,0.4977777777777778,0.2911111111111111,-0.6222222222222222,-0.11017390903214204,0.001090830782496456,0.03381575425739013
1589477975.6577196,-0.453415482310251,-4.547771610004752,8.843762581537,0.4977777777777778,0.2911111111111111,-0.6222222222222222,0.0143420993114442,0.03469038858949592,0.03381575425739013
1589477975.6677196,-0.42309885793263985,-4.467465143910187,8.777183142988772,0.4977777777777778,0.2911111111111111,-0.6222222222222222,0.07631252825988064,-0.03685805091854631,-0.038148659710795105
1589477975.6777196,-0.38,-4.4073661029270275,8.785803382437836,0.4977777777777778,0.2911111111111111,-0.6222222222222222,-0.012700222042107346,0.01234968032478418,0.013148393009511332
1589477975.6877196,-0.38,-4.396584754262789,8.836830491474423,0.49531121141201384,0.2899726958653739,-0.6197556558564583,-0.04307304538146488,0.026791000958474896,0.027911372795261624
1589477975.6977196,-0.38,-4.383636720026135,8.87,0.4833333333333333,0.28444444444444444,-0.6077777777777778,0.002678076880255102,0.014776926187795341,0.06177851180198109
1589477975.7077196,-0.38,-4.402856442588868,8.852861344466794,0.4833333333333333,0.28444444444444444,-0.6077777777777778,0.03256832663177503,0.05719299121917165,-0.05625127131272613
1589477975.7177196,-0.38,-4.40994607934281,8.810323523943138,0.4833333333333333,0.28444444444444444,-0.6077777777777778,0.04030192063969391,0.033992209195415034,-0.10110611655865559
1589477975.7277195,-0.3728828524941466,-4.37864855748244,8.811531409976586,0.4833333333333333,0.28444444444444444,-0.6077777777777778,0.0041762728577064805,-0.006359038283366633,0.06542058381994223
1589477975.7377195,-0.38,-4.398040518743145,8.838040518743144,0.48093841179717683,0.2818318027686374,-0.6079954979174284,0.06043768396020835,0.16363186658864975,-0.017239898176274075
1589477975.7477195,-0.37692403621970394,-4.39,8.836151927560593,0.4711111111111111,0.27111111111111114,-0.6088888888888889,-0.03331041032171537,0.09339984986394137,-0.081412954490877
1589477975.7577195,-0.37,-4.392287855411064,8.83512893982808,0.4711111111111111,0.27111111111111114,-0.6088888888888889,-0.043661361606570186,0.017654291976449136,0.051132001693352164
1589477975.7677195,-0.3730185917462259,-4.406981408253774,8.744148733969809,0.4711111111111111,0.27111111111111114,-0.6088888888888889,-0.029739550810787902,-0.07529239453565845,-0.07168423811608594
1589477975.7777195,-0.3785269259701757,-4.401473074029824,8.808838444178946,0.4711111111111111,0.27111111111111114,-0.6088888888888889,-0.06334536749113595,0.026930955910976603,-0.100582186030549
1589477975.7877195,-0.372340369042878,-4.407659630957122,8.845957785742732,0.4711111111111111,0.27111111111111114,-0.6088888888888889,-0.09573810381415832,-0.0203084512267643,-0.023649437263370987
1589477975.7977195,-0.3700717664030971,-4.390143532806194,8.88978470079071,0.49,0.27111111111111114,-0.6311111111111111,-0.06661896273393117,-0.06141016158615386,0.044019497067528446
1589477975.8077195,-0.37773104946951297,-4.405462098939026,8.86680685159146,0.49,0.27111111111111114,-0.6311111111111111,-0.07497394447463146,0.020468659472708962,-0.03117533859877414
1589477975.8177195,-0.3907156626506024,-4.385706024096385,8.741431325301205,0.49,0.27111111111111114,-0.6311111111111111,-0.11910741886460158,0.05780141463434593,0.28124246080668264
1589477975.8277194,-0.39849008341056535,-4.339059499536608,8.75698016682113,0.49,0.27111111111111114,-0.6311111111111111,0.032694918046140664,-0.013435436206449311,0.07770860126155338
1589477975.8377194,-0.38064468836929555,-4.189355311630705,8.863868130215772,0.4890687834665731,0.2724004878497022,-0.6301798945776842,-0.005526077722440133,0.08807599501487492,0.069644555081742
1589477975.8477194,-0.38852811818660254,-4.181471881813398,8.911168709119615,0.4776816070637964,0.2881673474843161,-0.6187927181749076,0.02027238602666643,0.08463619984832738,-0.05246817333069574
1589477975.8577194,-0.3467344289052936,-4.148163927736766,8.878570501168529,0.4755555555555556,0.2911111111111111,-0.6166666666666667,-0.044990163771181216,0.14982150274226116,0.12867155760988333
1589477975.8677194,-0.33117520495604114,-4.187061987609898,8.824113217346143,0.4755555555555556,0.2911111111111111,-0.6166666666666667,0.016110765796981355,0.10484442958791926,0.014107314669578458
1589477975.8777194,-0.35808808928074987,-4.2867830334802814,8.827738988839906,0.4755555555555556,0.2911111111111111,-0.6166666666666667,-0.007900605887841703,0.08924775511236237,0.033913621001012174
1589477975.8877194,-0.4219404349813859,-4.313880869962771,8.820970217490693,0.4755555555555556,0.2911111111111111,-0.6172056763837184,0.03663242168512165,0.021702410062812545,0.17387180807800548
1589477975.8977194,-0.45255490354545136,-4.370087845672722,8.82497803858182,0.4755555555555556,0.2911111111111111,-0.6222222222222222,0.044733644558746136,0.02031212852656679,-0.020024654234823462
1589477975.9077194,-0.48940001405530764,-4.429040022488492,8.810239994377877,0.4755555555555556,0.2911111111111111,-0.6222222222222222,0.05116432947532773,0.10873404612956362,0.08447397565962735
1589477975.9177194,-0.5935181573325903,-4.463778211200892,8.786221788799109,0.4755555555555556,0.2911111111111111,-0.6222222222222222,0.043892287147433554,0.09898780256265205,0.020548082889862422
1589477975.9277194,-0.6234358814352574,-4.393743525741029,8.838752158086324,0.4755555555555556,0.2911111111111111,-0.6222222222222222,-0.024071044647464228,0.0077738172001822845,0.05069854738338005
1589477975.9377193,-0.638557348232783,-4.253180362860192,8.88927867411639,0.4768816019233497,0.2911111111111111,-0.6217122043884553,-0.08292818061833589,0.04194869474336571,0.17767308979991725
1589477975.9477193,-1.0071944252621006,-3.8055496264674495,9.07359721263105,0.4895595966359982,0.2911111111111111,-0.6168360525758981,-0.010163487735775509,0.1405640022026251,0.1451204640366665
1589477975.9577193,-0.8734124260928564,-3.843832121740816,8.97144150431327,0.49,0.2911111111111111,-0.6166666666666667,-0.02843131962551055,0.059527852769166056,0.3063781749474002
1589477975.9677193,-0.9288882690730107,-3.8610323215750615,8.64111173092699,0.49,0.2911111111111111,-0.6166666666666667,-0.18828866825811666,-0.12626784205653596,0.4255279517722189
1589477975.9777193,-0.7609462554393466,-3.9832952897167724,8.795644323994198,0.49,0.2911111111111111,-0.6166666666666667,-0.002322231254347367,-0.07809320778286809,0.4597237172211048
1589477975.9877193,-0.6635566747778847,-3.9552577669628204,8.847865995133269,0.48965750539175923,0.29095303667653843,-0.6164822464929987,-0.015370584140641163,-0.028822661694829537,0.5359251449215097
1589477975.9977193,-0.7822341689774207,-3.7970211080301057,8.776659498613547,0.4782293022466188,0.2856784813787813,-0.6103285986456153,-0.055070750391776675,-0.08060548723978891,0.6196407128858605
1589477976.0077193,-0.7826177150192555,-3.448588275566966,8.77017646555413,0.4755555555555556,0.28444444444444444,-0.6088888888888889,-0.03382378262258438,-0.07542934760424527,0.6012322268488475
1589477976.0177193,-0.007291399229781836,-2.989135643988019,8.827608044501497,0.4755555555555556,0.28444444444444444,-0.6088888888888889,0.05231740190676734,-0.03940667043742546,0.750021545581364
1589477976.0277193,-0.10141182135548332,-3.184149753220176,8.742160587456363,0.4755555555555556,0.28444444444444444,-0.6088888888888889,0.019575416023447836,-0.0876153130940923,0.814687239102507
1589477976.0377192,-0.20955438525420297,-3.2414973668219567,9.018805701843224,0.4782095514595009,0.28444444444444444,-0.6098177874552697,-0.042476281191523815,-0.09988000827592915,0.7745384646006688
1589477976.0477192,-0.29033393436711147,-3.3982776776054813,8.99622142084385,0.4977777777777778,0.28444444444444444,-0.6166666666666667,-0.0023024279011726522,0.0003431022749705859,0.7739933367792391
1589477976.0577192,-0.35965548820374166,-3.3916379573503117,8.915258383847194,0.4977777777777778,0.28444444444444444,-0.6166666666666667,0.017020451854907522,-0.19377295201751268,0.8104496909876375
1589477976.0677192,-0.4665485458379983,-3.3990644934517142,8.845613039289713,0.4977777777777778,0.28444444444444444,-0.6166666666666667,-0.06443632606887018,-0.19299587594540185,0.8140481279711345
1589477976.0777192,-0.5447824824783312,-3.391478248247833,8.902956496495667,0.4977777777777778,0.28444444444444444,-0.6166666666666667,-0.017747386615120563,-0.08837633870048237,0.7665597876658313
1589477976.0877192,-0.6320950965824665,-3.399534422981674,8.919534422981673,0.4978812393374058,0.2841340597655605,-0.6171581090748995,0.008621831415095812,-0.04013436049874529,0.9085404782108
1589477976.0977192,-0.7281752472736495,-3.3832700989094597,8.89836495054527,0.5022222222222222,0.27111111111111114,-0.6377777777777778,-0.11078682701302485,-0.1180708544045192,1.122829472167867
1589477976.1077192,-0.7876690987970815,-3.3933740879510945,8.870122263853284,0.5022222222222222,0.27111111111111114,-0.6377777777777778,0.0037543422691600566,-0.10093873901555009,1.1077159653542865
1589477976.1177192,-0.85,-3.381674536294422,8.797665092741116,0.5022222222222222,0.27111111111111114,-0.6377777777777778,-0.020525130952626026,-0.13313024976166615,1.2553121344194798
1589477976.1277192,-0.8485074765833038,-3.431940187333569,8.809402804417049,0.5022222222222222,0.27111111111111114,-0.6377777777777778,-0.08366855528536256,-0.16828124054855892,1.324203730713854
1589477976.1377192,-0.8406970075045157,-3.494423939963874,8.910938902441295,0.5022222222222222,0.27111111111111114,-0.6377777777777778,0.03220208603218913,-0.03281482900818597,1.1640296088925326
1589477976.1477191,-0.8571955885662841,-3.534391177132568,8.945793382849425,0.4984009803186036,0.24245179683397103,-0.6320459149223497,0.031287914118613744,-0.1342085227214754,1.2078838244781294
1589477976.1577191,-0.9387027027027026,-3.6654594594594596,8.894810810810812,0.4977777777777778,0.23777777777777775,-0.6311111111111111,-0.07235451098385952,-0.1552045830101174,1.295665217918858
1589477976.1677191,-0.9245327702702703,-3.615864695945946,8.838131081081082,0.4977777777777778,0.23777777777777775,-0.6311111111111111,-0.01670931644436767,-0.20621267800465154,1.3049394170087734
1589477976.177719,-0.9526893249460144,-3.640448220824336,8.8562750915407,0.4977777777777778,0.23777777777777775,-0.6311111111111111,0.015580168821380653,-0.14517492144799915,1.4775446023799779
1589477976.187719,-0.9999446061402685,-3.6483241010233782,8.966537414327293,0.4977777777777778,0.23777777777777775,-0.6311111111111111,0.001834164724789129,-0.08933177980559606,1.5832170088725253
1589477976.197719,-1.1086937677477209,-3.492089971603647,8.911044985801823,0.5164199339079029,0.22023221906707185,-0.6376906956276258,-0.026928798758441203,-0.09467429754121154,1.4614409239690915
1589477976.207719,-1.1574833641581024,-3.5137416820790515,8.9258277880527,0.5166666666666667,0.22,-0.6377777777777778,-0.02209113803439669,-0.08626955886383382,1.5838427436526108
1589477976.217719,-1.1925329754736638,-3.523546165663129,8.75557254604206,0.5166666666666667,0.22,-0.6377777777777778,0.0006199666342276314,-0.119287381958631,1.638598202379604
1589477976.227719,-1.2295635053767238,-3.5753889075274135,8.837039711828792,0.5166666666666667,0.22,-0.6377777777777778,-0.03815831359976924,-0.12494254782608892,1.7686670173311354
1589477976.237719,-1.312703818922978,-3.5576871915897876,8.86,0.5166666666666667,0.22,-0.6377777777777778,-0.09667192342408011,-0.07102107618922605,1.8678898008285514
1589477976.247719,-1.2978348131705513,-3.5741238901220864,8.86,0.532749260081391,0.19319567764212603,-0.6431386422493526,-0.09395753709982421,-0.18149491658436298,1.8099688705583847
1589477976.257719,-1.2969080739997132,-3.5523677040011474,8.94,0.5366666666666666,0.18666666666666668,-0.6444444444444445,-0.05257560330901426,-0.04808619246775751,1.8309359247471673
1589477976.267719,-1.2569561749356184,-3.693912349871237,8.930868524806854,0.5366666666666666,0.18666666666666668,-0.6444444444444445,0.02819471534199304,-0.05786096710250778,1.8592954257024192
1589477976.277719,-1.2205653382761816,-3.619717330861909,8.821413345690454,0.5366666666666666,0.18666666666666668,-0.6444444444444445,-0.0669723596082115,-0.005269147394227552,1.6535144597463725
1589477976.287719,-1.2374662529717533,-3.6112668735141233,8.863665632429383,0.5366666666666666,0.18666666666666668,-0.6444444444444445,-0.07987758620980485,0.0002616640064553085,1.6479836483456898
1589477976.297719,-1.347502512562814,-3.5956663316582915,8.97033567839196,0.5350740368509213,0.15720301507537687,-0.6444444444444445,-0.0536682167114191,-0.05519735316913373,1.6659172095535255
1589477976.307719,-1.332648451980504,-3.5039726779707556,8.962207043317088,0.5344444444444445,0.14555555555555555,-0.6444444444444445,0.013762350085779244,-0.06493681875655036,1.5117189325072142
1589477976.317719,-1.31067663693541,-3.4549121528492894,8.837618700590928,0.5344444444444445,0.14555555555555555,-0.6444444444444445,-0.05249403448643941,-0.13532336431639816,1.3988630528015624
1589477976.327719,-1.3861204038022252,-3.437176700316852,8.726939798098888,0.5344444444444445,0.14555555555555555,-0.6444444444444445,0.08560377155621711,-0.023441608687607973,1.3946481344825274
1589477976.337719,-1.4259431345353675,-3.386511789181692,8.75754507628294,0.5344444444444445,0.14555555555555555,-0.6444444444444445,0.03237013870582929,-0.09949632477767778,1.4081188107655638
1589477976.347719,-1.4363107919545315,-3.3563107919545314,8.859418711499847,0.5470660283535075,0.1175075913131932,-0.6444444444444445,-0.02235622104841076,-0.09629853256889405,1.326395918292575
1589477976.357719,-1.4580485115766262,-3.3239029768467474,8.773660418963615,0.5544444444444444,0.10111111111111112,-0.6444444444444445,0.005046044490732412,-0.06792375976080745,1.1852555966038008
1589477976.367719,-1.5515506702785302,-3.4037917621726748,8.919824616239493,0.5544444444444444,0.10111111111111112,-0.6444444444444445,-0.00579245768714691,0.004399767500783955,1.0591034573752292
1589477976.377719,-1.5083761490401857,-3.2902410389022063,8.843729779724042,0.5544444444444444,0.10111111111111112,-0.6444444444444445,-0.01484021138520297,-0.009459748621488219,1.0274363194320328
1589477976.387719,-1.415210918114144,-3.17575682382134,8.705210918114144,0.5544444444444444,0.10111111111111112,-0.6444444444444445,-0.11422865968271197,-0.045768877670552294,0.8353408898685205
1589477976.397719,-1.4813565038862002,-3.2513565038862002,8.901865795152201,0.5624200122440334,0.07863451094863327,-0.6727214575520779,-0.0745549806172068,-0.002865438990318707,0.8640034071884383
1589477976.407719,-1.6581952167995333,-3.2605553179078357,8.911527124246549,0.5666666666666667,0.06666666666666668,-0.6877777777777778,-0.029452431127404314,-0.12446165007189806,0.712038510068994
1589477976.417719,-1.8068893249607536,-3.2518394819466248,8.657023940345368,0.5666666666666667,0.06666666666666668,-0.6877777777777778,-0.029452431127404314,-0.0971606146002478,0.7900458816957278
1589477976.4277189,-2.148584195491044,-3.3953777408894377,9.004812577208153,0.5666666666666667,0.06666666666666668,-0.6877777777777778,-0.02533570717369625,0.05380110993826338,0.794205956619969
1589477976.4377189,-2.2538302964793084,-3.3387067634342187,8.818607936998147,0.5666666666666667,0.06666666666666668,-0.6877777777777778,-0.08185542985467073,-0.022147267414296082,0.9690638486642338
1589477976.4477189,-2.4324732759009517,-3.5108125479229626,8.99189594515358,0.5522222222222222,0.05666666666666665,-0.6911111111111111,-0.028424577359999433,-0.09263586814618684,1.039551624956153
1589477976.4577188,-2.1974799705416324,-3.3392401080140153,8.606960432056061,0.5522222222222222,0.05666666666666665,-0.6911111111111111,-0.04670498293381984,-0.1356337763149144,1.1913614689158452
1589477976.4677188,-2.167013171315801,-3.4356193179298415,9.003229854982482,0.5522222222222222,0.05666666666666665,-0.6911111111111111,-0.018988118376356663,-0.02202903473573966,0.9354792378568944
1589477976.4777188,-2.0275069847886824,-3.2310102443567343,8.68701583218768,0.5522222222222222,0.05666666666666665,-0.6911111111111111,0.062173291016962506,-0.08290009178072905,1.1180924089918627
1589477976.4877188,-2.031824682676837,-3.2495617066920923,8.888756629521483,0.5522222222222222,0.05666666666666665,-0.6911111111111111,-0.052772554946319286,-0.09907435967436633,1.1550063576013427
1589477976.4977188,-2.1521592886139573,-3.3260796443069784,9.118511502029769,0.5634381510836179,0.03735034473870738,-0.687995575316279,-0.052678923949529693,-0.09208716287395802,1.1070549134793468
1589477976.5077188,-2.34094771178378,-3.3284332951478555,8.865280663262334,0.5722222222222222,0.022222222222222227,-0.6855555555555556,-0.026865639546536733,-0.044652346783643306,1.0969368763409038
1589477976.5177188,-2.6209556875652247,-3.502517460062615,8.953776190093922,0.5722222222222222,0.022222222222222227,-0.6855555555555556,-0.0332004160613074,-0.16523923432743146,1.2592052030248766
1589477976.5277188,-2.463643118839981,-3.4090954125599877,8.68928376077197,0.5722222222222222,0.022222222222222227,-0.6855555555555556,0.04908468332485613,-0.15628752933198514,1.3517353389343716
1589477976.5377188,-2.3318587659725125,-3.4173883935755898,8.935083201905435,0.5722222222222222,0.022222222222222227,-0.6855555555555556,0.013795644110656438,-0.07374773060021744,1.319235208690963
1589477976.5477188,-2.4330616059817944,-3.370191807542263,8.917130201560468,0.5640936100274527,0.01778843375234793,-0.7188089690796128,-0.07803323253844568,-0.12453175643091632,1.3883922028501463
1589477976.5577188,-2.522410171541326,-3.346205085770663,9.006358486362624,0.56,0.015555555555555557,-0.7355555555555555,-0.04258732381810175,-0.19721092951857383,1.5022360446597947
1589477976.5677187,-2.4747296466973885,-3.2740032642089094,8.773648233486943,0.56,0.015555555555555557,-0.7355555555555555,-0.07399598668741733,-0.13348109635327626,1.4246488167368325
1589477976.5777187,-2.475080710380746,-3.2901614207614918,8.992769708536862,0.56,0.015555555555555557,-0.7355555555555555,0.02547649001567119,-0.14248547916746457,1.4105322431357024
1589477976.5877187,-2.4388168720449723,-3.2176337440899445,9.025680726704143,0.56,0.015555555555555557,-0.7355555555555555,-0.03776534059380633,-0.18497624614901742,1.3859491398851767
1589477976.5977187,-2.466329800982166,-3.161468079607134,9.037797880589299,0.5466158352718188,-0.019449182964303154,-0.7417328623531777,-0.06329835310092966,-0.10671223409094496,1.1923499402930606
1589477976.6077187,-2.5813167313173744,-3.1771256509719037,8.962934570626432,0.5455555555555556,-0.022222222222222227,-0.7422222222222222,-0.04910052352698793,-0.10300183865726609,1.2537560534604664
1589477976.6177187,-2.6182329504294732,-3.170883524785263,8.95,0.5455555555555556,-0.022222222222222227,-0.7422222222222222,-0.10259510168311153,-0.13445697289267547,1.103364217087934
1589477976.6277187,-2.693068297655454,-3.233934760448522,9.032201834862384,0.5455555555555556,-0.022222222222222227,-0.7422222222222222,-0.01832395562156891,-0.04080218627209477,0.945085337549878
1589477976.6377187,-2.6786996995883245,-3.2044994993138745,8.954798798353298,0.5455555555555556,-0.022222222222222227,-0.7422222222222222,-0.05473852221572423,-0.025438086461603275,0.8820014384056218
1589477976.6477187,-2.6171691671185555,-3.163584583559278,8.988680082745878,0.5484906018267469,-0.03278838879851111,-0.7463312870018901,-0.05810199274654111,-0.10070726977463305,0.8542644833318395
1589477976.6577187,-2.540926990627707,-3.1109269906277075,8.991853981255415,0.5511111111111111,-0.042222222222222223,-0.75,-0.03996700204788897,-0.11704909835124658,0.7548128473276646
1589477976.6677186,-2.262080441265736,-2.8043646248449496,8.914568367158429,0.5511111111111111,-0.042222222222222223,-0.75,-0.01399246481632472,-0.14646494030808088,0.5314942934982201
1589477976.6777186,-2.060431679047596,-2.6382355360902072,9.013960606867181,0.5511111111111111,-0.042222222222222223,-0.75,0.004495905776209352,-0.02785275538096256,0.6118404056009077
1589477976.6877186,-1.8519188683170378,-2.473185770750988,8.392743083003952,0.5511111111111111,-0.042222222222222223,-0.75,0.034263886695350194,0.027890639203656944,0.4625579091850791
1589477976.6977186,-2.1676399178340517,-2.6742783539870687,8.654057448814656,0.51,-0.08888888888888889,-0.7711111111111111,-0.0475539554233011,-0.05015411897862881,0.2188810591356377
1589477976.7077186,-2.344191473599138,-2.773147225215517,8.978912311422414,0.51,-0.08888888888888889,-0.7711111111111111,-0.012117787025681094,-0.07480536655958185,0.18498559371182727
1589477976.7177186,-2.475667158932546,-2.837361316221894,9.242278844353848,0.51,-0.08888888888888889,-0.7711111111111111,0.038100572603228904,0.052703301956607274,0.10131643659142131
1589477976.7277186,-2.643862433862434,-2.874232804232804,9.317301587301587,0.51,-0.08888888888888889,-0.7711111111111111,-0.01666835608386119,0.00045884151962152786,-0.09175387494570059
1589477976.7377186,-2.4833378796621726,-2.761907359806956,9.128765671720085,0.51,-0.08888888888888889,-0.7711111111111111,-0.03581075632427134,-0.02016580637309754,-0.18481705098718032
1589477976.7477186,-2.5274258581770064,-2.737669494823694,8.995582626294077,0.48517007861757616,-0.11291784506542815,-0.7815236587876114,0.04568200968787545,0.14960964521775474,-0.3295730346131357
1589477976.7577186,-2.7457736870188274,-2.813008613461392,9.115895456970806,0.4755555555555556,-0.12222222222222222,-0.7855555555555556,0.038391606046577195,0.05038523603757805,-0.2668268629891391
1589477976.7677186,-2.732564481800801,-2.735077378160961,8.725335305364164,0.4755555555555556,-0.12222222222222222,-0.7855555555555556,0.06841446223504044,-0.03299341084652433,-0.36231739228595294
1589477976.7777185,-2.72,-2.8934854977671525,9.553450313500834,0.4755555555555556,-0.12222222222222222,-0.7855555555555556,-0.08558949909670499,0.1393418847148438,-0.24014751126509373
1589477976.7877185,-2.72,-2.8435959578840326,9.010004025167893,0.4755555555555556,-0.12222222222222222,-0.7855555555555556,-0.005160618912603665,0.039957018558109736,-0.19816362504795054
1589477976.7977185,-2.526242629137511,-2.811926776214063,9.114855727651545,0.4773496052857638,-0.13836866979409632,-0.7451894366258702,0.018464248542728684,0.11821756034427655,-0.5046177139181125
1589477976.8077185,-2.432582590815627,-2.743615627141878,9.028780808773131,0.4777777777777778,-0.14222222222222222,-0.7355555555555555,-0.0995001260871319,0.029274249638655478,-0.45612714594200315
1589477976.8177185,-2.5008209763320144,-2.775410488166007,8.674747740381429,0.4777777777777778,-0.14222222222222222,-0.7355555555555555,-0.016968829718329373,0.13009695661073833,-0.7304326198830355
1589477976.8277185,-2.5622064208599027,-2.8438078477176587,8.90263353115727,0.4777777777777778,-0.14222222222222222,-0.7355555555555555,-0.013047270034875217,0.12057755524548727,-0.8573386738868576
1589477976.8377185,-2.4894056053671076,-2.80344786506991,8.946129537902062,0.4777777777777778,-0.14222222222222222,-0.7355555555555555,-0.12082566746434566,0.0448826015364789,-0.8074482793478002
1589477976.8477185,-2.510470392916436,-2.8680291920309906,8.973146790260099,0.4572925121441308,-0.1617319990161717,-0.7589672877082949,0.0033764366891390896,0.13181225353350673,-0.8217242395320313
1589477976.8577185,-2.7843299788135596,-3.0510756532485876,9.534092955508475,0.4544444444444444,-0.16444444444444445,-0.7622222222222222,-0.0435327955207142,0.1564153891468572,-1.000090955990962
1589477976.8677185,-2.4928411565142543,-2.8581849713909566,8.14827560889159,0.4544444444444444,-0.16444444444444445,-0.7622222222222222,0.007999812381452684,0.12997981462205707,-0.9841322982283758
1589477976.8777184,-2.5912136711470604,-3.008375163554181,8.837011220808057,0.4544444444444444,-0.16444444444444445,-0.7622222222222222,0.013119509750151161,0.11113234882993442,-1.1479194532355204
1589477976.8877184,-2.4179099544738225,-2.9113642531955874,8.416620994571879,0.4544444444444444,-0.16444444444444445,-0.7622222222222222,-0.012919306230412628,0.10719494394870478,-1.1441627333463964
1589477976.8977184,-2.7951290189043743,-3.264165171795226,9.471841451635159,0.46702428591141165,-0.15863836376738263,-0.7825435045919384,-0.023470698645493292,0.16404329349169125,-1.2099359720439586
1589477976.9077184,-2.777754639744268,-3.3651410896212313,9.518687188096498,0.4688888888888889,-0.15777777777777774,-0.7855555555555556,0.038425325230463714,0.21595503098852542,-1.1813992013894346
1589477976.9177184,-2.6764733344065497,-3.4037244440356003,9.33059333532645,0.4688888888888889,-0.15777777777777774,-0.7855555555555556,0.10576598232992616,0.26383002939517447,-1.1335242029827854
1589477976.9277184,-2.4708628262735397,-3.3272524864946735,8.998562629373454,0.4688888888888889,-0.15777777777777774,-0.7855555555555556,0.057402856502749955,0.2193929625027693,-1.2269614745388013
1589477976.9377184,-2.406337458875137,-3.3529218235939213,8.883978066739777,0.4688888888888889,-0.15777777777777774,-0.7855555555555556,-0.019819009349349288,0.1307964383835502,-1.3410185902105547
1589477976.9477184,-2.405915171784737,-3.3899528732137427,8.87586804499848,0.4461866153170501,-0.18114776527820003,-0.746828147697713,-0.04777633197937959,0.033293057597853976,-1.2730552421066144
1589477976.9577184,-2.2952801475674427,-3.410756283145031,9.55361309661056,0.4311111111111111,-0.19666666666666666,-0.7211111111111111,-0.017266918157519993,0.018956611769881344,-1.11610173754385
1589477976.9677184,-1.9527866261398177,-3.1078006079027354,8.648667477203649,0.4311111111111111,-0.19666666666666666,-0.7211111111111111,0.0457691376526978,0.1929245311280282,-1.381795868760182
1589477976.9777184,-2.2007354804646253,-3.3590863252375924,9.624591077085533,0.4311111111111111,-0.19666666666666666,-0.7211111111111111,0.03667115069533149,-0.05481211584162157,-1.4053692756953162
1589477976.9877183,-1.9490869114859186,-3.1858269978697207,8.490772959133817,0.4311111111111111,-0.19666666666666666,-0.7211111111111111,0.010325978534134715,-0.04452485707069391,-1.3866744005921616
1589477976.9977183,-2.480389363722697,-3.624691358024691,9.631392212725547,0.45997509760472727,-0.16966487285005805,-0.6913160282789913,0.04313950864939498,0.15309980960238148,-1.3871832971560163
1589477977.0077183,-2.359037883343355,-3.4864191220685505,8.722570655441972,0.4655555555555556,-0.16444444444444445,-0.6855555555555556,0.10843599191955974,0.07835385691290314,-1.3891470918183715
1589477977.0177183,-1.9647102517735429,-3.175049659201558,8.408543051884823,0.4655555555555556,-0.16444444444444445,-0.6855555555555556,-0.04042079609852442,0.17970308983767397,-1.2372305612146792
1589477977.0277183,-1.89,-3.12,8.44,0.4655555555555556,-0.16444444444444445,-0.6855555555555556,-0.0818123086872342,0.21380283336930533,-1.1999138607461015
1589477977.0377183,-2.421587824537411,-3.648744120511386,8.943601665941443,0.4655555555555556,-0.16444444444444445,-0.6855555555555556,0.07812369991642662,0.07824259032308897,-1.212243722629282
1589477977.0477183,-2.5995814898092404,-3.743116704141583,8.756651918473924,0.4668863180290612,-0.1487414472570779,-0.6770386757251196,0.107487104279302,0.12374081524351743,-1.008741592520809
1589477977.0577183,-2.585452017764047,-3.8921494497007143,8.939252751496428,0.4711111111111111,-0.09888888888888887,-0.65,-0.006915306896520591,0.09293494927996634,-0.9245757021993303
1589477977.0677183,-2.582949762389681,-3.939376555781851,8.837410047522063,0.4711111111111111,-0.09888888888888887,-0.65,0.005124608971402229,0.09758368775695356,-0.8662502250279024
1589477977.0777183,-2.631980027917964,-3.9657425104692368,8.753465048856437,0.4711111111111111,-0.09888888888888887,-0.65,0.0116533711351181,0.10465463089383908,-0.5963490951145459
1589477977.0877182,-2.5121806597472,-3.8981204398314664,8.736202856849244,0.4711111111111111,-0.09888888888888887,-0.65,-0.013122814258858043,0.0430098513819194,-0.4774270731166883
1589477977.0977182,-2.371695478221484,-3.8443641956669437,8.90576130444629,0.49292340823498826,-0.06324440334499215,-0.65,0.009632529058963382,0.0581839274393216,-0.4633308277655964
1589477977.1077182,-2.2785675306957707,-3.834283765347885,8.845416098226465,0.5166666666666667,-0.024444444444444446,-0.65,0.008570388098768197,-0.07490272161611407,-0.4864524902478295
1589477977.1177182,-2.1928811629903335,-3.794091926995857,8.758934983017951,0.5166666666666667,-0.024444444444444446,-0.65,-0.030276671383875808,-0.058367996651352894,-0.44162748157139947
1589477977.1277182,-2.271191484659865,-3.922078008176494,8.70263121063681,0.5166666666666667,-0.024444444444444446,-0.65,-0.02630372242106524,0.08829694835494654,-0.3956242084631608
1589477977.1377182,-2.3254964848596242,-4.068014060561503,8.746028121123008,0.5166666666666667,-0.024444444444444446,-0.65,-0.003344703143212226,0.0499101405164998,-0.4084039774280117
1589477977.1477182,-2.3866485310119696,-4.181099020674647,8.879581066376495,0.5230540442509974,-0.012379397896264055,-0.6404189336235038,0.01284426539433531,-6.290971868586938e-05,-0.398364517307925
1589477977.1577182,-2.3206780357107935,-4.132341149551171,8.823559345236932,0.5366666666666666,0.013333333333333334,-0.62,-0.008530188773103867,0.03531795323613714,-0.30364387250775027
1589477977.1677182,-2.102292858656495,-4.015359186268277,8.901464293282475,0.5366666666666666,0.013333333333333334,-0.62,0.010118906019025736,0.08397894503483735,-0.2916256001037728
1589477977.1777182,-2.1172256592100798,-3.9980123731562864,8.885030932890716,0.5366666666666666,0.013333333333333334,-0.62,0.06925983341930957,0.05509707728088653,-0.3508319230888419
1589477977.1877182,-2.1042872233858483,-3.9047624077952827,8.697148893543394,0.5366666666666666,0.013333333333333334,-0.62,0.026126951880781558,-0.030284089019314002,-0.2773301916446866
1589477977.1977181,-2.14917569611972,-3.91917569611972,8.879633642719876,0.5366310485977657,0.013450364131150819,-0.6201373839800466,-0.005594025741975222,-0.046955677872166514,-0.2610582365903853
1589477977.2077181,-1.9572810060711188,-3.7241012575888988,8.710967042497833,0.5288888888888889,0.03888888888888889,-0.65,-0.016573437682370257,-0.009254086122280215,-0.3485129846239124
1589477977.2177181,-1.9482968829470317,-3.7052474024558597,8.593187531788127,0.5288888888888889,0.03888888888888889,-0.65,0.042220414027941466,0.07793729540618832,-0.3777211816803378
1589477977.227718,-2.0158166013712044,-3.6988442703232125,8.589799216454455,0.5288888888888889,0.03888888888888889,-0.65,-0.0036294028844900683,-0.05613665211039304,-0.3172228198074462
1589477977.237718,-2.012765588325339,-3.7153709562200223,8.63286661904276,0.5288888888888889,0.03888888888888889,-0.65,-0.06919879156272063,0.0007412840270072107,-0.2507402405303352
1589477977.247718,-2.069924302311654,-3.7650283866331296,9.02476344472392,0.5372064518704834,0.05219698965944026,-0.6466729748073622,-0.02511388000800195,0.02625631914588062,-0.2100602738294258
1589477977.257718,-2.0611159607438014,-3.6956844008264462,9.003347882231406,0.5455555555555556,0.06555555555555556,-0.6433333333333333,0.030660233227280034,0.039143414620972386,-0.15594981145786677
1589477977.267718,-2.0968956927397073,-3.7049254948140766,8.792119208297478,0.5455555555555556,0.06555555555555556,-0.6433333333333333,0.010221122474462135,-0.003481083658857645,-0.07868294495865383
1589477977.277718,-2.188264549721702,-3.829140739220766,8.799140739220766,0.5455555555555556,0.06555555555555556,-0.6433333333333333,-0.007632122203735492,-0.055534945822761514,0.1414028328076867
1589477977.287718,-2.175958792170902,-3.8559587921709015,8.932945445348068,0.5455555555555556,0.06555555555555556,-0.6433333333333333,0.054496843034937244,-0.02975125398855747,0.1622794051421295
1589477977.297718,-2.0669368976055345,-3.7417181045773584,8.989124827887295,0.549034750907673,0.0754132757198882,-0.6468125286854507,0.058372763080420303,0.00878141309409974,-0.004425123564215976
1589477977.307718,-2.029024282930713,-3.768682561964424,9.109316558067423,0.5522222222222222,0.08444444444444445,-0.65,-0.0277494835847075,0.014819405500965232,-0.04838501534061302
1589477977.317718,-2.060339378788236,-3.8244909318176457,8.80676422725879,0.5522222222222222,0.08444444444444445,-0.65,-0.005710750365976763,-0.023721897056521064,0.039864782823386846
1589477977.327718,-2.0987188408013457,-3.842821532344395,8.598210353265024,0.5522222222222222,0.08444444444444445,-0.65,0.07683450701506674,-0.04422051831159991,0.15336069043420913
1589477977.337718,-2.109509647627948,-3.8656077181023583,8.867441317134846,0.5522222222222222,0.08444444444444445,-0.65,0.09144143437530608,-0.031047990770121353,0.1849342254785777
1589477977.347718,-1.9227114267269205,-3.7187755541209384,8.829001506348181,0.5482402027592472,0.08878846567678071,-0.6478279893838319,0.011781301085154856,-0.04997704492089691,0.12302139333530826
1589477977.357718,-1.6896449755007306,-3.5396449755007304,8.597495057164961,0.54,0.09777777777777777,-0.6433333333333333,-0.0229440168790149,-0.1073048168416457,0.08278695797402764
1589477977.367718,-1.7752173058786545,-3.6274893901288903,8.599284423137378,0.54,0.09777777777777777,-0.6433333333333333,0.03654205964203095,0.027766461450527913,0.09306945260572107
1589477977.377718,-2.0769092199019092,-3.9498991332243434,9.404423640457756,0.54,0.09777777777777777,-0.6433333333333333,0.032374413457272364,0.006846772575178947,0.0603792116300715
1589477977.387718,-2.135129245195719,-4.014588050217465,9.132730189086645,0.54,0.09777777777777777,-0.6433333333333333,-0.02266602285784239,-0.04678237050108672,0.0942502493624498
1589477977.397718,-2.0760380944511008,-3.9090571416766515,8.795596826839647,0.5462052913550662,0.0915724864227116,-0.6379037033976505,0.03325336998668028,-0.000994561123718105,0.06095631640209991
1589477977.407718,-2.0180999256400267,-3.8365999787542933,8.840899755674375,0.5666666666666667,0.07111111111111111,-0.62,0.031143352099230637,0.007821489623980628,0.004526710198785082
1589477977.417718,-1.9953503195776017,-3.903555300819786,8.784973947478116,0.5666666666666667,0.07111111111111111,-0.62,0.12509687806389036,0.15089278287199057,-0.14707392783682527
1589477977.427718,-2.0518167419022726,-4.054998020115625,9.017723132969035,0.5666666666666667,0.07111111111111111,-0.62,0.07982709514626893,0.06897027501801521,-0.0762590668752094
1589477977.437718,-1.8905068867228767,-3.86,8.691871075763919,0.5666666666666667,0.07111111111111111,-0.62,-0.04882390203702723,-0.01627711997617398,-0.21115082454829853
1589477977.447718,-1.8488608217023788,-3.822869405674595,8.994513793329402,0.5687294774625224,0.06822317599691298,-0.6257758702283963,0.10314069160930525,-0.04983819358265329,-0.39557122392415317
1589477977.457718,-1.8919373152900918,-3.698062684709908,9.2324867786592,0.5722222222222222,0.06333333333333334,-0.6355555555555555,0.12595078518270278,0.10649873910578196,-0.4369978147930522
1589477977.467718,-1.72962204316733,-3.577075364851309,8.666366695790053,0.5722222222222222,0.06333333333333334,-0.6355555555555555,-0.023288317679331604,0.04840810010803472,-0.5390556885898581
1589477977.4777179,-1.5516078212030109,-3.7692297653172995,8.599088536204526,0.5722222222222222,0.06333333333333334,-0.6355555555555555,-0.00025205871049086004,0.020863012595040288,-0.49043171343527037
1589477977.4877179,-1.7800233395308358,-4.05232564579295,8.828418450096919,0.5722222222222222,0.06333333333333334,-0.6355555555555555,0.01786422576657938,0.01786931766231634,-0.4532858661581043
1589477977.4977179,-1.8094658428134203,-4.117486862620546,8.591256568689726,0.5896998453671087,0.05813728320917789,-0.6416963420659211,-0.0273233048094289,0.03011724767059699,-0.5572215856571103
1589477977.5077178,-1.719887200163084,-3.9951221998233253,8.979323200978504,0.6133333333333333,0.05111111111111112,-0.65,-0.015277783231668805,0.0491366034260879,-0.6392801582744828
1589477977.5177178,-1.772094655210223,-3.9853374135284385,9.114697673491358,0.6133333333333333,0.05111111111111112,-0.65,0.004385308934118596,0.024632125121012902,-0.6742471800035996
1589477977.5277178,-1.7522186473624237,-4.0505466184060595,8.742765265768483,0.6133333333333333,0.05111111111111112,-0.65,-0.002590293546739477,0.042973826687488496,-0.7805543161101753
1589477977.5377178,-1.72410483276359,-3.9802620819089753,8.644366914672565,0.6133333333333333,0.05111111111111112,-0.65,-0.11835978282295734,0.09970854328642972,-0.814288471925762
1589477977.5477178,-1.6062696602233162,-3.8185352383239284,8.757871293072398,0.6287413454996598,0.034547498032310144,-0.65,0.1022036018007353,0.03596755516463191,-0.855170995395698
1589477977.5577178,-1.728795426361477,-3.9057590852722956,8.806122496164113,0.6577777777777778,0.0033333333333333327,-0.65,0.09992802807242515,0.03776857999725433,-1.000428660012624
1589477977.5677178,-1.7311830608415975,-3.975359063700527,8.710323773787188,0.6577777777777778,0.0033333333333333327,-0.65,0.08696534145688099,0.10102704976690208,-0.9559096429246814
1589477977.5777178,-1.8197924550850497,-4.190830179659802,9.100868023742182,0.6577777777777778,0.0033333333333333327,-0.65,0.06358926846856396,0.12834141478321753,-0.8798435205616834
1589477977.5877178,-1.8311719512195124,-4.328802439024391,8.758216463414634,0.6577777777777778,0.0033333333333333327,-0.65,-0.005832086870174041,0.013794486441677134,-0.8516304153773885
1589477977.5977178,-1.8312551926886944,-4.487398862401738,8.83928165143478,0.717329981608118,-0.02644276858183677,-0.643183783898937,-0.07006268010537264,0.04622112223595148,-0.749263827292786
1589477977.6077178,-1.7207257552603739,-4.479032326319501,8.835887386857882,0.8422222222222222,-0.08888888888888889,-0.6288888888888889,0.032720717615052866,0.07457233129904624,-0.7363063415158855
1589477977.6177177,-1.676180999817218,-4.414054331932005,8.857990997989399,0.8422222222222222,-0.08888888888888889,-0.6288888888888889,0.052380638436310856,0.004551890706762651,-0.8028435303967181
1589477977.6277177,-1.694842755344418,-4.2159591448931115,8.85421377672209,0.8422222222222222,-0.08888888888888889,-0.6288888888888889,0.02219563400352431,0.02152672931276592,-0.8857168697429578
1589477977.6377177,-1.7469587352625937,-4.161752411575563,8.965180868167202,0.8422222222222222,-0.08888888888888889,-0.6288888888888889,0.07140747246539132,0.07918943354609484,-0.8596702358317186
1589477977.6477177,-1.7764600131398196,-4.261162874036911,8.731188556411634,0.9409823010611399,-0.12677304611545787,-0.6072034747523012,-0.01701632172270243,0.018656965619544438,-0.8431613767361914
1589477977.6577177,-1.8699144568006845,-4.341974337040205,8.785751924721986,1.262222222222222,-0.25,-0.5366666666666666,0.04385326371945846,0.04048204605392963,-0.7616479125486405
1589477977.6677177,-1.8892930714143983,-4.36,8.834747912044303,1.262222222222222,-0.25,-0.5366666666666666,0.024097508046967947,0.0037791736731253786,-0.6839731355727718
1589477977.6777177,-1.804770868693103,-4.379083474772412,8.602937818237926,1.262222222222222,-0.25,-0.5366666666666666,-0.015061409130025514,0.08961727783488511,-0.5653208228933357
1589477977.6877177,-1.8069061728395062,-4.478632716049383,8.795898148148149,1.262222222222222,-0.25,-0.5366666666666666,0.00176579916297451,0.004306379967533282,-0.5203516461887565
1589477977.6977177,-1.6985546254106176,-4.422422026774045,8.55339867895871,1.3180860992390078,-0.22167092492513707,-0.5620834069207492,0.019166233217814965,0.13964753181404013,-0.32998068489205984
1589477977.7077177,-1.516300033962447,-4.421921789335792,8.557995730435204,1.4966666666666666,-0.13111111111111112,-0.6433333333333333,-0.012781683071581762,-0.017095680390627463,-0.44947160819947996
1589477977.7177176,-1.3466984443558037,-4.171450339050658,8.421851216593538,1.4966666666666666,-0.13111111111111112,-0.6433333333333333,-0.023223861328728494,-0.019709880714671307,-0.386915981606917
1589477977.7277176,-1.2407395293179098,-4.015300358994815,8.683960111687275,1.4966666666666666,-0.13111111111111112,-0.6433333333333333,0.010842779657495888,0.038690075261713336,-0.27133273540365566
1589477977.7377176,-1.421164563820729,-4.078151946745105,8.605139329669479,1.4966666666666666,-0.13111111111111112,-0.6433333333333333,-0.17451447589794092,-0.03220665430986827,-0.34979765861868917
1589477977.7477176,-1.4455141651830636,-4.248599156281446,8.921684147379828,1.4966666666666666,-0.13111111111111112,-0.6433333333333333,-0.03728111990892141,0.0014376523196978075,-0.29667506920358483
1589477977.7577176,-1.5570695824254903,-4.342161033042157,8.905347912127452,0.9755555555555556,-0.0011111111111111113,-0.7088888888888889,0.02018232100945714,0.07314963783086148,-0.28907015736156083
1589477977.7677176,-1.5403014372238992,-4.182863653627041,8.821507186119495,0.9755555555555556,-0.0011111111111111113,-0.7088888888888889,-0.03286218494921385,0.12345046244684257,-0.28907015736156083
1589477977.7777176,-1.5750647484807891,-4.511690643990137,8.83935251519211,0.9755555555555556,-0.0011111111111111113,-0.7088888888888889,0.0036115146001191693,0.07560634624488526,-0.16481432964731524
1589477977.7877176,-1.543857928793364,-4.68654827399447,8.935296314244178,0.9755555555555556,-0.0011111111111111113,-0.7088888888888889,-0.06489801051704701,-0.01364180582269783,-0.14278623884484196
1589477977.7977176,-1.3879066184748474,-4.5460466907625765,8.482786040173018,0.9235036505961434,0.017557293621167532,-0.7088888888888889,0.045104369502169187,-0.07232672807589242,-0.13697608090698463
1589477977.8077176,-1.4140672106209375,-4.520416263310746,8.897261789517357,0.7122222222222222,0.09333333333333334,-0.7088888888888889,0.06425945202451014,0.11303502044423272,-0.07019830228662058
1589477977.8177176,-1.278257068566632,-4.308257068566632,8.807706938558237,0.7122222222222222,0.09333333333333334,-0.7088888888888889,0.053210668843313755,0.0001306727864460802,-0.011098432150894424
1589477977.8277175,-1.25,-4.245949363467315,8.73638449434988,0.7122222222222222,0.09333333333333334,-0.7088888888888889,0.03906278919108744,-0.07085394528867146,-0.056663658274338564
1589477977.8377175,-1.1929753046108371,-4.040661293371599,8.7996693533142,0.7122222222222222,0.09333333333333334,-0.7088888888888889,0.06545886393936237,0.011241823961199838,-0.19703471957902308
1589477977.8477175,-1.027189846878276,-3.810003265221949,8.914998367389025,0.7122222222222222,0.09333333333333334,-0.7088888888888889,0.06231375297266772,0.08515193167852428,-0.14828549959525592
1589477977.8577175,-1.1263002267136173,-3.9784988664319134,8.953297959577444,0.6222222222222222,0.14333333333333334,-0.7155555555555555,-0.024376234742811274,0.08385584711277153,-0.27446509552303827
1589477977.8677175,-1.1290886112307914,-4.0304493752692805,8.885031595576619,0.6222222222222222,0.14333333333333334,-0.7155555555555555,-0.07463696698815794,-0.02250977806271582,-0.21490055723731527
1589477977.8777175,-1.1531833979606492,-4.08466264541146,8.553728278041074,0.6222222222222222,0.14333333333333334,-0.7155555555555555,0.07452095949218801,-0.03302311208776222,-0.14262138581512115
1589477977.8877175,-1.27,-4.49,8.672881320771026,0.6222222222222222,0.14333333333333334,-0.7155555555555555,-0.03207261251288599,-0.089424419880958,-0.24813893154201097
1589477977.8977175,-1.27,-4.49,8.723637825222578,0.6222222222222222,0.14333333333333334,-0.7155555555555555,0.07549708771001734,0.007071928848411166,-0.21887364545195642
1589477977.9077175,-1.1785091833851369,-4.306272958462842,9.048818875388529,0.5644444444444444,0.17333333333333334,-0.7022222222222222,-0.056945928670440724,0.09308593231988871,-0.24772110537698036
1589477977.9177175,-1.162706979372704,-4.26676744843176,8.930302345295281,0.5644444444444444,0.17333333333333334,-0.7022222222222222,0.04475550168105902,0.027583316161295654,-0.3528700418420903
1589477977.9277174,-1.221271999422966,-4.317456001154068,8.841840017311021,0.5644444444444444,0.17333333333333334,-0.7022222222222222,0.0012060194917848871,0.10693371515812461,-0.5379418942866422
1589477977.9377174,-1.2288352928447779,-4.302329414310444,8.614941214656666,0.5644444444444444,0.17333333333333334,-0.7022222222222222,0.040807331243298606,-0.022595575362451492,-0.4999906371914415
1589477977.9477174,-1.3484717621902647,-4.46711332858161,8.973547440358896,0.5642746402433627,0.173861613070032,-0.7022222222222222,-0.010813681650423233,0.041134670380879416,-0.5925949316703358
1589477977.9577174,-1.269337344346149,-4.31763720598717,8.63942434279485,0.5554819271495721,0.20121672047293618,-0.7022222222222222,0.050571035817522064,-0.03175968161230563,-0.49380390199536145
1589477977.9677174,-1.2024994212841178,-4.307999537027294,8.972248784696648,0.5544444444444444,0.20444444444444448,-0.7022222222222222,0.0529600996282643,0.06332311831820032,-0.47524806099436956
1589477977.9777174,-1.13,-4.2802500820147875,8.827562520503697,0.5544444444444444,0.20444444444444448,-0.7022222222222222,0.08947540388069733,0.09956895385116041,-0.5135205033698875
1589477977.9877174,-1.1261582452017234,-4.369661574618097,8.861920877399138,0.5544444444444444,0.20444444444444448,-0.7022222222222222,0.07638934578420051,0.043885921203801984,-0.4759474586428995
1589477977.9977174,-1.1083854601288428,-4.196078974598619,8.867693514469774,0.5544700720614469,0.20475197584847443,-0.7019659460521972,-0.03807843797074589,0.04015946011910874,-0.43999116021215773
1589477978.0077174,-1.0628718365137366,-4.07002571389904,8.830038570848558,0.5555555555555556,0.21777777777777774,-0.6911111111111111,-0.028825893593108064,0.058142727471395705,-0.4528780561565827
1589477978.0177174,-1.112590956028914,-4.14283350543935,8.868864340433708,0.5555555555555556,0.21777777777777774,-0.6911111111111111,-0.007741647622747537,0.10468847700543817,-0.5622901958315255
1589477978.0277174,-1.09,-4.102064887102052,8.604232153709503,0.5555555555555556,0.21777777777777774,-0.6911111111111111,0.01476530311429743,0.05498085973588385,-0.5896685159140824
1589477978.0377173,-1.0832850627609298,-4.228657012552186,8.851487799165024,0.5555555555555556,0.21777777777777774,-0.6911111111111111,0.0064954308543695785,0.08353868212977258,-0.621290993518704
1589477978.0477173,-1.0543895448971439,-4.222877908979429,8.94395345632914,0.5555555555555556,0.21777777777777774,-0.6911111111111111,0.020364283813646963,0.07219143879945472,-0.5065577554010456
1589477978.0577173,-1.0576112412177987,-4.281639344262295,8.74344262295082,0.5516419463960448,0.22756180067655477,-0.7048087431693989,-0.03804623616796188,0.005065848809579554,-0.5118576555131613
1589477978.0677173,-0.9592844127878085,-4.225254265363591,8.760357793606095,0.5511111111111111,0.2288888888888889,-0.7066666666666667,0.06766638185270007,0.0901116210395358,-0.5831055191412466
1589477978.0777173,-0.9485132970201858,-4.295044323400619,9.065132970201859,0.5511111111111111,0.2288888888888889,-0.7066666666666667,0.05844338829032411,0.025969415312653274,-0.588930836590476
1589477978.0877173,-0.839375474970284,-4.039242191001383,8.669108907032484,0.5511111111111111,0.2288888888888889,-0.7066666666666667,0.08493858179910337,0.09485326200547482,-0.5914055813999173
1589477978.0977173,-0.7402947980428686,-3.8702947980428686,8.879631502446415,0.5510783557730146,0.22899534373770253,-0.7069287093714387,0.009238642438862804,0.0009300433926060945,-0.5710270582627901
1589477978.1077173,-0.7746412266874118,-3.9046412266874118,8.836698466640735,0.5472620859236209,0.24139822074823197,-0.7374588681665882,-0.058200412502851476,-0.01780302742453676,-0.6319095384185044
1589477978.1177173,-0.8502986028357771,-4.1012873253544715,8.885839421100806,0.5466666666666666,0.2433333333333333,-0.7422222222222222,0.020876345626179387,-0.026945044397405034,-0.7077211702246955
1589477978.1277173,-0.9082479318860854,-4.108530991485761,8.806159093656632,0.5466666666666666,0.2433333333333333,-0.7422222222222222,-0.002828496356230257,0.03626786755568736,-0.6634721318575308
1589477978.1377172,-1.0177341733385834,-4.22,8.568330708316926,0.5466666666666666,0.2433333333333333,-0.7422222222222222,0.020841086401777127,-0.09344898241334329,-0.5386603487289872
1589477978.1477172,-0.9529566276061482,-4.249566276061482,8.826320499162989,0.5428340012512893,0.2427858097025651,-0.7374040142714622,0.09549000860562729,0.008154686378977387,-0.4745715844571398
1589477978.1577172,-0.9722271444561807,-4.479192508394949,9.178101086219671,0.5077777777777778,0.23777777777777775,-0.6933333333333334,0.023559836534501617,0.07406710230298692,-0.48830888385804394
1589477978.1677172,-0.9457776166227869,-4.340332487269631,8.93344295376078,0.5077777777777778,0.23777777777777775,-0.6933333333333334,0.1000175282638828,0.010592792188028943,-0.4313262645502976
1589477978.1777172,-0.98,-4.436604554865425,9.098115942028985,0.5077777777777778,0.23777777777777775,-0.6933333333333334,0.06242578397305287,0.06905207282573321,-0.3081540499331862
1589477978.1877172,-0.9511034597824932,-4.377190310788879,8.975785466183318,0.5077777777777778,0.23777777777777775,-0.6933333333333334,0.04179093526717713,0.036529884330054954,-0.20920601960541657
1589477978.1977172,-0.7793336771375268,-4.122716558722262,8.594074838083392,0.5077777777777778,0.23777777777777775,-0.6933333333333334,0.1021662822221082,-0.10295798622099266,-0.20781808059495838
1589477978.2077172,-0.5829337058674117,-3.75679124786821,8.857503537864218,0.5148370163406993,0.27609935854792345,-0.6862740947704118,-0.05068363412545482,0.1357753619495008,-0.16963572473012742
1589477978.2177172,-0.5506164464669362,-5.806678564782704,7.612297295011249,0.5155555555555555,0.28,-0.6855555555555556,-0.5243995571828307,-0.11418639774606335,-0.9823894736199374
1589477978.2277172,-0.7209058921049516,-15.938900580244617,5.94487980647235,0.5155555555555555,0.28,-0.6855555555555556,-2.453176087752081,-0.36882824307402634,-4.323692957756156
1589477978.2377172,0.6324904283223904,-5.726189250395086,4.8271061763795435,0.5155555555555555,0.28,-0.6855555555555556,-1.7728014855387275,-0.8814405541574584,-4.6862719546690155
1589477978.2477171,1.7812899047885746,-0.3006661299355926,8.8833751050126,0.5155555555555555,0.28,-0.6855555555555556,-0.26807242847169255,0.3126163018652137,-4.389290500333711
1589477978.2577171,-0.9481932828886233,-2.1784972786406476,9.048085756006904,0.5042606605012021,0.2891771022316622,-0.6855555555555556,1.5899382132023603,0.9217402818462525,-3.90190199860373
1589477978.2677171,-0.34290582670393466,-2.651718985164481,13.936598580950333,0.4977777777777778,0.29444444444444445,-0.6855555555555556,1.2798502266223708,0.8940090017458777,-3.461371421324307
1589477978.277717,-1.1454103090495478,0.3346718082450204,4.714270654164125,0.4977777777777778,0.29444444444444445,-0.6855555555555556,-0.5594839187079519,-0.2430079013824633,-2.8202262063660357
1589477978.287717,0.2714211212516297,-2.793911342894394,10.528357235984354,0.4977777777777778,0.29444444444444445,-0.6855555555555556,0.30387103865678977,0.49811856138812083,-1.860716962393658
1589477978.297717,-4.677524771838331,-7.5150052151238595,13.299037809647979,0.4977777777777778,0.29444444444444445,-0.6855555555555556,0.43212180573245473,0.15313393987451046,0.9051251616722333
1589477978.307717,2.6373660377358488,0.5597383647798743,7.8732075471698115,0.4311111111111111,0.37666666666666665,-0.6911111111111111,0.20945213368988425,-0.10484763616233736,0.8036777430837053
1589477978.317717,1.59,-1.8057142857142856,8.693809523809524,0.4311111111111111,0.37666666666666665,-0.6911111111111111,-0.2212698297971085,0.1433143870908439,0.7837489311429596
1589477978.327717,0.11114853932992783,-2.636673271646458,9.79370321220164,0.4311111111111111,0.37666666666666665,-0.6911111111111111,-0.06357711760971241,-0.16187068981624617,0.9531224833230425
1589477978.337717,-0.018472249995455298,-2.613799014706684,8.512744823574325,0.4311111111111111,0.37666666666666665,-0.6911111111111111,0.16681249493257944,0.06020160819383294,1.4463392350832558
1589477978.347717,0.18144654261175952,-1.9264041510680465,8.165206452323277,0.4311111111111111,0.37666666666666665,-0.6911111111111111,-0.02913267069460304,-0.27050843807699865,1.5387565656409399
1589477978.357717,-0.9817033406681336,-4.284238347669534,9.204218343668733,0.4133333333333333,0.4133333333333333,-0.6644444444444444,-0.02317524440758436,-0.15589589907529927,1.7585487561758972
1589477978.367717,-0.5707794790216744,-3.4988061244780275,8.616467687413005,0.4133333333333333,0.4133333333333333,-0.6644444444444444,-0.07382974393775685,-0.18446197976318088,1.852715545022429
1589477978.377717,-0.6958828793000597,-3.949178365480215,8.691529727580035,0.4133333333333333,0.4133333333333333,-0.6644444444444444,-0.006506201528561878,-0.24905618937200305,2.0355808426474042
1589477978.387717,9.172152446367244,-18.70089960305071,8.33414522099817,0.4133333333333333,0.4133333333333333,-0.6644444444444444,-0.34717332880712914,-0.28586217781981565,0.7206823807109098
1589477978.397717,1.4929224833861108,-1.9768275277641507,7.277198831452656,0.4133333333333333,0.4133333333333333,-0.6644444444444444,0.3099059448336599,0.3803998807010465,0.6615044337059942
1589477978.407717,-0.6330191699604742,-4.592007509881423,11.533054743083005,0.4455555555555555,0.3911111111111111,-0.6711111111111111,0.09403107938979548,-0.14497639087343822,0.2108620527461297
1589477978.417717,0.17102648221343875,-4.277020553359684,9.23696561264822,0.4455555555555555,0.3911111111111111,-0.6711111111111111,0.0325452166487496,0.06389470167335004,0.023691852931475327
1589477978.427717,-0.39999592010830254,-4.342443855126755,8.691557776829924,0.4455555555555555,0.3911111111111111,-0.6711111111111111,0.10251337320868813,-0.07410277721896814,0.03866369326975426
1589477978.437717,-0.04959024242729702,-4.5878146262789175,8.860956101002973,0.4455555555555555,0.3911111111111111,-0.6711111111111111,0.08160371980619033,0.11758942518269502,-0.006079920555613909
1589477978.447717,-0.02845068292928784,-4.475070308956202,8.910281739831662,0.4455555555555555,0.3911111111111111,-0.6711111111111111,0.07084253476606324,0.04994769064475342,-0.038363475675995136
1589477978.457717,-0.2644271844660194,-4.43,8.85143411927878,0.46592448759439054,0.379471721374634,-0.6652914162428725,0.028450863890216165,-0.007564404641228546,-0.056982518853643575
1589477978.467717,-0.12803683737646,-4.515981581311769,8.811339472896076,0.4688888888888889,0.37777777777777777,-0.6644444444444444,-0.0443096917637716,0.005195943256682448,0.09616011067479067
1589477978.477717,-0.279146790241243,-4.358246558538912,8.708688837399482,0.4688888888888889,0.37777777777777777,-0.6644444444444444,-0.052975096011236504,0.021959641302479425,-0.10388553792999267
1589477978.487717,-0.15791011398066657,-4.34,8.851562545087289,0.4688888888888889,0.37777777777777777,-0.6644444444444444,-0.05333566039801744,0.06423971884610603,0.17920739714733763
1589477978.497717,-0.23968862815884479,-4.459584837545126,8.882422157039711,0.4688888888888889,0.37777777777777777,-0.6644444444444444,-0.006163735398478955,0.04860423971910032,0.04062864718945086
1589477978.507717,-0.3000075784687283,-4.445986358756289,8.83598635875629,0.4562190224243147,0.3664415814673693,-0.6771143109090186,-0.011131764750726572,0.03468643484491378,0.053467241996272355
1589477978.517717,-0.2347890984702213,-4.435563270458934,8.859647631070844,0.4477777777777778,0.3588888888888889,-0.6855555555555556,-0.017653054045981928,-0.06721627024127091,-0.07394530124085623
1589477978.5277169,-0.2517338237752884,-4.416199632168534,8.743064704898847,0.4477777777777778,0.3588888888888889,-0.6855555555555556,-0.014631650146426712,-0.032069622521623355,0.05906736521872842
1589477978.5377169,-0.2500009358038555,-4.439997192588434,8.809990641961445,0.4477777777777778,0.3588888888888889,-0.6855555555555556,0.0010894016573836963,0.0621698006552734,-0.033803096292105705
1589477978.5477169,-0.25816938719856636,-4.3909836768086015,8.834508161595698,0.4477777777777778,0.3588888888888889,-0.6855555555555556,-0.14594758321792672,0.005144272808194454,-0.010646064778535577
1589477978.5577168,-0.26,-4.4347189373984195,8.852159763866315,0.4565598294590056,0.3588888888888889,-0.6983908618588885,-0.03232634402684034,-0.0142679378441077,0.017095062134068254
1589477978.5677168,-0.26,-4.4625882311337435,8.808117617936205,0.4622222222222222,0.3588888888888889,-0.7066666666666667,0.01690143506275417,-0.08645800261175549,-0.11955513862715092
1589477978.5777168,-0.28632003040668946,-4.46,8.728586595717726,0.4622222222222222,0.3588888888888889,-0.7066666666666667,-0.016135588835819295,-0.0891193961653117,-0.08526214223073261
1589477978.5877168,-0.2641106691787035,-4.442740446119136,8.754519107761729,0.4622222222222222,0.3588888888888889,-0.7066666666666667,0.017227656761825916,0.08326964217140677,-0.02978298129683571
1589477978.5977168,-0.26,-4.4456896660564365,8.816896660564359,0.4622222222222222,0.3588888888888889,-0.7066666666666667,-0.003159697648813197,0.08038288722501202,-0.03904424991128767
1589477978.6077168,-0.2662729377465272,-4.437454124506946,8.847454124506946,0.4622222222222222,0.3630708473865737,-0.6983027496712971,-0.03111870274114053,0.03181171982804812,-0.02663527785118855
1589477978.6177168,-0.27,-4.45405585298799,8.831981382337336,0.4622222222222222,0.3655555555555556,-0.6933333333333334,-0.07973219071989807,0.03385637169645285,-0.11083972987584498
1589477978.6277168,-0.2607998035952972,-4.469200196404703,8.756398428762378,0.4622222222222222,0.3655555555555556,-0.6933333333333334,-0.10458915536777409,-0.022036067272202274,0.12767644798393105
1589477978.6377168,-0.26,-4.45049027289246,8.79552269658426,0.4622222222222222,0.3655555555555556,-0.6933333333333334,-0.12496421570046536,-0.003151383890466569,0.016459239396347053
1589477978.6477168,-0.2481354685377999,-4.4222032028067,8.8437290629244,0.4622222222222222,0.3655555555555556,-0.6933333333333334,-0.014253483131167699,-0.03806864867133442,-0.07116300527395791
1589477978.6577168,-0.2514194577352472,-4.41,8.865709728867623,0.4622222222222222,0.3687276271486798,-0.6920645046960836,0.04630028646663187,-0.036025252014599864,-0.03945954222934947
1589477978.6677167,-0.26,-4.442553361138371,8.811403949950932,0.4622222222222222,0.3711111111111111,-0.6911111111111111,0.012407531093744036,-0.033964418756820165,-0.06303174058687108
1589477978.6777167,-0.2729285366833746,-4.46,8.741214389949876,0.4622222222222222,0.3711111111111111,-0.6911111111111111,0.045581029708068224,0.01796736697220664,0.0546541219604843
1589477978.6877167,-0.2638353091957706,-4.4276706183915415,8.760411727010574,0.4622222222222222,0.3711111111111111,-0.6911111111111111,-0.022968960760435628,0.02171141216850283,0.0797192487253694
1589477978.6977167,-0.26741035363943616,-4.412589646360564,8.814462121836616,0.4622222222222222,0.3711111111111111,-0.6911111111111111,-0.04472406208235469,-0.008452837032974553,0.05684054750138588
1589477978.7077167,-0.26073573005361084,-4.419264269946389,8.867057079785555,0.4632515855495988,0.37316983776586427,-0.6797881145099688,-0.03663946141445222,-0.03051051290627615,-0.05164910034040567
