time,acc_x,acc_y,acc_z,mag_x,mag_y,mag_z,gyr_x,gyr_y,gyr_z
1589478018.8110244,-1.12,-4.38,8.65,0.5155555555555555,0.17333333333333334,-0.6433333333333333,-0.007635815477475192,-0.014180800172453925,0.016362461737446838
1589478018.8210244,-1.1374888809608752,-4.38502223807825,8.607444404804376,0.5155555555555555,0.17333333333333334,-0.6433333333333333,-0.07625627125749983,-0.03259393038128386,0.11470926923951481
1589478018.8310244,-1.1252875428159366,-4.402356228592032,8.579424914368127,0.5155555555555555,0.17333333333333334,-0.6433333333333333,-0.014318456842320072,0.018620817732793747,0.053588365012192496
1589478018.8410244,-1.1135637187402834,-4.408218140629859,8.64207346866255,0.5155555555555555,0.17333333333333334,-0.6433333333333333,-0.061459978190880074,-0.0983373314905219,0.0729348755310191
1589478018.8510244,-1.1270983847283407,-4.401934410181107,8.794836025452765,0.5148032849295698,0.17268852993963127,-0.6419362593136455,-0.16697410326030138,-0.08251689033215946,0.07536556817433052
1589478018.8610244,-1.1024622613803232,-4.418358492413118,8.835896231032795,0.508416141839343,0.167213835862294,-0.6300744221460816,-0.06574929948823831,-0.0699757642011074,0.18733990863015246
1589478018.8710244,-1.1317369156060557,-4.4265261687878885,8.834367759545497,0.5077777777777778,0.16666666666666666,-0.6288888888888889,0.03375713945703572,0.04111861135624253,0.04618119208974761
1589478018.8810244,-1.1383930555114736,-4.413213888977053,8.774462500396737,0.5077777777777778,0.16666666666666666,-0.6288888888888889,-0.07515369506445677,0.04402290027681566,-0.05692106459059865
1589478018.8910244,-1.0919037174926738,-4.428730855004884,8.797461710009769,0.5077777777777778,0.16666666666666666,-0.6288888888888889,0.06304620734196968,-0.10269802792027423,-0.056295951764168656
1589478018.9010243,-1.115095010782019,-4.413269992811988,8.766539985623975,0.5077777777777778,0.16666666666666666,-0.6288888888888889,-0.006101048714214893,-0.011626032138957992,0.06850641282504252
1589478018.9110243,-1.103156366803353,-4.416843633196647,8.723687266393295,0.5077777777777778,0.1811111111111111,-0.6344444444444445,-0.06883816362030117,0.07723000395951383,-0.04448924667422721
1589478018.9210243,-1.1183768189570709,-4.40162318104293,8.693246362085858,0.5077777777777778,0.1811111111111111,-0.6344444444444445,-0.05887640098062729,-0.029028797530340877,-0.09595835364587557
1589478018.9310243,-1.1180931371697558,-4.420465685848778,8.577627451320978,0.5077777777777778,0.1811111111111111,-0.6344444444444445,0.05582593832325755,-0.05116744988556941,0.05998606766971535
1589478018.9410243,-1.110807698320335,-4.384038491601674,8.60676920671866,0.5077777777777778,0.1811111111111111,-0.6344444444444445,0.006553416365406753,-0.0591146308465131,0.0266079076337519
1589478018.9510243,-1.1000984055804683,-4.400098405580469,8.730295216741405,0.5077777777777778,0.18116578087803797,-0.6343023030504347,0.0729997873581871,-0.004788622127147497,0.027788601664067356
1589478018.9610243,-1.1088060538116593,-4.408806053811659,8.756418161434977,0.5077777777777778,0.18600336322869956,-0.6217245889387145,0.06540093077120007,0.05410251642200191,-0.11943924470880618
1589478018.9710243,-1.11,-4.4018290651927305,8.77536747845816,0.5077777777777778,0.18666666666666668,-0.62,0.08811859598475419,0.05225358797307266,-0.01710830553572734
1589478018.9810243,-1.1133933852058473,-4.4066066147941525,8.725270233426313,0.5077777777777778,0.18666666666666668,-0.62,0.03856566446739998,0.04172347099217894,0.022986054149727177
1589478018.9910243,-1.1294586258487742,-4.391624122453677,8.801624122453678,0.5077777777777778,0.18666666666666668,-0.62,-0.052679631962294894,0.015771914148441965,0.038346148121102076
1589478019.0010242,-1.12,-4.419697519661222,8.83,0.5080802581165558,0.18646501310748134,-0.6202184580224508,-0.0017507405117744086,0.004926226129059918,-0.07392704733209195
1589478019.0110242,-1.12,-4.404771716309028,8.83,0.5230060614687496,0.1765144775393521,-0.6309982048879241,-0.03431379201189814,-0.02112421507103907,-0.1154449379947497
1589478019.0210242,-1.1197818466460199,-4.420327230030971,8.768691079876119,0.5277777777777778,0.17333333333333334,-0.6344444444444445,0.0161244933436204,0.09276821019096405,-0.06753249732814452
1589478019.0310242,-1.105507266106252,-4.441739100840622,8.683043596637512,0.5277777777777778,0.17333333333333334,-0.6344444444444445,0.0005533414836167046,0.09588244056296479,0.010323261971873943
1589478019.0410242,-1.1099671128994817,-4.420098661301555,8.65,0.5277777777777778,0.17333333333333334,-0.6344444444444445,-0.03372248117724941,0.020976904698580767,0.005568951549578552
1589478019.0510242,-1.11,-4.412457338498964,8.657542661501036,0.5277777777777778,0.17333333333333334,-0.6344444444444445,-0.08318235834107693,0.10382623507497211,0.026846349015413228
1589478019.0610242,-1.1,-4.409158666126447,8.699158666126445,0.5277777777777778,0.1811111111111111,-0.6344444444444445,-0.0372742760375666,0.11123084291150244,0.057384094221311126
1589478019.0710242,-1.1,-4.401770042454243,8.691770042454243,0.5277777777777778,0.1811111111111111,-0.6344444444444445,-0.12512542178451685,-0.00402341251798273,-0.0038699156572963855
1589478019.0810242,-1.1386333944431588,-4.36931669722158,8.662049908335261,0.5277777777777778,0.1811111111111111,-0.6344444444444445,-0.03282083690182945,0.015115431861894048,-0.04060444448574899
1589478019.0910242,-1.1237025434740047,-4.361851271737002,8.684446184788992,0.5277777777777778,0.1811111111111111,-0.6344444444444445,-0.14112959867786665,-0.022344741383953398,-0.019431303085922176
1589478019.1010242,-1.139914764655744,-4.399829529311488,8.879190264229567,0.5277777777777778,0.1811111111111111,-0.6344444444444445,-0.09955847981958182,-0.02077227353606827,-0.05111098530397236
1589478019.1110241,-1.105542620485031,-4.356928275606288,8.871385655121257,0.5402207203804056,0.16866816850848335,-0.6344444444444445,-0.031608694740813334,-0.04703680404879651,0.08028604912948575
1589478019.1210241,-1.0816061166258089,-4.363212233251618,8.778757183619337,0.5422222222222223,0.16666666666666666,-0.6344444444444445,-0.03747827680509134,0.011410958861901598,-0.06320773223810543
1589478019.1310241,-1.090092736546382,-4.380231841365955,8.719814526907237,0.5422222222222223,0.16666666666666666,-0.6344444444444445,-0.03415969784753985,0.04218834093926648,0.07944855933922085
1589478019.141024,-1.1121219849319604,-4.43,8.68106099246598,0.5422222222222223,0.16666666666666666,-0.6344444444444445,-0.09248358002585101,-0.030575137180103955,0.028092688588356906
1589478019.151024,-1.1284527030973193,-4.43,8.689226351548658,0.5422222222222223,0.16666666666666666,-0.6344444444444445,0.026870555476968844,-0.005635467075037124,-0.06632177680939609
1589478019.161024,-1.1109520554829633,-4.295719167755553,8.671904110965926,0.5155555555555555,0.1811111111111111,-0.6288888888888889,-0.017921004445963333,-0.021867423870313964,0.008677329174237714
1589478019.171024,-1.1193836566489095,-4.169245150266359,8.688767313297818,0.5155555555555555,0.1811111111111111,-0.6288888888888889,-0.01240253438743498,-0.05129926418246519,-0.05938380154761201
1589478019.181024,-1.1500249068406927,-4.1524937732898275,8.599925279477922,0.5155555555555555,0.1811111111111111,-0.6288888888888889,0.03549139569649229,-0.04853789444881393,-0.15360846856609972
1589478019.191024,-1.2847108941646328,-4.2535331706234745,8.655103468678352,0.5155555555555555,0.1811111111111111,-0.6288888888888889,0.028938552290617876,0.05490205139718902,0.034329633094176575
1589478019.201024,-1.3591604171289104,-4.309370312846683,8.73575711855632,0.5155555555555555,0.1811111111111111,-0.6288888888888889,0.020817369151456773,0.008882013608609449,0.04245081623333768
1589478019.211024,-1.4,-4.415555644228084,8.78,0.49876541239375927,0.1752345610044824,-0.6448395248925954,0.022955935538674366,0.04957227627482848,0.13014833038784518
1589478019.221024,-1.3325254322434796,-4.410011303219325,8.83997739356135,0.4933333333333334,0.17333333333333334,-0.65,0.010368440888527456,0.06763274150473829,0.19469911529110007
1589478019.231024,-1.33,-3.9617357671167808,8.628518015878402,0.4933333333333334,0.17333333333333334,-0.65,-0.07691012092424476,0.004053105866672894,0.2058305975955388
1589478019.241024,-1.33,-4.27480694849698,8.60717225351157,0.4933333333333334,0.17333333333333334,-0.65,-0.06914858270237992,-0.01612689351017569,0.21669675110614955
1589478019.251024,-1.3563556354689128,-4.669911990158039,8.740563389167534,0.4933333333333334,0.17333333333333334,-0.65,-0.003291693116444075,0.02500845100381666,0.2538889462696537
1589478019.261024,-1.1901961401300607,-4.769930774071743,8.76998846234529,0.4933333333333334,0.17333333333333334,-0.6200346129641284,-0.06209932370302564,0.01420093717871776,0.05586646260513631
1589478019.271024,-0.9578549848942598,-4.596374622356496,8.5892749244713,0.4933333333333334,0.17333333333333334,-0.62,0.005599158608644949,0.09099374240335241,0.20580450615142348
1589478019.281024,-0.9479737159392332,-4.406078852182301,8.578367976850735,0.4933333333333334,0.17333333333333334,-0.62,-0.04840395223932815,0.0478185283209476,0.03310364982180431
1589478019.291024,-0.9365050302206996,-4.4369899395586,8.6934949697793,0.4933333333333334,0.17333333333333334,-0.62,-0.09666077641618276,0.03940862169386479,0.09954006456630779
1589478019.301024,-0.9201663190098734,-4.469848143512724,8.71006508135169,0.493352616696797,0.17332851249246745,-0.6200216937838965,-0.053362361819210495,-0.05779983292395426,0.18316254804562562
1589478019.311024,-1.1606131492774368,-4.249386850722563,8.792924567148376,0.52,0.16666666666666666,-0.65,0.0525143293937954,-0.035606377402696385,0.04960192520927643
1589478019.321024,-1.2346316594443028,-4.175368340555697,8.743578893703798,0.52,0.16666666666666666,-0.65,-0.060524007716566686,-0.017663784210575417,0.05319044384770061
1589478019.331024,-1.0886453148669117,-3.899346461804804,8.712756979008873,0.52,0.16666666666666666,-0.65,0.08618082512542494,0.14807042324127775,-0.1583772515523273
1589478019.341024,-0.8411014931832936,-3.536282190002164,8.729259900454448,0.52,0.16666666666666666,-0.65,0.0339753304549594,-0.036448997576746994,0.029742548208488123
1589478019.351024,-1.1608870568094787,-3.9471451096995094,8.699919358471865,0.52,0.16666666666666666,-0.65,0.059196920070746645,-9.853204121752085e-05,0.0670544203551706
1589478019.361024,-1.4272152238005895,-4.371645671401769,8.691803805950148,0.5173769320110784,0.16666666666666666,-0.65,0.0014808517591381881,0.07580586869913258,0.13961084457351786
1589478019.371024,-1.3509529400564848,-4.529480214514645,8.690086630914225,0.5155555555555555,0.16666666666666666,-0.65,0.02010208705894026,0.040946636893679916,0.1745518251330236
1589478019.381024,-1.115479217909701,-4.0957022553883355,8.620512360862133,0.5155555555555555,0.16666666666666666,-0.65,0.028305710444891677,0.04983564592419264,0.1802178693825272
1589478019.3910239,-0.9891239253970566,-3.906668184467434,8.635964592743699,0.5155555555555555,0.16666666666666666,-0.65,-0.03569041601815867,0.04277215367139044,0.2037362915102597
1589478019.4010239,-0.6699905571293674,-3.2627384324834754,8.836213408876299,0.5155555555555555,0.16666666666666666,-0.65,-0.03230981034425527,-0.09385367964793634,0.34090779582155534
1589478019.4110239,-0.74207233645216,-3.08189149532176,8.94207233645216,0.5155555555555555,0.17178179646956446,-0.62698191588696,-0.01606105261828609,-0.0450416433597711,0.4363636803338109
1589478019.4210238,-0.9118974053796716,-3.0987350630802193,8.969128540823613,0.5155555555555555,0.17333333333333334,-0.62,0.07601701374117804,-0.2140772158705822,0.5352100344097843
1589478019.4310238,-0.9456539245173183,-3.0837692830115455,8.670051421364121,0.5155555555555555,0.17333333333333334,-0.62,-0.012695631998322488,0.036386144013331866,0.5669174154068434
1589478019.4410238,-1.0353516200592645,-3.141070324011853,8.822140648023707,0.5155555555555555,0.17333333333333334,-0.62,-0.06222898435078378,-0.028453272734453278,0.6550320769907766
1589478019.4510238,-1.1032678076979128,-3.1546535615395825,8.849307123079164,0.5155555555555555,0.17333333333333334,-0.62,-0.14594511131061214,-0.09883408743519395,0.8002388104786206
1589478019.4610238,-1.1044266251068322,-3.1344266251068325,8.853606656276707,0.5183970416547964,0.16480887503561076,-0.6292348298225329,-0.056850265941590095,-0.025412556791102284,0.7939290842005434
1589478019.4710238,-1.1098187737904288,-3.1728500634411434,8.863212515860285,0.52,0.16,-0.6344444444444445,0.014881662410385504,-0.07573991896653998,0.8568538340852005
1589478019.4810238,-1.139974821955255,-3.2099874109776274,8.640289547514568,0.52,0.16,-0.6344444444444445,0.02725703706928595,0.013998158013885459,0.962044087696247
1589478019.4910238,-1.1234182048390609,-3.2929089758046968,8.797527054028924,0.52,0.16,-0.6344444444444445,-0.04508096080000215,-0.07806765603962336,1.0588831895216022
1589478019.5010238,-1.1606811130383798,-3.35068111303838,8.764910219138592,0.52,0.16,-0.6344444444444445,-0.08307132242891603,-0.03140714829683032,1.0149299009583799
1589478019.5110238,-1.2190360117589416,-3.423046300832925,8.806041156295933,0.5168866024280037,0.16,-0.6344444444444445,-0.027225875007913757,-0.06526759643688619,1.1065076669745946
1589478019.5210238,-1.2485729104454153,-3.467145820890831,8.838572910445416,0.5155555555555555,0.16,-0.6344444444444445,-0.04971912275160795,-0.17314546168505404,1.1668798576913688
1589478019.5310237,-1.3182038657913933,-3.452949033552152,8.695066785193289,0.5155555555555555,0.16,-0.6344444444444445,-0.07083383482315118,-0.2062226136620176,1.331188154768057
1589478019.5410237,-1.3530167561517625,-3.4557541890379406,8.739050268455287,0.5155555555555555,0.16,-0.6344444444444445,-0.056765861446950436,-0.15232020680822717,1.3459937772757167
1589478019.5510237,-1.382289945440374,-3.447710054559626,8.79,0.5155555555555555,0.16,-0.6344444444444445,-0.10036000290883723,-0.10615203379167343,1.2524786410483957
1589478019.5610237,-1.4405190089705253,-3.481557026911576,8.829480991029474,0.5344444444444445,0.12,-0.65,-0.04449760169777832,-0.07710533425349309,1.181063596553401
1589478019.5710237,-1.4486629645450662,-3.5059888936351986,8.821337035454935,0.5344444444444445,0.12,-0.65,-0.040944130724981244,-0.14017944402064134,1.3303093774108787
1589478019.5810237,-1.4371480157639078,-3.484296031527816,8.736462102465401,0.5344444444444445,0.12,-0.65,0.008706951120740429,-0.22413618309417488,1.4802849250475494
1589478019.5910237,-1.4470794810333676,-3.47,8.707079481033368,0.5344444444444445,0.12,-0.65,-0.0851029379693182,-0.23992026820528548,1.367488470056899
1589478019.6010237,-1.4652915446045187,-3.485291544604519,8.748228861511297,0.5344444444444445,0.12,-0.65,-0.06410936698583991,-0.10634567037865392,1.3487780742330535
1589478019.6110237,-1.5380405405405406,-3.49,8.808600386100387,0.5463245388245388,0.09407979407979408,-0.655400042900043,0.07172528272553917,-0.03261120752459482,1.4872877551823709
1589478019.6210237,-1.5137160836177475,-3.4724773890784983,8.81876130546075,0.5466666666666666,0.09333333333333334,-0.6555555555555556,0.05997596128594934,-0.10809090622392781,1.4137531559719805
1589478019.6310236,-1.566290988394735,-3.4793818313991225,8.754327180206143,0.5466666666666666,0.09333333333333334,-0.6555555555555556,-0.007683507640357148,-0.23454464778792047,1.5082184882998946
1589478019.6410236,-1.5860137623962762,-3.463986237603724,8.75,0.5466666666666666,0.09333333333333334,-0.6555555555555556,-0.020733291090182085,-0.1705443833559005,1.488961499439414
1589478019.6510236,-1.634211033817756,-3.4894740225451706,8.808948045090341,0.5466666666666666,0.09333333333333334,-0.6555555555555556,0.006028607536214484,-0.074749719689557,1.3634797004304966
1589478019.6610236,-1.667674584919883,-3.5,8.835891528306627,0.539465909847455,0.0750041341571581,-0.6607924696058913,-0.01705617251321077,-0.08289502207113274,1.315854749256953
1589478019.6710236,-1.6957609233933946,-3.480298845758257,8.836059769151651,0.5344444444444445,0.06222222222222223,-0.6644444444444444,-0.04379923903198552,-0.14022818571355525,1.3367687444105052
1589478019.6810236,-1.727772831926324,-3.457772831926324,8.795022256331542,0.5344444444444445,0.06222222222222223,-0.6644444444444444,-0.03297758098077044,-0.14529062340925547,1.229882490078024
1589478019.6910236,-1.744868147704516,-3.4505274091819356,8.725395556886452,0.5344444444444445,0.06222222222222223,-0.6644444444444444,-0.08675966348787706,-0.16023252990946552,1.2478105212001869
1589478019.7010236,-1.7755380882042626,-3.43,8.740645705845115,0.5344444444444445,0.06222222222222223,-0.6644444444444444,-0.13618316812747774,-0.2258425990358739,1.4479360718750354
1589478019.7110236,-1.8438178009816488,-3.43,8.848872041766967,0.551971564837104,0.03885272836534287,-0.6829452937478073,0.005350073643992606,-0.07575236123299223,1.2121803274088347
1589478019.7210236,-1.8872657890090054,-3.43,8.80037473758559,0.5544444444444444,0.03555555555555556,-0.6855555555555556,0.006091543744817806,-0.20090438911565744,1.1160917259301724
1589478019.7310236,-1.9344304098433738,-3.4127847950783132,8.754177192617469,0.5544444444444444,0.03555555555555556,-0.6855555555555556,-0.042100582765292896,-0.12961544627610067,1.106005769870623
1589478019.7410235,-1.9558000084814045,-3.378399983037191,8.702599974555786,0.5544444444444444,0.03555555555555556,-0.6855555555555556,-0.061151980142995305,-0.08259769204778825,1.0970812368665055
1589478019.7510235,-1.9943707088911773,-3.3631258582217645,8.834356977342946,0.5544444444444444,0.03555555555555556,-0.6855555555555556,-0.02686638889256987,-0.02727676108061254,1.1098501782993282
1589478019.7610235,-2.01,-3.3227741891616236,8.83485483103284,0.5596146959497745,0.005568096824641329,-0.6927939076630176,-0.048394184390064605,0.020940435325346902,0.9545824798128068
1589478019.7710235,-2.0162183263207107,-3.326218326320711,8.867309957924265,0.56,0.0033333333333333327,-0.6933333333333334,0.007065972412322527,0.012054419606443071,0.9261982558379643
1589478019.7810235,-2.0796215468681485,-3.34192430937363,8.806529834384593,0.56,0.0033333333333333327,-0.6933333333333334,0.05034684275222157,-0.05958286471134933,0.8993882324548268
1589478019.7910235,-2.12,-3.325735103626943,8.79246356865285,0.56,0.0033333333333333327,-0.6933333333333334,0.03181036359928379,-0.1347298770170985,0.92631615600395
1589478019.8010235,-2.12,-3.3039252361673412,8.783551417004048,0.56,0.0033333333333333327,-0.6933333333333334,0.03756738776963922,-0.10387361784953383,0.9445779029518494
1589478019.8110235,-2.1486473035986866,-3.282811617840788,8.805835685757899,0.5517241122937128,-0.011308621839328825,-0.6971529738131582,0.018769711752325578,0.00909436227621123,0.8584228097374059
1589478019.8210235,-2.208937540710719,-3.27,8.824424983715712,0.5455555555555556,-0.022222222222222227,-0.7,-0.06152018767507063,-0.02302207958695876,0.9418098132115762
1589478019.8310235,-2.237024946543122,-3.2785124732715607,8.743387740555953,0.5455555555555556,-0.022222222222222227,-0.7,-0.07930611913320777,-0.08065865600365028,0.9503386974500173
1589478019.8410234,-2.248408030538668,-3.2547759083839956,8.704775908383995,0.5455555555555556,-0.022222222222222227,-0.7,0.017589781314303457,-0.11369084741246852,0.7878227287490144
1589478019.8510234,-2.2227496611810262,-3.2295622458857696,8.754500677637948,0.5455555555555556,-0.022222222222222227,-0.7,-0.008590846803409172,-0.12707507010684227,0.7863666268313719
1589478019.8610234,-2.21,-3.212031523642732,8.819842381786339,0.5606071220081728,-0.0363884024129208,-0.7168223389764545,-0.01902171996728058,0.005568777112044093,0.6413798443080255
1589478019.8710234,-2.2508854457025316,-3.216814240950422,8.850442722851266,0.5644444444444444,-0.04,-0.7211111111111111,0.0029638161115304353,-0.002751727018426589,0.6240906308985585
1589478019.8810234,-2.3083479443772674,-3.2072173518742444,8.764130139056832,0.5644444444444444,-0.04,-0.7211111111111111,0.030125956482074508,-0.07310478823904754,0.6432297390473743
1589478019.8910234,-2.311465673444735,-3.1876437822964903,8.759424870814039,0.5644444444444444,-0.04,-0.7211111111111111,-0.008162014502009415,0.0063810782375591235,0.5387772895305437
1589478019.9010234,-2.3162562671665867,-3.207093778610978,8.811675022888782,0.5644444444444444,-0.04,-0.7211111111111111,-0.03699688827845601,-0.0002100623257743628,0.44168417031547025
1589478019.9110234,-2.385942911456322,-3.2362158790507025,8.836215879050702,0.5492500734316162,-0.04,-0.7245643772503902,-0.03057303805535816,-0.037767654650686024,0.43703877553998943
1589478019.9210234,-2.4304445636623746,-3.224333154506438,8.798221745350501,0.54,-0.04,-0.7266666666666667,0.03425278882196542,0.03291948617562006,0.4380290308358774
1589478019.9310234,-2.44,-3.20460453579022,8.76,0.54,-0.04,-0.7266666666666667,0.02226670897492518,0.019253047347478208,0.3563906515433869
1589478019.9410233,-2.4251729877845785,-3.1481054572460243,8.737759481676868,0.54,-0.04,-0.7266666666666667,0.01575862045612226,-0.08613607596718506,0.3295800408643087
1589478019.9510233,-2.4655067167530933,-3.1755067167530933,8.808011514433874,0.54,-0.04,-0.7266666666666667,-0.01582437318723085,-0.062498533025905925,0.16698044418743696
1589478019.9610233,-2.5508836524300444,-3.2473539518900343,8.843235149729995,0.54,-0.05728795069001255,-0.7507194676266842,-0.09936306375131806,-0.07282968937177246,0.13433390980931934
1589478019.9710233,-2.58,-3.255768220850188,8.84,0.54,-0.06555555555555556,-0.7622222222222222,-1.1999061194173377e-05,-0.07593772315316805,0.14499526203090107
1589478019.9810233,-2.517228291447862,-3.2221014628657163,8.805126828582145,0.54,-0.06555555555555556,-0.7622222222222222,0.07257185494222132,0.04017492742607434,0.06364566459476327
1589478019.9910233,-2.4754682847491556,-3.173670711872889,8.76093656949831,0.54,-0.06555555555555556,-0.7622222222222222,-0.0022013955986660005,-0.08204786153730162,-0.08487547834559643
1589478020.0010233,-2.5975179137789266,-3.2267950976937234,8.865373350561885,0.54,-0.06555555555555556,-0.7622222222222222,-0.05236248301336104,-0.0633734286225121,-0.12606849965515737
1589478020.0110233,-2.643390108419221,-3.2626780216838442,8.85213626020613,0.5286102559526465,-0.06555555555555556,-0.7622222222222222,-0.03560567455756735,-0.12243473168055198,-0.09160784792685528
1589478020.0210233,-2.616589220799747,-3.2667053896001264,8.846821558400505,0.5244444444444445,-0.06555555555555556,-0.7622222222222222,-0.02070044076674877,-0.059028048376840184,-0.07963064712224129
1589478020.0310233,-2.5554850454435125,-3.2427425227217563,8.771413198845709,0.5244444444444445,-0.06555555555555556,-0.7622222222222222,0.037949137707341644,0.032504133134737906,-0.18592717770643524
1589478020.0410233,-2.4869854148326156,-3.1941545123605133,8.715661804944206,0.5244444444444445,-0.06555555555555556,-0.7622222222222222,-0.07249574849032944,-0.03788205705677353,-0.23249134011277459
1589478020.0510232,-2.5504987273457984,-3.2374990909612844,8.796248636441927,0.5244444444444445,-0.06555555555555556,-0.7622222222222222,-0.05816963232870405,0.008452649474710208,-0.24442769935033656
1589478020.0610232,-2.652446076322743,-3.3163823511337798,8.872127450377928,0.5244444444444445,-0.06555555555555556,-0.7696334418976218,0.09753470419677793,0.062107841204556404,-0.35139669428466297
1589478020.0710232,-2.628605154688778,-3.3026219306827476,8.870655482670687,0.5244444444444445,-0.06555555555555556,-0.7744444444444445,0.10821420653977881,0.010924910580535269,-0.4772044133235289
1589478020.0810232,-2.504128662035639,-3.220477197221383,8.748018725460586,0.5244444444444445,-0.06555555555555556,-0.7744444444444445,0.04110531085464673,0.0027259238581623935,-0.5095271902867321
1589478020.0910232,-2.497656686422781,-3.2511848559166157,8.730015838953607,0.5244444444444445,-0.06555555555555556,-0.7744444444444445,0.05974065309960307,0.12589704316351813,-0.41720974247147125
1589478020.1010232,-2.6056374212312168,-3.376665050896752,8.97871546291808,0.5244444444444445,-0.06555555555555556,-0.7744444444444445,0.0692807092954911,0.129611107076044,-0.4431591264900083
1589478020.1110232,-2.4070732622885864,-3.28,8.851341577860733,0.5187533570149157,-0.06840109927031994,-0.7744444444444445,0.024397451533298403,0.016655148622967464,-0.6035621703557422
1589478020.1210232,-2.4589782748116082,-3.274204345037678,8.81045214045214,0.5111111111111111,-0.07222222222222223,-0.7744444444444445,0.00012234024889470896,-0.050428668084068165,-0.7143353125979969
1589478020.1310232,-2.3606400472235105,-3.2766311084875825,8.534542311422186,0.5111111111111111,-0.07222222222222223,-0.7744444444444445,-0.028029020449127112,0.035252687061149215,-0.6821997853753732
1589478020.1410232,-2.4021455681555195,-3.358111316824809,8.714419578801204,0.5111111111111111,-0.07222222222222223,-0.7744444444444445,-0.025089107997418484,0.05599771364914496,-0.7167832410170778
1589478020.1510231,-2.4435424567718713,-3.3994169827087486,8.820044353024363,0.5111111111111111,-0.07222222222222223,-0.7744444444444445,0.029169012857631817,0.07543392513252746,-0.8049501675038736
1589478020.1610231,-2.491187165775401,-3.413729055258467,8.828983957219252,0.5144068132303427,-0.0794727668845316,-0.7744444444444445,0.05932991681640172,0.144174773967774,-0.7683139255700501
1589478020.1710231,-2.4547847070356683,-3.4157974511726117,8.904202548827389,0.5166666666666667,-0.08444444444444445,-0.7744444444444445,0.022117599726028545,0.01750421056943921,-0.7300184917906968
1589478020.1810231,-2.387695298391723,-3.429382820964966,8.68386708874206,0.5166666666666667,-0.08444444444444445,-0.7744444444444445,-0.0006868880486607422,0.02165983581089305,-0.7764158721405207
1589478020.191023,-2.3748425709579806,-3.4496851419159613,8.671379132033554,0.5166666666666667,-0.08444444444444445,-0.7744444444444445,-0.0319349726274628,0.05140642953340836,-0.876174132847037
1589478020.201023,-2.399799551628643,-3.46,8.822999252714405,0.5166666666666667,-0.08444444444444445,-0.7744444444444445,-0.029736682957315033,0.08974167843304837,-0.9332717385829165
1589478020.211023,-2.456486820902394,-3.499568370165746,8.909784185082874,0.5155675452731737,-0.0870090610292613,-0.7799400514119091,0.015041423975241906,0.13966686336800063,-0.8749404545841273
1589478020.221023,-2.447224770642202,-3.5668383909668315,8.920386379675369,0.5133333333333333,-0.09222222222222222,-0.7911111111111111,0.020332408346715874,0.1070713538019682,-0.8739036465648626
1589478020.231023,-2.354573003709996,-3.548140494435006,8.826081273187476,0.5133333333333333,-0.09222222222222222,-0.7911111111111111,0.0551726029438982,0.18010803458649738,-0.9054992339236806
1589478020.241023,-2.3374979432332372,-3.611665295488825,8.607083676127793,0.5133333333333333,-0.09222222222222222,-0.7911111111111111,-0.0922687212014052,0.08354028007383585,-0.8935720664227137
1589478020.251023,-2.3802347453739103,-3.641173726869552,8.611737268695519,0.5133333333333333,-0.09222222222222222,-0.7911111111111111,-0.0371035939717536,0.06705281269210399,-0.8945887566248151
1589478020.261023,-2.368397403330511,-3.671483488569009,8.924093141405589,0.5171052152914981,-0.08845034026405744,-0.7883679242324458,0.027834196130847335,0.10754575500291647,-0.8210979175770095
1589478020.271023,-2.3160646431004466,-3.6457414275982134,8.604771781091515,0.5255555555555556,-0.08,-0.7822222222222223,0.03616750979043564,0.15311033305219654,-0.8697187388393026
1589478020.281023,-2.333415761746049,-3.7434157617460486,8.902574275167545,0.5255555555555556,-0.08,-0.7822222222222223,-0.07970633247488842,0.1324388118405447,-0.9358140448006875
1589478020.291023,-2.326139697322468,-3.7627481567714396,8.82347885137757,0.5255555555555556,-0.08,-0.7822222222222223,-0.014340213006248324,0.09327255064386236,-0.8833398253580547
1589478020.301023,-2.1228296989598285,-3.6464148494799145,8.71698251961382,0.5255555555555556,-0.08,-0.7822222222222223,-0.0006792677517525663,0.11855044358944367,-0.8406194421515866
1589478020.311023,-2.06675077409579,-3.63,8.76350154819158,0.5291721018073215,-0.09446618500706386,-0.7884220157966781,-0.02777180864374516,0.10160004663432123,-0.8653619023358087
1589478020.321023,-2.1003919449209296,-3.6843527504288365,8.87305825128651,0.5333333333333333,-0.1111111111111111,-0.7955555555555556,0.024284614848478624,0.12232268859428065,-0.8776310242182185
1589478020.331023,-2.073601934505907,-3.677746685594668,8.75062486465677,0.5333333333333333,-0.1111111111111111,-0.7955555555555556,-0.016915108039418522,0.10254704361113401,-0.8865798903300932
1589478020.341023,-1.9837547379650013,-3.5690707914387523,8.547974080210626,0.5333333333333333,-0.1111111111111111,-0.7955555555555556,-0.05474839563967239,0.12440125501523838,-0.9116587254805711
1589478020.351023,-2.03339789810217,-3.6331111829127267,8.696652438609618,0.5333333333333333,-0.1111111111111111,-0.7955555555555556,0.01640471927983387,0.1640109084467544,-0.9164229603988044
1589478020.361023,-2.138278544542033,-3.8000886658301964,8.918455876202426,0.5244838514800874,-0.11955834378920953,-0.7869071982898834,0.0696475608894569,0.1769023684248506,-0.9035447634611413
1589478020.371023,-2.0104200494175783,-3.698907518531592,8.651092481468408,0.4844444444444445,-0.15777777777777774,-0.7477777777777778,-0.05467899997528211,0.12752612739733585,-0.949774387438854
1589478020.381023,-2.0120644556794,-3.7721140369712467,8.645970251224892,0.4844444444444445,-0.15777777777777774,-0.7477777777777778,-0.03817907738737596,0.012856659489631217,-0.8878902848726404
1589478020.391023,-2.1021839911765237,-3.9140613303921747,8.642490643137396,0.4844444444444445,-0.15777777777777774,-0.7477777777777778,-0.02754653928416209,0.03596844244795508,-0.8309748197818941
1589478020.401023,-2.147686007196196,-3.929228669065399,8.763829352523189,0.4844444444444445,-0.15777777777777774,-0.7477777777777778,0.012161460507761984,0.19066419163732592,-0.8260113198079037
1589478020.411023,-2.0507320524682955,-3.8581886463832795,8.744913187829969,0.4799186608368561,-0.1403211838627938,-0.7306444541204787,-0.0818123086872342,0.06039086909392601,-0.7221299780126538
1589478020.421023,-2.041139309891194,-3.9303291583303643,8.864835420834819,0.4688888888888889,-0.09777777777777777,-0.6888888888888889,-0.04381275931939647,0.026602464924816483,-0.6627556821254074
1589478020.431023,-1.8533095510533755,-3.825633708016423,8.784294945143703,0.4688888888888889,-0.09777777777777777,-0.6888888888888889,0.00545415391248228,0.022907446432425576,-0.5857761302005968
1589478020.4410229,-1.7759019652825572,-3.7940980347174427,8.583607861130229,0.4688888888888889,-0.09777777777777777,-0.6888888888888889,0.0064198607235980915,0.03546163497693113,-0.6128159209118396
1589478020.4510229,-1.868393020145626,-3.8183930201456255,8.686632559916786,0.4688888888888889,-0.09777777777777777,-0.6888888888888889,0.07706097611934083,0.07341392823006618,-0.7048838199175186
1589478020.4610229,-1.770206511312983,-3.712034080009028,8.382568413925409,0.47388315246352825,-0.07780072347922035,-0.6752681700489633,0.08820102077843488,0.03222089970477217,-0.6366239364500622
1589478020.4710228,-1.6617613019891502,-3.5484009299922503,8.24848204598295,0.4811111111111111,-0.048888888888888885,-0.6555555555555556,0.03303523679385133,0.05318463693317285,-0.6912378531451889
1589478020.4810228,-1.7212785582517383,-3.561461209430558,8.636529627602425,0.4811111111111111,-0.048888888888888885,-0.6555555555555556,0.010101412805351082,0.06431916786162772,-0.6110919003140239
1589478020.4910228,-1.6137616555763723,-3.4763761655576375,8.801009324461099,0.4811111111111111,-0.048888888888888885,-0.6555555555555556,-0.057844099379403394,0.020685991871641607,-0.5135610981174923
1589478020.5010228,-1.5731004682274248,-3.4799002006688964,8.746699933110367,0.4811111111111111,-0.048888888888888885,-0.6555555555555556,-0.02814314232732963,-0.03839680575225686,-0.5138901627382712
1589478020.5110228,-1.5774328408327738,-3.4337844190732034,8.782567159167227,0.4905704798149392,-0.021036303260950674,-0.6524024326542796,-0.02780116679983748,0.022995723873185023,-0.4615248997387998
1589478020.5210228,-1.440941542018932,-3.2820738492665655,8.985852301466869,0.5011111111111111,0.01,-0.6488888888888888,0.004364663120108109,-0.021817955640051408,-0.4336773984515742
1589478020.5310228,-1.3421248371431955,-3.085270046192112,8.863769394764894,0.5011111111111111,0.01,-0.6488888888888888,0.00799460229294275,0.021683088039635354,-0.414188305994532
1589478020.5410228,-1.4227917465328674,-3.1179862442214454,8.651017025594768,0.5011111111111111,0.01,-0.6488888888888888,-0.05875370304501179,0.059356125998294845,-0.3574455315401745
1589478020.5510228,-1.6554826665554212,-3.548725960535647,8.843243293980226,0.5011111111111111,0.01,-0.6488888888888888,-0.044269181413970626,0.013886010559629597,-0.27626234959468415
1589478020.5610228,-1.6125943059557482,-3.663007745380528,8.818552962013271,0.4979678436002949,0.02392018469075753,-0.6488888888888888,-0.0072175228625265125,0.04125482283621685,-0.14756374962983473
1589478020.5710227,-1.4682842674448544,-3.5741211054845077,8.58502102823792,0.4933333333333334,0.04444444444444445,-0.6488888888888888,0.019246876358264865,0.008703708010747411,-0.05198097513284824
1589478020.5810227,-1.5858207349035809,-3.6627931196084216,8.688165691770955,0.4933333333333334,0.04444444444444445,-0.6488888888888888,0.016455691577465806,0.008389568509797475,-0.13103667966166593
1589478020.5910227,-1.6877425233888184,-3.69919375835315,9.081292590214014,0.4933333333333334,0.04444444444444445,-0.6488888888888888,-0.10742995262781461,-0.10120157828718138,-0.2835113186835495
1589478020.6010227,-1.6452818385575219,-3.654904827217074,8.010563677115044,0.4933333333333334,0.04444444444444445,-0.6488888888888888,0.043881991659951845,-0.020973341018653887,0.02035605625243069
1589478020.6110227,-1.7645457130431874,-3.739091091559897,8.249091426086375,0.4933333333333334,0.04444444444444445,-0.6488888888888888,-0.1359575718650955,0.03718753910008484,-0.05464086811120606
1589478020.6210227,-1.704197284743127,-3.8783945694862543,8.723578277945016,0.5133333333333333,0.06333333333333334,-0.6322222222222222,-0.03718321397050543,0.06270766698566273,-0.1494838961703791
1589478020.6310227,-1.729282310958713,-3.928564621917426,8.924258487669704,0.5133333333333333,0.06333333333333334,-0.6322222222222222,0.033961934846292674,0.0006836910940951346,-0.18232011870120907
1589478020.6410227,-1.4422514085976628,-3.5499512207846413,8.70714445951586,0.5133333333333333,0.06333333333333334,-0.6322222222222222,0.0056391649138332785,-0.044026585972678334,-0.2139559184488606
1589478020.6510227,-1.264069883668999,-3.3489166542608624,8.636443503966314,0.5133333333333333,0.06333333333333334,-0.6322222222222222,0.04063286087828885,0.015951935769750333,-0.24391533995776687
1589478020.6610227,-1.1954413647735553,-3.2620885290467467,8.331706951913796,0.5156601374141708,0.06856864251521778,-0.6345490263030598,0.04327387580125319,0.05053757149344203,-0.3266268146079875
1589478020.6710227,-1.4186398836432248,-3.585127166948386,9.323796532882582,0.5222222222222223,0.08333333333333333,-0.6411111111111111,0.02264167461789226,0.036492168193484276,-0.3206455469861787
1589478020.6810226,-1.5172748788459371,-3.631821255494196,8.76455313873549,0.5222222222222223,0.08333333333333333,-0.6411111111111111,0.046244234091351595,-0.08240868196863735,-0.3066558953185614
1589478020.6910226,-1.4013991224195306,-3.489896928468357,8.489536178107606,0.5222222222222223,0.08333333333333333,-0.6411111111111111,0.0581530027129077,-0.01166016736686548,-0.31332870229741777
1589478020.7010226,-1.3800591739876804,-3.511521559123498,8.882924770271634,0.5222222222222223,0.08333333333333333,-0.6411111111111111,0.007508568408916186,-0.03817907738737596,-0.3430123398819486
1589478020.7110226,-1.2832544536916342,-3.3531361342290853,8.796863865770915,0.5270940056671531,0.09457591051394319,-0.64373437911992,0.02544396798625629,-0.017575978625197504,-0.2954860755446228
1589478020.7210226,-1.3818459770114944,-3.3962586206896552,9.018104597701148,0.5366666666666666,0.11666666666666667,-0.6488888888888888,0.0957056059879336,-0.005930107205626707,-0.21002316739937943
1589478020.7310226,-1.4473656065296931,-3.439546861806924,8.88937799043062,0.5366666666666666,0.11666666666666667,-0.6488888888888888,0.04889887688122517,-0.02650752573317239,-0.16363382787924602
1589478020.7410226,-1.3603817381901138,-3.377415527278653,8.255638378242256,0.5366666666666666,0.11666666666666667,-0.6488888888888888,0.052965363216886545,-0.011597075835747313,-0.19481022311931662
1589478020.7510226,-1.2944622744144376,-3.5117181300396774,9.036427588634327,0.5366666666666666,0.11666666666666667,-0.6488888888888888,0.014191585616962803,0.07998391406034594,-0.09776218354177756
1589478020.7610226,-1.1267010111352873,-3.236589658261871,8.35867208498656,0.5366666666666666,0.11666666666666667,-0.6488888888888888,0.003943633211621002,0.040456097639741846,-0.19365373819176157
1589478020.7710226,-1.1489321615256478,-3.413507381239589,9.021808260095353,0.5433333333333333,0.11555555555555555,-0.6411111111111111,-0.016207693971764355,0.024599365140505838,-0.15770710005015537
1589478020.7810225,-1.2374823497465604,-3.465334449674149,9.017852099927588,0.5433333333333333,0.11555555555555555,-0.6411111111111111,-0.11053012235179731,0.0663313089167259,-0.19086184152066388
1589478020.7910225,-1.0769371742525446,-3.272732985869381,8.781892675033397,0.5433333333333333,0.11555555555555555,-0.6411111111111111,-0.014095704411183671,-0.015098011793207715,-0.3418689369375516
1589478020.8010225,-0.8401806310798352,-3.0201926731518243,8.000596082563456,0.5433333333333333,0.11555555555555555,-0.6411111111111111,0.059939208827219266,-0.01854149612987762,-0.3926603309034327
1589478020.8110225,-1.3861342655181736,-3.7880671327590867,9.77797481555873,0.5422595181994927,0.11555555555555555,-0.6426144522984879,0.06437671283107275,0.16170688890930773,-0.5249181461530639
1589478020.8210225,-1.3692534327187134,-3.7785068654374263,9.058031777167518,0.5377777777777778,0.11555555555555555,-0.6488888888888888,0.00944730496445342,-0.001638685457958191,-0.4709723741422984
1589478020.8310225,-1.2822247259672306,-3.604449451934461,8.627126761639232,0.5377777777777778,0.11555555555555555,-0.6488888888888888,0.006533444377721298,-0.04094483732041685,-0.5005432214841037
1589478020.8410225,-1.3610588477851084,-3.7475017672007542,8.530103970311028,0.5377777777777778,0.11555555555555555,-0.6488888888888888,0.1079499662080255,0.038933971357260996,-0.6443661962723558
1589478020.8510225,-1.4817764748678663,-3.9508882374339334,9.223982410716197,0.5377777777777778,0.11555555555555555,-0.6488888888888888,0.08959506058599231,-0.01528103768692449,-0.6455468086070573
1589478020.8610225,-1.420262652914368,-3.924360757975534,8.81225953466059,0.5490562618267104,0.11743530289704432,-0.6567211694784254,0.10022835291362885,-0.005834204694822424,-0.6751993973433976
1589478020.8710225,-1.423990399039904,-3.848810881088109,8.811269126912691,0.5777777777777777,0.12222222222222222,-0.6766666666666666,-0.0016131727953570436,0.05075892329108947,-0.6261847614135434
1589478020.8810225,-1.4805279872965462,-3.8557845705967977,8.283150985840942,0.5777777777777777,0.12222222222222222,-0.6766666666666666,0.008208988809635697,-0.07078973572432809,-0.5350832591744098
1589478020.8910224,-1.381463761635706,-4.240184748587455,8.734268119182147,0.5777777777777777,0.12222222222222222,-0.6766666666666666,0.10247918665273009,0.029021991721645025,-0.4383222666294213
1589478020.9010224,-1.379134497647741,-4.365748533866082,8.664883031513824,0.5777777777777777,0.12222222222222222,-0.6766666666666666,0.14692788352445013,0.1493672615068325,-0.5494262699541598
1589478020.9110224,-1.1899220210092156,-4.217081587935812,8.327003608945029,0.5777777777777777,0.12222222222222222,-0.6766666666666666,-0.062419464624526355,-0.07177430343926947,-0.6341972031834988
1589478020.9210224,-1.1796864230494581,-3.9964655841534973,8.980627153901082,0.6755555555555556,0.10666666666666667,-0.67,0.08383337167510278,0.07647787556136823,-0.5613094009572513
1589478020.9310224,-1.2979861780777886,-3.896855168296827,8.756606970657115,0.6755555555555556,0.10666666666666667,-0.67,-0.05885517202492221,0.0009523793758371285,-0.5206964053361227
1589478020.9410224,-1.2191997961264016,-3.8535997590584747,8.7343990362339,0.6755555555555556,0.10666666666666667,-0.67,-0.0030980160310600394,-0.027968775915218187,-0.4934917550230161
1589478020.9510224,-1.1423366093894491,-3.82075184412568,8.474493860083012,0.6755555555555556,0.10666666666666667,-0.67,-0.013364418933483698,0.021235553957168956,-0.45305123775114853
1589478020.9610224,-1.1636145878290893,-4.034749136814846,8.846596353042727,0.7008938162374718,0.10565817867932673,-0.6716387929794274,0.025831668572167097,0.020432244516596868,-0.45761904947470927
1589478020.9710224,-1.2541260250323694,-4.132803193785067,8.823968493741909,0.869345657699132,0.09895362777538004,-0.6825336881983407,0.030768301665633744,0.003976800871708059,-0.599135864820753
1589478020.9810224,-1.1515996326905418,-4.166679155188246,8.871721212121212,0.8988888888888888,0.09777777777777777,-0.6844444444444444,-0.025123806232777234,0.04014237245963771,-0.5788474615543532
1589478020.9910223,-1.2286299357208448,-4.343848852157943,8.617521212121213,0.8988888888888888,0.09777777777777777,-0.6844444444444444,-0.06881785961262922,0.08215588532488001,-0.5183480030284043
1589478021.0010223,-1.2425288409944555,-4.355763727419066,9.04331179574316,0.8988888888888888,0.09777777777777777,-0.6844444444444444,0.06624938630708847,0.13009730113497725,-0.4861744366348613
1589478021.0110223,-1.0839062685857024,-4.093993100987272,8.523350779112645,0.9982929569274281,0.08369982686385682,-0.7216995096678693,-0.055969467370495865,0.05032405800738912,-0.42536911978989045
1589478021.0210223,-1.1706467563680778,-4.309278580012214,8.803457772699513,1.5422222222222222,0.006666666666666667,-0.9255555555555556,-0.05200712668229242,0.07210071063188928,-0.5262227779530103
1589478021.0310223,-1.1957815730337078,-4.3956245692883895,8.612969288389513,1.5422222222222222,0.006666666666666667,-0.9255555555555556,-0.03998546047912169,-0.07785851693416763,-0.4126065555458912
1589478021.0410223,-1.2015165067842017,-4.4443256849019095,8.587190821882292,1.5422222222222222,0.006666666666666667,-0.9255555555555556,-0.05310764955592027,-0.05661271294657089,-0.39916471224875716
1589478021.0510223,-1.2896794196068706,-4.528397098034353,8.64382774229553,1.5422222222222222,0.006666666666666667,-0.9255555555555556,-0.030519249698839422,-0.048514338868363954,-0.33723946443098424
1589478021.0610223,-1.335193309356979,-4.7559665467848955,8.708847584795684,1.5422222222222222,0.006666666666666667,-0.9255555555555556,-0.056052482140845974,0.1798662401962502,-0.37908559537760605
1589478021.0710223,-1.2229548018849141,-4.768495055419128,8.221791663901241,1.0822222222222222,-0.15555555555555556,-0.8544444444444445,-0.07964266530169932,-0.12110324867115818,-0.2960240497527989
1589478021.0810223,-1.3590342181004158,-5.084454748960665,8.83132395267029,1.0822222222222222,-0.15555555555555556,-0.8544444444444445,0.031883863987653846,0.03623532646954089,-0.24175070640112054
1589478021.0910223,-1.4674527154539736,-5.268153491297966,8.776562801425875,1.0822222222222222,-0.15555555555555556,-0.8544444444444445,0.013576531612756059,-0.07181404056687027,-0.23039098660037544
1589478021.1010222,-1.33534739855039,-5.090555837680624,8.353818844928673,1.0822222222222222,-0.15555555555555556,-0.8544444444444445,-0.029213829204710613,-0.08372898010507342,-0.24626080268797293
1589478021.1110222,-1.181708735499193,-4.834120817221326,8.892110038668818,1.0346506104801632,-0.12634256580972777,-0.8387659132505827,-0.0069999099219024,0.05123609899131399,-0.18571541041712986
1589478021.1210222,-1.3290285186274098,-5.026457222058885,8.585200554412198,0.6877777777777778,0.08666666666666667,-0.7244444444444444,0.04022365777713138,0.052042213011531384,-0.2157910143851579
1589478021.1310222,-1.3083309700290042,-5.092612632935869,8.816211408314535,0.6877777777777778,0.08666666666666667,-0.7244444444444444,0.0761223061211983,0.14953068290821972,-0.09936389198603215
1589478021.1410222,-1.3556401869158878,-5.221023364485982,8.39718691588785,0.6877777777777778,0.08666666666666667,-0.7244444444444444,0.11814461975452385,-0.029617075212799826,-0.21142339500823365
1589478021.1510222,-1.1994862071910497,-4.958553762063371,8.454919122042872,0.6877777777777778,0.08666666666666667,-0.7244444444444444,0.05069405253448023,-0.12047919956366197,-0.31536218834384144
1589478021.1610222,-1.0418730890767784,-4.793776411307541,8.569546844307798,0.6877777777777778,0.08666666666666667,-0.7244444444444444,-0.004010705954159616,-0.05717797902680731,-0.3497480365367008
1589478021.1710222,-0.8427152756150732,-4.550511133603239,8.890268607910308,0.5544444444444444,0.18444444444444444,-0.7122222222222222,-0.02313616079689637,0.038008964178302435,-0.2749216727537861
1589478021.1810222,-1.2754034957957023,-5.293428643724696,8.482072173777638,0.5544444444444444,0.18444444444444444,-0.7122222222222222,-0.007106324313237093,-0.035015846469478744,-0.39158326049597314
1589478021.1910222,-1.1965975256646486,-5.153298762832325,8.696804948670703,0.5544444444444444,0.18444444444444444,-0.7122222222222222,0.04723612181012533,0.019503694513547627,-0.4232355289072374
1589478021.2010221,-1.2407596735983153,-5.1753798367991575,8.608480652803369,0.5544444444444444,0.18444444444444444,-0.7122222222222222,-0.008966213641614942,0.025926818565175088,-0.35017249281997503
1589478021.2110221,-1.2363359834082268,-5.30175596266851,8.68981679917041,0.5541187540807312,0.18497369128547836,-0.7127107577677919,0.045067185487840965,0.06248050978692541,-0.3595360160291326
1589478021.2210221,-1.0218732998294067,-4.818308589607636,8.705377380238831,0.5366666666666666,0.21333333333333332,-0.7388888888888889,-0.03407300906178265,-0.003180579707210328,-0.6115113425664667
1589478021.2310221,-0.9367352328711462,-4.626735232871146,8.775925643760475,0.5366666666666666,0.21333333333333332,-0.7388888888888889,0.04134225950408338,0.12195586765751223,-0.5478844284680946
1589478021.241022,-0.9503276814988291,-4.623478969555036,8.642667915690867,0.5366666666666666,0.21333333333333332,-0.7388888888888889,-0.0012439456157041992,-0.02779146626829327,-0.6152762206701048
1589478021.251022,-1.0917748009367683,-4.686344355971897,9.074867447306792,0.5366666666666666,0.21333333333333332,-0.7388888888888889,0.08961859010488368,0.06135668198586842,-0.635848870267219
1589478021.261022,-1.0730715746421269,-4.761809134287661,8.651192910702113,0.5366666666666666,0.21333333333333332,-0.7388888888888889,-0.04021975632362905,0.08416529091499957,-0.6008168054356812
1589478021.271022,-0.9253375075049318,-4.649053949738399,8.555676301569603,0.5455555555555556,0.24,-0.7333333333333333,0.0430364975550463,-0.023850731100847337,-0.5712271664524398
1589478021.281022,-0.7838612062701131,-4.6231020104501885,8.851320114882867,0.5455555555555556,0.24,-0.7333333333333333,0.16191110449212584,0.043528787243829734,-0.7358500277803691
1589478021.291022,-0.9362545416796428,-4.877090902799405,8.865833765874251,0.5455555555555556,0.24,-0.7333333333333333,0.04712955930049145,0.07835904923301534,-0.6828130379332001
1589478021.301022,-0.8162215376798246,-4.759714185906189,8.47398837689352,0.5455555555555556,0.24,-0.7333333333333333,0.01595029543651182,0.021579355018301626,-0.6615930092607656
1589478021.311022,-0.6963425323128711,-4.433376893518371,8.60052732700308,0.5455555555555556,0.24,-0.7333333333333333,0.002873524513578741,-0.020556906844482737,-0.6790287038246764
1589478021.321022,-0.742089552238806,-4.399104477611941,8.57492537313433,0.5408291873963517,0.2456716417910448,-0.7456218905472637,0.006007709831958095,0.030168797611431833,-0.7735292732416287
1589478021.331022,-0.7665961430443737,-4.677420660924921,8.954250140423142,0.54,0.2466666666666667,-0.7477777777777778,0.14914412466888102,0.06976022159065837,-0.8278068396207005
1589478021.341022,-0.8363416915334253,-4.755731973455663,8.068288424709394,0.54,0.2466666666666667,-0.7477777777777778,-0.011201019510019615,-0.05611178549372975,-0.7774963082208259
1589478021.351022,-0.7803006279784439,-4.690350732641519,9.114388277735713,0.54,0.2466666666666667,-0.7477777777777778,0.0010252439319032077,0.07022627007280607,-0.7734208870735184
1589478021.361022,-0.6254602704204482,-4.372335000308699,8.86243378403408,0.54,0.2466666666666667,-0.7477777777777778,0.05915613654322588,0.024077141377810425,-0.9260545867093243
1589478021.371022,-0.6334159123392091,-4.269876131491186,8.736460219151978,0.5232920438303954,0.2643028426234715,-0.7403520194801758,0.00493290413885486,0.04370079109105621,-0.9712525505295564
1589478021.381022,-0.700030560910245,-4.5638302223893925,9.33292021251587,0.52,0.2677777777777778,-0.7388888888888889,0.002260926174252789,0.14577425814155845,-0.7652420528408238
1589478021.391022,-0.6212954613766156,-4.344093778178539,8.466837992185152,0.52,0.2677777777777778,-0.7388888888888889,0.11563396464407877,-0.17790738579860743,-1.0048984318456358
1589478021.401022,-0.56750319363745,-4.045799233527012,9.288705237565418,0.52,0.2677777777777778,-0.7388888888888889,-0.03093662986546291,-0.028456806987563615,-0.859279282268732
1589478021.411022,-0.7835527671323197,-3.9939473358882434,9.643026538097004,0.52,0.2677777777777778,-0.7388888888888889,-0.07618594672564227,0.17233703657948227,-0.8017749420922539
1589478021.421022,-0.5888994985916618,-3.290106274595977,7.044380431091312,0.4688888888888889,0.2911111111111111,-0.72,-0.13703875766492354,0.048128193271152545,-0.6590067892923299
1589478021.431022,-0.8151247527917058,-3.8012077748257056,9.18933098943247,0.4688888888888889,0.2911111111111111,-0.72,0.09511110029474817,0.07920337110827395,-0.49631909355681203
1589478021.441022,-0.5956994314939662,-3.3905879493628084,8.79085508379652,0.4688888888888889,0.2911111111111111,-0.72,0.012483980465285538,0.01933214405200743,-0.22616587425082657
1589478021.451022,0.9200883403427945,-7.122439715112962,9.092239786968744,0.4688888888888889,0.2911111111111111,-0.72,-2.123487204566304,-0.471873542682283,-3.0457638713319106
1589478021.461022,-1.1280966905597072,-13.33071801128565,-2.015721518987341,0.4688888888888889,0.2911111111111111,-0.72,-1.3120090094266712,-0.069553147430232,-3.779884741484449
1589478021.471022,-1.46929659173314,-9.578349045201836,2.196281524454113,0.46070376637212507,0.30865065936131925,-0.7159074387416181,0.20043508050597103,0.2548625354832086,-3.9023471908866143
1589478021.481022,-1.1256242154074756,-1.1325163323341787,6.002919837060947,0.4533333333333333,0.3244444444444444,-0.7122222222222222,1.8070397903798152,0.9983827828541686,-3.4735711133321443
1589478021.4910219,1.3096474671316956,-1.3331126156160777,12.97630079841343,0.4533333333333333,0.3244444444444444,-0.7122222222222222,2.178687428133589,0.9334006501892245,-3.243196777720319
1589478021.5010219,-0.6193103212460036,2.7901242926262153,3.1092156058196974,0.4533333333333333,0.3244444444444444,-0.7122222222222222,-0.49336940425105213,-0.45190750266592783,-2.5704892613705557
1589478021.5110219,0.8987086016559336,0.06183130174793039,6.209895929162833,0.4533333333333333,0.3244444444444444,-0.7122222222222222,-0.5512914643576889,0.3098741543946889,-1.950975817158862
1589478021.5210218,1.1089068159367799,-2.186494567006915,14.247280210734276,0.3996356053122599,0.3951464530055244,-0.6952179416822156,0.28711269618327656,0.38635056866592044,-1.7980311411020993
1589478021.5310218,0.27844709052364636,-1.5039510233193985,7.211596497137084,0.38666666666666666,0.4122222222222222,-0.6911111111111111,-0.05863503438011387,-0.016362461737446838,-1.2571842166064136
1589478021.5410218,0.2618271154874884,-2.5094595130069544,9.048103738632536,0.38666666666666666,0.4122222222222222,-0.6911111111111111,-0.23086604793086934,-0.016362461737446838,-1.0178737556727322
1589478021.5510218,-2.9000858926702517,-8.78601717853405,8.986979140351512,0.38666666666666666,0.4122222222222222,-0.6911111111111111,0.034687348090602144,0.10055006045709278,1.1638558585231171
1589478021.5610218,-1.3107051860406367,-8.468141037208127,9.372971597675846,0.38666666666666666,0.4122222222222222,-0.6911111111111111,0.05450158123228846,-0.11823209714902701,0.9392945495840056
1589478021.5710218,0.44,-2.98,10.19,0.3688888888888889,0.43,-0.7033333333333334,-0.03381575425739013,0.009817477042468105,0.8126689329598598
1589478021.5810218,0.44,-2.98,10.19,0.3688888888888889,0.43,-0.7033333333333334,-0.03381575425739013,0.009817477042468105,0.8126689329598598
1589478021.5910218,-0.6381468954957836,-6.910942663223564,8.634796956054755,0.3688888888888889,0.43,-0.7033333333333334,-0.06295745603303096,-0.3357198440115588,1.1821440804724488
1589478021.6010218,0.09935160065111237,-4.043197232772654,8.31236028214867,0.3688888888888889,0.43,-0.7033333333333334,-0.0018907536270672404,-0.10246529258546064,1.4202411110568904
1589478021.6110218,-0.21793153376771118,-3.6979315337677114,8.36524149343262,0.3688888888888889,0.43,-0.7033333333333334,-0.0604847561712509,-0.16350813347924367,1.3932578914640024
1589478021.6210217,-0.4442939127282979,-4.1741916191780275,8.616127746118686,0.37038977601471307,0.44050620988076933,-0.7145899867770148,-0.03171356402344316,-0.15208761180566835,1.6964906265454205
1589478021.6310217,-0.2932090484645229,-3.905475110146643,8.813395475767738,0.3711111111111111,0.4455555555555555,-0.72,0.049786701928231744,-0.1935499068248961,1.8692310444131897
1589478021.6410217,-0.4411110598014315,-4.002486723620411,9.062857076887555,0.3711111111111111,0.4455555555555555,-0.72,0.03929877199062375,-0.2088392636632758,2.0825979097846736
1589478021.6510217,-0.6050488732706709,-4.066831510892001,8.762377816823323,0.3711111111111111,0.4455555555555555,-0.72,-0.03766031823017229,-0.22684952010628714,2.295668742825714
1589478021.6610217,-0.5266528912173375,-4.0083264456086685,8.845281312030197,0.3711111111111111,0.4455555555555555,-0.72,-0.07577009081413824,-0.189828480528709,2.414036954044234
1589478021.6710217,-0.4588909925687509,-3.9455545037156243,8.796094807592182,0.39679199339444526,0.43432016955659686,-0.7039494485729162,-0.02678274321905188,-0.1425338453909536,2.678069161867594
1589478021.6810217,11.046217882836588,-16.795087358684484,6.536762589928057,0.4066666666666667,0.43,-0.6977777777777778,-0.08813307328303585,-0.047422550975950745,0.9802622460897621
1589478021.6910217,3.97868326466205,-6.180275269571316,7.634974138686771,0.4066666666666667,0.43,-0.6977777777777778,0.1016483688592739,0.22198487707765813,0.5971293960014494
1589478021.7010217,-0.8147220506485482,-4.237283302450072,9.193030677372864,0.4066666666666667,0.43,-0.6977777777777778,-0.02026414132750648,-0.17162527835455127,0.2856632482499528
1589478021.7110217,-1.5713119569208174,-3.6058560763676417,8.390058744339738,0.4066666666666667,0.43,-0.6977777777777778,-0.08263493740853431,-0.15761603680188235,0.06127329071059981
1589478021.7210217,0.25896682197692233,-4.814462928797023,8.842495700303324,0.4330514817015333,0.39811834849953615,-0.7197651236401666,-0.002059305956099114,0.16691829255806678,-0.054963660858879326
1589478021.7310216,-0.1514352906320019,-4.868521008092143,8.803774790289427,0.43333333333333335,0.3977777777777778,-0.72,0.012355537665409047,0.1222669144737838,-0.08252510680313024
1589478021.7410216,-0.44860545443623473,-4.427427464408002,8.559276746560942,0.43333333333333335,0.3977777777777778,-0.72,-0.03203754347198698,-0.0797997727454541,-0.1418429604692057
1589478021.7510216,-0.2154864504664593,-4.546745520509403,8.671396416407523,0.43333333333333335,0.3977777777777778,-0.72,-0.10218849626146118,-0.038848307645318034,-0.011850972675986893
1589478021.7610216,-0.19067868177136973,-4.653616117404737,8.73,0.43333333333333335,0.3977777777777778,-0.72,0.01869334019088989,0.030537476350137784,-0.06088408539858027
1589478021.7710216,-0.24750124797827522,-4.564992512130349,8.718332501347817,0.4488899982029113,0.38546208475602856,-0.707036112608685,0.042175341545962836,0.08435994015713129,-0.11490102393404249
1589478021.7810216,-0.24704367335648647,-4.483521836678244,8.74886897993054,0.46,0.37666666666666665,-0.6977777777777778,-0.03335034832191311,-0.043939221789204064,0.03450591753269122
1589478021.7910216,-0.24,-4.548394247380584,8.612693231024657,0.46,0.37666666666666665,-0.6977777777777778,0.0868661413345599,-0.024325396737455707,-0.055622237670125724
1589478021.8010216,-0.23491790118952055,-4.610492592862877,8.616231482157191,0.46,0.37666666666666665,-0.6977777777777778,0.1244433894564898,0.04951725357879173,-0.010529546030969228
1589478021.8110216,-0.22539371772805508,-4.593937177280551,8.703818846815835,0.46,0.37666666666666665,-0.6977777777777778,0.11366536547603184,0.12099186189771308,0.09911962514291053
1589478021.8210216,-0.22450181777917214,-4.558007271116688,8.733505453337516,0.4534973743189736,0.3711644449365674,-0.7077818172870491,0.10017952201280533,0.05618453920130298,-0.023333455641630543
1589478021.8310215,-0.2388373277084773,-4.566744008437284,8.732325344583046,0.4455555555555555,0.3644444444444445,-0.72,0.07349173377648732,-0.05558119444419889,-0.05248531695082723
1589478021.8410215,-0.24505512689411546,-4.5747243655294225,8.660551268941155,0.4455555555555555,0.3644444444444445,-0.72,0.06896287574945499,0.013868102784622185,0.025690449127864154
1589478021.8510215,-0.2349076726607531,-4.6,8.630369309356988,0.4455555555555555,0.3644444444444445,-0.72,0.03357404184847054,-0.038558663759140334,0.028318190001062938
1589478021.8610215,-0.23600593574662593,-4.5819821927601225,8.692041550226381,0.4455555555555555,0.3644444444444445,-0.72,0.008933157605224925,-0.07216896851433599,0.08792484600629634
1589478021.8710215,-0.2324000129328462,-4.562400012932846,8.727599987067155,0.4455555555555555,0.3644444444444445,-0.7031111398507693,-0.018805888832126732,0.0925894868652874,-0.0238671828368775
1589478021.8810215,-0.21819203338521267,-4.548192033385212,8.741807966614788,0.4455555555555555,0.3644444444444445,-0.6977777777777778,0.030297013889613592,0.040591390083121986,0.05142057540986408
1589478021.8910215,-0.22783290938522016,-4.581610121898847,8.684612665587526,0.4455555555555555,0.3644444444444445,-0.6977777777777778,-0.0039010236318309105,-0.047135486029469015,0.09175792798673237
1589478021.9010215,-0.23401979559336383,-4.621960408813273,8.651960408813272,0.4455555555555555,0.3644444444444445,-0.6977777777777778,-0.011701005607096401,-0.060872676391822055,0.1089427195727517
1589478021.9110215,-0.23,-4.5953420845366235,8.677328957731687,0.4455555555555555,0.3644444444444445,-0.6977777777777778,0.02770423805083004,0.06539394509398706,0.1116106325474028
1589478021.9210215,-0.2353338972211334,-4.559332205557733,8.7060016916634,0.4313318296325331,0.3709636521591631,-0.7007410540117408,0.030179036542898406,0.11926016736283954,0.04617358227632168
1589478021.9310215,-0.23460692657606116,-4.5553930734239385,8.698427706304244,0.4188888888888889,0.37666666666666665,-0.7033333333333334,0.03920814120484896,0.013227293578829222,0.07546102689932505
1589478021.9410214,-0.23,-4.571462112165116,8.634151551339537,0.4188888888888889,0.37666666666666665,-0.7033333333333334,-0.03375288174118665,-0.014078355822361652,0.023359155229449508
1589478021.9510214,-0.23,-4.588192002849764,8.62048000712441,0.4188888888888889,0.37666666666666665,-0.7033333333333334,-0.022914401947968066,0.06963691187585819,-0.04212351527966254
1589478021.9610214,-0.2267610665095382,-4.603238933490462,8.662955733961848,0.4188888888888889,0.37666666666666665,-0.7033333333333334,0.05502231775062075,0.1442368015002532,0.01614231911801395
1589478021.9710214,-0.22412228417611998,-4.593510863295521,8.71885598923284,0.4358360571684933,0.37437650879104445,-0.7069975859343289,0.03321759055970125,0.032555038273235914,0.012046538676071708
1589478021.9810214,-0.23,-4.566949264463113,8.753898528926227,0.46,0.3711111111111111,-0.7122222222222222,0.08636059164247768,-0.07549014015561215,-0.04927378565934402
1589478021.9910214,-0.23,-4.56,8.705056213916743,0.46,0.3711111111111111,-0.7122222222222222,0.04845927086021934,-0.017315405675361547,0.04186523026861056
1589478022.0010214,-0.22526895383312157,-4.583655230834392,8.66,0.46,0.3711111111111111,-0.7122222222222222,-0.05905548099055357,-0.07995729573012991,0.03405046075358167
1589478022.0110214,-0.22599978768577494,-4.5980004246284505,8.6839991507431,0.46,0.3711111111111111,-0.7122222222222222,-0.132208644518792,-0.058689869003133166,0.05039564103488106
1589478022.0210214,-0.23723950988687287,-4.5682814703393815,8.728958039547491,0.4495429301634058,0.3711111111111111,-0.6953300324861855,-0.03910610067058616,0.034258567768607556,0.06751784826120624
1589478022.0310214,-0.24,-4.554712687698469,8.75586193690459,0.4455555555555555,0.3711111111111111,-0.6888888888888889,0.025565322728417862,-0.00961639390143057,0.0006650957181356526
