time,acc_x,acc_y,acc_z,mag_x,mag_y,mag_z,gyr_x,gyr_y,gyr_z
1589479241.5706756,0.0,-4.45,8.88,0.46,0.2766666666666667,-0.62,0.004363323129985824,0.001090830782496456,-0.001090830782496456
1589479241.5806756,0.0092018604242996,-4.4315962791514005,8.815586977029904,0.46,0.2766666666666667,-0.62,0.004363323129985824,0.001090830782496456,0.002924238260328305
1589479241.5906756,0.023171482831186162,-4.459514448493559,8.806342965662372,0.46,0.2766666666666667,-0.62,0.00034595510984168767,0.002075730659050126,0.010403456356208693
1589479241.6006756,0.03,-4.48,8.82,0.47022265182321177,0.27325911605892944,-0.6307905769245014,0.0022059491112467497,0.004314748037478149,0.018035139230572282
1589479241.6106756,0.04821526954605406,-4.470892365226973,8.801784730453946,0.48,0.27,-0.6411111111111111,0.004762725602412319,0.00019468389176231045,0.01864146524832091
1589479241.6206756,0.07365239196019277,-4.445390432159229,8.743476080398072,0.48,0.27,-0.6411111111111111,0.009333883800923324,-0.001783247407000828,0.014265979256006624
1589479241.6306756,0.09392036339383888,-4.4385604845251185,8.712480847918957,0.48,0.27,-0.6411111111111111,0.012662324083100297,0.0004276453068571737,0.0011342658132034982
1589479241.6406755,0.11318032616057938,-4.4727213046423175,8.759540978481738,0.48,0.27,-0.6411111111111111,0.010561388057530685,0.004263180169596164,-0.010064253849512319
1589479241.6506755,0.1151474390544201,-4.519410243782319,8.813967926619059,0.4702948781088402,0.27,-0.6308668157815535,0.005582818759765167,0.009255978545309516,-0.01791829238163972
1589479241.6606755,0.05214564269874851,-4.507858690388193,8.869284785767084,0.46,0.27,-0.62,-0.0024152422089343062,0.00561018945275119,-0.0172197118760019
1589479241.6706755,-0.013288969229852402,-4.456711030770148,8.852259192308457,0.46,0.27,-0.62,-0.006178954747660842,-0.0009639814270856724,-0.012245578258825357
1589479241.6806755,-0.034413043478260866,-4.435586956521739,8.857934782608696,0.46,0.27,-0.62,-0.006416930646598717,-0.002534995883671112,-0.005551380134400443
1589479241.6906755,-0.015231429048847958,-4.444922856983718,8.865231429048848,0.46,0.27,-0.62,-0.00545415391248228,0.000520170398203505,-0.0011076607778596047
1589479241.7006755,0.004172240324701309,-4.475033441948208,8.837483279025896,0.4683444806494026,0.27,-0.6176820887084993,-0.003633670641219401,0.002181661564992912,0.0018204832712628786
1589479241.7106755,0.005527566244060341,-4.527889735023758,8.82447243375594,0.48,0.27,-0.6144444444444445,0.00037276974160011054,-0.00025767264183469956,0.005339056812716868
1589479241.7206755,-0.010036506722046125,-4.556691004481364,8.76308995518636,0.48,0.27,-0.6144444444444445,0.0029115369304022797,-0.004732243078308104,0.010559299204730258
1589479241.7306755,-0.024081049787726745,-4.546324199150908,8.64775685063682,0.48,0.27,-0.6144444444444445,0.004040494475405244,-0.00892713009579751,0.02177240984824555
1589479241.7406754,-0.005086525013901292,-4.472802837548655,8.704740424958295,0.48,0.27,-0.6144444444444445,0.0019325499065236638,-0.010927184654688452,0.029452431127404314
1589479241.7506754,0.009048309097342748,-4.423330918159301,8.747144927292029,0.48,0.27,-0.6144444444444445,-0.00192212813198282,-0.007843442223883265,0.029452431127404314
1589479241.7606754,0.1074162724692526,-4.392583727530747,8.835167455061494,0.4744444444444445,0.28444444444444444,-0.6266666666666667,-0.0016545126873210203,7.306605430534461e-05,0.025579723847937705
1589479241.7706754,0.09779117434289848,-4.408835302628407,8.845582348685797,0.4744444444444445,0.28444444444444444,-0.6266666666666667,-0.0038748561024729428,0.006665457445975451,0.019400584606468797
1589479241.7806754,0.05536194029850747,-4.469440831556503,8.806480277185502,0.4744444444444445,0.28444444444444444,-0.6266666666666667,-0.007574819662398497,0.008019757676666243,0.005655108666443247
1589479241.7906754,-0.005665616948182078,-4.484812482107071,8.883549957056971,0.4744444444444445,0.28444444444444444,-0.6266666666666667,-0.00792249817381981,0.007017792540584128,0.004177197980725049
1589479241.8006754,-0.10510438556867058,-4.668828289176504,9.14192587937231,0.4744444444444445,0.2774710040087026,-0.6245746345359442,-0.013815718817218506,0.0033591726575229646,0.040771367104226006
1589479241.8106754,-0.0983332695325958,-4.696594189028825,8.799782567086476,0.4744444444444445,0.26222222222222225,-0.62,0.0024188023227082345,0.0037309477760782955,0.0862230683202601
1589479241.8206754,0.11042794388550375,-4.562972934674791,8.665743233668698,0.4744444444444445,0.26222222222222225,-0.62,0.013322139977361421,-0.017406611083594432,0.11370191268520978
1589479241.8306754,0.14130729985806897,-4.37536691089033,8.626811922206452,0.4744444444444445,0.26222222222222225,-0.62,0.01144621222133542,-0.011256073164384102,0.10777206443068833
1589479241.8406754,0.08,-4.259844573619184,8.63511656978561,0.4744444444444445,0.26222222222222225,-0.62,0.0016235303826992694,-0.008151560689617452,0.06750435060432612
1589479241.8506753,0.028722936241083498,-4.274184709172611,8.746856675989065,0.4744444444444445,0.2666535734112644,-0.6168347491506841,-0.001864486652808652,0.0012301368284401313,0.04008212686048152
1589479241.8606753,-0.01,-4.3,8.82,0.4744444444444445,0.27,-0.6144444444444445,-0.003272492347489368,0.00545415391248228,0.031634092692397225
1589479241.8706753,-0.008755311530198137,-4.473776557650991,8.851287180711386,0.4744444444444445,0.27,-0.6144444444444445,-0.001502789316253771,0.004911056113490967,0.01472853315595907
1589479241.8806753,0.0,-4.43411484375,8.796858072916667,0.4744444444444445,0.27,-0.6144444444444445,0.003272492347489368,0.0007915909006522459,0.01120754770680877
1589479241.8906753,0.0,-4.456939059134181,8.84153047043291,0.4744444444444445,0.27,-0.6144444444444445,0.002771647069513874,-0.0014247276344801186,0.01292302096396564
1589479241.9006753,0.0,-4.442366409561532,8.848816795219234,0.4744444444444445,0.27,-0.6144444444444445,0.0003872028590568774,-0.0030143571081181165,0.01212820622714664
1589479241.9106753,-0.006998713193550829,-4.451500643403225,8.87699871319355,0.4666666666666667,0.27,-0.6355555555555555,0.001090830782496456,-0.0013095584142300957,0.001690577159656626
1589479241.9206753,0.008875558246915447,-4.459437779123458,8.861124441753084,0.4666666666666667,0.27,-0.6355555555555555,0.001090830782496456,-0.008236015989016085,-0.0009068444308881203
1589479241.9306753,0.0024747011840407025,-4.452474701184041,8.72247470118404,0.4666666666666667,0.27,-0.6355555555555555,0.0008208827595932533,-0.015001682932047181,-0.001090830782496456
1589479241.9406753,0.010458858214955777,-4.460458858214956,8.729541141785045,0.4666666666666667,0.27,-0.6355555555555555,0.00010010733313502721,-0.014080692839318898,-0.0010407771159289423
1589479241.9506752,0.01860180696342001,-4.46720361392684,8.725592772146321,0.46775415013956223,0.26891251652710446,-0.6326038147005534,0.0023341807654102768,-0.011541581006208921,0.00030503840083472955
1589479241.9606752,0.01,-4.447920852250385,8.766237443248848,0.4744444444444445,0.26222222222222225,-0.6144444444444445,0.003272492347489368,-0.00827304658664384,0.0017280618916651039
1589479241.9706752,0.01,-4.43586408171774,8.81120387742339,0.4744444444444445,0.26222222222222225,-0.6144444444444445,0.00295265630505008,-0.004363323129985824,-0.0012221534376750474
1589479241.9806752,0.01,-4.450500418010272,8.792001672041083,0.4744444444444445,0.26222222222222225,-0.6144444444444445,0.0020724872910490412,-0.004363323129985824,0.0009816565085525853
1589479241.9906752,0.013262422864566418,-4.456737577135434,8.8397872685937,0.4744444444444445,0.26222222222222225,-0.6144444444444445,-0.0003558751286189315,-0.004007448001366892,-0.0007349556538775244
1589479242.0006752,0.02,-4.453176970073522,8.869530910220565,0.47638592615604114,0.2615162288725507,-0.6200923912418166,-0.0009175539449330757,-0.0034457691850527483,0.0001732768375633803
1589479242.0106752,0.02,-4.4657647909386675,8.90305916375467,0.4866666666666667,0.2577777777777778,-0.65,-0.000923979282881924,-0.002053374922781014,0.00016685149961453202
1589479242.0206752,0.02,-4.455927875816255,8.831134509795062,0.4866666666666667,0.2577777777777778,-0.65,-0.00307006124694836,0.002423430305429628,-0.0006466309415187319
1589479242.0306752,0.01631466579077024,-4.461056002627689,8.76368533420923,0.4866666666666667,0.2577777777777778,-0.65,-0.003157300330221307,0.006775368729514857,0.00040200759992150555
1589479242.0406752,0.01,-4.475766879806203,8.765766879806202,0.4866666666666667,0.2577777777777778,-0.65,-0.0006290690011563039,0.011370069606304711,0.0015525925638366083
1589479242.0506752,0.01,-4.46395228303428,8.75395228303428,0.4866666666666667,0.2577777777777778,-0.65,0.000659703583003265,0.01265884219046428,0.002841365147996177
1589479242.0606751,0.011116689328173482,-4.467766621343653,8.744466757312694,0.4922222222222222,0.2766666666666667,-0.6266666666666667,0.0059414015499450485,0.010786495915598868,0.0019380377462615275
1589479242.0706751,0.013537078475248302,-4.4532314607623755,8.754148313900993,0.4922222222222222,0.2766666666666667,-0.6266666666666667,0.009817477042468105,0.008759983980859393,0.00035249768720290413
1589479242.0806751,0.0028294015019343097,-4.458585299249033,8.716976409011606,0.4922222222222222,0.2766666666666667,-0.6266666666666667,0.009971796955185687,0.006699304607696318,0.001090830782496456
1589479242.090675,0.018737389061670336,-4.450631305469165,8.812424334370021,0.4922222222222222,0.2766666666666667,-0.6266666666666667,0.010839443081072223,0.007566950733582855,0.001090830782496456
1589479242.100675,0.003091505575050352,-4.451030501858351,8.8641220074334,0.4903902189184887,0.27597966542776664,-0.6259796654277666,0.006320164065277113,0.009929887357318916,0.000978420467645645
1589479242.110675,0.02921824712942007,-4.459739415709807,8.898957662839226,0.47490770540478816,0.2701737228601289,-0.6201737228601288,0.004420173803021394,0.010879882488446775,2.84253365177851e-05
1589479242.120675,0.17363491979458945,-4.588310656996135,8.828959182593044,0.4744444444444445,0.27,-0.62,0.00410830122647032,0.008613110693325026,-0.0033152847457015478
1589479242.130675,0.12182328339245063,-4.551302345280321,8.762344221504579,0.4744444444444445,0.27,-0.62,0.0033009051139136496,0.0013465456803149912,-0.013811434208938265
1589479242.140675,0.08576511654093008,-4.514822092106745,8.809412791352326,0.4744444444444445,0.27,-0.62,0.003041515285617441,-0.006609039221841915,-0.03814026390609357
1589479242.150675,0.07002251998648801,-4.5699211800472925,8.77005629996622,0.4744444444444445,0.27,-0.62,0.0021828898397170384,-0.010902166451343929,-0.050161020148699206
1589479242.160675,0.004238231284895337,-4.555595578212238,8.721357346927343,0.4744444444444445,0.25,-0.6144444444444445,0.0028101730325990337,-0.012793842227782924,-0.06360056969022602
1589479242.170675,-0.017390392618640515,-4.516304803690679,8.688914411072039,0.4744444444444445,0.25,-0.6144444444444445,0.0038258786124426465,-0.017184570261171705,-0.07035061459731635
1589479242.180675,-0.07356291326801487,-4.443682127515807,8.667006612288237,0.4744444444444445,0.25,-0.6144444444444445,-0.0011659606404346985,-0.012939709674080986,-0.07145591838207804
1589479242.190675,-0.07773302253763696,-4.328262315526918,8.794936752085993,0.4744444444444445,0.25,-0.6144444444444445,-0.003272492347489368,-0.0072429129804688665,-0.06382050005319538
1589479242.200675,-0.07150577545505836,-4.241080856370817,8.863436469994358,0.4744444444444445,0.25,-0.6144444444444445,-0.003272492347489368,-0.003167189295736064,-0.05634833996451858
1589479242.210675,-0.06139280591117005,-4.228607194088831,8.89721438817766,0.4677499601531323,0.2672143881776599,-0.6249643483307922,-0.0070280892526962645,-0.000303863112389464,-0.041396949956598664
1589479242.220675,-0.026867783379411286,-4.353572938689218,8.960603350138234,0.4666666666666667,0.27,-0.6266666666666667,-0.009703586432228599,0.00045556244095802553,-0.019245206934319078
1589479242.230675,-0.0012886241665311451,-4.464415961945032,8.883865872499594,0.4666666666666667,0.27,-0.6266666666666667,-0.008773501956902349,0.004175900342263022,-0.007154108755077838
1589479242.240675,0.048034345229484826,-4.4519656547705155,8.83606869045897,0.4666666666666667,0.27,-0.6266666666666667,-0.00457774280312972,0.0004288393462877927,-0.001090830782496456
1589479242.250675,0.039412497842885356,-4.458824995685771,8.81471248058597,0.46745000287615285,0.26954305387779975,-0.6259486084746377,-0.005518240456258652,0.0025020942838747734,-0.001090830782496456
1589479242.260675,0.03137019922152129,-4.442740398443043,8.742331792993692,0.47817306770463824,0.2632879327278499,-0.6161191323818593,-0.006395519146079925,0.00688848773298114,-0.001090830782496456
1589479242.270675,0.048475644608154456,-4.441524355391846,8.623902578432618,0.48,0.26222222222222225,-0.6144444444444445,-0.006618123561904979,-0.00025942389005167044,-0.0001662813784889571
1589479242.280675,0.04181633430712562,-4.448183665692874,8.597265337228503,0.48,0.26222222222222225,-0.6144444444444445,-0.011703050028495574,0.0033726664432273254,-0.0008926994451447563
1589479242.290675,0.021429616164148853,-4.460714808082074,8.639292505066969,0.48,0.26222222222222225,-0.6144444444444445,-0.016362461737446838,0.005376180446531876,-7.797346595040381e-05
1589479242.300675,0.03895735389372949,-4.469478676946864,8.753222800309242,0.48,0.26222222222222225,-0.6144444444444445,-0.016362461737446838,0.004420190653384321,-0.0010339632590979592
1589479242.310675,0.022429185753014863,-4.5,8.897570814246986,0.4744444444444445,0.26222222222222225,-0.62,-0.011795952636242524,-0.004893289249143913,0.00026498305957904465
1589479242.320675,0.027603102487512236,-4.495206204975025,8.882809307462537,0.4744444444444445,0.26222222222222225,-0.62,-0.002533096417608239,-0.00759082853062307,0.0008293698235853724
1589479242.330675,0.02791348341312689,-4.474064887440155,8.869891854266408,0.4744444444444445,0.26222222222222225,-0.62,0.0047831398256568056,-0.011339921390155256,-0.00021580678259534823
1589479242.3406749,0.0563967267664935,-4.45270245492513,8.905495908458118,0.4744444444444445,0.26222222222222225,-0.62,0.010220459586815035,-0.012893441321914749,-0.0009925667484750951
1589479242.3506749,0.040151326527789306,-4.4406053061111574,8.930151326527788,0.4744444444444445,0.26222222222222225,-0.6201345124691461,0.006346898733313681,-0.009718434061635578,0.001074323619024368
1589479242.3606749,0.060148529372550066,-4.474925735313725,8.911245833444442,0.4744444444444445,0.26222222222222225,-0.6288888888888889,-0.007836522989254226,-0.003272492347489368,-0.00018450547061078424
1589479242.3706748,0.11266237132489076,-4.447337628675109,8.73538917277642,0.4744444444444445,0.26222222222222225,-0.6288888888888889,-0.01621373778939263,-0.0018203940496760082,-0.0028333487398724874
1589479242.3806748,0.11455820789168968,-4.44,8.64,0.4744444444444445,0.26222222222222225,-0.6288888888888889,-0.02181661564992912,0.0036656801509157093,-0.012384674952428142
1589479242.3906748,0.09451354716309955,-4.445486452836901,8.647315270449202,0.4744444444444445,0.26222222222222225,-0.6288888888888889,-0.021417629540515383,0.00783530853218206,-0.02788201076331463
1589479242.4006748,0.06973055448812135,-4.469730554488121,8.680808336535636,0.4744444444444445,0.26252160612430964,-0.6286942893525321,-0.01964965005786435,0.008858910016324887,-0.0404489147899377
1589479242.4106748,0.050768552634553224,-4.450768552634553,8.73769434209634,0.4744444444444445,0.28359049707271866,-0.6149995102360662,-0.02068386682384569,0.01816686091015702,-0.04665421538582579
1589479242.4206748,0.09151407995866434,-4.238878285861913,8.738224342827618,0.4744444444444445,0.28444444444444444,-0.6144444444444445,-0.024522292370415994,0.015493858752902294,-0.05159936778254783
1589479242.4306748,0.13892107472712006,-4.069567590260286,8.772086481947943,0.4744444444444445,0.28444444444444444,-0.6144444444444445,-0.031171107838869134,0.0029349850902685923,-0.06194196962236382
1589479242.4406748,-0.38623547364714167,-3.7416351684470004,8.956121610517666,0.4744444444444445,0.28444444444444444,-0.6144444444444445,-0.03851916971726333,-0.006544984694978735,-0.12091626819011336
1589479242.4506748,-0.5972411248805192,-3.5939312125836365,9.005356262472121,0.4744444444444445,0.28444444444444444,-0.6144444444444445,-0.05002774269956729,-0.006544984694978735,-0.15467474893820501
1589479242.4606748,-0.6999473465428848,-2.6009131217957604,8.615109694702323,0.4744444444444445,0.2766666666666667,-0.6355555555555555,-0.08759495628138832,-0.016473555076110393,-0.1805310586028678
1589479242.4706748,-0.1680210299272041,-1.7527788262784219,9.669593181750097,0.4744444444444445,0.2766666666666667,-0.6355555555555555,-0.09530111543078709,-0.035921635091290226,-0.16143148576350155
1589479242.4806747,-0.2421102391820964,-2.2965117710416987,8.880964592843343,0.4744444444444445,0.2766666666666667,-0.6355555555555555,-0.039330034316506404,-0.01668284234322391,-0.10854281945875228
1589479242.4906747,-0.2134268519943239,-2.6837374980766273,8.629984954950334,0.4744444444444445,0.2766666666666667,-0.6355555555555555,-0.023685673471163064,0.009912571093859755,-0.07881853385259996
1589479242.5006747,-0.20962442654704863,-3.006244265470486,8.588497706188194,0.47415233175881566,0.27695877935229557,-0.6349713301842979,0.08002000554161905,0.059376158090899966,0.07437602105051291
1589479242.5106747,-0.20107248445305334,-2.9207248445305334,8.554289937812214,0.4675008212412637,0.28361028986984743,-0.621668309149194,-0.010468594815076615,-0.029246697928544244,0.20311238032086346
1589479242.5206747,-0.18760410022779042,-3.2039589977220957,8.810832801822324,0.4666666666666667,0.28444444444444444,-0.62,-0.01790751545169808,-0.011033393067768366,0.3786894848085345
1589479242.5306747,-0.17363730955035303,-3.288483587266196,8.758483587266197,0.4666666666666667,0.28444444444444444,-0.62,0.010875905840368665,-0.02274203146352527,0.486143892025102
1589479242.5406747,-0.18153943275388837,-3.3422631290027445,8.819684172003658,0.4666666666666667,0.28444444444444444,-0.62,-0.006466041680435762,-0.028203714315821908,0.576349036844205
1589479242.5506747,-0.3120117108874657,-3.43436120768527,8.942481610247025,0.4666666666666667,0.28444444444444444,-0.62,-0.01065201748192239,-0.03657566591879516,0.6366270883856124
1589479242.5606747,-0.29,-3.47,9.1,0.4866666666666667,0.26222222222222225,-0.62,0.008726646259971648,-0.03381575425739013,0.7286749627076325
1589479242.5706747,-0.30707370604408857,-3.457804495682794,9.034144276687087,0.4866666666666667,0.26222222222222225,-0.62,0.0026071597620242947,-0.03780672371257319,0.7773647900608658
1589479242.5806746,-0.36512249371413835,-3.4012175230481594,8.821462510476437,0.4866666666666667,0.26222222222222225,-0.62,-0.016176202609895947,-0.05222706639789677,0.9448740582565132
1589479242.5906746,-0.38540310102507896,-3.3268552962413773,8.787661498291534,0.4866666666666667,0.26222222222222225,-0.62,-0.015438778918479392,-0.06033872700347889,1.0105047667925866
1589479242.6006746,-0.384516685262197,-3.315483314737803,8.78,0.4866666666666667,0.26222222222222225,-0.62,-0.0194585889092288,-0.0663643125565764,1.073830020446176
1589479242.6106746,-0.3687197154923316,-3.4046021338075128,8.813840853523004,0.4866666666666667,0.25532871502309157,-0.6287735546170754,-0.023522690511239702,-0.07288939047384382,1.1629577552340116
1589479242.6206746,-0.391318373362672,-3.5013183733626723,8.73978120523945,0.4866666666666667,0.25,-0.6355555555555555,-0.02263175538605324,-0.07321754124895227,1.2454166509668336
1589479242.6306746,-0.4189883253875896,-3.6008949284883065,8.644046698449642,0.4866666666666667,0.25,-0.6355555555555555,-0.02181661564992912,-0.07689720265270467,1.332698092889306
1589479242.6406746,-0.4678741181971579,-3.6658531378966845,8.703832157596212,0.4866666666666667,0.25,-0.6355555555555555,-0.02181661564992912,-0.07918973761772616,1.3874108825687868
1589479242.6506746,-0.4981463525275722,-3.68,8.837951291429219,0.4866666666666667,0.25,-0.6355555555555555,-0.01686796566815208,-0.0816101071149521,1.4510018537534342
1589479242.6606746,-0.5074218929914792,-3.8284378598295845,8.94648460888923,0.4866666666666667,0.23927948790119666,-0.6355555555555555,-0.014743255869546786,-0.08505072042303431,1.49269122666052
1589479242.6706746,-0.5406993480991209,-3.8803496740495604,8.998076792727417,0.4866666666666667,0.23555555555555555,-0.6355555555555555,-0.02084021543256287,-0.08946719592556443,1.5494183616446335
1589479242.6806746,-0.5741460497199019,-3.8970730248599508,8.90609836327027,0.4866666666666667,0.23555555555555555,-0.6355555555555555,-0.026312919187701185,-0.09037931321808747,1.5703970593726637
1589479242.6906745,-0.6214229647903117,-3.8688141960080737,8.86047432159677,0.4866666666666667,0.23555555555555555,-0.6355555555555555,-0.0229591868922816,-0.09279822720198279,1.5940400862163866
1589479242.7006745,-0.6684548104956268,-3.8296209912536443,8.876151603498542,0.4866666666666667,0.23555555555555555,-0.6355555555555555,-0.02466931306071431,-0.09536341645463185,1.6051559063111989
1589479242.7106745,-0.7405905870245022,-3.769409412975498,8.869630883109686,0.5111111111111111,0.20444444444444448,-0.6288888888888889,-0.028321335938278472,-0.09487006655188816,1.6178389494247838
1589479242.7206745,-0.8070007520880338,-3.702999247911966,8.82812452994498,0.5111111111111111,0.20444444444444448,-0.6288888888888889,-0.02379369516815529,-0.0912479539357896,1.633232928043203
1589479242.7306745,-0.9121174242424243,-3.406352272727273,8.626939393939393,0.5111111111111111,0.20444444444444448,-0.6288888888888889,-0.02009690439358433,-0.09645505916833624,1.6731926949865343
1589479242.7406745,-0.9253570075757577,-3.446071022727273,8.73285606060606,0.5111111111111111,0.20444444444444448,-0.6288888888888889,-0.022985333403069734,-0.09934348817782164,1.7064096285956165
1589479242.7506745,-0.9482925846319182,-3.4325611230521225,8.751707415368081,0.5111111111111111,0.20444444444444448,-0.6288888888888889,-0.029984511537297465,-0.10734037203244531,1.7659483570109218
1589479242.7606745,-0.95,-3.43,8.899376350608485,0.5169201914125522,0.1845275976966465,-0.6380174436482963,-0.025654932267279218,-0.10473336103873479,1.80952499713272
1589479242.7706745,-0.9559230562058464,-3.459615281029232,8.938153887588307,0.5188888888888888,0.17777777777777778,-0.6411111111111111,-0.021413856400604465,-0.10815166076221906,1.849914656101912
1589479242.7806745,-0.9946400093352522,-3.514640009335252,8.895359990664748,0.5188888888888888,0.17777777777777778,-0.6411111111111111,-0.026247572070486315,-0.11032008010241705,1.8969329217830724
1589479242.7906744,-1.0717750806346367,-3.649195145142346,8.854112459682682,0.5188888888888888,0.17777777777777778,-0.6411111111111111,-0.02570488021496286,-0.10860801968469352,1.9248063941030504
1589479242.8006744,-1.1445323143379298,-3.780158165808274,8.866719388602757,0.5188888888888888,0.17777777777777778,-0.6411111111111111,-0.028975285541068267,-0.1138215137826238,1.9525023206985526
1589479242.8106744,-1.151405095839177,-3.7842152875175312,8.901569424964936,0.5522222222222222,0.13111111111111112,-0.6788888888888889,-0.03553759928426339,-0.11593460730337077,1.9575814380430185
1589479242.8206744,-1.1567101163603992,-3.8017752909009985,8.839307878171297,0.5522222222222222,0.13111111111111112,-0.6788888888888889,-0.03272492347489368,-0.11736113621650376,1.9525258207680813
1589479242.8306744,-1.130040694347301,-3.735101735868252,8.752632256628727,0.5522222222222222,0.13111111111111112,-0.6788888888888889,-0.03272492347489368,-0.1137246579060942,1.9343434292160337
1589479242.8406744,-1.2542702068358516,-3.8826331230746662,8.700818541880592,0.5522222222222222,0.13111111111111112,-0.6788888888888889,-0.027493992232439646,-0.10921701185166255,1.8846043564831145
1589479242.8506744,-1.3100832123653166,-3.9233888082435446,8.783472020608862,0.5522222222222222,0.13111111111111112,-0.6788888888888889,-0.028181308057984637,-0.10088823178948642,1.7671355416510814
1589479242.8606744,-1.3492484666993003,-3.842254599902099,8.770751533300698,0.5522222222222222,0.08561349624553288,-0.6767223358000518,-0.013472540697245525,-0.09394807990444096,1.6719201314946164
1589479242.8706744,-1.4177039872525137,-3.5090027289877104,8.920453305005587,0.5522222222222222,0.08444444444444445,-0.6766666666666666,-0.01801354228281012,-0.10201740211611629,1.6331351313056792
1589479242.8806744,-1.4303006012024047,-3.259639278557114,8.701503006012024,0.5522222222222222,0.08444444444444445,-0.6766666666666666,-0.017512315428014246,-0.08842287439118066,1.6023058155702552
1589479242.8906744,-1.4797441942708947,-3.2003069668749267,8.948720971354472,0.5522222222222222,0.08444444444444445,-0.6766666666666666,-0.027220542224954944,-0.09920979305444809,1.5818106701100467
1589479242.9006743,-1.257845216798705,-2.9334142601584463,9.029975721952466,0.5522222222222222,0.08444444444444445,-0.6766666666666666,-0.02436277025047381,-0.08860293706340633,1.5729806366840484
1589479242.9106743,-1.5516318657472152,-3.38,8.96945604475093,0.5644444444444444,0.06,-0.6888888888888889,-0.011501670954952505,-0.08319982103472463,1.5459673411979917
1589479242.9206743,-1.6071634732799007,-3.3704267223196642,8.942554117359737,0.5644444444444444,0.06,-0.6888888888888889,-0.032686246341622954,-0.09381144729469522,1.5151331508052228
1589479242.9306743,-1.5326660154081837,-3.1189978020026197,8.746998290446482,0.5644444444444444,0.06,-0.6888888888888889,-0.03167044483832043,-0.09381144729469522,1.4856749072094495
1589479242.9406743,-1.6215095681406775,-3.234191556762348,8.733463602275666,0.5644444444444444,0.06,-0.6888888888888889,-0.012382812312669963,-0.07313414614609925,1.4753515599800302
1589479242.9506743,-1.719885700389105,-3.1815214615758753,8.748707137645914,0.5644444444444444,0.06,-0.6888888888888889,-0.012384822363273765,-0.0757815690000058,1.4507137839285462
1589479242.9606743,-1.8153161033797218,-3.2974425447316102,8.923089065606362,0.5511111111111111,0.013333333333333334,-0.7244444444444444,-0.03230802226291134,-0.08547975551207597,1.427259607674812
1589479242.9706743,-1.8987017892644134,-3.4141825049701793,8.814687673956263,0.5511111111111111,0.013333333333333334,-0.7244444444444444,-0.00865850728743479,-0.07456459475416372,1.417254043646726
1589479242.9806743,-1.8716093170989943,-3.2476442562202226,8.74241397564849,0.5511111111111111,0.013333333333333334,-0.7244444444444444,-0.010688871246166968,-0.07832037976094723,1.4054289210130306
1589479242.9906743,-1.9525616306856477,-3.3225616306856476,8.888610935234166,0.5511111111111111,0.013333333333333334,-0.7244444444444444,-0.018113169281365245,-0.07673860097564465,1.3923815403067341
1589479243.0006742,-1.9843190878305972,-3.318521368254104,8.962957263491791,0.5511111111111111,0.013333333333333334,-0.7244444444444444,-0.01885396899579192,-0.07479618459646335,1.3709747747610221
1589479243.0106742,-1.8812770868501738,-3.211160988045613,9.06895511075895,0.557700378574737,-0.01741658149692049,-0.7244444444444444,-0.021778622404981178,-0.08172365778235567,1.3279589879926144
1589479243.0206742,-1.8710204169724178,-3.084285837613847,8.710816678896707,0.5577777777777778,-0.017777777777777778,-0.7244444444444444,-0.022796136207976072,-0.09454607594184458,1.2756264727216984
1589479243.0306742,-1.9044750920586395,-3.173425276175919,9.006132147571737,0.5577777777777778,-0.017777777777777778,-0.7244444444444444,-0.024787771014773734,-0.056506292630376743,1.2086164818995593
1589479243.0406742,-2.018749905543941,-3.298749905543941,8.788125236140148,0.5577777777777778,-0.017777777777777778,-0.7244444444444444,-0.025089107997418484,-0.0541324741468674,1.1197378669229967
1589479243.0506742,-1.9926076152461454,-3.130516553181498,8.894612585113876,0.5577777777777778,-0.017777777777777778,-0.7244444444444444,-0.03487841143432786,-0.07004126956659598,1.042215668019114
1589479243.0606742,-1.9916326367203139,-3.064183681639843,8.945816318360157,0.5487301714397559,-0.028764156902518663,-0.7341383083780394,-0.025489839171258966,-0.055599004757274126,0.9788648504709213
1589479243.0706742,-1.8740073257493044,-2.9636526608671154,8.794361990631494,0.5422222222222223,-0.03666666666666667,-0.7411111111111112,0.007891071340501519,-0.03902621642707049,0.8999896431933199
1589479243.0806742,-1.8447820699085549,-2.9743462097256645,8.621743440731562,0.5422222222222223,-0.03666666666666667,-0.7411111111111112,-0.007824643590452419,-0.023666814190636404,0.8107270239001984
1589479243.0906742,-1.676384359185086,-2.816384359185086,8.477116657294866,0.5422222222222223,-0.03666666666666667,-0.7411111111111112,-0.012153899841363364,-0.04028835976553771,0.7159568921120709
1589479243.1006742,-1.7912764247247006,-2.904014950566675,9.040198537095089,0.5422222222222223,-0.03666666666666667,-0.7411111111111112,-0.01873877359880999,-0.030056636168975175,0.6097527503780399
1589479243.1106741,-2.083584889809863,-3.0741673433955925,8.968080423398954,0.547833378448595,-0.07687995295567193,-0.7457870746330885,-0.004544980621053185,-0.006781228016975532,0.5083629446399065
1589479243.1206741,-1.9755517961986266,-2.9527742063886953,8.79166384714897,0.5488888888888889,-0.08444444444444445,-0.7466666666666667,-0.00975710087755373,-0.02642291973558616,0.4329975991161615
1589479243.1306741,-2.181080879380578,-3.1001620075251095,9.167729407008924,0.5488888888888889,-0.08444444444444445,-0.7466666666666667,-0.011191335656960281,0.006863357086051583,0.3416600459147708
1589479243.140674,-2.0972731269113147,-2.963957759938838,8.551392584097858,0.5488888888888889,-0.08444444444444445,-0.7466666666666667,-0.011695803419109698,-0.005022429275380711,0.27806285747705317
1589479243.150674,-2.2309999021143305,-3.08099990211433,9.094444009397025,0.5488888888888889,-0.08444444444444445,-0.7466666666666667,-0.017849220529095294,0.02017631196152753,0.22526061410017506
1589479243.160674,-2.406529461421577,-3.150771230795205,8.951594462265744,0.529660119684094,-0.15281340161704843,-0.775509820473859,-0.012335651524188607,0.008729482456839865,0.17587897686634332
1589479243.170674,-2.4161153494506813,-3.1438846505493188,9.058422338464306,0.5288888888888889,-0.15555555555555556,-0.7766666666666666,-0.019337031176639465,0.007635815477475192,0.16519378920229671
1589479243.180674,-2.3566926085410658,-3.045038912811599,8.576564216015486,0.5288888888888889,-0.15555555555555556,-0.7766666666666666,-0.009496170428700728,0.020756769236437322,0.16064244727174173
1589479243.190674,-2.446276102088167,-3.047398228221894,8.571430078042606,0.5288888888888889,-0.15555555555555556,-0.7766666666666666,-0.014865416707640217,0.016465367045920058,0.1651996610617874
1589479243.200674,-2.4742476944977407,-3.0461651296651606,8.722330259330322,0.5288888888888889,-0.15555555555555556,-0.7766666666666666,-0.011341885548873219,0.00584269950592581,0.18532139489609825
1589479243.210674,-2.5087878357254514,-3.0765908767940884,8.905265027710673,0.5264225601187374,-0.16542087063616126,-0.7723505913189016,-0.012106563040070089,0.022523167690090953,0.2183872059089601
1589479243.220674,-2.64573952449757,-3.149721857349271,8.93250328385656,0.5244444444444445,-0.17333333333333334,-0.7688888888888888,-0.026836364436333162,0.006252646916968963,0.2556681035083166
1589479243.230674,-2.667599370326643,-3.1165977961432505,8.939205037386856,0.5244444444444445,-0.17333333333333334,-0.7688888888888888,-0.033510527698415324,0.01047300581258699,0.3017473625652254
1589479243.240674,-2.609940281341237,-3.024922365743608,8.814779040962577,0.5244444444444445,-0.17333333333333334,-0.7688888888888888,-0.02453001258640392,0.01580857776253374,0.35455778722308373
1589479243.250674,-2.6905218221648037,-2.998068864798068,8.863851598045274,0.5244444444444445,-0.17333333333333334,-0.7688888888888888,-0.027327691530447083,-0.0013584069228751577,0.4205619255099286
1589479243.260674,-2.9352106007299508,-3.1060559629105975,8.857184098905075,0.5300782194748591,-0.20244117099047554,-0.7810954014547873,-0.03650443531869613,-0.002442882772664687,0.5434483593285334
1589479243.270674,-2.9525220936771914,-3.1274779063228086,8.790088374708764,0.5311111111111111,-0.20777777777777776,-0.7833333333333333,-0.023761720214066116,-0.009247961188041075,0.6495997436236147
1589479243.280674,-2.9582417613237975,-3.1217582386762026,8.771758238676203,0.5311111111111111,-0.20777777777777776,-0.7833333333333333,-0.030423394429720682,-0.03717216607862478,0.7640970268627704
1589479243.290674,-3.0647566377095314,-3.189837758473021,8.831108038663894,0.5311111111111111,-0.20777777777777776,-0.7833333333333333,-0.03843851172911298,-0.04063787109928869,0.8649727007361387
1589479243.300674,-2.9980936672689835,-3.131304366096567,8.810936462579317,0.5311111111111111,-0.20777777777777776,-0.7833333333333333,-0.03667599352077723,-0.04670141920571266,0.8974910535811237
1589479243.310674,-2.837997014573595,-2.9971174922418196,8.85239462623247,0.5099564843548816,-0.23225670302427182,-0.7697339304186144,-0.027968966395109568,-0.06079870080978351,0.9696082749538052
1589479243.320674,-3.02,-3.093270832702269,8.775804683003665,0.4533333333333333,-0.2977777777777777,-0.7333333333333333,-0.011621892824170735,-0.04430733055753583,1.0395032175197525
1589479243.330674,-3.1536722673445348,-3.1301525203050407,8.857293694587389,0.4533333333333333,-0.2977777777777777,-0.7333333333333333,-0.036436818612009154,-0.07061433453196818,1.0683294640849177
1589479243.340674,-3.0944849313645726,-3.079311741591511,8.82758884522841,0.4533333333333333,-0.2977777777777777,-0.7333333333333333,-0.030242707052364787,-0.06503643059928835,1.110389922812905
1589479243.350674,-2.9717320822100066,-3.0046805083855608,8.77045411575225,0.4533333333333333,-0.2977777777777777,-0.7333333333333333,0.00140573221457808,-0.03920692788345609,1.1623016059364724
1589479243.360674,-2.984724994691017,-3.0001974941601186,8.865119983011255,0.45484250017696604,-0.28922583233052546,-0.7046591633043109,-0.012694546126903437,-0.05585544700299648,1.174949379412727
1589479243.370674,-3.049726213825401,-2.923673698114718,8.842378817595966,0.4566666666666666,-0.2788888888888889,-0.67,-0.041948759428668596,-0.08091438069451756,1.173718989246833
1589479243.380674,-3.116952195544019,-2.8901713173264114,8.7981514168289,0.4566666666666666,-0.2788888888888889,-0.67,-0.01982183229816078,-0.06704133201614733,1.2037017783069341
1589479243.3906739,-3.0487659076502998,-2.8223616461065872,8.774042615437125,0.4566666666666666,-0.2788888888888889,-0.67,-0.01990419126963546,-0.07078100382757643,1.2204679018621725
1589479243.4006739,-3.0601817443020205,-2.7799545639244947,8.880318052528535,0.4566666666666666,-0.2788888888888889,-0.67,-0.030015193593081437,-0.07854477264672452,1.2277523490811697
1589479243.4106739,-2.933699316830805,-2.603699316830805,8.930043918019697,0.46257957984601583,-0.2737150898569584,-0.6559568311990457,-0.028736388935557976,-0.08398438882666885,1.258035610830156
1589479243.4206738,-2.890696656333562,-2.4793033436664382,8.806049362266025,0.4655555555555556,-0.27111111111111114,-0.6488888888888888,-0.013749852447382858,-0.07196981886575478,1.3054445306775677
1589479243.4306738,-2.907425645495152,-2.514553872970912,8.906235973417584,0.4655555555555556,-0.27111111111111114,-0.6488888888888888,-0.02386850412259322,-0.0808725233263036,1.328750495229167
1589479243.4406738,-2.743396340237281,-2.3255318721093907,8.798542127488437,0.4655555555555556,-0.27111111111111114,-0.6488888888888888,-0.02175300396142641,-0.09251947196614019,1.3481293143080637
1589479243.4506738,-2.9064008042895444,-2.376117504740731,9.124742856208723,0.4655555555555556,-0.27111111111111114,-0.6488888888888888,-0.029422669200771433,-0.09259928628523043,1.3624178854114404
1589479243.4606738,-2.9726370926956145,-2.4092428292753416,9.106214146376708,0.4655555555555556,-0.26691809358668694,-0.6384063450778283,-0.030975228062553255,-0.08282054495632438,1.3758053395925738
1589479243.4706738,-2.6578861330326946,-2.2348844419391205,8.81870349492672,0.4655555555555556,-0.26222222222222225,-0.6266666666666667,-0.024389660412813235,-0.09492748893518624,1.374074772065371
1589479243.4806738,-2.3901373529618932,-2.0884933436641546,9.050821300274706,0.4655555555555556,-0.26222222222222225,-0.6266666666666667,-0.030304150450076228,-0.1313329681675537,1.3523164517575388
1589479243.4906738,-2.379254625457244,-2.0398757709095405,9.0752174450865,0.4655555555555556,-0.26222222222222225,-0.6266666666666667,-0.03276557734968004,-0.12259990368667228,1.3114699436918549
1589479243.5006738,-2.5927936037678516,-2.061056289881495,8.785962473412336,0.4655555555555556,-0.26222222222222225,-0.6266666666666667,-0.02908629349351943,-0.07947448861345864,1.285595246118305
1589479243.5106738,-2.585208642397961,-1.9819848605880785,8.933881090950589,0.4655555555555556,-0.26222222222222225,-0.6301376579135338,-0.0363311505397028,-0.0980575504102053,1.2693753707824476
1589479243.5206738,-2.2898950698866596,-1.7969646361488245,8.714652168689174,0.4655555555555556,-0.26222222222222225,-0.6344444444444445,0.004115309739292066,-0.051065550850990016,1.2819669744024222
1589479243.5306737,-1.9460332851935904,-1.6848760401622997,8.652313630424317,0.4655555555555556,-0.26222222222222225,-0.6344444444444445,-0.011458168008445985,-0.07755706715066574,1.246855705363243
1589479243.5406737,-2.4636033962863038,-1.9117195683224883,9.274107284558006,0.4655555555555556,-0.26222222222222225,-0.6344444444444445,-0.03690664344810458,-0.1144285126364323,1.1771521815758348
1589479243.5506737,-2.4109459221419764,-1.9141624097234455,9.381965827021315,0.4655555555555556,-0.26222222222222225,-0.6344444444444445,-0.005632852631475005,-0.07237740062273869,1.1730760032416372
1589479243.5606737,-2.0080095256995434,-1.7729976185751142,9.302014288549316,0.4741140217415272,-0.2738928579303654,-0.6476711649136734,-0.0464870559090368,-0.13932532801367192,1.057734708123251
1589479243.5706737,-2.160834896158922,-1.7471619087309855,9.072587344585678,0.4777777777777778,-0.2788888888888889,-0.6533333333333333,-0.054190051731615806,-0.14038023098998603,0.9352097580960409
1589479243.5806737,-2.3404893380565395,-1.7180287559908314,8.756978189900673,0.4777777777777778,-0.2788888888888889,-0.6533333333333333,-0.03565210351487262,-0.09959674491315101,0.8494055406356869
1589479243.5906737,-2.339082377726174,-1.6809042158435277,8.553616863374112,0.4777777777777778,-0.2788888888888889,-0.6533333333333333,-0.04482562155933941,-0.06534682505811733,0.8003680407508151
1589479243.6006737,-2.619018213772168,-1.7554337753634766,8.949373701869309,0.4777777777777778,-0.2788888888888889,-0.6533333333333333,0.0024097095085775996,-0.031427742852730214,0.7569031502127895
1589479243.6106737,-2.6259835897435897,-1.7114197802197801,9.006551501831503,0.471935986975987,-0.28327023199023205,-0.645300870980871,0.0058878011035547115,-0.056851575090475226,0.6642472841368017
1589479243.6206737,-2.525333450179651,-1.6627999298922091,8.908666199281395,0.4688888888888889,-0.2855555555555556,-0.6411111111111111,-0.011446410223936828,-0.07640184153906712,0.6216282421241635
1589479243.6306736,-2.4779718616463757,-1.6893239538821252,9.080535354349754,0.4688888888888889,-0.2855555555555556,-0.6411111111111111,-0.026262918610865955,-0.054550773764197306,0.5663224828687137
1589479243.6406736,-2.534457142857143,-1.7147940886699506,8.943970443349754,0.4688888888888889,-0.2855555555555556,-0.6411111111111111,0.023430400381945552,-0.02339364529548114,0.4904652473317745
1589479243.6506736,-2.4987543421293195,-1.6573337802425498,8.896696934609057,0.4688888888888889,-0.2855555555555556,-0.6411111111111111,0.024643309275532863,-0.035529480062861295,0.4040913463825207
1589479243.6606736,-2.656901936289819,-1.6346096189881325,8.71242660836977,0.4642168089388577,-0.294899715455618,-0.6451991810673884,-0.0044457656813175345,-0.01672698045614491,0.30532360415509796
1589479243.6706736,-2.819139243565473,-1.6607332742578644,8.973921335642647,0.46,-0.3033333333333333,-0.6488888888888888,-0.011486764048711167,-0.019728848046437594,0.2458461358934495
1589479243.6806736,-2.5557272221191316,-1.599399517535721,9.012863611059567,0.46,-0.3033333333333333,-0.6488888888888888,-0.009316168540718107,-0.045379086838739646,0.21815101563038586
1589479243.6906736,-2.454795918367347,-1.6205428571428573,8.930542857142857,0.46,-0.3033333333333333,-0.6488888888888888,-0.017937042579201413,-0.03779416995412363,0.17774130341113475
1589479243.7006736,-2.7824436624990643,-1.7016291083327093,9.04837089166729,0.46,-0.3033333333333333,-0.6488888888888888,0.017154594190454578,0.016693296168823132,0.09636363362274766
1589479243.7106736,-2.723122619170184,-1.68,9.123754761659631,0.4629863756477573,-0.31876294084674606,-0.6613321207545443,0.009304462009579826,0.00026156129851068145,0.009882277759188013
1589479243.7206736,-2.499822088816443,-1.6543002822724922,8.902163161451915,0.4666666666666667,-0.3377777777777778,-0.6766666666666666,-0.004649225484917953,0.006636577531325594,-0.07241114103515986
1589479243.7306736,-2.431497769279796,-1.6244251115360102,8.490627788400255,0.4666666666666667,-0.3377777777777778,-0.6766666666666666,0.018958346999196532,0.006776847069715874,-0.15993379941714592
1589479243.7406735,-2.610421030823416,-1.7039623857646002,8.84502244423471,0.4666666666666667,-0.3377777777777778,-0.6766666666666666,0.010111924264114783,0.012817669742035197,-0.267711182903386
1589479243.7506735,-2.6301483646172867,-1.7549752725637855,9.040296729234573,0.4666666666666667,-0.3377777777777778,-0.6766666666666666,-0.003804421014440124,0.008227085731334825,-0.35209558170900074
1589479243.7606735,-2.531177314003505,-1.7531177314003505,8.931824119802453,0.4613137910891615,-0.35039527021046857,-0.6671079602782646,0.0009624057469277318,0.0026628644384567787,-0.4385873106461327
1589479243.7706735,-2.4657449153391444,-1.7969789266272584,9.010936779881776,0.4511111111111111,-0.3744444444444445,-0.6488888888888888,0.0124029678571679,0.01890157685211264,-0.5596195796370383
1589479243.7806735,-2.621442654028436,-1.887860663507109,9.164510900473934,0.4511111111111111,-0.3744444444444445,-0.6488888888888888,0.006128918053389566,0.03184212601319181,-0.7005881896821442
1589479243.7906735,-2.4907846282605663,-1.8075017436183567,8.732663551401869,0.4511111111111111,-0.3744444444444445,-0.6488888888888888,0.03463330674648951,0.09074239207319243,-0.8050150865927589
1589479243.8006735,-2.364925484351714,-1.8582116244411326,9.100163934426229,0.4511111111111111,-0.3744444444444445,-0.6488888888888888,0.0293215639470899,0.06430862011027541,-0.9195069481534284
1589479243.8106735,-2.2765311080262496,-1.9030256183745584,9.220182988389702,0.42300935273991813,-0.46180425851141405,-0.6409470876100735,-0.012103830279607477,0.013247006898177167,-1.0808766762829092
1589479243.8206735,-2.2976256484747872,-1.9778244449055822,8.907824444905582,0.4,-0.5333333333333333,-0.6344444444444445,0.0015233149686424904,0.07455537525245307,-1.225069247069545
1589479243.8306735,-2.392422561741314,-2.088969024696526,8.956185851820846,0.4,-0.5333333333333333,-0.6344444444444445,0.026972720255892115,0.10358958776457561,-1.3511903558517182
1589479243.8406734,-2.5893723615594735,-2.2258194685870376,9.112603675192451,0.4,-0.5333333333333333,-0.6344444444444445,0.02385626876254463,0.0902566310378299,-1.5231957978440716
1589479243.8506734,-2.51430641549203,-2.2932973257805296,9.205477539191147,0.4,-0.5333333333333333,-0.6344444444444445,0.004440634019326239,0.07938693101011983,-1.6761548308051106
1589479243.8606734,-2.0906955605322093,-2.182790146225794,8.966045316822553,0.4,-0.5333333333333333,-0.6344444444444445,-0.006274444482466552,0.07536877657194754,-1.7766086917594182
1589479243.8706734,-2.0002397396205445,-2.301198698102723,8.952954076367389,0.2977777777777777,-1.1111111111111112,0.17777777777777778,0.05180138640068795,0.12764493177378228,-1.9597765648507133
1589479243.8806734,-1.9061081996291218,-2.410498266548416,9.252937998871241,0.2977777777777777,-1.1111111111111112,0.17777777777777778,0.049394766780092275,0.09090068896384762,-2.143719597965095
1589479243.8906734,-1.7370302264107575,-2.5128840363176645,8.681387656591196,0.2977777777777777,-1.1111111111111112,0.17777777777777778,0.025784351209395543,0.133136793388027,-2.4083587428408992
1589479243.9006734,-1.9421487319346318,-2.662364335258874,9.39838297506818,0.2977777777777777,-1.1111111111111112,0.17777777777777778,0.0171836242147465,0.1883617417066778,-2.5975855952269664
1589479243.9106734,-1.6404321024242783,-2.5652231640092467,8.90652895501156,0.5493890239003154,-0.8960240781353934,-0.026487266117400682,0.027744706474017056,0.15086511067962913,-2.7715202769769474
1589479243.9206734,-1.4724664532143756,-2.7575770766629493,9.082158146562579,1.1244444444444444,-0.4044444444444445,-0.4933333333333334,0.022969960136656854,0.12754569435579635,-2.9396354411814
1589479243.9306734,-1.3669215973421347,-2.8641013311184453,8.856307840265787,1.1244444444444444,-0.4044444444444445,-0.4933333333333334,0.04363323129985824,0.21548663395706702,-3.146100511619639
1589479243.9406734,-1.5158823042998897,-3.089412072767365,8.971765159867696,1.1244444444444444,-0.4044444444444445,-0.4933333333333334,0.0395265600871654,0.1969269775962707,-3.3274191651601366
1589479243.9506733,-1.4366041201942004,-3.212375016402047,8.76945807636793,1.1244444444444444,-0.4044444444444445,-0.4933333333333334,0.05280531325004495,0.20681699329969216,-3.4654444392568067
1589479243.9606733,-1.353835147190009,-3.275159322033898,8.28858233719893,1.0701532758449797,-0.3757539894935078,-0.517904133214392,0.08333647467406725,0.2535360478301342,-3.5631759613217957
1589479243.9706733,-1.4337190686102173,-3.4781404656948913,9.061978256754198,0.7144444444444444,-0.18777777777777774,-0.6788888888888889,0.0653732347978512,0.20614111667142204,-3.762467444964762
1589479243.9806733,-1.4480352763629505,-3.690496132805131,9.198198453122053,0.7144444444444444,-0.18777777777777774,-0.6788888888888889,0.04440222481696619,0.19658237899884232,-3.8989524943558416
1589479243.9906733,-1.587345950423756,-3.9750946281781685,9.128389090677372,0.7144444444444444,-0.18777777777777774,-0.6788888888888889,0.05531957193871962,0.23561680761416634,-4.014474291866507
1589479244.0006733,-1.580728341017176,-4.079635829491412,8.811456682034352,0.7144444444444444,-0.18777777777777774,-0.6788888888888889,0.08032422950389259,0.28309958052797984,-4.1125297597920225
1589479244.0106733,-1.5441283322910455,-4.097935833854477,8.738256664582092,0.7144444444444444,-0.18777777777777774,-0.6788888888888889,0.10028643758294357,0.30905045103074613,-4.162435279989651
1589479244.0206733,-1.3645307089484235,-4.277300111952928,8.900845895493244,0.65,-0.07222222222222223,-0.7066666666666667,0.0841936818318703,0.28172632634800937,-4.27745970371397
1589479244.0306733,-1.2731825661277716,-4.3491959767987165,8.576750380517504,0.65,-0.07222222222222223,-0.7066666666666667,0.09110721096819165,0.2792143134459579,-4.336013993550278
1589479244.0406733,-1.278306939916162,-4.484537144853284,8.690073940381929,0.65,-0.07222222222222223,-0.7066666666666667,0.07947974971078275,0.27509938149032465,-4.379374969147747
1589479244.0506732,-1.3897900039387219,-4.797082858268206,9.014574307095918,0.65,-0.07222222222222223,-0.7066666666666667,0.06613208258294555,0.24328622175828718,-4.397289939398319
1589479244.0606732,-1.1754708068762583,-4.673122773733932,8.544803314232617,0.6374771565742605,-0.04456760965704748,-0.7066666666666667,0.0948541730647531,0.2691673736573277,-4.334570185439637
1589479244.0706732,-0.9311072961373391,-4.4254277539341915,9.294446351931331,0.5966666666666667,0.045555555555555564,-0.7066666666666667,0.06632563269390325,0.18200769098198166,-4.2372589843876
1589479244.0806732,-1.2424593992334432,-4.855545235760763,8.916589357340227,0.5966666666666667,0.045555555555555564,-0.7066666666666667,0.044440595814123116,0.1775421947022504,-4.120381706615751
1589479244.0906732,-1.2239931187218223,-5.025545361069367,8.416884046507949,0.5966666666666667,0.045555555555555564,-0.7066666666666667,0.08178776219054669,0.2852393508486412,-4.003257041033626
1589479244.1006732,-1.4509826566335358,-5.26828900245463,8.860046275803791,0.5966666666666667,0.045555555555555564,-0.7066666666666667,0.07612485367584368,0.2765577563365017,-3.7233724215610384
1589479244.1106732,-1.25864455311756,-4.76163181262467,8.884061514703044,0.5902921304935332,0.08499799812681866,-0.7042762156017416,0.05026079513489277,0.18226416468107803,-3.4607318306514907
1589479244.1206732,-0.97,-4.21,8.14,0.5788888888888889,0.15555555555555556,-0.7,0.05235987755982988,0.11999138607461016,-3.2823098245318354
1589479244.1306732,-1.0919525311429283,-4.45811032198044,9.023104535862586,0.5788888888888889,0.15555555555555556,-0.7,0.05740582695539783,0.1553130318435858,-3.080013126036793
1589479244.1406732,-1.1368023430459597,-4.422193852007609,9.435108641233604,0.5788888888888889,0.15555555555555556,-0.7,0.07197432463771555,0.19637004785641263,-2.710317707127593
1589479244.1506732,-0.4708486285996275,-7.459299256594343,6.32339451439851,0.5788888888888889,0.15555555555555556,-0.7,0.09312745320815237,0.18959486048063132,-2.531568820150941
1589479244.1606731,0.6441772393702541,-15.61835081742785,1.8632910425189833,0.5788888888888889,0.15555555555555556,-0.7,0.11643388750872964,0.19906309941524086,-2.4215915832950925
1589479244.1706731,1.2074147275853813,11.593351254870377,2.9328863107028584,0.5244444444444445,0.2677777777777778,-0.6911111111111111,-2.433638180800321,0.4013963564239459,-5.228365071029941
1589479244.1806731,-0.5444740380861492,-2.792598360300178,3.520226868520366,0.5244444444444445,0.2677777777777778,-0.6911111111111111,-3.04123532255076,0.5024849326365943,-5.877612785031203
1589479244.190673,-0.11740698880901212,-2.529893092714741,12.772363262432371,0.5244444444444445,0.2677777777777778,-0.6911111111111111,-2.2206758033821834,-0.287718907201749,-6.066355262763769
1589479244.200673,-1.2442384940339437,-1.5274016156525605,4.402725116727192,0.5244444444444445,0.2677777777777778,-0.6911111111111111,-1.1712082683327494,0.7269924332297317,-5.828995884885059
1589479244.210673,-0.8750500942366829,-2.2987199682571173,10.429700426544985,0.5177222277331394,0.2820288772057446,-0.6860022264105192,0.8710500752476726,0.8177838808077681,-5.601558987402856
1589479244.220673,-0.08453625632377737,-2.564998313659359,6.851585160202362,0.4714933483230279,0.38003410155518075,-0.6508682780588345,1.8876762308171342,0.462872428283072,-5.43000332365051
1589479244.230673,-2.1722613636363635,-5.193166193181819,10.258078124999999,0.4688888888888889,0.3855555555555555,-0.6488888888888888,3.2690831913989578,0.995976538161107,-4.960905334141184
1589479244.240673,0.15128551136363644,3.0658513849431825,7.227041015625,0.4688888888888889,0.3855555555555555,-0.6488888888888888,3.7256355017107445,1.0041002447502847,-4.15340889917692
1589479244.250673,2.366333803875557,-0.8522470530001649,9.172468330063982,0.4688888888888889,0.3855555555555555,-0.6488888888888888,-0.489624857176816,-0.10400542664053584,-1.992348199658916
1589479244.260673,1.1206619979100594,-0.4831591104918694,5.858366179624911,0.4688888888888889,0.3855555555555555,-0.6488888888888888,-0.8888822422370111,-0.437838282216077,-1.7474256021009813
1589479244.270673,3.225569346756769,-5.856938353330575,7.333918999678206,0.3644444444444445,0.4833333333333333,-0.6844444444444444,0.3508944324097947,0.4996423704793353,-1.6509637892311924
1589479244.280673,1.419107438016529,0.3093305785123967,7.248415977961432,0.3644444444444445,0.4833333333333333,-0.6844444444444444,0.5688493212979906,0.23527867708883474,-1.2082152933539432
1589479244.290673,1.863438545717645,-1.0625305236501763,9.398046486388713,0.3644444444444445,0.4833333333333333,-0.6844444444444444,-0.012627029763760067,0.09035816925407705,-0.5856223760381187
1589479244.300673,3.06631656911107,-3.144522456962881,10.323986883925617,0.3644444444444445,0.4833333333333333,-0.6844444444444444,-0.21117133529708135,-0.010641847858607546,-0.32429512950873124
1589479244.310673,2.831064674327298,-2.680050767261588,8.580710022579208,0.3644444444444445,0.4833333333333333,-0.6844444444444444,-0.021667329041754058,-0.013273847945487088,-0.19993312540367272
1589479244.320673,1.4093636652879413,-3.9562901686286986,8.868092586700605,0.34444444444444444,0.4977777777777778,-0.6622222222222223,0.039115637001301086,0.04350221360326503,0.08704295161532967
1589479244.330673,1.1043620178041542,-4.54946587537092,9.302937685459941,0.34444444444444444,0.4977777777777778,-0.6622222222222223,-0.07876639840139098,0.05677499087533482,0.1679879405044542
1589479244.340673,1.4266832533921563,-4.343366506784313,8.053167466078436,0.34444444444444444,0.4977777777777778,-0.6622222222222223,-0.008422734598149077,-0.03298994384506339,0.1698050871430777
1589479244.350673,1.3756574887253739,-4.1324198908141465,9.008685022549251,0.34444444444444444,0.4977777777777778,-0.6622222222222223,0.03590821781512693,0.003202583894777751,0.171664218896402
1589479244.360673,1.5265175097276265,-4.140711590614314,8.6749434029006,0.3434165913348793,0.49912189338259383,-0.6627756815889112,0.017379785882495266,0.008808384611849553,0.15786408934054916
1589479244.370673,1.2545136186770427,-4.148954132767362,8.848036788114609,0.33151069711381,0.5146911396716845,-0.6691865477079485,0.0038929578226412267,-0.002880199706690619,0.14167989566872433
1589479244.380673,0.913868521314068,-4.052262957371863,8.650037919631947,0.33,0.5166666666666667,-0.67,-0.015132346347272336,0.005844425266409737,0.16259722431054283
1589479244.390673,0.928944001150169,-4.022111997699661,8.416367982172382,0.33,0.5166666666666667,-0.67,-0.0060877077409044,-0.013889331692938487,0.20535369772246398
1589479244.400673,1.2560031979400283,-4.172402192873163,9.002004111637179,0.33,0.5166666666666667,-0.67,-0.01653715413288277,-0.023387352175385328,0.30774455244384397
1589479244.410673,0.91374912803602,-3.991694463821422,8.754889973999619,0.3324475588531648,0.5130894652658874,-0.663975239746056,-0.003272492347489368,-0.027067739037544433,0.3708795606716078
1589479244.420673,0.54,-4.0,9.22,0.34444444444444444,0.4955555555555556,-0.6344444444444445,-0.003272492347489368,-0.02072578486743266,0.4243331743911213
1589479244.430673,0.5792304423894027,-3.9884616345913524,9.153077480629843,0.34444444444444444,0.4955555555555556,-0.6344444444444445,-0.009817422514560956,-0.028025899284550973,0.48172717739467213
1589479244.4406729,0.7704329785314811,-4.0255412231643515,8.836832491430632,0.34444444444444444,0.4955555555555556,-0.6344444444444445,-0.029162011945143958,-0.051810526282662486,0.7128705603949492
1589479244.4506729,0.9644702629080854,-4.22467703991085,8.654056708902555,0.34444444444444444,0.4955555555555556,-0.6344444444444445,-0.01747584839191617,-0.055900136471308585,0.8509438165259947
1589479244.4606729,1.0176465458773374,-4.117266737719214,9.061106481930045,0.3442829613840175,0.49450591566278035,-0.6364629826997815,0.00067557313842819,-0.07919647089372706,0.9452900066631859
1589479244.4706728,0.86,-4.21,8.82,0.3422222222222222,0.4811111111111111,-0.6622222222222223,-0.01854412330243975,-0.04581489286485115,1.0090184738092218
1589479244.4806728,1.1027655274167796,-4.222959556965863,9.000792489439537,0.3422222222222222,0.4811111111111111,-0.6622222222222223,-0.015056405898889378,-0.06959794502371218,1.0294067155903714
1589479244.4906728,0.9162655375224852,-4.299255007377165,8.763428865937708,0.3422222222222222,0.4811111111111111,-0.6622222222222223,-0.009508044174017353,-0.06404958329884015,1.0488259816274235
1589479244.5006728,0.7390067384931663,-4.135228804202992,8.931372825217954,0.3422222222222222,0.4811111111111111,-0.6622222222222223,-0.02638386479192426,-0.05184367751313894,1.0855933246293186
1589479244.5106728,0.5633593482316215,-4.095308942779914,8.691853656679484,0.3422222222222222,0.4811111111111111,-0.6622222222222223,-0.009836455596075325,-0.0657783378885907,1.1239136406618104
1589479244.5206728,0.49278866876119753,-4.174980396229844,8.952710253680577,0.36110675471774323,0.4968482215240453,-0.6538290966686573,0.0006041162661923737,-0.08926132934190761,1.1969892967690892
1589479244.5306728,0.36023787844297744,-4.0860541120613965,8.54836753276316,0.3622222222222222,0.4977777777777778,-0.6533333333333333,-0.013394221467010968,-0.08031343177644738,1.2864385115893364
1589479244.5406728,0.31249943091281585,-4.0178563298754515,8.589286202074728,0.3622222222222222,0.4977777777777778,-0.6533333333333333,-0.014882066269139318,-0.09965541420411592,1.3414887692680852
1589479244.5506728,0.36735573122529647,-3.857734354413702,8.993016798418973,0.3622222222222222,0.4977777777777778,-0.6533333333333333,-0.04781103055812402,-0.09755724378901678,1.4807320053996267
1589479244.5606728,0.20157312252964427,-3.767935441370224,8.868679841897233,0.3622222222222222,0.4977777777777778,-0.6533333333333333,-0.030480456501211572,-0.09303622446982224,1.5560823273862028
1589479244.5706728,-0.18143989921446568,-4.19358875549627,9.045759596857861,0.3888888888888889,0.4633333333333333,-0.6622222222222223,-0.029970226797491062,-0.1386594343503393,1.8610283986700993
1589479244.5806727,-0.09197700672151143,-3.5323494147873253,8.55358160537721,0.3888888888888889,0.4633333333333333,-0.6622222222222223,-0.05275057009945134,-0.1421336967950664,2.0293396564623203
1589479244.5906727,-0.33006593406593404,-3.966615384615385,8.706637362637363,0.3888888888888889,0.4633333333333333,-0.6622222222222223,-0.06653108801111901,-0.12382487711024054,2.2002680214829233
1589479244.6006727,-0.45770312764158916,-3.8673420118343196,8.649909721048184,0.3888888888888889,0.4633333333333333,-0.6622222222222223,-0.04796701071194787,-0.1539915027213936,2.320934523927535
1589479244.6106727,-0.21229062100186988,-3.9413743726011217,8.786642800905422,0.3896269778783803,0.4629261118218898,-0.6622222222222223,-0.03351591266940543,-0.1527662831475013,2.540870499142573
1589479244.6206727,-0.32518163498720115,-3.9921055498066553,9.060891019007679,0.4211111111111111,0.4455555555555555,-0.6622222222222223,-0.022845540998333677,-0.1560240915590379,2.703957177734391
1589479244.6306727,-0.5618001932834018,-3.945608117902875,8.896597487315777,0.4211111111111111,0.4455555555555555,-0.6622222222222223,-0.05877429990408411,-0.18110054878405082,2.8831563136966896
1589479244.6406727,1.6685942235692637,-7.447220538420396,8.848863433767159,0.4211111111111111,0.4455555555555555,-0.6622222222222223,-0.07561514906882792,-0.24672748642409278,2.9802745530775834
1589479244.6506727,11.001771690290651,-20.04015303132258,8.879849356400182,0.4211111111111111,0.4455555555555555,-0.6622222222222223,-0.08426229156215895,-0.3775207428335312,2.6196615806477874
1589479244.6606727,2.9751956082405817,-4.289141254185141,7.002115947274757,0.42206527312762043,0.44425153413299273,-0.6622222222222223,-0.050753128861321474,-0.26530598448161485,1.2746632268407894
1589479244.6706727,-1.2798890401633765,-4.100887678692988,9.012764692534603,0.4544444444444444,0.4,-0.6622222222222223,0.2248024274190452,0.480751279092168,0.8436600369697765
1589479244.6806726,-1.2777892285800527,-3.653239618817645,8.610918459747316,0.4544444444444444,0.4,-0.6622222222222223,0.04309809345274245,0.061539300203412015,0.5103818068071625
1589479244.6906726,-0.8405327356130109,-4.2703571726438705,8.35366513761468,0.4544444444444444,0.4,-0.6622222222222223,-0.19145867957990118,-0.31626300394105245,0.23828648024432905
1589479244.7006726,0.07773561301084231,-4.803827356130109,8.930862385321102,0.4544444444444444,0.4,-0.6622222222222223,-0.09796897732793317,-0.19987786440288813,0.028411638454196697
1589479244.7106726,-0.3473946779281571,-4.4620204538516335,8.592020453851633,0.4544444444444444,0.4,-0.6622222222222223,0.0515942868498596,0.07601640294086459,-0.04983602014719873
1589479244.7206726,-0.3335569914502975,-4.492886017099405,8.754430085497024,0.49829246724365117,0.35980597910072715,-0.6512602165224205,0.04159795363010913,0.026329846891074773,-0.03044802212368225
1589479244.7306726,-0.2054357650096837,-4.463363460296966,8.870600387346675,0.5077777777777778,0.3511111111111111,-0.6488888888888888,0.0009042135085380598,-0.008706928208383594,-0.016588515114581353
1589479244.7406726,-0.2040714521512673,-4.584918387558229,8.730846935406962,0.5077777777777778,0.3511111111111111,-0.6488888888888888,-0.02242770975333184,-0.017620260089739638,-0.013551900996307526
1589479244.7506726,-0.15022539705828414,-4.538764626049958,8.738539228991675,0.5077777777777778,0.3511111111111111,-0.6488888888888888,-0.0081630256819855,-0.009229269459535911,-0.01774739631140939
1589479244.7606726,-0.18916391347336436,-4.620133841367834,8.772775942315576,0.5077777777777778,0.3511111111111111,-0.6488888888888888,0.007953223638702243,0.01292216343434108,-0.016756472962281815
1589479244.7706726,-0.2,-4.57208090206592,8.820751458760448,0.4949486148346738,0.3428098880302791,-0.6428516357391929,0.013130955107341129,0.010044468245354725,-0.016362461737446838
1589479244.7806726,-0.19047002041952849,-4.501880081678114,8.811410061258586,0.4888888888888889,0.3388888888888889,-0.64,-0.00245215196025164,-0.005929729404550439,-0.01116466419597635
1589479244.7906725,-0.1705399537782758,-4.550359969185517,8.709820015407242,0.4888888888888889,0.3388888888888889,-0.64,-0.007518015836981492,-0.006368285234238186,-0.006427185054485036
1589479244.8006725,-0.1999138595139716,-4.569942573009315,8.700028713495342,0.4888888888888889,0.3388888888888889,-0.64,-0.0011096237212522607,0.003244302939355663,-1.879293875580411e-05
1589479244.8106725,-0.22534135897228733,-4.527764401712854,8.759129837602003,0.4888888888888889,0.3388888888888889,-0.64,0.0035163582903808355,0.0014296167183384513,-0.0009214378145754583
1589479244.8206725,-0.21052974109756445,-4.549205388353653,8.81867564725609,0.49537897518970075,0.3583591477913245,-0.6692053883536534,-0.0020083041961998878,-0.004218858655991636,-0.001090830782496456
1589479244.8306725,-0.1634103560311726,-4.522046213618703,8.838635857587532,0.4955555555555556,0.3588888888888889,-0.67,0.0059497652808866534,-0.0002976097070460414,-0.001090830782496456
1589479244.8406725,-0.20786493927921726,-4.510427012144157,8.763416097153252,0.4955555555555556,0.3588888888888889,-0.67,0.005500733711616857,0.00626550590017127,0.000997671184227301
1589479244.8506725,-0.2018824954572986,-4.5018824954572985,8.751882495457298,0.4955555555555556,0.3588888888888889,-0.67,-0.004286152302974566,0.001232090395638638,0.00020534839927310628
1589479244.8606725,-0.1895038131093735,-4.541984747562506,8.755248093445314,0.4955555555555556,0.3588888888888889,-0.67,-0.00826241925884841,-0.004579825503652463,-0.0011449563759131157
1589479244.8706725,-0.17472044932346184,-4.543043145264233,8.76,0.4955555555555556,0.3547825716960259,-0.6612007488724364,-0.0017547420884631536,-0.00411936914339739,-0.0004539326462775651
1589479244.8806725,-0.18179806864901044,-4.51,8.77179806864901,0.4955555555555556,0.3511111111111111,-0.6533333333333333,0.008671578026569015,0.0032174241140867357,0.0004473459596791088
1589479244.8906724,-0.21562231759656653,-4.484377682403434,8.737296137339056,0.4955555555555556,0.3511111111111111,-0.6533333333333333,0.005318385274317485,0.001727538878717563,0.0
1589479244.9006724,-0.20666007322193883,-4.5200197803341835,8.750009890167092,0.4955555555555556,0.3511111111111111,-0.6533333333333333,-0.002912478252893127,-0.0025470699089430197,0.0
1589479244.9106724,-0.1791860819712125,-4.546937972676262,8.76,0.4955555555555556,0.3511111111111111,-0.6533333333333333,-0.005788169278640089,-0.0036065077136471784,0.0015136308326772915
1589479244.9206724,-0.1823929764587056,-4.531410535311942,8.797178929376116,0.49142456340265367,0.3511111111111111,-0.6588413228705359,-0.0007226298397137775,0.0007830997148836338,0.00015386553380641096
1589479244.9306724,-0.19787969553879767,-4.527879695538798,8.796360913383607,0.4888888888888889,0.3511111111111111,-0.6622222222222223,0.006479368790203154,0.004132033792531417,0.0014877935526296895
1589479244.9406724,-0.18521715872852587,-4.515217158728526,8.745651476185579,0.4888888888888889,0.3511111111111111,-0.6622222222222223,0.0027981419839702834,-0.00047435036351908474,0.0013753826494087606
1589479244.9506724,-0.18875171960045456,-4.52750343920091,8.756255158801364,0.4888888888888889,0.3511111111111111,-0.6622222222222223,-0.0036824917874802602,0.0006823319769931179,-0.0008184982454942306
1589479244.9606724,-0.1825526964408952,-4.552341910677314,8.782341910677314,0.4888888888888889,0.3511111111111111,-0.6622222222222223,-0.004363323129985824,-0.001346293608163624,-0.001090830782496456
1589479244.9706724,-0.18865452917475004,-4.551345470825249,8.798654529174751,0.49465857500538896,0.3511111111111111,-0.6439515495199721,-0.0005870723972534278,-0.0002935361986267139,0.0007972945838697421
1589479244.9806724,-0.19,-4.5413566992219065,8.808643300778094,0.4955555555555556,0.3511111111111111,-0.6411111111111111,0.004714189275559884,0.0,0.001090830782496456
1589479244.9906723,-0.2089164240946162,-4.511625363858076,8.743792515668844,0.4955555555555556,0.3511111111111111,-0.6411111111111111,0.003390692142765778,0.001031730884858251,0.001090830782496456
1589479245.0006723,-0.1945662312530237,-4.502283115626512,8.755433768746975,0.4955555555555556,0.3511111111111111,-0.6411111111111111,0.001588929343576018,-0.0005927322214168938,0.00024904928053978107
1589479245.0106723,-0.19940649670796018,-4.518812993415921,8.76940649670796,0.4955555555555556,0.3511111111111111,-0.6411111111111111,-0.001987438066851907,-0.0016038755907211832,-0.0005130448082247272
1589479245.0206723,-0.203842480261891,-4.533842480261891,8.783078759869055,0.4972659777050303,0.35350570212037574,-0.6448740398399555,-0.004782472705066399,-0.0031891833761167328,-0.0007549901787885158
1589479245.0306723,-0.19508916440217391,-4.525089164402174,8.800178328804348,0.5011111111111111,0.3588888888888889,-0.6533333333333333,0.0011686414021718139,-0.002123303600236393,0.0
1589479245.0406723,-0.19326567142806,-4.51653134285612,8.74939104285254,0.5011111111111111,0.3588888888888889,-0.6533333333333333,0.007657957784197545,-0.00037837179864705405,0.00146920258114351
1589479245.0506723,-0.1837436141822341,-4.497487228364468,8.726256385817766,0.5011111111111111,0.3588888888888889,-0.6533333333333333,0.0025844538464976563,-0.0004083649587771235,0.002181661564992912
1589479245.0606723,-0.192519786696604,-4.527559360089812,8.748779680044906,0.5011111111111111,0.3588888888888889,-0.6533333333333333,-0.003139376090338243,0.0,0.0014988131290456497
1589479245.0706723,-0.18895863878385677,-4.555520680608072,8.776562041824214,0.5090854275449923,0.3545950261937221,-0.6582406049849525,-0.0049655359647474,-0.0006022128347615765,0.001090830782496456
1589479245.0806723,-0.18,-4.544486515597167,8.813270226604251,0.5155555555555555,0.3511111111111111,-0.6622222222222223,0.0004687513031540547,-0.0019369600990159323,0.002783089415535409
1589479245.0906723,-0.1889321432938012,-4.504271426824795,8.766407140237193,0.5155555555555555,0.3511111111111111,-0.6622222222222223,0.006079044308411965,-0.0012073158791381486,0.0013238009757798412
1589479245.1006722,-0.1983476251832763,-4.508347625183276,8.776695250366553,0.5155555555555555,0.3511111111111111,-0.6622222222222223,0.004723815392846651,-0.002912000084628541,-0.0007303385196356287
1589479245.1106722,-0.18720188420310818,-4.522798115796892,8.799197173695338,0.5155555555555555,0.3511111111111111,-0.6622222222222223,0.0015712073961450753,-0.0018764344805689936,0.001003256017884106
1589479245.1206722,-0.19558299609145308,-4.537791498045727,8.794417003908546,0.5250784976114435,0.3511111111111111,-0.6622222222222223,-0.0008499205910039489,-0.00024091019149250707,-0.0003681002080189351
1589479245.1306722,-0.2,-4.5335488669968615,8.764195467987445,0.5277777777777778,0.3511111111111111,-0.6622222222222223,-0.001090830782496456,-0.0007037094461802461,0.0010202975560442823
1589479245.1406722,-0.1926630826722612,-4.53,8.735326165344523,0.5277777777777778,0.3511111111111111,-0.6622222222222223,0.0029108368523681075,0.002110503325395195,0.0005809945110470864
1589479245.1506722,-0.18251361402576702,-4.507540842077301,8.744972771948467,0.5277777777777778,0.3511111111111111,-0.6622222222222223,0.0059965991840544314,0.002455854320455064,0.0008166380270343039
1589479245.1606722,-0.18872360146591186,-4.508723601465912,8.767447202931823,0.5277777777777778,0.3511111111111111,-0.6622222222222223,0.0027385954896795954,0.0007542656130057343,0.00013923348117167098
1589479245.1706722,-0.19794310160427808,-4.523085347593582,8.794113796791443,0.5244638859180035,0.3525966488413547,-0.661308045157457,-0.0022938479693189644,-0.0008664579738443507,-0.000754271569518298
1589479245.1806722,-0.19569642990794103,-4.55,8.790758925230147,0.4955555555555556,0.3655555555555556,-0.6533333333333333,-0.003272492347489368,0.00023472333655245197,0.00389387645688092
1589479245.1906722,-0.18263125059986562,-4.55,8.727893751799597,0.4955555555555556,0.3655555555555556,-0.6533333333333333,0.001464099277293989,0.0009473183249566713,0.0015213681551158103
1589479245.2006721,-0.1858159196044026,-4.538368160791195,8.760711437230817,0.4955555555555556,0.3655555555555556,-0.6533333333333333,0.0015472431516922137,0.001090830782496456,0.001090830782496456
1589479245.2106721,-0.19,-4.5252925492075855,8.79,0.4955555555555556,0.3655555555555556,-0.6533333333333333,0.001090830782496456,0.002631340451932342,0.001090830782496456
1589479245.2206721,-0.19,-4.515332423286933,8.799335153426131,0.4955555555555556,0.3655555555555556,-0.6533333333333333,-0.0009457837608140465,0.0028358622225029472,0.0005816771466688304
1589479245.2306721,-0.1851183645421749,-4.524644906373475,8.81,0.4955555555555556,0.3655555555555556,-0.6533333333333333,-0.003272492347489368,-0.0005066806854000891,0.0010650076452643634
1589479245.240672,-0.18485635279752927,-4.530287294404942,8.751723766429649,0.4955555555555556,0.3655555555555556,-0.6533333333333333,-9.401687416474508e-05,-6.267791610983005e-05,0.001122169740551371
1589479245.250672,-0.18539098786828423,-4.524609012131716,8.72226308492201,0.4955555555555556,0.3655555555555556,-0.6533333333333333,0.005283553271559438,0.0011761311029578772,0.0010055304620350347
1589479245.260672,-0.19758083140877597,-4.524139722863741,8.789301385681293,0.4955555555555556,0.3655555555555556,-0.6533333333333333,0.003800273060960517,0.0006392570694191124,0.000903147426154687
1589479245.270672,-0.19472816647550384,-4.527635916762248,8.817635916762248,0.5048883427094143,0.3545258980100861,-0.6533333333333333,-0.0030739157459239805,-0.0022409664402398928,0.0008329493056840871
1589479245.280672,-0.1842652619759243,-4.541469476048151,8.785591571855546,0.5077777777777778,0.3511111111111111,-0.6533333333333333,-0.004363323129985824,-0.001395803717624967,0.001090830782496456
1589479245.290672,-0.18558528891816006,-4.54441471108184,8.71531768865472,0.5077777777777778,0.3511111111111111,-0.6533333333333333,-9.849957324008663e-05,-0.0006092605081065338,0.0004815702743899222
1589479245.300672,-0.20264481773313706,-4.527355182266863,8.711612044332842,0.5077777777777778,0.3511111111111111,-0.6533333333333333,0.0025828245263712192,-0.001090830782496456,0.0020690034633544458
