time,acc_x,acc_y,acc_z,mag_x,mag_y,mag_z,gyr_x,gyr_y,gyr_z
1589479262.5099738,-0.29,-4.45,8.68,0.5155555555555555,0.2644444444444444,-0.6444444444444445,0.003272492347489368,-0.00545415391248228,0.030543261909900768
1589479262.5199738,-0.19311828702099648,-4.488752685191602,8.757505370383203,0.5155555555555555,0.2644444444444444,-0.6444444444444445,0.005386123443059037,-0.01707912493811546,0.026315999718761425
1589479262.5299737,-0.23764772167054016,-4.470940911331784,8.693293189661244,0.5155555555555555,0.2644444444444444,-0.6444444444444445,0.007533177973044227,-0.006018660186852584,0.01786384253766715
1589479262.5399737,-0.19955544303797468,-4.494266734177216,8.778978025316457,0.5155555555555555,0.2644444444444444,-0.6444444444444445,0.00675345212310302,-0.00545415391248228,0.014806202456826779
1589479262.5499737,-0.212964624432631,-4.482776531675527,8.863152717189736,0.5155555555555555,0.2644444444444444,-0.6444444444444445,0.005292458732999531,0.000808475897413747,0.009170696324537105
1589479262.5599737,-0.24393652778863442,-4.47,8.965746111154537,0.5155555555555555,0.2690899537073226,-0.6382504320939403,0.0028430837786898562,0.009254752290722198,0.0024136752098903444
1589479262.5699737,-0.28906897011485494,-4.456977009961715,8.866281594636293,0.5155555555555555,0.27111111111111114,-0.6355555555555555,-0.0020801019591788765,0.013039189587050453,0.001090830782496456
1589479262.5799737,-0.1336854921058833,-4.589195664126934,8.994873929777707,0.5155555555555555,0.27111111111111114,-0.6355555555555555,-0.017522695782359612,0.0030459463896761064,0.0031153496520924242
1589479262.5899737,-0.312076484974944,-4.483382134122355,8.797343891634883,0.5155555555555555,0.27111111111111114,-0.6355555555555555,-0.0035781988449835427,0.025378844474050023,0.00701397346185342
1589479262.5999737,-0.19902483564645726,-4.566376004382761,8.857909057706355,0.5155555555555555,0.27111111111111114,-0.6355555555555555,-0.005340110701565694,0.009376642761667393,0.016556285395476253
1589479262.6099737,-0.33352941176470585,-4.5097912713472486,8.727134724857684,0.5201475859160869,0.2619270503900485,-0.6110647269660552,-0.008726646259971648,-0.004847676836065844,0.03541370750992764
1589479262.6199737,-0.4747250649906216,-4.468945012998124,8.613164961005626,0.5222222222222223,0.2577777777777778,-0.6,0.004933847479487243,0.004188260386024679,0.0640088906793686
1589479262.6299736,-0.24851781766029918,-4.5162964364679405,8.687160727446567,0.5222222222222223,0.2577777777777778,-0.6,-0.007763795743772108,-0.018954942130092686,0.10357516827963895
1589479262.6399736,-0.3795936505956465,-4.453964323582611,8.586442025821743,0.5222222222222223,0.2577777777777778,-0.6,0.005626048378394914,0.0069968837816962205,0.09691204517627194
1589479262.6499736,-0.2576535159641169,-4.49671052377737,8.813552618886852,0.5222222222222223,0.2577777777777778,-0.6,-0.00024878559873971456,0.0019328759662531978,0.0255077420623592
1589479262.6599736,-0.27340931007276237,-4.465492241606031,8.853295344963618,0.5281565900080847,0.2745918198377215,-0.6128577968693687,0.0007313644099704478,0.0,0.0005991106208766807
1589479262.6699736,-0.29451752718424457,-4.46,8.864517527184244,0.5288888888888889,0.2766666666666667,-0.6144444444444445,0.0034662556132419135,0.0015836165538303047,0.0
1589479262.6799736,-0.2545254774965303,-4.469094904500694,8.860905095499305,0.5288888888888889,0.2766666666666667,-0.6144444444444445,-0.0015892779459476822,-0.0027788393316183434,-0.002976300537966753
1589479262.6899736,-0.24047915098234451,-4.498562547052966,8.850479150982345,0.5288888888888889,0.2766666666666667,-0.6144444444444445,-0.010490169712160711,-0.011581000494657167,-0.002233928829093393
1589479262.6999736,-0.24,-4.507657674917618,8.872973024752856,0.5288888888888889,0.2766666666666667,-0.6144444444444445,-0.008402339568217874,-0.01116381585521212,-0.0013463388127440165
1589479262.7099736,-0.24,-4.503578867761452,8.802946413137425,0.5203273792374916,0.2688186161528858,-0.6337078411600884,-0.005534504866188642,-0.0074061234728203095,-0.001791267652925306
1589479262.7199736,-0.2508526468827504,-4.494573676558625,8.7382947062345,0.5155555555555555,0.2644444444444444,-0.6444444444444445,-0.004955243194549239,-0.007229914106172525,-0.002181661564992912
1589479262.7299736,-0.25199134873933204,-4.481991348739332,8.615887533611318,0.5155555555555555,0.2644444444444444,-0.6444444444444445,-0.0019597205839160243,-0.005232212931405392,-0.002181661564992912
1589479262.7399735,-0.25,-4.48,8.636320621246895,0.5155555555555555,0.2644444444444444,-0.6444444444444445,-0.001090830782496456,-0.003100124141974004,-0.001550062070987002
1589479262.7499735,-0.25,-4.475076313567579,8.694618432162109,0.5155555555555555,0.2644444444444444,-0.6444444444444445,-1.664903772726281e-05,0.0015779745416992638,-0.0016279216548810527
1589479262.7599735,-0.2724865927397816,-4.4812432963698905,8.7818381300344,0.5124324176750303,0.2713153477816,-0.6475675823249697,0.001704057471346834,0.007293833979033415,-0.0015684348761425336
1589479262.7699735,-0.28188722060436444,-4.49,8.894902235165084,0.51,0.2766666666666667,-0.65,0.0004117276657204581,0.012266514058516555,-0.0028607646817689104
1589479262.7799735,-0.32536655091374656,-4.470557192465537,8.825747834017328,0.51,0.2766666666666667,-0.65,0.00282784172756614,0.010969088094282868,0.0002623098119683069
1589479262.7899735,-0.18845203732295093,-4.540773981338525,8.970920319527421,0.51,0.2766666666666667,-0.65,0.00035828925412869413,0.008215463492125253,-0.000221358760521366
1589479262.7999735,-0.2256812886639351,-4.515324977906323,8.985324977906323,0.51,0.2766666666666667,-0.65,-0.006309435531673935,0.0053992705849705575,-0.0003453158183282447
1589479262.8099735,-0.2879889381291009,-4.4989944690645505,8.852066371225394,0.5209932399677839,0.2766666666666667,-0.65,0.007952808077328762,0.02889193244954525,0.002943433118347131
1589479262.8199735,-0.1979794626172463,-4.535392514377982,8.81876449137321,0.5222222222222223,0.2766666666666667,-0.65,-0.0040811308527743916,0.003836876901912239,0.0025003474644203407
1589479262.8299735,-0.2468688226988503,-4.506565588650575,8.68838364822161,0.5222222222222223,0.2766666666666667,-0.65,-0.008869885184076777,-0.00479303990230121,0.005024437140166893
1589479262.8399734,-0.3251,-4.4256,8.5491,0.5222222222222223,0.2766666666666667,-0.65,0.01054833366674073,0.014911656796726552,0.003425208657038872
1589479262.8499734,-0.2757770906424055,-4.443238389724684,8.586476779449367,0.5222222222222223,0.2766666666666667,-0.65,0.00016953487870517182,-0.00391685894042032,-0.00010739443215515782
1589479262.8599734,-0.21562200609667587,-4.500717707318085,8.777511975613297,0.5144736836041816,0.2766666666666667,-0.6514088252032801,-0.0011978259839813955,-0.0070512552244574745,-0.002473941691501771
1589479262.8699734,-0.2494741798184489,-4.49797544163622,8.825100757090663,0.51,0.2766666666666667,-0.6522222222222223,0.004990482008437965,3.537629679948185e-05,-0.0007772513432703853
1589479262.8799734,-0.2993028476899445,-4.465174288077514,8.728954271534917,0.51,0.2766666666666667,-0.6522222222222223,0.013166016909947181,0.008238266508715703,0.0010528070225016013
1589479262.8899734,-0.29475475823684344,-4.474918252745614,8.768855538438602,0.51,0.2766666666666667,-0.6522222222222223,0.009906649463936407,0.0033794992532513333,-0.0010729962982027952
1589479262.8999734,-0.29796602927037713,-4.484011323576541,8.868079265035787,0.51,0.2766666666666667,-0.6522222222222223,0.006988728271492623,-0.0010846547295670348,-0.0026192290885773788
1589479262.9099734,-0.27014531976231104,-4.494927340118845,8.924782020356533,0.5127374111771358,0.2837839357272199,-0.6379876841011158,0.004458434692006165,-0.005343190423458547,-0.002735002919742835
1589479262.9199734,-0.26558830685807644,-4.488823386283848,8.87852862456116,0.5155555555555555,0.2911111111111111,-0.6233333333333333,-0.0003528924221451741,-0.008213251675696837,-0.0015720718507103327
1589479262.9299734,-0.25896646674965107,-4.4910335332503495,8.774832333748256,0.5155555555555555,0.2911111111111111,-0.6233333333333333,-0.00011274098842142095,-0.003159751359067947,-0.001090830782496456
1589479262.9399734,-0.2571882911392405,-4.485623417721519,8.72281170886076,0.5155555555555555,0.2911111111111111,-0.6233333333333333,-0.001090830782496456,-0.0029657824898159184,-0.0003067098576734498
1589479262.9499733,-0.26,-4.486325011348162,8.713674988651839,0.5155555555555555,0.2911111111111111,-0.6233333333333333,-0.0017807824903178639,-0.001892588931846552,-0.000689951707821408
1589479262.9599733,-0.25337677001953124,-4.49,8.723246459960938,0.5243865288628472,0.28669562445746527,-0.622597418891059,-0.0007366969365431692,-0.001090830782496456,-0.002535795410946199
1589479262.9699733,-0.25652205136870565,-4.49,8.762610256843528,0.5288888888888889,0.28444444444444444,-0.6222222222222222,0.0021343363194021776,0.004600732735909351,-0.003983937787290094
1589479262.9799733,-0.25268322802986787,-4.4826832280298685,8.728782596209076,0.5288888888888889,0.28444444444444444,-0.6222222222222222,0.0024743563381366337,0.009232087496180662,-0.0035651871206330895
1589479262.9899733,-0.2725096667280427,-4.472496777757319,8.79253544466949,0.5288888888888889,0.28444444444444444,-0.6222222222222222,0.0054555598810842815,0.012272900779536631,-0.00081706861042084
1589479262.9999733,-0.28,-4.476450977137878,8.85225488568939,0.5288888888888889,0.28444444444444444,-0.6222222222222222,0.006544984694978735,0.013793661833875301,-0.0007036924439178311
1589479263.0099733,-0.28,-4.490854657896462,8.913418631585847,0.5252706695900682,0.2735897865479824,-0.6180009663735981,0.0047688954499393805,0.007076443192296504,-0.001090830782496456
1589479263.0199733,-0.3249679075738126,-4.46252674368849,8.905032092426188,0.5222222222222223,0.2644444444444444,-0.6144444444444445,2.3338270913491645e-06,-0.0021793277379015628,-0.001090830782496456
1589479263.0299733,-0.23335815811112415,-4.507422530247856,8.848983906965817,0.5222222222222223,0.2644444444444444,-0.6144444444444445,-0.010039154154381514,-0.016694977405316957,-0.001090830782496456
1589479263.0399733,-0.33251131221719454,-4.430158371040724,8.701153846153845,0.5222222222222223,0.2644444444444444,-0.6144444444444445,-0.00576264678083535,-0.0027073334126665426,0.0006910240251108771
1589479263.0499732,-0.23605450301286574,-4.48436729819228,8.775353672439064,0.5222222222222223,0.2644444444444444,-0.6144444444444445,-0.003011287495331946,-0.0002612048521574218,0.001090830782496456
1589479263.0599732,-0.2526208951700941,-4.486776915587289,8.759728557519253,0.5222222222222223,0.2644444444444444,-0.6329686234784633,-0.006896568664175659,-0.00647929603870531,-0.0002562855315557573
1589479263.0699732,-0.27477338574062443,-4.477613307129688,8.715871102376564,0.5222222222222223,0.2644444444444444,-0.6444444444444445,-0.002772659922971269,-0.0021322220030170116,0.0001900450574120595
1589479263.0799732,-0.25872118417859746,-4.485639407910702,8.676394079107013,0.5222222222222223,0.2644444444444444,-0.6444444444444445,0.0007546611407176402,-5.717530915293244e-05,-0.00033616964177881573
1589479263.0899732,-0.27,-4.491150779483518,8.659027728192312,0.5222222222222223,0.2644444444444444,-0.6444444444444445,0.0025582532703388857,-0.00010605840167792445,-0.0015734808895203549
1589479263.0999732,-0.2761733568592854,-4.475306572562858,8.77025363917071,0.5222222222222223,0.2644444444444444,-0.6444444444444445,0.004107336373793449,0.0012522660394561212,0.0009293955255367909
1589479263.1099732,-0.28,-4.481392606457651,8.862785212915302,0.5174683096760776,0.2691983569905891,-0.6333519818367737,0.00093892098330556,0.0,0.0014038044435983092
1589479263.1199732,-0.28536538209463885,-4.49,8.890730764189279,0.5155555555555555,0.27111111111111114,-0.6288888888888889,-0.0005852723948687401,-0.004682179158949921,-7.971400724102423e-05
1589479263.1299732,-0.2950699780970412,-4.49,8.854370197126629,0.5155555555555555,0.27111111111111114,-0.6288888888888889,-0.002196928417463535,-0.013151036799839963,-0.0016438795999799954
1589479263.1399732,-0.27350863005152615,-4.4635086300515265,8.823245684974237,0.5155555555555555,0.27111111111111114,-0.6288888888888889,-0.00543981248326163,-0.02323281288200266,-0.002181661564992912
1589479263.1499732,-0.29476865006997754,-4.421026124941686,8.841589550023325,0.5155555555555555,0.27111111111111114,-0.6288888888888889,-0.00780920848705137,-0.02997261015613285,-0.004077997253101864
1589479263.1599731,-0.39330106742690446,-4.390226524343079,8.85977347565692,0.5090399051176085,0.27111111111111114,-0.6321467141078625,-0.007660525450116772,-0.03485716509460343,-0.008119455937119468
1589479263.1699731,-0.7305468863934665,-4.256583053813621,8.801435029896455,0.5022222222222222,0.27111111111111114,-0.6355555555555555,-0.0005615622957871498,-0.04755923580346477,-0.005672813225671923
1589479263.1799731,-0.8343541343851246,-4.2,8.77,0.5022222222222222,0.27111111111111114,-0.6355555555555555,0.003035011156568355,-0.0387062840946228,0.03086149131552834
1589479263.189973,-0.832645065782615,-4.2039675986739224,8.766032401326077,0.5022222222222222,0.27111111111111114,-0.6355555555555555,0.0021183646765275416,-0.033608191410054535,0.046708441142658916
1589479263.199973,-0.8474109774555882,-4.232200669162751,8.740906157890544,0.5022222222222222,0.27111111111111114,-0.6355555555555555,-0.005496516694802603,-0.02486317315837676,0.08889388862493704
1589479263.209973,-0.29777834787070295,-4.515149386273039,8.904828906342503,0.5240479228883539,0.26659544890432524,-0.6415764384979368,-0.013159887264637751,0.0004917930310793309,0.17118577916062855
1589479263.219973,-0.13,-4.57,8.95,0.5344444444444445,0.2644444444444444,-0.6444444444444445,-0.015271630954950384,0.004363323129985824,0.1908953869368798
1589479263.229973,0.15130811470408786,-4.60704942037828,8.813444783404515,0.5344444444444445,0.2644444444444444,-0.6444444444444445,-0.014055544313231331,0.000840319064051266,0.19761953676099095
1589479263.239973,0.18758225630828954,-4.5643327178904505,8.772292051318468,0.5344444444444445,0.2644444444444444,-0.6444444444444445,-0.018307810200100888,0.00545415391248228,0.1671967357315229
1589479263.249973,0.005006550759534004,-4.474065365957296,8.816405226443823,0.5344444444444445,0.2644444444444444,-0.6444444444444445,-0.021441597907382533,0.004380434352557473,0.1260601148456421
1589479263.259973,-0.2443631669535284,-4.358296947187245,8.85,0.5310282231683627,0.2680616199132369,-0.6428368109027589,-0.022710160115073083,0.0019843752476404186,0.08907657567823538
1589479263.269973,-0.4495424655637849,-4.198071918045269,8.82935730601509,0.5155555555555555,0.28444444444444444,-0.6355555555555555,-0.02226696937057701,0.0006404770618485628,0.06357832502894924
1589479263.279973,-0.5293279267393582,-4.0260486593457765,8.759578984129448,0.5155555555555555,0.28444444444444444,-0.6355555555555555,-0.0232466194198977,0.00033917298747212376,0.05849237744725641
1589479263.289973,-0.5431707799175468,-3.7512201389281072,8.738292200824532,0.5155555555555555,0.28444444444444444,-0.6355555555555555,-0.02399827721492203,0.007795401920241163,0.06446540712913489
1589479263.299973,-0.54,-3.71,8.77,0.5155555555555555,0.28444444444444444,-0.6355555555555555,-0.02399827721492203,0.01090830782496456,0.06654067773228381
1589479263.309973,-0.6649278824685183,-3.42786616950969,8.861617844065375,0.5155555555555555,0.2796404790965834,-0.6311519206533496,-0.030110173739534774,0.00663322440036823,0.06322001035380895
1589479263.319973,-0.4519277605005807,-2.9308261830716775,9.10419348795384,0.5155555555555555,0.27111111111111114,-0.6233333333333333,-0.04360748198767071,0.020135308179856273,0.05562378680325674
1589479263.329973,0.021786511835640912,-2.5560786065207686,8.806093494119398,0.5155555555555555,0.27111111111111114,-0.6233333333333333,-0.01772742120251796,0.06143584301187387,0.11807979322947605
1589479263.339973,-0.1462352071005917,-2.519437869822485,8.503145956607495,0.5155555555555555,0.27111111111111114,-0.6233333333333333,-0.005564420337734633,0.01065738447189031,0.2271437261123371
1589479263.349973,-0.26,-2.6614623111226567,8.745965709832445,0.5155555555555555,0.27111111111111114,-0.6233333333333333,-0.0049565571196354755,-0.035078802836499716,0.3333287378578964
1589479263.359973,-0.2926073881801779,-2.7921718210882847,8.842177835459466,0.5155555555555555,0.274734154242242,-0.6313040282218212,-0.0060229977702533745,-0.019161136225501037,0.4340536572368869
1589479263.369973,-0.30376919825278287,-2.8386924052416513,8.889692827955473,0.5155555555555555,0.2766666666666667,-0.6355555555555555,-0.014575202284316111,-0.028722495184600925,0.5073708040587785
1589479263.379973,-0.3151721884597791,-2.9511479230651942,8.823565096168506,0.5155555555555555,0.2766666666666667,-0.6355555555555555,-0.008626471074735527,-0.033213990324446586,0.568159340183118
1589479263.389973,-0.326006223420807,-3.073962659475158,8.763900425267089,0.5155555555555555,0.2766666666666667,-0.6355555555555555,-0.003920880987897437,-0.03228248133280529,0.6219591264243335
1589479263.399973,-0.32923273748178683,-3.1192327374817865,8.84615089377732,0.5155555555555555,0.2766666666666667,-0.6355555555555555,-0.008810341617283914,-0.03717194196219177,0.6619682898294428
1589479263.409973,-0.3590440314154732,-3.1490440314154733,8.80143395287679,0.5155555555555555,0.2766666666666667,-0.6355555555555555,-0.005558433908392421,-0.03392003425330027,0.6896095053550204
1589479263.419973,-0.40622644031546584,-3.238742146771822,8.946687608608475,0.51,0.27111111111111114,-0.6233333333333333,-0.009998139967145702,-0.04686227122478592,0.7390275752897026
1589479263.429973,-0.471874128042164,-3.2712447682529837,8.87500697566269,0.51,0.27111111111111114,-0.6233333333333333,-0.01308996938995747,-0.042678183670104716,0.7758492089534307
1589479263.4399729,-0.49549714623469215,-3.3045028537653076,8.813874286558674,0.51,0.27111111111111114,-0.6233333333333333,-0.013512588493798753,-0.04588345891063765,0.834713692405393
1589479263.4499729,-0.5316788612478383,-3.2753284555008646,8.836350405746973,0.51,0.27111111111111114,-0.6233333333333333,-0.014435593399526863,-0.04381636665272647,0.8791140958829059
1589479263.4599729,-0.6028607559755419,-3.2819071706503613,8.860790439132852,0.5217649620159348,0.263403032548947,-0.627795905132481,-0.014076780149809533,-0.042818867607567035,0.9472421617191767
1589479263.4699728,-0.66,-3.2982579000091063,8.836090519989073,0.5422222222222223,0.25,-0.6355555555555555,-0.016268189957773845,-0.04235385695801579,1.0181281674690028
1589479263.4799728,-0.6877920883164673,-3.27,8.83294388224471,0.5422222222222223,0.25,-0.6355555555555555,-0.024342987770384343,-0.061029824703692004,1.0859998170990888
1589479263.4899728,-0.7251833786699183,-3.27,8.774449863990244,0.5422222222222223,0.25,-0.6355555555555555,-0.024443675057170138,-0.06811691337662842,1.169314629936658
1589479263.4999728,-0.7632506068550344,-3.3323448878531896,8.805719584425672,0.5422222222222223,0.25,-0.6355555555555555,-0.01818953710051319,-0.07288806519376169,1.2430124906971325
1589479263.5099728,-0.8262175846732809,-3.4645983578515223,8.87810879233664,0.5476280837799825,0.24774755768426654,-0.6328526247766755,-0.011763171346505659,-0.08092777665826632,1.319672041156674
1589479263.5199728,-0.8558075040783034,-3.5532300163132136,8.919037520391518,0.5555555555555556,0.24444444444444444,-0.6288888888888889,-0.018052982525981316,-0.08279814923128483,1.402463164150468
1589479263.5299728,-0.8944503735325507,-3.6044503735325506,8.865357524012808,0.5555555555555556,0.24444444444444444,-0.6288888888888889,-0.020240324423141283,-0.08445847556942677,1.4634362256616809
1589479263.5399728,-0.9258187992722863,-3.5892684050939963,8.798362401455428,0.5555555555555556,0.24444444444444444,-0.6288888888888889,-0.016818559983605513,-0.08589816786124044,1.5207206449245514
1589479263.5499728,-0.9298937952993422,-3.559929196866228,8.7902478109682,0.5555555555555556,0.24444444444444444,-0.6288888888888889,-0.01639721714446383,-0.08730894143051501,1.5436723022843346
1589479263.5599728,-0.9035355482005949,-3.54235703213373,8.851750387531945,0.5555555555555556,0.24444444444444444,-0.6288888888888889,-0.025022933336852276,-0.09785148344343422,1.5800919928744195
1589479263.5699728,-0.9750110078277886,-3.581263759784736,8.854988992172212,0.5422222222222223,0.20555555555555555,-0.6444444444444445,-0.024680346645917322,-0.09735484618619865,1.6288764617402627
1589479263.5799727,-0.999020152595787,-3.5811946425609555,8.853261734947752,0.5422222222222223,0.20555555555555555,-0.6444444444444445,-0.02545662334439907,-0.1014472627721704,1.6521459506225291
1589479263.5899727,-1.06,-3.6093896396920284,8.79170570584541,0.5422222222222223,0.20555555555555555,-0.6444444444444445,-0.026113358798680018,-0.09951824483261809,1.6720712022223607
1589479263.5999727,-1.110586007289359,-3.606862002429786,8.783841206317444,0.5422222222222223,0.20555555555555555,-0.6444444444444445,-0.02436614904102085,-0.09783246799018222,1.6999972932177772
1589479263.6099727,-1.2367722058962936,-3.62996042278889,8.82984169115556,0.5511462908543201,0.19440046976543326,-0.6541121854625505,-0.02289881202439273,-0.09962201612798227,1.7337469691639031
1589479263.6199727,-1.3049198493813878,-3.6435696611081227,8.813409359870898,0.5688888888888889,0.17222222222222222,-0.6733333333333333,-0.02139225372313975,-0.10168936970108812,1.7789102927966371
1589479263.6299727,-1.308092590415078,-3.6687037005929684,8.891833330533672,0.5688888888888889,0.17222222222222222,-0.6733333333333333,-0.024472990441344156,-0.10750945346978277,1.8250508032087573
1589479263.6399727,-1.2627024726088245,-3.5992278649689076,8.829227864968907,0.5688888888888889,0.17222222222222222,-0.6733333333333333,-0.020599444568408697,-0.09913926090815352,1.8605023041272883
1589479263.6499727,-1.3333396068590548,-3.566641572563781,8.853414889167713,0.5688888888888889,0.17222222222222222,-0.6733333333333333,-0.02146053307956589,-0.10109323320829869,1.9144285533461955
1589479263.6599727,-1.3557821491118338,-3.5463128596447335,8.933687140355266,0.5643296013676924,0.16380507602924416,-0.6754376198815779,-0.02669792647698231,-0.11092042673333574,1.9420779613133556
1589479263.6699727,-1.3809480619105636,-3.5735779071341547,8.847584495284508,0.5544444444444444,0.14555555555555555,-0.68,-0.025169144586576882,-0.11659209529312813,1.9552624688691091
1589479263.6799726,-1.4131949771577945,-3.620236484010456,8.842070456599808,0.5544444444444444,0.14555555555555555,-0.68,-0.0324279983392189,-0.12859536617056178,1.9450223585475659
1589479263.6899726,-1.4890954414499091,-3.6065327639402547,8.869799145910381,0.5544444444444444,0.14555555555555555,-0.68,-0.029907410158545894,-0.12459043439116109,1.9216053310696022
1589479263.6999726,-1.5397799037666342,-3.5441754379369974,8.761977670851817,0.5544444444444444,0.14555555555555555,-0.68,-0.022535833246711188,-0.10860359985179088,1.9005389886316935
1589479263.7099726,-1.6102333999675835,-3.628249500243125,8.840933599870333,0.5548982777147453,0.14479052232847683,-0.6802333999675834,-0.025114567984345842,-0.10697779664543476,1.8780287076549864
1589479263.7199726,-1.6355918580375781,-3.4744081419624218,8.910680236604035,0.5933333333333334,0.08,-0.7,-0.026050815386663276,-0.11100649302813514,1.839382587409305
1589479263.7299726,-1.6825923596599783,-3.4612961798299895,8.85870382017001,0.5933333333333334,0.08,-0.7,-0.018672081420238018,-0.10035643198967394,1.7983154869751286
1589479263.7399726,-1.722752289073815,-3.4552293983356654,8.853761445369075,0.5933333333333334,0.08,-0.7,-0.01617231544816419,-0.09975597566086473,1.7674661253009014
1589479263.7499726,-1.732644040369629,-3.382067878891113,8.866203636673339,0.5933333333333334,0.08,-0.7,-0.019409383490046166,-0.0952905697993263,1.7363882300557298
1589479263.7599726,-1.7575084839397048,-3.365836161313235,8.836476008207718,0.5943060268855392,0.07610922579117671,-0.7009726935522058,-0.02245324209113828,-0.09092706463666916,1.7048289201042433
1589479263.7699726,-1.856813195485755,-3.398937731828585,9.043360823928657,0.5998229553047641,0.0540415121142767,-0.7064896219714308,-0.026064063297850368,-0.11168928657526367,1.6669152974337662
1589479263.7799726,-2.071239853573134,-3.434380073213433,8.911239853573134,0.6,0.05333333333333334,-0.7066666666666667,-0.019441140498508244,-0.08768568792670486,1.627816989961344
1589479263.7899725,-2.1594403252810332,-3.38916048792155,8.997668022004305,0.6,0.05333333333333334,-0.7066666666666667,-0.025043319716545935,-0.09803740558206339,1.6100306218574234
1589479263.7999725,-2.0576657399009797,-3.2276657399009796,8.60599443940588,0.6,0.05333333333333334,-0.7066666666666667,-0.02105273081881978,-0.07532931057027031,1.5969246100931325
1589479263.8099725,-2.1013180392215167,-3.2713180392215166,8.8679082353291,0.6,0.05333333333333334,-0.7066666666666667,-0.035337912366497054,-0.09165523233904435,1.5833196752858207
1589479263.8199725,-2.172022610224846,-3.3120100489888205,8.817952267303102,0.5844444444444444,0.021111111111111112,-0.73,-0.020288630423458708,-0.08944812416470939,1.5568416400450371
1589479263.8299725,-2.108122316444826,-3.290829755259768,8.92938841777587,0.5844444444444444,0.021111111111111112,-0.73,-0.024088789472851375,-0.08856211688439004,1.5152829518191693
1589479263.8399725,-2.126894412550207,-3.3075776502008285,8.804472062751035,0.5844444444444444,0.021111111111111112,-0.73,-0.023883099174442677,-0.08278796142925131,1.4440905954451724
1589479263.8499725,-2.1046230480774613,-3.244120445514076,8.805879554485923,0.5844444444444444,0.021111111111111112,-0.73,-0.016735209570737358,-0.07619919357548177,1.3639769187910444
1589479263.8599725,-2.0341976828790505,-3.0797945933844515,8.970205406615548,0.5844444444444444,0.021111111111111112,-0.73,-0.018442368598003595,-0.08046709114364736,1.2760582288868332
1589479263.8699725,-2.027109977949283,-2.889842888643881,8.868125689084895,0.5555555555555556,-0.012222222222222223,-0.7588888888888888,-0.02499544929048694,-0.07724452995303184,1.147288942575806
1589479263.8799725,-2.121928765469363,-2.772062330214307,8.920044521581648,0.5555555555555556,-0.012222222222222223,-0.7588888888888888,-0.03642792027397197,-0.08639088404301448,1.0341610038695621
1589479263.8899724,-2.17,-2.73,8.89,0.5555555555555556,-0.012222222222222223,-0.7588888888888888,-0.04036073895236887,-0.08835729338221293,0.9981101659842572
1589479263.8999724,-2.04892055818042,-2.6459470387869466,8.837221404241292,0.5555555555555556,-0.012222222222222223,-0.7588888888888888,0.00271644552118923,-0.031052971500675895,0.9873196069957639
1589479263.9099724,-2.2424823645753214,-2.774988243050214,8.993914295132402,0.5555555555555556,-0.012222222222222223,-0.7588888888888888,-0.009348878863449522,-0.042112852186594746,0.9662052893226462
1589479263.9199724,-2.2410802683321767,-2.743693422777392,8.937897807592464,0.5611111111111111,-0.05111111111111112,-0.78,-0.017862546816910442,-0.043223977002891094,0.9550534009171824
1589479263.9299724,-2.1794456422868307,-2.7218891284573665,8.895995687767408,0.5611111111111111,-0.05111111111111112,-0.78,0.003151550255881517,-0.05517090839278878,0.9481984929825625
1589479263.9399724,-2.2147714179833575,-2.7289542835966714,8.768822895259913,0.5611111111111111,-0.05111111111111112,-0.78,0.010858438964948803,-0.02896748678196001,0.9451157374989357
1589479263.9499724,-2.3239549890249385,-2.758351360643165,8.835054081929496,0.5611111111111111,-0.05111111111111112,-0.78,-0.024081821126965764,-0.025089107997418484,0.9240417663651155
1589479263.9599724,-2.3962050449320023,-2.7673561161035556,8.862068348310666,0.5611111111111111,-0.05111111111111112,-0.78,-0.023772655414301975,-0.03471824145987037,0.91321370852955
1589479263.9699724,-2.384105879636432,-2.706158819454649,9.211523541636055,0.5422222222222223,-0.1111111111111111,-0.7866666666666666,-0.016557528540614146,-0.0840464292316914,0.91696968028152
1589479263.9799724,-2.4545406074854634,-2.811810911228195,8.894567266315413,0.5422222222222223,-0.1111111111111111,-0.7866666666666666,-0.0011910546817174086,-0.010095273785750855,0.9284945356756924
1589479263.9899724,-2.225322411258139,-2.554757753973255,8.671976300497095,0.5422222222222223,-0.1111111111111111,-0.7866666666666666,-0.02405987176971328,-0.04300435967829615,0.909181032268505
1589479263.9999723,-2.137225372820836,-2.3932465168381993,8.928925995939228,0.5422222222222223,-0.1111111111111111,-0.7866666666666666,-0.03206811855089525,-0.10306621053716096,0.8915628893499046
1589479264.0099723,-2.4595115924721,-2.5785347774162997,8.892185479553598,0.5422222222222223,-0.11371595125991205,-0.7866666666666666,0.015375489653180908,-0.008993031242889903,0.9111100883674591
1589479264.0199723,-2.450875303710415,-2.5526259111312437,8.754004859366635,0.5422222222222223,-0.1597761579888994,-0.7866666666666666,-0.02136535589513901,-0.013703396056777069,0.9158204531813463
1589479264.0299723,-2.34735879132303,-2.455169450412364,9.171172638436481,0.5422222222222223,-0.16444444444444445,-0.7866666666666666,-0.051034913924509824,-0.03470473333919592,0.9303014513322413
1589479264.0399723,-2.3077012595182222,-2.4885062975911114,8.737245342656003,0.5422222222222223,-0.16444444444444445,-0.7866666666666666,0.012663583639910247,-0.05520598415727202,0.9545647507154978
1589479264.0499723,-2.344793588485443,-2.4649311961618148,8.65837160614982,0.5422222222222223,-0.16444444444444445,-0.7866666666666666,-0.0014661212944289438,-0.04456643816424715,0.9430607381405095
1589479264.0599723,-2.5073965310739474,-2.518698265536974,9.258524819234353,0.5423668593847807,-0.17051920527190012,-0.7857988436913158,-0.06717348346169416,0.015652475725994094,0.9106114125105942
1589479264.0699723,-2.5178571111209846,-2.527562091793664,8.450248367174657,0.5433333333333333,-0.2111111111111111,-0.78,-0.013288148048580478,0.012559796646822947,0.8918388595321204
1589479264.0799723,-2.9464744301772785,-2.7977773581552405,9.531109432620962,0.5433333333333333,-0.2111111111111111,-0.78,-0.016337380432522062,0.03797006651300283,0.8511824277462325
1589479264.0899723,-2.6123351802952253,-2.510478983593784,8.603712393402882,0.5433333333333333,-0.2111111111111111,-0.78,-0.052007167264610736,-0.01903403150417997,0.7760640781873864
1589479264.0999722,-2.8029379376193506,-2.5859713558243156,8.82099522597072,0.5433333333333333,-0.2111111111111111,-0.78,-0.03556316657262283,-0.006741278687475073,0.7358973595677313
1589479264.1099722,-2.889707352005092,-2.6260187778485045,8.827669796308085,0.5433333333333333,-0.2111111111111111,-0.78,-0.03265083585904876,-0.03732075118000295,0.7038617217184164
1589479264.1199722,-3.062568673188734,-2.6304954217874177,8.934550360338404,0.5264363053998538,-0.2723628373699745,-0.8190743770961715,-0.014008685661216453,-0.01689289496305447,0.6595003101206739
1589479264.1299722,-3.0066813935293846,-2.575066270882231,8.94,0.5255555555555556,-0.27555555555555555,-0.8211111111111111,-0.038722083101346824,-0.03708342725032476,0.611970527044176
1589479264.1399722,-2.9650769523447162,-2.481578616950442,8.976842766099114,0.5255555555555556,-0.27555555555555555,-0.8211111111111111,-0.040505940949612816,-0.04266060411551834,0.5948843856541255
1589479264.1499722,-2.7815538856653665,-2.345931132883097,9.248137734233804,0.5255555555555556,-0.27555555555555555,-0.8211111111111111,-0.03354271971719598,-0.043531006769570446,0.5896619697298129
1589479264.1599722,-2.3626230831315578,-2.095770782889427,8.822623083131559,0.5187355394135055,-0.2775957313245449,-0.8155152004304547,-0.03910527107840604,-0.06901903822681771,0.5683800644771525
1589479264.1699722,-2.403906376109766,-2.186594027441485,8.863906376109766,0.41139897767016415,-0.30970495919648466,-0.7274441754102771,-0.002178139915977588,-0.02218462797203042,0.5692807262128216
1589479264.1799722,-2.521390516560695,-2.201656900635831,8.954171549682084,0.3955555555555556,-0.3144444444444445,-0.7144444444444444,-0.0013715282934143825,0.02168120811357385,0.555226476438461
1589479264.1899722,-2.530489454452208,-2.150978908904417,8.976410667350471,0.3955555555555556,-0.3144444444444445,-0.7144444444444444,-0.04317050758117248,-0.052596449169368016,0.5210789697773432
1589479264.1999722,-2.6293998367643057,-2.236535231703999,8.806946948399384,0.3955555555555556,-0.3144444444444445,-0.7144444444444444,-0.009482541442270726,2.2455662249632304e-05,0.4940116104973967
1589479264.2099721,-2.8880489707082617,-2.3354304888002178,8.981915480185,0.3955555555555556,-0.3144444444444445,-0.7144444444444444,0.012093056694420488,0.004171609150074866,0.46911668957044533
1589479264.2199721,-2.69,-2.24,9.02,0.4244444444444445,-0.28444444444444444,-0.6788888888888889,-0.02836160034490785,-0.04472406208235469,0.4123340357836604
1589479264.2299721,-2.686790830945559,-2.223954154727794,8.971862464183381,0.4244444444444445,-0.28444444444444444,-0.6788888888888889,-0.025035972973629257,-0.044023930004190776,0.40165702159166067
1589479264.239972,-2.6656938437372237,-2.1292346093430594,8.689856906160568,0.4244444444444445,-0.28444444444444444,-0.6788888888888889,-0.010454188160880921,-0.03777723065924695,0.34133093463598413
1589479264.249972,-2.665094408967703,-2.0992243610358186,8.59174009586377,0.4244444444444445,-0.28444444444444444,-0.6788888888888889,-0.016334999281949612,-0.02150099786759059,0.3257078960818268
1589479264.259972,-2.780708871227087,-2.169877643527664,8.681662455398845,0.4244444444444445,-0.28444444444444444,-0.6788888888888889,0.017295884540533126,0.031047258105038663,0.33061239997260555
1589479264.269972,-2.7803312828037696,-2.179503075794345,9.08231897962639,0.4455555555555555,-0.2588888888888889,-0.6577777777777778,-0.03186898545443883,-0.053974699888419145,0.2865632596645103
1589479264.279972,-2.7260596994628408,-2.116244645406949,9.211963010811179,0.4455555555555555,-0.2588888888888889,-0.6577777777777778,-0.037047897659093276,-0.07438906688369896,0.27409179797212285
1589479264.289972,-2.359427113283496,-1.9479474554341576,9.147923734905119,0.4455555555555555,-0.2588888888888889,-0.6577777777777778,0.006318499307166703,-0.020759618499020298,0.31085552688822765
1589479264.299972,-2.5252454715353654,-2.0157822383553765,8.959493782346176,0.4455555555555555,-0.2588888888888889,-0.6577777777777778,-0.014236019952397363,-0.03966977621781924,0.3198995153624358
1589479264.309972,-3.184788132426575,-2.411798819221284,9.693544578133174,0.4460699665362993,-0.2589623761718523,-0.6576748955816291,0.03551261119914813,0.030494186345214808,0.3193104061918308
1589479264.319972,-2.2836138928331216,-1.9259483596143787,8.126285031014124,0.476544457730281,-0.26331587491384967,-0.6515799973428327,0.07141452532048533,-0.03703560450206228,0.30135944913116225
1589479264.329972,-2.93,-2.37709252041034,9.789980219908081,0.4844444444444445,-0.2644444444444444,-0.65,0.01305369086314805,0.000917349617269597,0.2524028685896303
1589479264.339972,-2.93,-2.214418717396785,9.03354703589505,0.4844444444444445,-0.2644444444444444,-0.65,-0.02864696321759538,0.09496563328873349,0.2027169828764041
1589479264.349972,-2.7267871440654075,-1.9117175077530306,8.975392350343013,0.4844444444444445,-0.2644444444444444,-0.65,-0.007499822984658747,0.06916455580226058,0.1529721386351911
1589479264.359972,-1.6152444319142938,-1.7698184381167184,9.172474391504558,0.4844444444444445,-0.2644444444444444,-0.65,-0.04877658916249814,-0.03746709015715785,0.17189065646670082
1589479264.369972,-2.0058644649178743,-1.9526044987796565,9.653937641548847,0.4844444444444445,-0.23777777777777775,-0.6444444444444445,-0.06835378005446487,-0.24072473568020708,-0.0465390592490094
1589479264.379972,-2.312602304578013,-1.8638125194643413,8.631301152289005,0.4844444444444445,-0.23777777777777775,-0.6444444444444445,0.02057889130457017,-0.0031206389187207863,-0.19395840987904767
1589479264.389972,-2.469349735284958,-1.9596026160074742,8.70967486764248,0.4844444444444445,-0.23777777777777775,-0.6444444444444445,0.004430315291402299,0.02062726698299667,-0.2908498659580549
1589479264.399972,-2.0829615567157096,-1.73344091124822,9.09703844328429,0.4844444444444445,-0.23777777777777775,-0.6444444444444445,-0.054331863535401315,-0.07092108553992621,-0.3005194799789833
1589479264.409972,-2.2673638499103665,-1.8175829881931136,9.059010632379303,0.4844444444444445,-0.23777777777777775,-0.6444444444444445,-0.010578384952302164,-0.039101870195589104,-0.2698006285543673
1589479264.419972,-1.9926671570715087,-1.7183599829648843,8.903619187734716,0.49593884565583046,-0.23059377702066153,-0.6480364448230026,0.048551746712421726,0.022108613173262598,-0.22793633281480913
1589479264.429972,-2.310715544379987,-1.9125044053299542,8.950357772189992,0.5022222222222222,-0.22666666666666666,-0.65,0.027305952078591076,0.00023416135077962609,-0.24816688629965644
1589479264.439972,-2.3273243312808125,-1.970635159482844,8.958662165640407,0.5022222222222222,-0.22666666666666666,-0.65,-0.022516831952606318,0.0056693741541829785,-0.2862133759234799
1589479264.449972,-2.426959894861794,-2.039667627607258,8.863040105138206,0.5022222222222222,-0.22666666666666666,-0.65,0.0003731984235520805,0.039902218212651545,-0.30210574244593
1589479264.459972,-2.56444856554129,-2.06,8.905962593120938,0.5022222222222222,-0.22666666666666666,-0.65,0.046124800155158116,0.01501677526095771,-0.3468637865462942
1589479264.469972,-2.5088204054649625,-1.9668717496694579,8.925384530630232,0.5155555555555555,-0.22,-0.68,-0.011283103628417286,-0.017050492797107394,-0.39833224435596737
1589479264.479972,-2.3606638300701395,-1.9113303194495228,8.807997872552605,0.5155555555555555,-0.22,-0.68,-0.006109058501873913,0.028216485004298516,-0.3982989311230926
1589479264.4899719,-2.472203237709005,-2.0298409400658177,8.891652428281754,0.5155555555555555,-0.22,-0.68,0.009860210283074825,0.015288981702197153,-0.38841319330383856
1589479264.4999719,-2.51,-2.07,8.968350537034455,0.5155555555555555,-0.22,-0.68,-0.0026607354551714743,0.03200520948393145,-0.3935020268848357
1589479264.5099719,-2.492878322788114,-2.1470475474534862,9.23538599678423,0.5155555555555555,-0.22,-0.68,-0.0200816596431132,-0.003694938998957953,-0.4227390339347949
1589479264.5199718,-2.7255894609490525,-2.2165414706277726,8.931327597795402,0.5406850980567879,-0.22,-0.6716234858329225,0.02540634194214934,0.02924473483484779,-0.43582929029172984
1589479264.5299718,-2.6970630225658545,-2.2486246516227637,8.895687674188618,0.5422222222222223,-0.22,-0.6711111111111111,0.04085146079624694,0.04412395314373631,-0.4581895687884258
1589479264.5399718,-2.3638500960922486,-2.0926265214606024,9.075970531710443,0.5422222222222223,-0.22,-0.6711111111111111,-0.033301435579672405,-0.015828576588294188,-0.5145482343558242
1589479264.5499718,-2.633605345464885,-2.155769121410293,8.995288598237135,0.5422222222222223,-0.22,-0.6711111111111111,-0.031004779170166544,-0.010394373617800321,-0.5264097506855224
1589479264.5599718,-2.4229502572898802,-2.0990842153704556,8.740799062879136,0.5422222222222223,-0.22,-0.6711111111111111,0.0038893048336301125,0.02461508970106277,-0.5214345468810202
1589479264.5699718,-2.30131083111779,-2.076823488614033,8.712436712518784,0.5439253008643831,-0.24724925827457325,-0.6711111111111111,0.014496158834692241,0.03563994208889819,-0.5295937425065189
1589479264.5799718,-2.26711682037769,-2.12,8.733725296442689,0.5466666666666666,-0.2911111111111111,-0.6711111111111111,0.0034760949309592826,0.03668187980151868,-0.5653093996790732
1589479264.5899718,-2.581864883715337,-2.3150696264941435,8.993097477091801,0.5466666666666666,-0.2911111111111111,-0.6711111111111111,0.023514238927876657,0.02328392065568309,-0.592739670279398
1589479264.5999718,-2.197124339894383,-2.1321029451668787,8.641287440773132,0.5466666666666666,-0.2911111111111111,-0.6711111111111111,0.002570234028080945,0.061105262548098824,-0.6213615672261257
1589479264.6099718,-2.218416888970656,-2.244682181951982,8.797023272927973,0.5466666666666666,-0.2911111111111111,-0.6711111111111111,0.013814748227412344,0.029052362842075144,-0.6638392160603821
1589479264.6199718,-1.8173878082559896,-1.9973878082559895,8.75211050705914,0.4744444444444445,-0.5811111111111111,-0.5733333333333334,0.011843734060817658,0.037614957981118934,-0.7314091988257366
1589479264.6299717,-1.9040880997168075,-2.0840880997168076,9.246302168385803,0.4744444444444445,-0.5811111111111111,-0.5733333333333334,-0.01558311650447611,0.030994683706737677,-0.7891001603596304
1589479264.6399717,-2.000127764127764,-2.1909379852579853,8.883240884520886,0.4744444444444445,-0.5811111111111111,-0.5733333333333334,-0.005351835593188459,0.04631492755140839,-0.8408374535760917
1589479264.6499717,-2.2062358722358724,-2.4135347420147424,8.94919547911548,0.4744444444444445,-0.5811111111111111,-0.5733333333333334,0.018929703842226166,0.07869031346529455,-0.8813066859684494
1589479264.6599717,-2.0245994267776717,-2.410111004958828,8.84831081388472,0.4744444444444445,-0.5811111111111111,-0.5733333333333334,0.025518175052851103,0.07529154151747534,-0.9305781577523987
1589479264.6699717,-2.001824725741049,-2.47025209819885,8.925890359287083,1.272222222222222,-0.7855555555555556,0.2088888888888889,0.018491524225950594,0.06684252236744292,-1.006457269103643
1589479264.6799717,-2.4369044101467954,-2.7471209882752334,8.596284537767579,1.272222222222222,-0.7855555555555556,0.2088888888888889,0.017772435873543577,0.05605619708133766,-1.046007128486029
1589479264.6899717,-2.25399243140965,-2.9272185430463575,8.041296121097446,1.272222222222222,-0.7855555555555556,0.2088888888888889,0.08611061541296526,0.0673188105705074,-1.0457269420527404
1589479264.6999717,-2.074788283868101,-2.9808050211993855,8.534871970524524,1.272222222222222,-0.7855555555555556,0.2088888888888889,0.03987319650565496,0.14063848554964856,-1.008359867380583
1589479264.7099717,-1.9840208171508467,-3.06896877427373,9.469034954171198,1.272222222222222,-0.7855555555555556,0.2088888888888889,-0.034231649380336036,0.014616319064952893,-1.0311085682096237
1589479264.7199717,-2.0302164833482754,-3.044837637488793,8.668900964334915,0.9636127450623087,-0.3439680110015331,-0.4376019670585719,0.028363413188262895,0.0655343111382114,-1.0650032509234815
1589479264.7299716,-1.4213054499366287,-2.949564850021124,8.93116039994367,0.8622222222222222,-0.1988888888888889,-0.65,0.08677504340901007,0.14122072583642714,-1.1577372211206036
1589479264.7399716,-1.5099049429657794,-2.9200316856780733,9.009915504858471,0.8622222222222222,-0.1988888888888889,-0.65,-0.020610572490743148,-0.0467041019881409,-1.3306280627192062
1589479264.7499716,-2.09998430110091,-3.2300470966972696,8.630643654862686,0.8622222222222222,-0.1988888888888889,-0.65,0.029455856095880018,0.09495365260432724,-1.4563841059821319
1589479264.7599716,-2.0916493780056435,-3.2550518659830687,8.97237550176861,0.8622222222222222,-0.1988888888888889,-0.65,0.031274254232291486,0.1222296246504992,-1.5227556379611504
1589479264.7699716,-2.081140196431981,-3.2997719607136036,9.24293078212172,0.6766666666666666,-0.13444444444444445,-0.7155555555555555,0.007440492878568664,0.06557422308639707,-1.5905059065617988
1589479264.7799716,-2.125626948940413,-3.2908746102119175,8.967112916569441,0.6766666666666666,-0.13444444444444445,-0.7155555555555555,0.042380306594208106,0.070426974991347,-1.593417557704769
1589479264.7899716,-2.166295585412668,-3.8435076775431862,9.747576775431861,0.6766666666666666,-0.13444444444444445,-0.7155555555555555,0.050763935594459596,0.11049634269913716,-1.5768770279466535
1589479264.7999716,-2.0199635575691914,-3.8399854230276764,9.034806855116713,0.6766666666666666,-0.13444444444444445,-0.7155555555555555,0.0005330921084005652,0.1366319220985986,-1.6046192365068435
1589479264.8099716,-1.97,-3.75947808700848,8.595158918024499,0.6766666666666666,-0.13444444444444445,-0.7155555555555555,0.024716130257846806,0.14178902443264144,-1.651106872376267
1589479264.8199716,-1.978394010124587,-3.9230622328655005,8.635910151868805,0.6393599550018356,-0.07755170915557712,-0.6978348675147608,0.037398906376365566,0.13888588201554555,-1.7275723428674905
1589479264.8299716,-1.9977882592796348,-4.007435358079027,8.612564641920974,0.6322222222222222,-0.06666666666666668,-0.6944444444444444,0.032116619664532234,0.12301232474564668,-1.7808262256760679
1589479264.8399715,-2.0824641890035713,-4.092701228366233,9.093836976570778,0.6322222222222222,-0.06666666666666668,-0.6944444444444444,0.022985017382462218,0.043369823984419256,-1.8369951261958204
1589479264.8499715,-2.366447053145093,-4.349253072693109,8.895762527796453,0.6322222222222222,-0.06666666666666668,-0.6944444444444444,0.03151357874702446,0.06640374801622756,-1.802374957704755
1589479264.8599715,-2.277048854759698,-4.485881106844962,8.527254071229976,0.6322222222222222,-0.06666666666666668,-0.6944444444444444,0.05090582164586533,0.14242945609460178,-1.6630854058546791
1589479264.8699715,-1.988630963150594,-4.46,8.51581207406067,0.6289932921885156,-0.0485846584779098,-0.7067143785725294,0.03734889865000651,0.1351971632443076,-1.468955322859151
1589479264.8799715,-2.31815379623621,-4.787266926238373,9.585520224962146,0.6266666666666667,-0.03555555555555556,-0.7155555555555555,0.019325967948297853,0.04593829855363454,-1.2824083221030733
1589479264.8899715,-2.016393579955448,-4.197437122784304,8.642456828437066,0.6266666666666667,-0.03555555555555556,-0.7155555555555555,0.028812632694611325,0.06469621565293743,-1.188481020387909
1589479264.8999715,-1.7938848170950195,-3.940575914524903,9.712094205022964,0.6266666666666667,-0.03555555555555556,-0.7155555555555555,0.041726276167631214,0.025104529364876824,-1.1136360001865369
1589479264.9099715,-1.5049546573171966,-3.6749546573171967,8.379403971277348,0.6266666666666667,-0.03555555555555556,-0.7155555555555555,0.05355672813620886,0.05589482681642074,-1.0717362976833515
1589479264.9199715,-18.354532239155922,-20.960569753810084,15.818137162954278,0.619399374755764,0.009663149667839002,-0.683256480395988,0.0710940330478253,0.5583497286261926,1.579538446738887
1589479264.9299715,-5.740590388192238,-4.302694546109077,3.207966640667186,0.6166666666666667,0.02666666666666667,-0.6711111111111111,0.07526732399225547,0.7363107781851077,2.568906492779154
1589479264.9399714,0.6790761185357352,-1.3402905287623463,-0.5108832074375362,0.6166666666666667,0.02666666666666667,-0.6711111111111111,-0.30067188115169163,2.5165770393201714,6.973171588810635
1589479264.9499714,1.8518662716885312,-1.911577091268162,11.37922485540979,0.6166666666666667,0.02666666666666667,-0.6711111111111111,-0.5956590817102609,1.4666703812378907,6.580213343614018
1589479264.9599714,0.6017586083641129,-1.3023841296318361,4.864370308590492,0.6166666666666667,0.02666666666666667,-0.6711111111111111,0.007021451470700324,-1.750239225222157,5.691802179387225
1589479264.9699714,7.114979591836735,-0.4742448979591837,20.285714285714292,0.6142585034013606,0.018639455782312925,-0.6727165532879819,-0.5243200596259089,-3.5346969010077305,5.170457766363467
1589479264.9799714,5.100602709334767,-0.31817153517765306,16.974303506000204,0.6133333333333333,0.015555555555555557,-0.6733333333333333,-0.35662081334767115,-1.3945323874578426,4.8341756409400025
1589479264.9899714,-0.536647177339707,-0.7521384268952713,5.486378145616877,0.6133333333333333,0.015555555555555557,-0.6733333333333333,0.06705818995394858,0.4991094456924059,4.47438028745624
1589479264.9999714,0.3145797546012272,-0.7129141104294479,7.591223926380368,0.6133333333333333,0.015555555555555557,-0.6733333333333333,-0.17830064133774895,-0.4556199412086007,4.171632373487595
1589479265.0099714,2.3249172881099294,-0.7047083317560662,11.369921641367302,0.6133333333333333,0.015555555555555557,-0.6733333333333333,-0.30280194008582356,-0.8902765239997732,3.7112589511450924
1589479265.0199714,0.23079620879739027,-1.4519903813702328,9.198092023849702,0.5971768477894026,-0.1119011637354533,-0.689489818877264,0.1340576299937779,0.2058547953450458,3.0322363154183423
1589479265.0299714,-1.0796043693776392,-1.0423971911143748,7.386964384064623,0.5933333333333334,-0.14222222222222222,-0.6933333333333334,-0.0731433380772275,-0.1357398424551387,2.546919403528417
1589479265.0399714,-1.5988660710108995,-1.507260841090892,9.695268278991438,0.5933333333333334,-0.14222222222222222,-0.6933333333333334,-0.12130873123440472,-0.2893170320084111,2.240361803987309
1589479265.0499713,-1.7237798919366096,-1.2139714588557688,7.734498591039529,0.5933333333333334,-0.14222222222222222,-0.6933333333333334,0.0400553537104244,-0.017242012971263987,2.117177309573661
1589479265.0599713,-1.6965922785092613,-1.2636308859629546,8.616398125418433,0.5933333333333334,-0.14222222222222222,-0.6933333333333334,-0.022383088140638635,-0.13381823222837408,1.999621114390178
1589479265.0699713,-1.7328177966101694,-1.3740148305084745,8.789427966101696,0.5571433615819209,-0.2165583804143126,-0.6855084745762712,-0.04266488787217601,-0.1085665513854762,1.8347831538644548
1589479265.0799713,-1.7250265943888388,-1.3592675922306998,8.710785596546978,0.5522222222222222,-0.22666666666666666,-0.6844444444444444,-0.04065196947259594,-0.1007217538083128,1.7918645191496185
1589479265.0899713,-1.6323695345557123,-1.2309732016925246,8.653765867418901,0.5522222222222222,-0.22666666666666666,-0.6844444444444444,-0.04920431488719204,-0.14348348088129337,1.6208176108576962
1589479265.0999713,-1.64208733580415,-1.2641746716083,9.329877719789224,0.5522222222222222,-0.22666666666666666,-0.6844444444444444,-0.03376811996559971,-0.11092986964325266,1.4841429219309195
1589479265.1099713,-1.549446563384712,-1.1995572507077696,9.037454191569676,0.5522222222222222,-0.22666666666666666,-0.6844444444444444,-0.019946243185438254,-0.07476284906899609,1.3874978951322463
1589479265.1199713,-1.5635704065314369,-1.1970827371433381,9.186124905311,0.5375068503399452,-0.24844541705243667,-0.7003370460773036,-0.029718413517513916,-0.08991517712241998,1.2793054267002915
1589479265.1299713,-1.4727698087431693,-1.196538592896175,9.105078551912568,0.5244444444444445,-0.2677777777777778,-0.7144444444444444,-0.04838251778048147,-0.07803649926762983,1.1173635275437972
1589479265.1399713,-1.3534794701168134,-1.1268336801335008,8.767084200333752,0.5244444444444445,-0.2677777777777778,-0.7144444444444444,-0.028795806685141766,-0.07304467115535185,0.9696969445036154
1589479265.1499712,-1.3605079737096857,-1.0564171804147349,8.451577928363989,0.5244444444444445,-0.2677777777777778,-0.7144444444444444,-0.012223729588867659,-0.0449253658523757,0.8610943277788484
1589479265.1599712,-7.094947965941344,-3.9865615473562492,10.453220855671187,0.5244444444444445,-0.2677777777777778,-0.7144444444444444,0.02522349816635424,0.021007522619203273,0.8961044730732496
1589479265.1699712,-13.280483787661407,-7.6206490674318506,7.513749784791965,0.515272947553005,-0.29035377012593655,-0.7095059461182847,0.17663176500687963,0.550095164857727,3.431823880593992
1589479265.1799712,-2.1575480002058987,-2.809233283574407,5.3244821639985584,0.51,-0.3033333333333333,-0.7066666666666667,-0.20297891936047777,-0.2076533990653956,4.973180415160903
1589479265.1899712,0.4069089099054256,-1.568038825286212,10.298596316575411,0.51,-0.3033333333333333,-0.7066666666666667,-0.3640790266736429,-1.0966275517517732,4.737261442547258
1589479265.1999712,0.20667087807959578,-1.0746111255620379,12.357567165842964,0.51,-0.3033333333333333,-0.7066666666666667,-0.1443026321302165,-0.7557415587108514,4.286667693320438
1589479265.2099712,-0.6469837790442788,-0.8926874177992108,8.018274148765162,0.51,-0.3033333333333333,-0.7066666666666667,0.03892622394262379,0.0790902530914561,3.8507136416129724
1589479265.2199712,-8.108652200867947,2.1619026658400493,7.010552386856789,0.47029310463594404,-0.3311281600881725,-0.7122256320176344,-0.041642312960037745,0.3417145097934658,2.303927938514712
1589479265.2299712,-3.403345917200573,0.8686026462420822,6.09835907581175,0.4544444444444444,-0.3422222222222222,-0.7144444444444444,0.1262113805288375,1.1053843661744298,0.26278792040473653
1589479265.2399712,-0.15180546810273388,0.24343661971830988,4.528993206296604,0.4544444444444444,-0.3422222222222222,-0.7144444444444444,0.2917470759843897,0.37737145416110307,-0.8143875472508509
1589479265.2499712,0.7579166072362475,-0.643251557076974,10.940161650739315,0.4544444444444444,-0.3422222222222222,-0.7144444444444444,-0.26068983453709793,-1.3421102631614654,-0.2575561789701316
1589479265.2599711,1.055159093159093,-1.1932862092862093,11.998516186516188,0.4544444444444444,-0.3422222222222222,-0.7144444444444444,-0.3284788573066698,-1.069191619885018,0.31832206828334797
1589479265.2699711,-0.6965500212655359,-1.0646668399414017,9.157818392325504,0.4258774265026332,-0.37555040982100196,-0.7102784209945969,-0.016671163601299194,0.007141047089856412,0.47440615287154664
1589479265.2799711,-4.906248428297266,-1.2151829792866125,7.45358811461849,0.4011111111111111,-0.4044444444444445,-0.7066666666666667,0.12590573760726415,0.3392517661859112,0.4954148295817428
1589479265.289971,-5.4580945347119645,-1.367311669128508,7.974268833087149,0.4011111111111111,-0.4044444444444445,-0.7066666666666667,-0.018879267767372185,-0.02748506866739224,0.21924893092445757
1589479265.299971,-3.6813978494623654,-0.945483870967742,9.420645161290322,0.4011111111111111,-0.4044444444444445,-0.7066666666666667,-0.05049490880265853,-0.18924154671825616,0.03069574363218522
1589479265.309971,-3.5758051164633877,-0.781451279115847,9.650656510061204,0.4011111111111111,-0.4044444444444445,-0.7066666666666667,-0.01725163459909827,-0.09976238526703224,0.01973257697980759
1589479265.319971,-3.9172730090827366,-0.79,9.031776558479804,0.4034389369374955,-0.39978879279167573,-0.7221855055092291,-0.003047116881252384,0.03625437428718947,0.000865455316259472
1589479265.329971,-3.8058679752927356,-0.8022066012353632,9.128028724089583,0.4044444444444445,-0.3977777777777778,-0.7288888888888889,-0.0017002558545471304,-0.00883432802845107,-0.0004814057104457815
1589479265.339971,-3.7496964691708285,-0.8058459804512156,9.221843726317017,0.4044444444444445,-0.3977777777777778,-0.7288888888888889,0.0,-0.02633016356675454,-0.001728528325502293
1589479265.349971,-3.9091052326330713,-0.7961789534733857,9.021547557674959,0.4044444444444445,-0.3977777777777778,-0.7288888888888889,0.0,0.011511118713951433,-0.0002572077479800574
1589479265.359971,-3.917722762588802,-0.7989108949644794,8.981485214396148,0.4044444444444445,-0.3977777777777778,-0.7288888888888889,0.00048601392634233545,0.010379085070241437,-0.0013392388492152213
1589479265.369971,-3.851885828287424,-0.8004714570718561,9.155707185607785,0.4012682634683965,-0.3977777777777778,-0.7278301618968729,0.0005711293855785406,-0.011479437210543099,-0.0028042189392320778
1589479265.379971,-3.8624733831369817,-0.7812544361438364,9.109390526503427,0.3977777777777778,-0.3977777777777778,-0.7266666666666667,0.00047699651322958344,-0.002322370586832056,-0.0001368377560372891
1589479265.389971,-3.924809621400065,-0.7725951892999676,9.04923848560026,0.3977777777777778,-0.3977777777777778,-0.7266666666666667,0.0008077395450154427,0.006461916360123542,0.0002415570700534164
1589479265.399971,-3.931151816898269,-0.7905759084491343,9.02701567957197,0.3977777777777778,-0.3977777777777778,-0.7266666666666667,-0.0011536526489180027,0.0011536526489180027,-0.002181661564992912
1589479265.409971,-3.9178888799935954,-0.7908253942838844,9.009539668561365,0.3977777777777778,-0.3977777777777778,-0.7266666666666667,-0.0006804702151318857,0.002682058681613254,-0.0011808673317522278
1589479265.419971,-3.896579866907035,-0.7833159733814071,8.986475707195478,0.3929880384490787,-0.3999884266987158,-0.7218769273379676,0.0007291141986586892,-0.001429823242401599,-0.00036171658383776675
1589479265.429971,-3.9035670077672298,-0.7811890025890766,9.057063000863026,0.38333333333333336,-0.4044444444444445,-0.7122222222222222,-0.0003203769066777287,-0.008665669478220459,-0.0017315845958519134
1589479265.439971,-3.8670738989798457,-0.7690246329932819,9.034958945011198,0.38333333333333336,-0.4044444444444445,-0.7122222222222222,-0.001090830782496456,-0.0019599126848486963,-0.002288057600508864
1589479265.449971,-3.9066719526376996,-0.7822239842125666,8.996111992106284,0.38333333333333336,-0.4044444444444445,-0.7122222222222222,0.00018151682542017367,0.001090830782496456,-0.0008482317386110863
1589479265.459971,-3.888774996183789,-0.7793874980918944,9.018162494275684,0.38333333333333336,-0.4044444444444445,-0.7122222222222222,0.001669652970529656,0.001090830782496456,-0.0011576443760664
1589479265.469971,-3.901309640924742,-0.7813096409247418,9.058690359075259,0.38333333333333336,-0.3928572990107668,-0.7146362108542383,0.0015648163420084122,-0.0003311258960394124,-0.0009479711190239122
1589479265.479971,-3.884285055574431,-0.7814298888511382,9.115719555404553,0.38333333333333336,-0.37777777777777777,-0.7177777777777777,0.002805065294959641,-0.004051872754893099,-0.0009348541050594537
1589479265.489971,-3.8644253954681487,-0.7951915348439504,9.056552372808893,0.38333333333333336,-0.37777777777777777,-0.7177777777777777,0.0015735665426341568,-0.0014899937011534532,-0.0016989258048552113
1589479265.499971,-3.884580391160782,-0.8,9.014460502921006,0.38333333333333336,-0.37777777777777777,-0.7177777777777777,0.000538876502127853,0.003259414569248618,-0.002194739343233662
1589479265.509971,-3.9099559109705666,-0.7933039406470446,9.04660788129409,0.38333333333333336,-0.37777777777777777,-0.7177777777777777,0.001090830782496456,0.004363323129985824,-0.0003604040161337415
1589479265.519971,-3.890825985161761,-0.7805506567745074,9.021101313549014,0.38333333333333336,-0.37777777777777777,-0.7177777777777777,0.001090830782496456,0.004363323129985824,0.0010307634464741657
1589479265.529971,-3.922583923270153,-0.7824880109614067,9.06746403288422,0.38333333333333336,-0.4044444444444445,-0.7266666666666667,0.0,-0.0018997992607237316,-0.001090830782496456
1589479265.5399709,-3.8709421147021787,-0.7918842294043577,9.082463082382569,0.38333333333333336,-0.4044444444444445,-0.7266666666666667,-0.0003083063153337372,-0.007430277933919367,-0.0009880620107185435
1589479265.5499709,-3.8872266439076673,-0.8027733560923328,9.006386678046166,0.38333333333333336,-0.4044444444444445,-0.7266666666666667,-0.0013017309403333846,-0.0015126310981703134,-0.0007883045628623933
1589479265.5599709,-3.8976357649565405,-0.79,9.014185410260756,0.38333333333333336,-0.4044444444444445,-0.7266666666666667,0.0014079674562542325,0.004164663731251147,-0.0016658654925004591
1589479265.5699708,-3.89,-0.79,9.062325815320651,0.38333333333333336,-0.4028939008973433,-0.7212397642518125,-0.001090830782496456,0.00025370709461688593,0.00025370709461688593
1589479265.5799708,-3.89,-0.7846234812093812,9.07268825939531,0.38333333333333336,-0.3977777777777778,-0.7033333333333334,-0.00021109995257481207,-0.0006686308773468314,0.00021109995257481207
1589479265.5899708,-3.8820660354454968,-0.7779339645545036,9.048264141781987,0.38333333333333336,-0.3977777777777778,-0.7033333333333334,0.0017489309268285008,-0.0050214232743178685,-0.0013162002886640898
1589479265.5999708,-3.8729730396693194,-0.784053920661361,9.008919119007958,0.38333333333333336,-0.3977777777777778,-0.7033333333333334,0.00011790582583341301,-0.003390398173322781,0.0
1589479265.6099708,-3.8876334448693433,-0.7738167224346718,9.037633444869343,0.38333333333333336,-0.3977777777777778,-0.7033333333333334,-0.0009326420689974777,0.0009908683774959343,-0.00041633983199847803
1589479265.6199708,-3.8964746223271765,-0.7905761330184712,9.060576133018472,0.38607529374552957,-0.3977777777777778,-0.7092089627880396,0.001090830782496456,0.0032096459843532705,-0.0014753898310406405
1589479265.6299708,-3.89,-0.7946553614331366,9.074885120477713,0.3911111111111111,-0.3977777777777778,-0.72,0.001090830782496456,0.0016487775856636852,-0.0010657679586584534
1589479265.6399708,-3.8854327968682036,-0.7891344062635929,9.047163984341017,0.3911111111111111,-0.3977777777777778,-0.72,0.0015890353591042328,0.00018884325856180495,0.0
1589479265.6499708,-3.8756498435656765,-0.7912996871313536,9.028700312868645,0.3911111111111111,-0.3977777777777778,-0.72,0.0007580762008224714,-0.0002835477460989917,-0.00047452845472348006
1589479265.6599708,-3.8808144902873076,-0.7836048300957692,9.04,0.3911111111111111,-0.3977777777777778,-0.72,-0.0006976048190829934,0.0033613394552332995,-0.001090830782496456
1589479265.6699708,-3.902366444968891,-0.79,9.04236644496889,0.3968957543683997,-0.39620014779851725,-0.7160559250518487,0.0005162782034299897,0.0044215975056223,-0.001090830782496456
1589479265.6799707,-3.903695182991229,-0.7836951829912293,9.046847591495615,0.4155555555555556,-0.3911111111111111,-0.7033333333333334,0.001493912717875479,0.001090830782496456,-0.001090830782496456
1589479265.6899707,-3.890855030536805,-0.7708550305368049,9.040427515268401,0.4155555555555556,-0.3911111111111111,-0.7033333333333334,9.326936295212408e-05,0.001090830782496456,-0.001090830782496456
1589479265.6999707,-3.862706412865637,-0.7845871742687258,9.003532064328185,0.4155555555555556,-0.3911111111111111,-0.7033333333333334,0.0013860546288945949,-0.0023868208082949514,0.0
1589479265.7099707,-3.872828574427882,-0.7742428616418224,9.04141428721394,0.4155555555555556,-0.3911111111111111,-0.7033333333333334,0.0018731119593413583,0.0003085496056515537,0.0003085496056515537
1589479265.7199707,-3.89280665470361,-0.7887733811855592,9.05280665470361,0.4155555555555556,-0.3911111111111111,-0.707387390127437,0.0,0.0018755030303392638,0.0018755030303392638
1589479265.7299707,-3.890828549224097,-0.76,9.064585725387952,0.4155555555555556,-0.3911111111111111,-0.7177777777777777,0.0,-0.0004098443414794653,9.03806998458418e-05
1589479265.7399707,-3.8833605866904515,-0.7700817600713543,9.039754719785938,0.4155555555555556,-0.3911111111111111,-0.7177777777777777,-0.00036658314091922916,-0.0032814109877505994,-0.001090830782496456
1589479265.7499707,-3.887885515905054,-0.79,8.98563862425319,0.4155555555555556,-0.3911111111111111,-0.7177777777777777,-0.0009370611598387124,-0.005069729855837921,-0.0009370611598387124
1589479265.7599707,-3.8737012693066797,-0.7797240480199903,9.05657468267333,0.4155555555555556,-0.3911111111111111,-0.7177777777777777,0.0025854074143964656,0.0003736441579750024,0.001090830782496456
1589479265.7699707,-3.896490889269584,-0.7670182214608317,9.053509110730417,0.41341109899807926,-0.3944252712453927,-0.7140737164512277,0.004497192411500729,0.001090830782496456,0.0012822230826927661
1589479265.7799706,-3.8837491821155945,-0.7925016357688114,9.073749182115595,0.4033333333333333,-0.41,-0.6966666666666667,0.0008179446521750961,0.001090830782496456,0.0009547445867302679
1589479265.7899706,-3.882067297064964,-0.7839663514675181,9.040336485324818,0.4033333333333333,-0.41,-0.6966666666666667,0.00045101425500541177,-0.00020715469999416937,-0.0006581689549995809
1589479265.7999706,-3.8777003522921145,-0.7861498238539428,9.0069512330224,0.4033333333333333,-0.41,-0.6966666666666667,-0.001341683433362357,-0.0017616724991776345,0.0
1589479265.8099706,-3.888027528675704,-0.7839449426485923,9.053944942648593,0.4033333333333333,-0.41,-0.6966666666666667,0.0,-0.0008756675386830779,0.0
1589479265.8199706,-3.8821960375391034,-0.7956079249217936,9.065607924921794,0.4033333333333333,-0.41,-0.6966666666666667,0.0,-0.000239550534717157,0.0
1589479265.8299706,-3.898430047310997,-0.7994766824369992,9.069476682437,0.38333333333333336,-0.3977777777777778,-0.72,0.0010337456918222184,0.0032154072568151303,0.00011417018134847526
1589479265.8399706,-3.872561642993298,-0.79,9.047191785033512,0.38333333333333336,-0.3977777777777778,-0.72,0.0002794319030855461,0.0010639339526507276,0.0019022296619073658
1589479265.8499706,-3.88,-0.79,9.013041325871717,0.38333333333333336,-0.3977777777777778,-0.72,0.0012567093765200777,-0.002181661564992912,0.0009249521884728343
1589479265.8599706,-3.875504150048507,-0.79,9.038991699902985,0.38333333333333336,-0.3977777777777778,-0.72,0.001936450988964227,-0.001936450988964227,-0.00024521057602868487
1589479265.8699706,-3.863586767614215,-0.79,9.068804410795263,0.38253627386350775,-0.3985748372476034,-0.7190700972852034,0.001090830782496456,-0.0006995751301717218,-0.0009604122317215446
1589479265.8799706,-3.8887229069697757,-0.79,9.060425697676742,0.3769504651178276,-0.40416064599328355,-0.7125533204152433,0.001090830782496456,0.0020423523260448733,-4.6436412982679264e-05
1589479265.8899705,-3.9,-0.7873929630399064,9.054785926079813,0.37666666666666665,-0.4044444444444445,-0.7122222222222222,0.001090830782496456,0.0026570214296801247,-0.0013285107148400623
1589479265.8999705,-3.89904338609867,-0.7819132278026599,9.04191322780266,0.37666666666666665,-0.4044444444444445,-0.7122222222222222,0.0011951811715499307,-0.0019729607868859624,0.0007777796153360316
1589479265.9099705,-3.8846728104260513,-0.7920092156390771,9.06,0.37666666666666665,-0.4044444444444445,-0.7122222222222222,0.0013100022092743106,-0.0008716593557186014,-0.0018911084464200449
1589479265.9199705,-3.870249991403322,-0.7703749871049826,9.06,0.37666666666666665,-0.4044444444444445,-0.7122222222222222,-0.0010499260347810275,-0.0032315875997739395,-0.001104465698401599
1589479265.9299705,-3.9,-0.78,9.060986036560907,0.3977777777777778,-0.41,-0.7477777777777778,0.0002963002373803672,-0.0015890610902321775,0.0002963002373803672
1589479265.9399705,-3.896591457780692,-0.78,9.005455277040923,0.3977777777777778,-0.41,-0.7477777777777778,0.0009668926899544605,0.00012393809254199547,0.0007190165048704695
1589479265.9499705,-3.87,-0.7829424954792044,8.987654972875227,0.3977777777777778,-0.41,-0.7477777777777778,0.0003209764646072754,-0.0005140515405399212,-0.0018606851003856366
1589479265.9599705,-3.8742732852229045,-0.79,9.034273285222904,0.3977777777777778,-0.41,-0.7477777777777778,0.001090830782496456,-0.0036641084704561607,-0.0013239023356730103
1589479265.9699705,-3.8884174141768395,-0.79,9.048417414176841,0.3977777777777778,-0.41,-0.7477777777777778,0.001090830782496456,-0.0013497807822733425,-0.0020953448984006163
1589479265.9799705,-3.892799160435524,-0.78,9.081602518693428,0.3911111111111111,-0.4044444444444445,-0.7266666666666667,0.0006106820736431688,0.0007854897456748716,-0.0012656384545281587
1589479265.9899704,-3.9,-0.7770714314573148,9.036571451658519,0.3911111111111111,-0.4044444444444445,-0.7266666666666667,0.0018622042934917378,-0.0006389145430023482,0.0007713735109952818
1589479265.9999704,-3.8981414909860437,-0.7755755270418687,8.991151054083737,0.3911111111111111,-0.4044444444444445,-0.7266666666666667,0.0008880988982993969,-0.00258712533338703,-0.00020273188419705904
1589479266.0099704,-3.887733383048453,-0.8,9.046799850854642,0.3911111111111111,-0.4044444444444445,-0.7266666666666667,-0.00024724955428761635,-0.0041160735756982075,-0.001090830782496456
1589479266.0199704,-3.8789532771999338,-0.8,9.07,0.3911111111111111,-0.40374662924440047,-0.7254454900665896,-0.0008624712922858722,-0.003044132857278784,-0.0009195611648385181
1589479266.0299704,-3.8616414891860655,-0.8,9.07,0.3911111111111111,-0.3922054372351549,-0.70524840405041,0.0029143749608302625,0.0007327133958373502,0.001913073524998583
1589479266.0399704,-3.8841216493155177,-0.7920608246577588,9.081148454791377,0.3911111111111111,-0.3911111111111111,-0.7033333333333334,-0.00041642749029313837,0.0015072582727895943,0.00022480109740110582
1589479266.0499704,-3.897874579883597,-0.7989372899417986,8.98487794081482,0.3911111111111111,-0.3911111111111111,-0.7033333333333334,0.0018338905116864759,-0.0007430597291900199,0.0009749070980609771
1589479266.0599704,-3.8866052762568444,-0.7733947237431558,9.026789447486312,0.3911111111111111,-0.3911111111111111,-0.7033333333333334,0.003087338889634071,-0.003087338889634071,-0.001996508107137615
1589479266.0699704,-3.8716927398136955,-0.7883072601863045,9.056614520372609,0.3911111111111111,-0.3911111111111111,-0.7033333333333334,0.002273986199769731,-0.002273986199769731,-0.001183155417273275
1589479266.0799704,-3.883133767053721,-0.7784331164731395,9.092165582365697,0.38333333333333336,-0.3977777777777778,-0.7266666666666667,0.001090830782496456,-0.00040714886902205145,-0.002181661564992912
1589479266.0899704,-3.897472465596072,-0.775055068807856,9.02725219036465,0.38333333333333336,-0.3977777777777778,-0.7266666666666667,0.0008151195493341048,0.0021696474148399634,-0.002181661564992912
1589479266.0999703,-3.891630974752079,-0.7916309747520792,8.966523899008317,0.38333333333333336,-0.3977777777777778,-0.7266666666666667,0.00017791174650425015,-0.001090830782496456,-0.0018258380719844117
1589479266.1099703,-3.8994347591493477,-0.7994347591493479,8.997739036597391,0.38333333333333336,-0.3977777777777778,-0.7266666666666667,0.0010291725705548734,-0.001090830782496456,-0.00012331642388316516
1589479266.1199703,-3.8701120765646646,-0.77,9.080224153129329,0.3834142775189243,-0.39774041892288964,-0.7267849697071458,0.0032541538624795106,-0.005429702599135803,-0.0021755487366562926
1589479266.1299703,-3.8829329481872357,-0.7747113678751762,9.110577264249647,0.3977777777777778,-0.3911111111111111,-0.7477777777777778,0.0,-0.0005769002719057361,-0.0005769002719057361
1589479266.1399703,-3.8662240477968632,-0.79,9.055103808812547,0.3977777777777778,-0.3911111111111111,-0.7477777777777778,0.0,0.001090830782496456,0.0008645180182115303
1589479266.1499703,-3.8876201464597706,-0.79,8.974279121241377,0.3977777777777778,-0.3911111111111111,-0.7477777777777778,-0.0005192034999030672,0.001090830782496456,0.0002596017499515336
1589479266.1599703,-3.878163187055463,-0.7918368129445371,9.027347251778147,0.3977777777777778,-0.3911111111111111,-0.7477777777777778,-0.0017809311446751058,0.001090830782496456,0.0008904655723375529
1589479266.1699703,-3.870122121891835,-0.7998778781081651,9.05951151243266,0.3977777777777778,-0.3911111111111111,-0.7477777777777778,-2.664286376604123e-05,0.001090830782496456,1.3321431883020615e-05
1589479266.1799703,-3.8903192152336987,-0.7993615695326025,9.098084708597806,0.37666666666666665,-0.38333333333333336,-0.7122222222222222,-0.002112019604360824,0.0031680294065412366,3.4820980316043825e-05
1589479266.1899703,-3.8999996272203687,-0.7800003727796313,9.039998881661106,0.37666666666666665,-0.38333333333333336,-0.7122222222222222,-6.099592453988496e-08,0.0,0.0010908714464461491
1589479266.1999702,-3.884364131143874,-0.7956358688561257,8.993092393431622,0.37666666666666665,-0.38333333333333336,-0.7122222222222222,-0.0025584130589009347,0.0,0.002796439488430413
1589479266.2099702,-3.8813238533643255,-0.7986761466356745,8.993971560092977,0.37666666666666665,-0.38333333333333336,-0.7122222222222222,-0.002181661564992912,0.002181661564992912,0.0
1589479266.2199702,-3.8940680309314373,-0.7859319690685627,9.032204092794313,0.37666666666666665,-0.38333333333333336,-0.7122222222222222,-0.002181661564992912,0.002181661564992912,0.0
1589479266.2299702,-3.892124214002178,-0.787875785997822,9.097254715986931,0.38191719066521473,-0.39470946866352075,-0.7122222222222222,-0.0013225465847150272,0.0004634316044371425,-0.0008591149802778847
1589479266.2399702,-3.89,-0.7979793713599787,9.086061885920063,0.38333333333333336,-0.3977777777777778,-0.7122222222222222,-0.00022041639205292287,0.0026112431713305995,0.0006499979983906102
1589479266.2499702,-3.8888591881945844,-0.7977183763891686,8.986844870832494,0.38333333333333336,-0.3977777777777778,-0.7122222222222222,-0.000966387519058176,0.00520526738560572,-0.001090830782496456
1589479266.2599702,-3.881179992310368,-0.7823599846207364,9.03292004613779,0.38333333333333336,-0.3977777777777778,-0.7122222222222222,-0.00012871719352587304,0.0035299267345411138,-0.001090830782496456
1589479266.2699702,-3.871025433584467,-0.7889745664155332,9.057949132831066,0.38333333333333336,-0.3977777777777778,-0.7122222222222222,-0.000978973330562249,0.002293519016927119,0.000867115878628042
1589479266.2799702,-3.8857517929529157,-0.79,9.09150358590583,0.40433572393722067,-0.40302837542874964,-0.7349748120431002,-0.001090830782496456,0.0013225345333653634,-0.0006274232807586412
1589479266.2899702,-3.8834143737564903,-0.7734143737564906,9.076099383704566,0.41,-0.4044444444444445,-0.7411111111111112,-0.0005586755994791866,-0.00015970478336447842,0.0
