time,acc_x,acc_y,acc_z,mag_x,mag_y,mag_z,gyr_x,gyr_y,gyr_z
1589479316.4445214,-0.22,-4.36,8.7,0.4711111111111111,0.2788888888888889,-0.6977777777777778,0.0,-0.02072578486743266,-0.002181661564992912
1589479316.4545214,-0.20132519034120425,-4.366224936552932,8.712449873105864,0.4711111111111111,0.2788888888888889,-0.6977777777777778,0.002037105723307656,-0.020046749626330112,-0.002181661564992912
1589479316.4645214,-0.19,-4.358626059395025,8.731373940604975,0.4711111111111111,0.2788888888888889,-0.6977777777777778,0.005753901253527954,-0.016533192952387976,-0.002181661564992912
1589479316.4745214,-0.1833875679805834,-4.343387567980583,8.746612432019417,0.47992768713699996,0.28256246223300924,-0.6933694897648334,0.005471902159291742,-0.007689060217903577,-0.0029029660043873953
1589479316.4845214,-0.22895062852978687,-4.3302098742940425,8.75,0.4844444444444445,0.28444444444444444,-0.6911111111111111,0.0022274490330721946,-0.0022274490330721946,-0.0011366182505757384
1589479316.4945214,-0.22056043630057276,-4.358318691098282,8.617846108208019,0.4844444444444445,0.28444444444444444,-0.6911111111111111,0.002181661564992912,-0.003211358230660048,-0.001090830782496456
1589479316.5045214,-0.210912082853855,-4.350912082853855,8.61,0.4844444444444445,0.28444444444444444,-0.6911111111111111,0.00019898561063445147,-0.003272492347489368,-9.949280531722574e-05
1589479316.5145214,-0.2174197077440025,-4.357419707744002,8.684197077440025,0.4844444444444445,0.28444444444444444,-0.6911111111111111,0.0016187291208570524,-0.004081856907917894,-0.0016187291208570524
1589479316.5245214,-0.20211495969875207,-4.333172439548128,8.72788504030125,0.4725210842436125,0.27947637769409783,-0.6851494310106951,0.002181661564992912,-0.0004614126286276361,0.000744771311025729
1589479316.5345213,-0.1904695381267926,-4.358591385619622,8.768121847492829,0.4711111111111111,0.2788888888888889,-0.6844444444444444,0.004260885801533605,-0.007277284827892426,-0.000988393454044237
1589479316.5445213,-0.1991019434026594,-4.35089805659734,8.669878622570748,0.4711111111111111,0.2788888888888889,-0.6844444444444444,0.0063490591388181035,-0.006642947473059052,-0.001090830782496456
1589479316.5545213,-0.20923593047283334,-4.368471860945667,8.733887443782667,0.4711111111111111,0.2788888888888889,-0.6844444444444444,0.007552468421455103,-0.0055375009685023685,0.0009241366704562778
1589479316.5645213,-0.21696776510729998,-4.3630322348927,8.774838825536499,0.4711111111111111,0.2788888888888889,-0.6844444444444444,0.007635815477475192,0.0006263682189157618,-0.0004292997503530544
1589479316.5745213,-0.21075930228270087,-4.36,8.79,0.45879018082137896,0.2788888888888889,-0.6967653747341767,0.005619807973120271,0.00831251110837667,-0.002098834534673916
1589479316.5845213,-0.21638041913293873,-4.353619580867061,8.73895664693649,0.4577777777777778,0.2788888888888889,-0.6977777777777778,0.004758158152938389,0.008030650500427757,-0.0014856658054490206
1589479316.5945213,-0.21237446707721458,-4.342374467077215,8.641370203694931,0.4577777777777778,0.2788888888888889,-0.6977777777777778,0.0035315065254743743,0.007635815477475192,0.003068252240060792
1589479316.6045213,-0.19848812060430318,-4.34,8.64877969848924,0.4577777777777778,0.2788888888888889,-0.6977777777777778,0.003272492347489368,0.007007939857014552,0.0024796962686039047
1589479316.6145213,-0.2005388078024826,-4.345269403901241,8.71215523120993,0.4577777777777778,0.2788888888888889,-0.6977777777777778,0.0015480839532250892,0.0071197874930668285,0.0016656335805845489
1589479316.6245213,-0.21,-4.35,8.738425045873452,0.4654944138621437,0.28210415392404137,-0.7029222018340218,-0.0006313158133611945,0.009529762917558774,0.002181661564992912
1589479316.6345212,-0.1944747573165891,-4.334474757316589,8.722237378658296,0.4711111111111111,0.28444444444444444,-0.7066666666666667,0.0031430223737016717,0.008367995931245683,0.0013348909337532863
1589479316.6445212,-0.21502529274824528,-4.342512646374122,8.657436768129386,0.4711111111111111,0.28444444444444444,-0.7066666666666667,0.004363323129985824,0.006270897493936629,0.001090830782496456
1589479316.6545212,-0.21469414349007782,-4.3423470717450385,8.665917569529766,0.4711111111111111,0.28444444444444444,-0.7066666666666667,0.004363323129985824,-0.0003894808892416328,0.00025602581082161135
1589479316.6645212,-0.21698215230296025,-4.34,8.749821523029603,0.4711111111111111,0.28444444444444444,-0.7066666666666667,0.00512495779600058,0.0008648770990661121,0.000761634666014756
1589479316.6745212,-0.2117158821326008,-4.356568235734799,8.788284117867398,0.4665088234070005,0.2798421567403338,-0.7066666666666667,3.221144712953032e-05,0.004892632797669287,0.001090830782496456
1589479316.6845212,-0.2233306510607169,-4.346669348939283,8.74334272128749,0.4655555555555556,0.2788888888888889,-0.7066666666666667,0.001090391896665898,0.004000005459707377,0.002544979235271359
1589479316.6945212,-0.21404777123633306,-4.347976114381833,8.6482149705635,0.4655555555555556,0.2788888888888889,-0.7066666666666667,0.002181661564992912,0.0024024332382477035,0.0015323741290060391
1589479316.7045212,-0.21902325698211775,-4.35,8.657069770946354,0.4655555555555556,0.2788888888888889,-0.7066666666666667,0.006118800154780953,0.0031659462124399226,0.00010654613504944527
1589479316.7145212,-0.21292163464221275,-4.342921634642212,8.681235096073362,0.4655555555555556,0.2788888888888889,-0.7066666666666667,0.004228595048369477,-0.0021324168279322382,0.0007721298822030865
1589479316.7245212,-0.22396646260314082,-4.34698323130157,8.759832313015703,0.46943512850087243,0.2827684618342058,-0.6958038624197794,0.004795997080498525,-0.004363323129985824,0.00032907841599187735
1589479316.7345212,-0.21376309577487201,-4.333763095774872,8.74940773943718,0.4711111111111111,0.28444444444444444,-0.6911111111111111,0.00102622517717819,-0.0017065658888033696,-0.000885585747060818
1589479316.7445211,-0.21,-4.337318912107529,8.674129791032238,0.4711111111111111,0.28444444444444444,-0.6911111111111111,-0.0023951083863836395,0.0013042776038871835,-0.0002924613203685762
1589479316.7545211,-0.2176172201336675,-4.347617220133667,8.665234440267335,0.4711111111111111,0.28444444444444444,-0.6911111111111111,-0.004934311987260624,0.005505300844535424,0.000830909819885628
1589479316.7645211,-0.2008537700071958,-4.35,8.708292459985609,0.4711111111111111,0.28444444444444444,-0.6911111111111111,-0.004061800776155098,0.004456454990487962,-0.00030152235383072647
1589479316.774521,-0.20440592531632548,-4.354801975105442,8.739603950210883,0.4743124278480723,0.278041810970522,-0.6911111111111111,-0.001701049668950085,0.003272492347489368,-0.000567016556316695
1589479316.784521,-0.22,-4.347940272605662,8.75,0.4777777777777778,0.27111111111111114,-0.6911111111111111,0.0,0.002614736253976374,0.0
1589479316.794521,-0.2029190878999632,-4.357080912100037,8.658901802133137,0.4777777777777778,0.27111111111111114,-0.6911111111111111,0.0018632384711836304,0.0015605820745983685,-0.0012421589807890868
1589479316.804521,-0.20314668937619756,-4.356853310623802,8.629440068128593,0.4777777777777778,0.27111111111111114,-0.6911111111111111,0.0025554516745155955,0.001090830782496456,-3.0539546071595494e-05
1589479316.814521,-0.20477005815366173,-4.344770058153662,8.67614970923169,0.4777777777777778,0.27111111111111114,-0.6911111111111111,0.0016111634093276992,0.0016613289381616687,0.0005203326268312432
1589479316.824521,-0.20462592085292267,-4.349251841705845,8.727755525117535,0.48343168104246104,0.2772790055816747,-0.694195058346393,0.0015954404688724865,0.0026862712513689426,0.0005046096863760306
1589479316.834521,-0.21582144676515538,-4.354178553234845,8.748357106469689,0.49,0.28444444444444444,-0.6977777777777778,-0.0009934451000550384,0.0013674283484605982,0.001725852115506046
1589479316.844521,-0.2277275883619193,-4.34227241163808,8.678179293104646,0.49,0.28444444444444444,-0.6977777777777778,-0.001586594095560778,0.0016858982519285897,0.002181661564992912
1589479316.854521,-0.22321500450441817,-4.333215004504418,8.69392497747791,0.49,0.28444444444444444,-0.6977777777777778,-0.00035070258792840956,0.0007014051758568191,0.0007014051758568191
1589479316.864521,-0.2084331701936996,-4.3415668298063,8.71,0.49,0.28444444444444444,-0.6977777777777778,-0.0031543635021525004,0.0018926181012915006,0.0018926181012915006
1589479316.874521,-0.19288476038242303,-4.335769520764846,8.724230479235155,0.4765601029445768,0.2804915335457906,-0.6977777777777778,-0.0023495449526057663,0.003272492347489368,0.00016788338761285476
1589479316.884521,-0.3438685875791001,-4.33,8.681409919711863,0.4711111111111111,0.2788888888888889,-0.6977777777777778,-0.005507793724352618,0.005039277524231833,0.0006759543942460092
1589479316.894521,-0.04885245901639346,-4.386365538890827,8.768639693058947,0.4711111111111111,0.2788888888888889,-0.6977777777777778,-0.012693511184390223,-0.01837138623398722,0.00032226497132002035
1589479316.904521,-0.06023379199206644,-4.396342382546176,8.789513573819264,0.4711111111111111,0.2788888888888889,-0.6977777777777778,-0.001863296374177285,0.008138866013863353,0.0014898149534192332
1589479316.914521,-0.1648687279468931,-4.384188545342185,8.71607399876403,0.4711111111111111,0.2788888888888889,-0.6977777777777778,-0.004511715954572786,0.011142618007397813,0.002181661564992912
1589479316.924521,-0.22800367150148274,-4.367332109499506,8.682667890500493,0.46548093755533587,0.2812347945371286,-0.6977777777777778,-0.006302132855886708,0.004315153260850952,0.002181661564992912
1589479316.934521,-0.25813550269115415,-4.333601627018366,8.678135502691154,0.4577777777777778,0.28444444444444444,-0.6977777777777778,0.0011925233354150005,0.0027640295828966453,0.0015853998972854117
1589479316.944521,-0.22932071038628982,-4.336018934420565,8.665339644806854,0.4577777777777778,0.28444444444444444,-0.6977777777777778,0.0039290562418673744,-0.00043426688811844943,0.0005083658902049685
1589479316.954521,-0.2431678340621493,-4.332624124453388,8.698959792577687,0.4577777777777778,0.28444444444444444,-0.6977777777777778,0.002926935256606043,-0.0008045832094107216,0.0
1589479316.964521,-0.26579072931616127,-4.377907293161613,8.760535105213128,0.4577777777777778,0.28444444444444444,-0.6977777777777778,-0.0026991926922075556,-0.003445002723227583,0.0
1589479316.974521,-0.3521776504297994,-4.317277936962751,8.673581661891117,0.4760394778732888,0.2935752944921999,-0.6932123527539,-0.0076952016805337375,-0.02154468935171367,0.0
1589479316.984521,-0.19493356651298008,-4.360030661609393,8.792558768084671,0.4844444444444445,0.2977777777777777,-0.6911111111111111,0.0035493808715344397,0.015559668354784669,0.0024552054263012177
1589479316.994521,-0.19360424754510164,-4.375865722767755,8.687455811829183,0.4844444444444445,0.2977777777777777,-0.6911111111111111,-0.007011383981132678,0.0058742944006664605,0.00018887140883507968
1589479317.004521,-0.24011150018429783,-4.343184666420936,8.606592333210468,0.4844444444444445,0.2977777777777777,-0.6911111111111111,-0.004314671996671385,0.004411974263300262,-0.00035955599972261546
1589479317.014521,-0.18694238448374217,-4.377293211637193,8.699841224567407,0.4844444444444445,0.2977777777777777,-0.6911111111111111,-0.005158889105697016,0.0035677571542746325,0.0005732099006330016
1589479317.0245209,-0.13,-4.386743088334457,8.741962238705327,0.47746459878624414,0.29531430283958937,-0.6857735820783697,-0.006189710744914145,0.004552361235920813,0.0018970010708417803
1589479317.0345209,-0.19465422612513722,-4.308448591291621,8.651379436516649,0.4655555555555556,0.2911111111111111,-0.6766666666666666,0.0,0.014180800172453925,0.003272492347489368
1589479317.0445209,-0.2465594076068664,-4.319014024458656,8.623279703803433,0.4655555555555556,0.2911111111111111,-0.6766666666666666,-0.012767309648571444,0.008709096037351878,0.0014485909691220188
1589479317.0545208,-0.26149863905641246,-4.314429737951646,8.639641885040295,0.4655555555555556,0.2911111111111111,-0.6766666666666666,-0.03584115869369539,0.008890122421430263,-0.0006466856130634912
1589479317.0645208,-0.25943007159904535,-4.172815274463007,8.782279713603819,0.4655555555555556,0.2911111111111111,-0.6766666666666666,-0.04472406208235469,0.008664476715613616,0.0005765001634272439
1589479317.0745208,-0.20316569805838067,-3.8721598864086646,8.878532558446704,0.4655555555555556,0.2845516150809375,-0.68441879833869,-0.03184452174507666,0.010137623126037925,-0.0030872413002571903
1589479317.0845208,-0.1737754783461933,-3.622856696846706,8.810203826769547,0.4655555555555556,0.2788888888888889,-0.6911111111111111,-0.02479972476320552,0.00942787029405226,-0.02053662514742257
1589479317.0945208,-0.17457250973438385,-3.6202976070782222,8.752564941593697,0.4655555555555556,0.2788888888888889,-0.6911111111111111,-0.027769552999564455,0.013029169377968518,-0.03434700159074457
1589479317.1045208,-0.21037264514707502,-3.7204968601961,8.703126308251626,0.4655555555555556,0.2788888888888889,-0.6911111111111111,-0.032042868819604636,0.020357658019962983,-0.04108344288739565
1589479317.1145208,-0.33407221018321187,-3.7935927789816786,8.676407221018321,0.4655555555555556,0.2788888888888889,-0.6911111111111111,-0.04486126330350684,0.007753324425963047,-0.047699392565264065
1589479317.1245208,-0.4648786117285006,-3.761221576337835,8.674635835185502,0.4642277882259076,0.2788888888888889,-0.6911111111111111,-0.06007514147521642,-0.007956126961307925,-0.06270952858722767
1589479317.1345208,-0.3910709537376204,-3.5415612535612535,8.856877492877492,0.4577777777777778,0.2788888888888889,-0.6911111111111111,-0.08636565036622633,0.03284174640525628,-0.059328526664540124
1589479317.1445208,-0.2967771904533077,-2.9542175236264616,8.906198942815953,0.4577777777777778,0.2788888888888889,-0.6911111111111111,-0.059617230843666234,0.0342800082040653,-0.029249745926748234
1589479317.1545208,-0.3212795490075323,-2.7274075039082857,8.748080676488701,0.4577777777777778,0.2788888888888889,-0.6911111111111111,-0.00827484212280899,0.029066772397489532,0.07623707767382865
1589479317.1645207,-0.36,-2.8585291828793777,8.756396887159534,0.4577777777777778,0.2788888888888889,-0.6911111111111111,0.0011349733511266634,-0.00014431224359875636,0.20260759884824447
1589479317.1745207,-0.3724380406827215,-2.934146013560907,8.818292027121815,0.46883381394019696,0.2788888888888889,-0.6911111111111111,-0.012158414694360485,-0.02053947392831327,0.305295978324698
1589479317.1845207,-0.4171025056947608,-2.9535512528473804,8.798380410022778,0.4844444444444445,0.2788888888888889,-0.6911111111111111,-0.012138536345269787,-0.02033840327519759,0.4175871687159513
1589479317.1945207,-0.44545317769988757,-3.0382023345016864,8.750906355399776,0.4844444444444445,0.2788888888888889,-0.6911111111111111,-0.006843229993737812,-0.030447676248449282,0.5202405447159905
1589479317.2045207,-0.423264223542157,-3.1333886211662745,8.743347155291568,0.4844444444444445,0.2788888888888889,-0.6911111111111111,-0.010547713047635892,-0.04289847206943522,0.6022561957946795
1589479317.2145207,-0.39967527261064784,-3.203538726747915,8.759675272610648,0.4844444444444445,0.2788888888888889,-0.6911111111111111,-0.010416025828550087,-0.04138072520842032,0.6915794567253519
1589479317.2245207,-0.3998342229199372,-3.255082888540031,8.815745996860283,0.4810558520844236,0.281712715855573,-0.6837691609977324,-0.009835560516664591,-0.0464055169415906,0.7569884432016957
1589479317.2345207,-0.4050217192501143,-3.295050678250267,8.80492036274958,0.4777777777777778,0.28444444444444444,-0.6766666666666666,-0.01090830782496456,-0.048541180086872374,0.8116144299514794
1589479317.2445207,-0.41244956219263523,-3.3337752189036824,8.73489912438527,0.4777777777777778,0.28444444444444444,-0.6766666666666666,-0.01296737032036419,-0.05211467942064332,0.8564342101306182
1589479317.2545207,-0.40478433835845895,-3.344784338358459,8.724353015075378,0.4777777777777778,0.28444444444444444,-0.6766666666666666,-0.015318681026389717,-0.054729739410580146,0.9067713598225827
1589479317.2645206,-0.41903496967574244,-3.3138601212970302,8.73548251516213,0.4777777777777778,0.28444444444444444,-0.6766666666666666,-0.014180800172453925,-0.053134902907203525,0.9418843312054462
1589479317.2745206,-0.4464010887462616,-3.3274038106119157,8.746401088746262,0.4727663339941979,0.28216651545190813,-0.6798557672562175,-0.015969881419541764,-0.0589595522486755,0.9748872990443085
1589479317.2845206,-0.5001739711450419,-3.422069588458017,8.80620876537405,0.4655555555555556,0.2788888888888889,-0.6844444444444444,-0.017227535440232887,-0.060860766740091124,1.0126116097765603
1589479317.2945206,-0.5489014762945452,-3.516704428883636,8.720174390080729,0.4655555555555556,0.2788888888888889,-0.6844444444444444,-0.014470864537345942,-0.058104095837204175,1.0419450119651137
1589479317.3045206,-0.5776227214781212,-3.568565917782818,8.674302246651546,0.4655555555555556,0.2788888888888889,-0.6844444444444444,-0.014337234275167197,-0.05963348542197173,1.065642995679224
1589479317.3145206,-0.5955252164436641,-3.55690652055458,8.734143912332748,0.4655555555555556,0.2788888888888889,-0.6844444444444444,-0.015609077215358789,-0.06450969307170851,1.0872632434382563
1589479317.3245206,-0.6188748503241257,-3.58053098806722,8.762781287418969,0.47235425813525656,0.26930889889021936,-0.6881528276697358,-0.011818482004438871,-0.06484306416347115,1.1193220087958633
1589479317.3345206,-0.617158427403659,-3.527284157259634,8.772715842740366,0.49,0.24444444444444444,-0.6977777777777778,-0.015662062603259252,-0.06593445776024404,1.1440519875153337
1589479317.3445206,-0.6975428200340936,-3.5388570500852343,8.749828719863624,0.49,0.24444444444444444,-0.6977777777777778,-0.018400763042933158,-0.07349705944126357,1.175435561315747
1589479317.3545206,-0.7214845129192746,-3.5671288717701812,8.7,0.49,0.24444444444444444,-0.6977777777777778,-0.016049270232088762,-0.07370670595172191,1.1988443879086321
1589479317.3645205,-0.79,-3.566504998297173,8.728883747020053,0.49,0.24444444444444444,-0.6977777777777778,-0.01598121619321475,-0.07135410486745983,1.2385060888992263
1589479317.3745205,-0.8067037184067751,-3.6025277888050815,8.77,0.5011358122711834,0.24258847573258052,-0.6977777777777778,-0.018999646557946327,-0.07245035490027266,1.267293880584052
1589479317.3845205,-0.8640645703088551,-3.648387141924046,8.752967714845573,0.5166666666666667,0.24,-0.6977777777777778,-0.019015642720179308,-0.07494359652153325,1.2924022545812204
1589479317.3945205,-0.9059204419889503,-3.689900552486188,8.716119337016575,0.5166666666666667,0.24,-0.6977777777777778,-0.017675797892814947,-0.07635815477475191,1.3135176792530194
1589479317.4045205,-0.939575544314933,-3.7231918481049777,8.691171468367422,0.5166666666666667,0.24,-0.6977777777777778,-0.016362461737446838,-0.07653224308305004,1.3366047697522223
1589479317.4145205,-0.9952013983364618,-3.7413003495841157,8.748699650415885,0.5166666666666667,0.24,-0.6977777777777778,-0.01622061560201088,-0.0777326778281203,1.3644774315351682
1589479317.4245205,-1.0240932339113813,-3.7485233084778455,8.741476691522156,0.5166666666666667,0.24,-0.6977777777777778,-0.01543271301181217,-0.07930848300851771,1.3818112885195397
1589479317.4345205,-1.0999511958531631,-3.7550732062202554,8.832585407256964,0.5111111111111111,0.21333333333333332,-0.7266666666666667,-0.013084645683389162,-0.07908789358427722,1.4185801811308103
1589479317.4445205,-1.1621166562694947,-3.6885888958203368,8.747883343730505,0.5111111111111111,0.21333333333333332,-0.7266666666666667,-0.016362461737446838,-0.0793953098511163,1.4631800065175644
1589479317.4545205,-1.2240051637302496,-3.6399870906743756,8.696007745595374,0.5111111111111111,0.21333333333333332,-0.7266666666666667,-0.01767314850321523,-0.08574296079556218,1.5025221485980267
1589479317.4645205,-1.2392574410443826,-3.6018563973890436,8.718886161566575,0.5111111111111111,0.21333333333333332,-0.7266666666666667,-0.02266444458244382,-0.09655743563389077,1.537461221152627
1589479317.4745204,-1.2931966042033338,-3.547171135728336,8.846025468474997,0.5119990567231483,0.20782807053870309,-0.7256011319322221,-0.020551437154209967,-0.09154492702280016,1.5903371615740938
1589479317.4845204,-1.3134708645423385,-3.696941729084677,8.7275202065084,0.5166666666666667,0.17888888888888888,-0.72,-0.020329077163790225,-0.0813344037703375,1.6255090770987757
1589479317.4945204,-1.3732902524661428,-3.813290252466143,8.76774368834643,0.5166666666666667,0.17888888888888888,-0.72,-0.029480627489045168,-0.10549396957739217,1.6514473137955321
1589479317.5045204,-1.3821134481552038,-3.822113448155204,8.609158275339217,0.5166666666666667,0.17888888888888888,-0.72,-0.02470487227993402,-0.09794422899419036,1.6628103482420835
1589479317.5145204,-1.4231803398501734,-3.807163895486936,8.697049150374566,0.5166666666666667,0.17888888888888888,-0.72,-0.018197202041702804,-0.08987014592587474,1.6675208284262726
1589479317.5245204,-1.4595818115412709,-3.739163623082542,8.662578159240322,0.5194347455563673,0.17271394367340312,-0.7212775748721695,-0.017571100650835992,-0.08464767191326443,1.6642809232590732
1589479317.5345204,-1.5183660603363558,-3.823673212067271,8.814692848269084,0.5311111111111111,0.14666666666666667,-0.7266666666666667,-0.02566802844496468,-0.10180373310853942,1.6468878165154788
1589479317.5445204,-1.577363204384456,-3.8003565285835057,8.80579599451943,0.5311111111111111,0.14666666666666667,-0.7266666666666667,-0.02166375369699613,-0.09365858534176222,1.6329166960384147
1589479317.5545204,-1.6518941895594745,-3.652924892854634,8.70448464835242,0.5311111111111111,0.14666666666666667,-0.7266666666666667,-0.017058285012531874,-0.08984313167212081,1.6213877908456051
1589479317.5645204,-1.642134256472005,-3.5810671282360023,8.745493979530403,0.5311111111111111,0.14666666666666667,-0.7266666666666667,-0.016362461737446838,-0.09053895494720583,1.6137052162455348
1589479317.5745203,-1.7052633955448524,-3.6126316977724264,8.789684376881397,0.5311111111111111,0.14666666666666667,-0.7266666666666667,-0.016362461737446838,-0.09053895494720583,1.6116393200003398
1589479317.5845203,-1.8327964198317186,-3.562137709094566,8.792269451241998,0.5422222222222223,0.10111111111111112,-0.7555555555555555,-0.02207854521632053,-0.09491664891616862,1.6248571193038674
1589479317.5945203,-1.8270092560251483,-3.3640735242752355,8.727119280475026,0.5422222222222223,0.10111111111111112,-0.7555555555555555,-0.0168248170132273,-0.09676970188882658,1.6502908582003908
1589479317.6045203,-1.7002603295416527,-3.21,8.719913223486117,0.5422222222222223,0.10111111111111112,-0.7555555555555555,-0.01417133432319966,-0.09093727332197031,1.671095963689045
1589479317.6145203,-1.6698398536377534,-3.1677268740131828,8.76735319916794,0.5422222222222223,0.10111111111111112,-0.7555555555555555,-0.017176217509778095,-0.08941318564838072,1.6839714762504179
1589479317.6245203,-1.7552967076167076,-3.042351646191646,8.824131891891891,0.5437899863499864,0.0885689980889981,-0.760520141960142,-0.01963495408493621,-0.10754392941641266,1.686999769475114
1589479317.6345203,-1.74,-3.0558569000154536,8.750542420027816,0.5488888888888889,0.04777777777777778,-0.7766666666666666,-0.020657175977233926,-0.10126031618929472,1.7013032474409993
1589479317.6445203,-1.71436503407298,-3.0455256974050826,8.820386887777367,0.5488888888888889,0.04777777777777778,-0.7766666666666666,-0.028012057720639836,-0.0958242972209185,1.7102419359689447
1589479317.6545203,-1.6679412406370444,-2.928941167915061,8.797882335830122,0.5488888888888889,0.04777777777777778,-0.7766666666666666,-0.026866517241300066,-0.1044310034617231,1.6997389349381649
1589479317.6645203,-1.8774092983021524,-2.9720165544379804,8.797749207049206,0.5488888888888889,0.04777777777777778,-0.7766666666666666,-0.020517339736309897,-0.09691257280351431,1.6807131855690334
1589479317.6745203,-2.0552634971250234,-3.1356424173550215,8.897347558390013,0.5488888888888889,0.04777777777777778,-0.7766666666666666,-0.022845445754776685,-0.09070429008760288,1.671400761495166
1589479317.6845202,-1.9799586185559035,-3.197510345361024,8.754979309277951,0.5288888888888889,0.013333333333333334,-0.7833333333333333,-0.020445177645025764,-0.0910685712848885,1.6586510879312537
1589479317.6945202,-2.0110754625459077,-3.170641674173654,8.767849074908183,0.5288888888888889,0.013333333333333334,-0.7833333333333333,-0.027001142135263948,-0.102420778789617,1.6216537892322194
1589479317.7045202,-2.0531340716932465,-3.0033731856613506,8.763253628677298,0.5288888888888889,0.013333333333333334,-0.7833333333333333,-0.02622558453337826,-0.09783289623692665,1.5567133389512926
1589479317.7145202,-2.1481157225083307,-2.985674504229488,8.79,0.5288888888888889,0.013333333333333334,-0.7833333333333333,-0.01043646943136124,-0.08676424779837928,1.5163411888498959
1589479317.7245202,-2.2731614778246674,-2.9617280436340474,8.768492913448522,0.530175637656926,0.010392193292105705,-0.7833333333333333,-0.012516434206860114,-0.07633405209602409,1.4888035520149534
1589479317.7345202,-2.3900065373719768,-2.9199934626280233,8.660078448463718,0.5366666666666666,-0.004444444444444445,-0.7833333333333333,-0.03162838775912638,-0.0927134853456102,1.4879031709583899
1589479317.7445202,-2.405611107870019,-2.9240277696750483,8.813666647220115,0.5366666666666666,-0.004444444444444445,-0.7833333333333333,-0.025661792567261883,-0.08854515479461184,1.5056131259555265
1589479317.7545202,-2.3977562949640285,-2.9361674588900306,8.896822327852005,0.5366666666666666,-0.004444444444444445,-0.7833333333333333,-0.030991772177035908,-0.1021709681766549,1.5098116829826589
1589479317.7645202,-2.3003030414610794,-2.8419047794388392,8.9380086898888,0.5366666666666666,-0.004444444444444445,-0.7833333333333333,-0.01770356745203459,-0.08100480953224087,1.4845640206189572
1589479317.7745202,-2.3405538869874976,-2.9105538869874974,9.050874484878117,0.5350048504885412,-0.008555252885070584,-0.7867444296989593,-0.007807550658291495,-0.07438320019536443,1.4437892461996276
1589479317.7845201,-2.2262004034969736,-2.7924008069939474,8.72291862811029,0.5155555555555555,-0.05666666666666665,-0.8266666666666667,-0.010729314744312822,-0.05168351845999012,1.36673761264812
1589479317.7945201,-2.1719269733088677,-2.693945229981651,8.894127796709482,0.5155555555555555,-0.05666666666666665,-0.8266666666666667,-0.022256930951059246,-0.059365092496596474,1.2525248616708131
1589479317.8045201,-2.1460573913311642,-2.6745430434983732,8.939399565170461,0.5155555555555555,-0.05666666666666665,-0.8266666666666667,-0.02366789776863897,-0.06783089340207481,1.186914904653356
1589479317.8145201,-2.162263455287213,-2.6071699718567967,8.62792351157362,0.5155555555555555,-0.05666666666666665,-0.8266666666666667,-0.013439776787298383,-0.03937281089700366,1.0579417715323
1589479317.82452,-2.2813608825391083,-2.58,8.798639117460892,0.515123529352664,-0.05748751645216062,-0.8269258823884016,-0.02748283992884303,-0.041866438554033436,0.9601617027907033
1589479317.83452,-2.320396083016662,-2.541287185483327,8.727722775616666,0.4933333333333334,-0.09888888888888887,-0.84,-0.03072687801940021,-0.08973977355690858,0.836915653612281
1589479317.84452,-2.2590938322128036,-2.461122703662897,8.723007217862524,0.4933333333333334,-0.09888888888888887,-0.84,-0.015295251354823208,-0.031613979787001895,0.785476898063691
1589479317.85452,-2.2176029342167536,-2.41719119734974,8.731985328916233,0.4933333333333334,-0.09888888888888887,-0.84,-0.009114864314130347,-0.007619811807689394,0.7341082085999109
1589479317.86452,-2.210986275437766,-2.4370411736867013,8.76506862281117,0.4933333333333334,-0.09888888888888887,-0.84,-0.019219581416882892,-0.04370808717466278,0.6828628575788087
1589479317.87452,-2.3902377868042595,-2.5418735316719725,8.77,0.4933333333333334,-0.09888888888888887,-0.84,-0.014742034945233363,-0.014894528514058814,0.6153867551433132
1589479317.88452,-2.280118468178896,-2.375059234089448,8.896937276150243,0.4888888888888889,-0.14333333333333334,-0.8333333333333334,-0.024550154042984565,-0.04904861659145466,0.5103297893465247
1589479317.89452,-2.173669950127782,-2.316880877354043,8.969084187281345,0.4888888888888889,-0.14333333333333334,-0.8333333333333334,-0.013880613977662763,-0.05398122404010845,0.43722310084845767
1589479317.90452,-2.2080629476312503,-2.315844886873864,8.616830277942046,0.4888888888888889,-0.14333333333333334,-0.8333333333333334,-0.010359010006001947,-0.0038794173396648826,0.37749284277241535
1589479317.91452,-2.4085904812711965,-2.4121409518728805,8.97143619250848,0.4888888888888889,-0.14333333333333334,-0.8333333333333334,-0.029532218106293997,0.023064110732209486,0.31456110991142316
1589479317.92452,-2.327742502114371,-2.418043501832455,8.934431505215448,0.48858788917080503,-0.14385172173669994,-0.8332998889202129,-0.021324106012916212,0.01965137107283664,0.2629631961143157
1589479317.93452,-2.1913070067009306,-2.299799405807473,8.59789061652896,0.47039648978234627,-0.17518135401682342,-0.8312786223214953,0.008441501631510858,0.020643557994317538,0.20144760698249972
1589479317.94452,-2.2631389650815175,-2.289708447622276,8.737589915862792,0.4688888888888889,-0.17777777777777778,-0.8311111111111111,-0.027855939242201005,-0.0087743514062213,0.09253722569275417
1589479317.95452,-2.314845440256418,-2.3672681603846275,8.491984158782014,0.4688888888888889,-0.17777777777777778,-0.8311111111111111,-0.017280373971856555,0.003916326918192041,0.04459466313385934
1589479317.96452,-2.3483257340871786,-2.4594419113623927,8.721207368229072,0.4688888888888889,-0.17777777777777778,-0.8311111111111111,-0.0006746319867673685,0.05029002465793436,-0.05220708565011672
1589479317.97452,-2.3292016231989785,-2.453067207732993,8.96344610614627,0.4688888888888889,-0.17777777777777778,-0.8311111111111111,-0.020840428536667312,0.026647366633913743,-0.12522117660665097
1589479317.98452,-2.354737220160421,-2.4934215252005267,8.619731832874416,0.45537996993761387,-0.22216422576053846,-0.8272514199821754,-0.009702425932761487,0.008640455871315157,-0.2503466440191714
1589479317.99452,-2.8595867659947416,-2.813300175284838,9.523770815074496,0.4533333333333333,-0.2288888888888889,-0.8266666666666667,-0.03979706337887202,0.11201039579080688,-0.35080592148319706
1589479318.00452,-2.454406526385293,-2.611777206303974,8.198478219318517,0.4533333333333333,-0.2288888888888889,-0.8266666666666667,-0.010387125325506601,0.04691368439396623,-0.478652286464588
1589479318.01452,-2.724061441156539,-2.7866885023718093,9.196930201039079,0.4533333333333333,-0.2288888888888889,-0.8266666666666667,-0.012772108149970927,0.0834834210357526,-0.5462267998244107
1589479318.02452,-2.443187289099013,-2.5887915260660086,9.14586101737734,0.45186807898899856,-0.2314937855010396,-0.8269922787431855,-0.0007752758395330938,0.04096795240633517,-0.6525647875455968
1589479318.03452,-2.5794223794142592,-2.6796149196095063,9.206409946406339,0.436730846731749,-0.2584044206250388,-0.8303561081336854,-0.03132276981934448,0.0021643789725207113,-0.7227414629046229
1589479318.04452,-2.4917415418746534,-2.6282640044370496,8.65914586799778,0.43333333333333335,-0.2644444444444444,-0.8311111111111111,0.04875463039793505,0.09691695722622838,-0.7842135562581648
1589479318.05452,-2.621026017677082,-2.8130666002738702,9.581657662143659,0.43333333333333335,-0.2644444444444444,-0.8311111111111111,-0.01320064125448313,0.02689198661896616,-0.8801872710060564
1589479318.06452,-2.409630764203733,-2.632036923579627,8.646486133235307,0.43333333333333335,-0.2644444444444444,-0.8311111111111111,-0.02068617580948881,0.05528800724269829,-0.9493456681092836
1589479318.0745199,-2.3502198828952285,-2.6611389684813753,8.38249781985798,0.4316994034024058,-0.2633211176169317,-0.8239626676633031,0.033502991451121844,0.1155561064354264,-0.9778453716141366
1589479318.0845199,-2.5339519705463975,-2.853951970546398,8.933133210609991,0.4155555555555556,-0.25222222222222224,-0.7533333333333333,0.010590350412963356,0.04959469317729033,-1.0523361208541655
1589479318.0945199,-2.476555356016114,-2.8133611609959717,8.696221424064456,0.4155555555555556,-0.25222222222222224,-0.7533333333333333,-0.008314467565522541,0.05661273044627453,-1.1008680087581033
1589479318.1045198,-2.434777720709924,-2.847490155795241,8.521823317925012,0.4155555555555556,-0.25222222222222224,-0.7533333333333333,0.018976894836989503,0.09306499109924266,-1.1299153060820522
1589479318.1145198,-2.5704148832962392,-2.943234035267934,9.024478685156652,0.4155555555555556,-0.25222222222222224,-0.7533333333333333,0.009403194165248797,0.059121870535798315,-1.1647287630702003
1589479318.1245198,-2.611742890647904,-3.000788625036646,8.888588390501319,0.4155555555555556,-0.25222222222222224,-0.7533333333333333,0.008726646259971648,0.06503347002841228,-1.1851945208381671
1589479318.1345198,-2.651781265107285,-3.102604217024283,8.971510542560708,0.43088311248290423,-0.20946640553014434,-0.722678219478636,0.013478581152120129,0.07773306156668731,-1.2098063422925611
1589479318.1445198,-2.455324760155134,-2.9888446621759543,8.715342723004694,0.43666666666666665,-0.19333333333333333,-0.7111111111111111,0.03066928971616592,0.10612761486074337,-1.2174951405152343
1589479318.1545198,-2.171084196400922,-2.835278188762344,8.703138354608953,0.43666666666666665,-0.19333333333333333,-0.7111111111111111,0.025722445182975555,0.048524085195697134,-1.2515221336395348
1589479318.1645198,-2.2992053740598264,-2.9924062697364646,9.436961397867984,0.43666666666666665,-0.19333333333333333,-0.7111111111111111,0.0073733321675226934,0.008448902049710924,-1.2896397291210717
1589479318.1745198,-2.1826490794174225,-2.898432719611615,8.414196207749383,0.4394708558517297,-0.19052914414827027,-0.7111111111111111,0.004191260236566487,0.1036300234613373,-1.3340275935711852
1589479318.1845198,-1.9454101273319515,-2.782646727864969,8.782037903464614,0.49,-0.14,-0.7111111111111111,0.0022659691854345983,0.08046855504341267,-1.355920557823832
1589479318.1945198,-2.211289341607536,-3.117277919252355,9.160057111775904,0.49,-0.14,-0.7111111111111111,0.008089036020404283,0.06965065255572138,-1.3688519866815867
1589479318.2045197,-2.0708477559401586,-3.087750873356623,8.669584788927706,0.49,-0.14,-0.7111111111111111,0.034368718398953245,0.10127740861768636,-1.3884747202879124
1589479318.2145197,-2.18297943567671,-3.2642773792443807,8.916637015781921,0.49,-0.14,-0.7111111111111111,0.02916926376789256,0.07377751311293773,-1.419820860058014
1589479318.2245197,-2.249842180774749,-3.337826398852224,8.796284074605452,0.49,-0.14,-0.7111111111111111,0.027710544956789453,0.09419957646838117,-1.4344080481690449
1589479318.2345197,-2.1886443166523923,-3.262486235164566,8.85175088706717,0.4955555555555556,-0.08666666666666667,-0.6966666666666667,0.016214579624757978,0.09628887308506585,-1.4545827414419996
1589479318.2445197,-2.27,-3.3850359857063768,8.674964014293623,0.4955555555555556,-0.08666666666666667,-0.6966666666666667,0.02618778964316407,0.07908915716261762,-1.435097751558434
1589479318.2545197,-2.2624143882469325,-3.4169657552987727,8.65668834585675,0.4955555555555556,-0.08666666666666667,-0.6966666666666667,0.028850982974802236,0.07694541393062518,-1.404885076831092
1589479318.2645197,-2.2216451988282975,-3.4042775169535733,8.748025761406042,0.4955555555555556,-0.08666666666666667,-0.6966666666666667,0.0014138648170385628,0.04438697738045649,-1.3782857696853064
1589479318.2745197,-2.263721158862004,-3.51367501304121,8.697534609365595,0.4955555555555556,-0.08666666666666667,-0.6966666666666667,0.009675460250452945,0.0636640333917567,-1.3369777925182345
1589479318.2845197,-2.2028139578669905,-3.5150697684148864,8.809441852680905,0.511315244450953,-0.042705429221610886,-0.6966666666666667,0.05732442300306547,0.08608430517569472,-1.2770685791762963
1589479318.2945197,-1.9908883280757097,-3.2068782334384855,8.878451735015773,0.5166666666666667,-0.027777777777777776,-0.6966666666666667,0.03022764361535637,0.09080474601862548,-1.2144130320983555
1589479318.3045197,-1.9997091482649842,-3.3744738170347004,8.763781072555204,0.5166666666666667,-0.027777777777777776,-0.6966666666666667,0.0379252613668178,0.10427557708368297,-1.1634163144949237
1589479318.3145196,-2.06616879350348,-3.4755771461716938,8.995266821345707,0.5166666666666667,-0.027777777777777776,-0.6966666666666667,0.013317436713801718,-0.0019447032540619857,-1.1336651890498515
1589479318.3245196,-2.06471088907392,-3.40884355629568,8.548928670552318,0.5166666666666667,-0.027777777777777776,-0.6966666666666667,0.037466691922148604,0.0515930632480833,-1.0647052725630601
1589479318.3345196,-1.7410879273025097,-3.503942200815117,8.67817339755465,0.5244444444444445,0.017777777777777778,-0.6888888888888889,0.01566136987573781,0.04145156973486533,-0.978983625279178
1589479318.3445196,-1.929206138725844,-3.659344201556132,8.211967395331605,0.5244444444444445,0.017777777777777778,-0.6888888888888889,0.01744576236068346,0.04145156973486533,-1.0012885313409985
1589479318.3545196,-1.6807537642306278,-3.4682721263312524,8.219586393683437,0.5244444444444445,0.017777777777777778,-0.6888888888888889,0.0781046657934772,0.18889714958949086,-1.029616918303909
1589479318.3645196,-1.3211209392408603,-3.2625944931413855,8.659332508036659,0.5244444444444445,0.017777777777777778,-0.6888888888888889,-0.010747568029528505,-0.01517958673062616,-1.0954043088467336
1589479318.3745196,-1.681232953297526,-3.647830601202005,8.818451770061698,0.5244444444444445,0.017777777777777778,-0.6888888888888889,-0.008006954517343803,-0.05080756238902732,-1.154784268277402
1589479318.3845196,-1.4644314158961567,-3.285568584103843,8.470187611095344,0.5511111111111111,0.04444444444444445,-0.7122222222222222,0.0335651044907517,0.09622329343053262,-1.196773088655617
1589479318.3945196,-1.43310588973367,-3.3168941102663303,8.921275187835153,0.5511111111111111,0.04444444444444445,-0.7122222222222222,0.013746012525507306,0.06683636396482542,-1.2220595163354115
1589479318.4045196,-1.5510901339829477,-3.5310048721071863,8.830341047503044,0.5511111111111111,0.04444444444444445,-0.7122222222222222,0.013080668762092093,0.048821652987615434,-1.252658385701221
1589479318.4145195,-1.520105181145306,-3.634842228282041,8.798315803142449,0.5511111111111111,0.04444444444444445,-0.7122222222222222,0.03776574869976075,0.08609531743549356,-1.2510106636289386
1589479318.4245195,-1.3909306378529103,-3.512612274445666,8.864114271925356,0.5511111111111111,0.04444444444444445,-0.7122222222222222,0.021561054093303816,0.06683543046376353,-1.2460956298030228
1589479318.4345195,-1.4174992148810241,-3.5749984297620485,8.841875588839232,0.5573609802579486,0.0673606313161815,-0.7070139979331911,0.015544424293769163,0.08072113533195908,-1.2569777105366624
1589479318.4445195,-1.5058883581076166,-3.6945178108101557,8.477360265767842,0.5577777777777778,0.06888888888888889,-0.7066666666666667,0.03192757137839345,0.06515636826379113,-1.269178851259531
1589479318.4545195,-1.4408493008803729,-3.6012132869719613,8.568665384330844,0.5577777777777778,0.06888888888888889,-0.7066666666666667,0.0316473276001674,0.11285083052997363,-1.251407900955528
1589479318.4645195,-1.3257522164545914,-3.5301819100555836,8.836578161605953,0.5577777777777778,0.06888888888888889,-0.7066666666666667,0.026787564948712407,0.08090542938631909,-1.2428745742485467
1589479318.4745195,-1.2759321735300595,-3.569660867650297,8.735085223519048,0.5577777777777778,0.06888888888888889,-0.7066666666666667,0.023129311948988828,0.10041182630335896,-1.235486042335678
1589479318.4845195,-1.004726337700502,-3.4822884780213053,8.79915391208522,0.5788888888888889,0.07444444444444444,-0.6977777777777778,0.030782077318141695,0.1109066502679417,-1.2420112204691351
1589479318.4945195,-1.0475235704665116,-3.5935612832129302,9.24424513285172,0.5788888888888889,0.07444444444444444,-0.6977777777777778,-0.006565553807321628,-0.020743749449316534,-1.2774914700383253
1589479318.5045195,-1.0711191277857945,-3.5929602907380684,8.727942386831275,0.5788888888888889,0.07444444444444444,-0.6977777777777778,-0.004887080478601513,0.006194491687423354,-1.2995102499314677
1589479318.5145195,-0.9630166287663444,-3.59,8.63498081296191,0.5788888888888889,0.07444444444444444,-0.6977777777777778,0.023230928301055317,0.07864066702536364,-1.3187037981071024
1589479318.5245194,-0.9745899063540946,-3.6473764481595543,8.854915886284122,0.5788888888888889,0.07444444444444444,-0.6977777777777778,0.01634468229033934,0.03769674703949566,-1.3574580443263642
1589479318.5345194,-1.0463758261008043,-3.8924161159327975,8.79093956525201,0.6444444444444445,0.027777777777777776,-0.6766666666666666,0.02029384749333004,0.08802053336072276,-1.4099756630647486
1589479318.5445194,-1.0062997053905565,-3.919133529739629,8.690749263476391,0.6444444444444445,0.027777777777777776,-0.6766666666666666,0.027579891845627015,0.10842145754715427,-1.4289193783807206
1589479318.5545194,-0.8855916083916084,-3.5906727272727275,9.163341258741259,0.6444444444444445,0.027777777777777776,-0.6766666666666666,0.020103172220807763,0.08729682278513141,-1.4575043199260185
1589479318.5645194,-0.793263995182295,-3.453671994580082,7.7436479060547505,0.6444444444444445,0.027777777777777776,-0.6766666666666666,0.04574857206124819,0.02640159204759005,-1.5024754158532292
1589479318.5745194,-0.6535028248587571,-3.56090395480226,8.797570621468926,0.6444444444444445,0.027777777777777776,-0.6766666666666666,0.05155870240884378,0.14962870377531895,-1.494019095787321
1589479318.5845194,-0.6450545173014474,-3.512254672143487,9.434108260392696,0.8401531693632599,-0.18131274029787975,-0.5587396144719958,-0.019075521803162555,0.06616007516846045,-1.5316691445864579
1589479318.5945194,-0.6404906921539231,-3.8703723138430783,9.29472076461769,0.9044444444444444,-0.25,-0.52,0.0445911835200191,0.0959469761485593,-1.5653624794524532
1589479318.6045194,-0.6200495298255688,-3.76,8.819504701744311,0.9044444444444444,-0.25,-0.52,-0.011988332875784572,0.11751796975435333,-1.5840862022208684
1589479318.6145194,-0.6292887029288703,-3.762489539748954,8.722489539748954,0.9044444444444444,-0.25,-0.52,-0.00957694657285487,0.05944023652588325,-1.6242237579950023
1589479318.6245193,-0.5457202630005977,-4.054979079497908,9.014979079497909,0.9044444444444444,-0.25,-0.52,0.018682351710024477,0.12233996496196956,-1.6214889871934333
1589479318.6345193,-0.5421915103652518,-3.9072006769143983,8.423793541108447,1.487777777777778,0.26222222222222225,-0.12222222222222222,0.03398450920992132,0.07465460660307434,-1.640985157397989
1589479318.6445193,-0.6013411366520942,-4.101549448999738,9.06598948365131,1.487777777777778,0.26222222222222225,-0.12222222222222222,0.009097362146708008,0.08755905322844419,-1.6511243654607795
1589479318.6545193,-0.4433239313196593,-3.845670235780595,8.385446504367827,1.487777777777778,0.26222222222222225,-0.12222222222222222,0.03219171073924832,0.11297717417226348,-1.6344270968399297
1589479318.6645193,-0.4483289226480273,-3.96493383972041,8.778117209753338,1.487777777777778,0.26222222222222225,-0.12222222222222222,0.034542012516793695,0.10981222329583139,-1.6113508991559407
1589479318.6745193,-0.5266120591581342,-4.031788395904437,8.623199089874857,1.487777777777778,0.26222222222222225,-0.12222222222222222,0.01819242655186012,0.07337555784340721,-1.5969171944198095
1589479318.6845193,-0.5514763065766443,-4.015905226306576,8.78423449612403,0.9195315495540552,0.3474591564557806,-0.6128081325887027,0.016487052125020045,0.09314607870599691,-1.5396148715942986
1589479318.6945193,-0.5316073399331236,-3.7218483256189363,8.83,0.8211111111111111,0.3622222222222222,-0.6977777777777778,0.018790844504806104,0.0838837533812552,-1.4709145245161328
1589479318.7045193,-0.8344674808293098,-3.4950760741672413,8.672766259585345,0.8211111111111111,0.3622222222222222,-0.6977777777777778,0.020451694104418886,0.07580997324872436,-1.3222750055506987
1589479318.7145193,-1.0560317731465663,-3.6448872565766997,8.485647420567133,0.8211111111111111,0.3622222222222222,-0.6977777777777778,0.03604754111799144,0.08235362461192709,-1.1377765691124124
1589479318.7245193,-0.9780403046651857,-3.9749003490955253,9.117249761980323,0.8211111111111111,0.3622222222222222,-0.6977777777777778,0.02061902123261137,0.06628415421282019,-0.8257818544541902
1589479318.7345192,-0.6495495261586395,-4.17761261846034,9.023078021550045,0.6674774618835375,0.3351940802284824,-0.734763656295527,-0.006110946482807939,0.03180388447588589,-0.442038676390959
1589479318.7445192,-0.269073985680191,-3.9962482100238663,8.933045346062052,0.5811111111111111,0.32,-0.7555555555555555,0.016386413153196163,0.053089354374282166,-0.07327935648506145
1589479318.7545192,-0.28535403507222046,-3.9358074561597247,8.614136666813906,0.5811111111111111,0.32,-0.7555555555555555,-0.014236355978462074,-0.0504221218838337,0.0745254154727321
1589479318.7645192,-0.4306091889405632,-3.9768697296468543,8.635617621505597,0.5811111111111111,0.32,-0.7555555555555555,0.008041887507919523,-0.034705388724967104,0.19899636784846086
1589479318.7745192,-0.3893308284457478,-3.6904618768328445,8.350461876832846,0.5811111111111111,0.32,-0.7555555555555555,0.013765440760680397,-0.019301846832971883,0.29854936889799777
1589479318.7845192,-0.31,-3.5,8.84,0.5066666666666667,0.3055555555555556,-0.7555555555555555,0.007635815477475192,-0.04036073895236887,0.4625122517784973
1589479318.7945192,-0.31,-3.5,8.84,0.5066666666666667,0.3055555555555556,-0.7555555555555555,0.007635815477475192,-0.04036073895236887,0.4625122517784973
1589479318.8045192,-0.5629388195046512,-3.962267497715397,8.50856292616632,0.5066666666666667,0.3055555555555556,-0.7555555555555555,-0.02946978647340603,-0.04131216464341711,0.6527973899881446
1589479318.8145192,-0.6820940929430293,-4.203309751768617,8.9251998600105,0.5066666666666667,0.3055555555555556,-0.7555555555555555,-0.01898644928106323,-0.04841662912935055,0.8269446555619782
1589479318.8245192,-0.7205109102698125,-4.245425758558177,8.786934538381125,0.5066666666666667,0.3055555555555556,-0.7555555555555555,0.0002972355463493545,-0.04853268121026887,0.9358849176590189
1589479318.8345191,-0.744148214358266,-4.27,8.602197619144354,0.5040658730481182,0.3066392195632841,-0.758156349174104,0.012559423121836354,-0.05416708541006586,1.1043750689689051
1589479318.8445191,-0.6537923813322696,-4.402415237335461,8.583241523733546,0.4933333333333334,0.3111111111111111,-0.7688888888888888,-0.007635815477475192,-0.07963064712224129,1.4213525095928818
1589479318.8545191,-0.5429426385490699,-4.532119693968698,8.562119693968697,0.4933333333333334,0.3111111111111111,-0.7688888888888888,-0.02062241669355052,-0.09261724833831661,1.5748305239646814
1589479318.8645191,-0.47050706384842844,-4.368018836929142,8.719722921914357,0.4933333333333334,0.3111111111111111,-0.7688888888888888,-0.019936602067172935,-0.10722815222184774,1.7661553870815956
1589479318.874519,-0.6699859447567832,-4.709285626986067,9.020672207284282,0.4933333333333334,0.3111111111111111,-0.7688888888888888,0.0007134662591701049,-0.08271675699186094,1.8391742961305293
1589479318.884519,-0.6702975021049677,-4.594952006735896,8.540828515296099,0.49805644431970564,0.28926672279913934,-0.7653465556491097,0.02096691265982509,-0.12872850284054907,1.8863918884022632
1589479318.894519,-0.5761650502556869,-4.072063128196086,8.012123787691765,0.5022222222222222,0.27,-0.7622222222222222,-0.015374885753759074,-0.13945556964840186,1.9475128813288394
1589479318.904519,-0.6381297598125366,-4.305294376098418,9.400754979496192,0.5022222222222222,0.27,-0.7622222222222222,-0.037647640861603486,-0.05257043921351036,2.0048416974016456
1589479318.914519,-0.513409214773823,-4.351454743638117,9.144155452144384,0.5022222222222222,0.27,-0.7622222222222222,-0.03840814590661986,-0.15416800670959135,1.9800959021022324
1589479318.924519,-0.6647249078523322,-4.707156255427546,9.670505220093016,0.5022222222222222,0.27,-0.7622222222222222,0.013705473379795455,-0.13027416973465678,1.921938732174356
1589479318.934519,-0.5786273484610827,-4.238921189306006,7.879116386071317,0.520359487376114,0.24077885058539664,-0.7491230862777448,0.0886300295947978,-0.10697628321226732,1.8095224515405302
1589479318.944519,-0.56,-4.17,7.65,0.5222222222222223,0.23777777777777775,-0.7477777777777778,0.09381144729469522,-0.10799224746714917,1.7998707911191525
1589479318.954519,1.9570715320774605,-0.8375141615070478,8.59367145303649,0.5222222222222223,0.23777777777777775,-0.7477777777777778,-0.5800219295651726,0.18985600094691835,-0.3751170334969056
1589479318.964519,2.285449520213325,3.694245868773965,4.089988321622516,0.5222222222222223,0.23777777777777775,-0.7477777777777778,-0.9421801037554443,0.6403837005015017,-2.82472475117053
1589479318.974519,-0.44361940499488306,3.0916183995547337,2.525526868592563,0.5222222222222223,0.23777777777777775,-0.7477777777777778,-0.6153212575610758,0.24197498713434207,-3.627663125186011
1589479318.984519,-1.4214237942122185,-1.3494212218649517,9.795493247588423,0.5244090032154342,0.23496620221507677,-0.7498083601286174,0.17166365441707476,-0.5115906578049755,-3.6488006268952664
1589479318.994519,0.364146962263455,1.921101294772954,6.823892618687521,0.5377777777777778,0.21777777777777774,-0.7622222222222222,1.5787276150096867,0.45926897272357103,-3.507123835949849
1589479319.004519,-0.3530592651411246,3.6011643687287958,6.5064902909117155,0.5377777777777778,0.21777777777777774,-0.7622222222222222,0.7320930513964802,0.5474247624968921,-3.2792152920174837
1589479319.014519,2.072047099700801,-0.9278670012547052,10.433711996911494,0.5377777777777778,0.21777777777777774,-0.7622222222222222,-0.31165249179163634,0.2728418253815602,-2.8469474781387105
1589479319.024519,0.9614856288228866,-1.0236285544455737,8.518342760723256,0.5377777777777778,0.21777777777777774,-0.7622222222222222,0.32733653802365037,0.37478762477231176,-2.75189490955399
1589479319.034519,0.19770353570597812,-1.5708748158486472,8.637885748623711,0.5187741335194231,0.2388929380648385,-0.7553597951289275,0.28661944619440294,0.15907441430233124,-2.5344280315442838
1589479319.044519,-0.623989136037429,-2.3842960231553074,9.302129971055866,0.4977777777777778,0.26222222222222225,-0.7477777777777778,-0.11454903965602663,0.09709181130478377,-2.018860012119887
1589479319.054519,-0.5834702335219203,-2.905945612442085,9.22,0.4977777777777778,0.26222222222222225,-0.7477777777777778,0.013952404064633606,0.12881172223136253,-1.52529595159926
1589479319.064519,-0.4934941729176941,-2.998569055467594,8.473943468217094,0.4977777777777778,0.26222222222222225,-0.7477777777777778,0.08899799755791081,0.08148197612203613,-1.205810893032187
1589479319.074519,-0.4719100620004482,-2.954606708000299,8.91483229999253,0.4977777777777778,0.26222222222222225,-0.7477777777777778,-0.011656089560302577,0.04528170012373921,-0.9962959987666955
1589479319.084519,-0.2222597666804412,-2.833246765631457,8.504259830255252,0.4748456015060167,0.31599422175600694,-0.7430331895836203,0.012477961274281121,0.04063557047219044,-0.7937649904950191
1589479319.094519,0.061706282175032184,-2.8759372989060488,8.454422458172457,0.4655555555555556,0.3377777777777778,-0.7411111111111112,0.05302589678879862,0.04111856012038096,-0.7327970781621774
1589479319.104519,0.007263871977735259,-3.0145509363947354,8.924564851858294,0.4655555555555556,0.3377777777777778,-0.7411111111111112,0.013087439487290346,0.055930835174473004,-0.7476170396996108
1589479319.114519,-0.06480839249954488,-3.0203832150009102,8.465068496267978,0.4655555555555556,0.3377777777777778,-0.7411111111111112,0.022573028256979728,0.062177354602297986,-0.7244465040333473
1589479319.1245189,0.06998291346294097,-2.9145571044570855,8.39998291346294,0.4655555555555556,0.3377777777777778,-0.7411111111111112,0.017752486235223262,0.017062133616482608,-0.6682881107668668
1589479319.1345189,-3.3997040126331135,-6.563392314856056,7.855331416771268,0.45564018121859157,0.3421846108164285,-0.7400094028514485,0.007113478155784173,0.009119746392142298,-0.6257345377929722
1589479319.1445189,-6.52823691741619,-13.24960036794767,10.127991618969746,0.4455555555555555,0.3466666666666667,-0.7388888888888889,-0.08871105524575149,0.029170246672120325,0.5556958916185487
1589479319.1545188,-1.3040689387067514,-5.3265880523519495,6.400638849293768,0.4455555555555555,0.3466666666666667,-0.7388888888888889,-0.0177833547043581,-0.18374498196958894,2.366188377344513
1589479319.1645188,3.3990410531245123,-5.096945730787242,7.202431187886987,0.4455555555555555,0.3466666666666667,-0.7388888888888889,-0.038965231566488207,-0.3394800876323509,2.3850699768947488
1589479319.1745188,0.9964007827788648,-3.567299021526419,8.54730215264188,0.4455555555555555,0.3466666666666667,-0.7388888888888889,-0.07149757504501124,-0.013204944235251481,1.3478738919201363
1589479319.1845188,-1.3330995303741857,-2.363145167398879,7.81369754582639,0.4455555555555555,0.356985494622027,-0.7364123701796025,0.03364073135896393,0.20634768002680431,0.6684183362048585
1589479319.1945188,-0.5361830024327082,-5.174621360747077,8.187221219493056,0.4455555555555555,0.3744444444444445,-0.7322222222222222,0.09662904873908594,0.00370187374943573,0.4060745349354701
1589479319.2045188,-0.18781176978106917,-3.968590969550994,8.911252471510227,0.4455555555555555,0.3744444444444445,-0.7322222222222222,-0.05895609604771698,-0.12675857994487794,0.09370976399962339
1589479319.2145188,-0.26696908103037176,-4.4154536215455575,8.610088339913224,0.4455555555555555,0.3744444444444445,-0.7322222222222222,-0.005382989601182338,-0.010639213775465475,-0.01963495408493621
1589479319.2245188,-0.13690814907920545,-4.326545925460397,8.83,0.4455555555555555,0.3744444444444445,-0.7322222222222222,0.005302876421801838,-0.014422673809365816,-0.01152696254516004
1589479319.2345188,-0.12409887728973804,-4.374356340921241,8.74718844086778,0.45259183182169194,0.3544181196869793,-0.7365522383859985,-0.018628378078824927,0.0008099815278792017,-0.003831950201468459
1589479319.2445188,-0.15374874795719332,-4.3937487479571935,8.766271284727713,0.46,0.3333333333333333,-0.7411111111111112,0.01200460167479915,0.002452457187048677,-0.003954398163233106
1589479319.2545187,-0.15696192676678888,-4.348228439399267,8.690761464664222,0.46,0.3333333333333333,-0.7411111111111112,0.011654175494969294,0.0005246496638603056,-0.0028444663254459544
1589479319.2645187,-0.1339713602986064,-4.3924687352833445,8.650822911761114,0.46,0.3333333333333333,-0.7411111111111112,-0.0007473883243162881,0.01126737081708556,8.976574803024918e-05
1589479319.2745187,-0.11723595955551107,-4.413820202222444,8.688089898888778,0.46,0.3333333333333333,-0.7411111111111112,-0.004270172798874654,0.012531067403290453,0.0013923408225878279
1589479319.2845187,-0.126424113259248,-4.40363830111128,8.741455320444512,0.46,0.34048510681483735,-0.7430977148559734,-0.005692280163372814,-0.005070893530993191,0.0
1589479319.2945187,-0.15036415937327866,-4.458249280861741,8.730658241018421,0.46,0.3533333333333333,-0.7466666666666667,-0.005374706661660884,-0.006728314233428779,0.0004140269966125082
1589479319.3045187,-0.1600008204455019,-4.398888706567666,8.658888706567666,0.46,0.3533333333333333,-0.7466666666666667,0.00545415391248228,-0.0032723133540475983,0.00012122330843758044
1589479319.3145187,-0.10550373755409619,-4.405503737554096,8.69248131222952,0.46,0.3533333333333333,-0.7466666666666667,0.0015304247267425228,-0.012218935579584048,-0.0006003646342789864
1589479319.3245187,-0.12786200156372166,-4.4,8.710712666145426,0.46,0.3533333333333333,-0.7466666666666667,-0.003272492347489368,-0.004245476731728243,-0.0005065454827945329
1589479319.3345187,-0.15007745589790836,-4.404961272051046,8.704961272051046,0.46,0.3472695563820551,-0.739500384815156,-0.0038136831748513795,0.001099279910268889,-0.0016320216098584675
1589479319.3445187,-0.14,-4.421085910092192,8.693371134861712,0.46,0.3411111111111111,-0.7322222222222222,-0.0007354675358204055,0.0012092851980551394,-0.0009723763669377725
1589479319.3545187,-0.14886706681966635,-4.416699399770501,8.6666993997705,0.46,0.3411111111111111,-0.7322222222222222,0.0050834023961964115,0.003148908508727412,-0.00048362347186724995
1589479319.3645186,-0.16,-4.389991918345356,8.680024244963933,0.46,0.3411111111111111,-0.7322222222222222,0.006543221551446909,0.004363323129985824,-0.001090830782496456
1589479319.3745186,-0.16,-4.387176514053485,8.702823485946515,0.46,0.3411111111111111,-0.7322222222222222,0.0012319781537615928,0.003580486885929766,-0.001090830782496456
1589479319.3845186,-0.16,-4.39909654133629,8.69090345866371,0.46,0.3411111111111111,-0.7322222222222222,-0.003969114921550182,0.0022802136171018225,-0.001090830782496456
1589479319.3945186,-0.14879414939149205,-4.424630243031002,8.716575607577505,0.4388888888888889,0.3477777777777778,-0.7411111111111112,-0.005080610645901837,0.00016133691353012458,-0.0007979559726810765
1589479319.4045186,-0.1989785467664973,-4.407957093532994,8.67284982736548,0.4388888888888889,0.3477777777777778,-0.7411111111111112,-0.0003108679415067296,0.006210714905983138,0.0002228465259970647
1589479319.4145186,-0.1794590957516401,-4.3935136347494534,8.638109077995626,0.4388888888888889,0.3477777777777778,-0.7411111111111112,0.006161706600663447,0.002122658064543503,0.0010318272820470467
1589479319.4245186,-0.16178089942924623,-4.398219100570754,8.693561798858493,0.4388888888888889,0.3477777777777778,-0.7411111111111112,0.0050656219288918525,0.0007770639671808545,-0.000508032807110815
1589479319.4345186,-0.16610781720332027,-4.38610781720332,8.71,0.44169990979760204,0.3488589396657444,-0.7421922729990778,0.001786492865486876,0.003089609288269402,0.001544804644134701
1589479319.4445186,-0.14752410494057852,-4.3848553703565285,8.712475895059422,0.4533333333333333,0.3533333333333333,-0.7466666666666667,-0.004363323129985824,-0.002181661564992912,-0.0008207525279916715
1589479319.4545186,-0.15565161228590568,-4.40391397952349,8.673045163142284,0.4533333333333333,0.3533333333333333,-0.7466666666666667,0.00018954633059167173,-0.00047433551727635087,0.0
1589479319.4645185,-0.16494542188651437,-4.395163734340457,8.660327468680913,0.4533333333333333,0.3533333333333333,-0.7466666666666667,0.003811954190113525,-0.0005632760371204412,0.001102737879744598
1589479319.4745185,-0.16,-4.397948184494602,8.70606908734053,0.4533333333333333,0.3533333333333333,-0.7466666666666667,0.00239605959160566,-0.00305809432087662,0.0008670124311673498
1589479319.4845185,-0.1531671982591588,-4.393665603481682,8.73,0.46396213604130854,0.3491577322694859,-0.7466666666666667,-2.7183787944288227e-05,-0.0028726370360648316,-0.0007181592590162079
1589479319.4945185,-0.14488896001575735,-4.42,8.710444159936971,0.4844444444444445,0.3411111111111111,-0.7466666666666667,-0.004848175604784143,-0.0010666056159164923,-0.0005333028079582461
1589479319.5045185,-0.15,-4.423974633194491,8.66217756763856,0.4844444444444445,0.3411111111111111,-0.7466666666666667,-0.0037337284635601425,-0.0013145311174562343,-0.0002237003349597783
1589479319.5145185,-0.1532689237727817,-4.4267310762272185,8.636344618863909,0.4844444444444445,0.3411111111111111,-0.7466666666666667,0.003607998635786801,0.0014263370707938892,2.107797940103899e-05
1589479319.5245185,-0.15089444537674107,-4.410894445376741,8.685175924372098,0.4844444444444445,0.3411111111111111,-0.7466666666666667,0.005551722767503359,0.0030389738933519882,-0.0015194869466759941
1589479319.5345185,-0.1332979526766236,-4.393297952676623,8.714503412205628,0.4844444444444445,0.3411111111111111,-0.7466666666666667,0.0036322431773771276,0.00047966777318367943,-0.00023983388659183972
1589479319.5445185,-0.15,-4.413749923757243,8.752500152485513,0.4533333333333333,0.3411111111111111,-0.7322222222222222,-0.003477018960810143,0.003954269903344274,-0.0030679657341685933
1589479319.5545185,-0.15079864472410454,-4.427604065827686,8.71281219748306,0.4533333333333333,0.3411111111111111,-0.7322222222222222,-0.0041019672551863345,0.0023558988148592386,-0.002094542940059749
1589479319.5645185,-0.15213282615400434,-4.396066413077002,8.653601521537988,0.4533333333333333,0.3411111111111111,-0.7322222222222222,0.0010546080681193245,0.0013597087391237308,-0.00023265524225014368
1589479319.5745184,-0.14576800908859058,-4.392884004544295,8.701536018177181,0.4533333333333333,0.3411111111111111,-0.7322222222222222,0.004048727036608127,-0.002014107973978583,0.0007762346891187597
1589479319.5845184,-0.15526114059472665,-4.395261140594727,8.734738859405274,0.4562293029698893,0.33926822134239365,-0.7372243515944552,0.0014632395478711097,0.001090830782496456,0.0
1589479319.5945184,-0.14208242159008025,-4.388329686360321,8.733340627279357,0.4655555555555556,0.3333333333333333,-0.7533333333333333,-0.004817637044504771,0.0006365168679775089,-0.00022715695725947352
1589479319.6045184,-0.14662811432380635,-4.42,8.64302491459045,0.4655555555555556,0.3333333333333333,-0.7533333333333333,-0.005073722018718372,-0.0014586464515615471,-0.00035519944436627376
1589479319.6145184,-0.143608710106383,-4.418195644946809,8.59631524268617,0.4655555555555556,0.3333333333333333,-0.7533333333333333,-0.0015911877546206199,-0.0019848369615354812,0.001090830782496456
1589479319.6245184,-0.17245559903672486,-4.396227799518362,8.686405403371463,0.4655555555555556,0.3333333333333333,-0.7533333333333333,0.004774806370297645,-0.00041148324031182163,0.0002678643018728127
1589479319.6345184,-0.15426039536468986,-4.392869802317655,8.73,0.4620480193895327,0.3333333333333333,-0.7498257971673105,0.004201966429371147,-0.00015169017016310627,-0.001090830782496456
1589479319.6445184,-0.14452777588903243,-4.4,8.73,0.4533333333333333,0.3333333333333333,-0.7411111111111112,-0.001378687875504462,0.003169469028193279,-0.001090830782496456
1589479319.6545184,-0.15,-4.408435545023697,8.67938672985782,0.4533333333333333,0.3333333333333333,-0.7411111111111112,-0.0025229726941891966,0.00206288508524004,-0.001090830782496456
1589479319.6645184,-0.15891135382270766,-4.406632969265939,8.636734061468122,0.4533333333333333,0.3333333333333333,-0.7411111111111112,0.0009720779063526965,-0.0001187528761437595,-0.0006047918293201077
1589479319.6745183,-0.16440830622967226,-4.387204153114836,8.681183387540656,0.4533333333333333,0.3333333333333333,-0.7411111111111112,0.003096600318637988,0.0007858511979480973,0.0
1589479319.6845183,-0.15274872821282628,-4.381374364106413,8.704502543574348,0.4533333333333333,0.3333333333333333,-0.7411111111111112,0.005004394310392173,0.00014991986736336916,0.0
1589479319.6945183,-0.165847630845463,-4.395847630845463,8.76,0.4533333333333333,0.3477777777777778,-0.7322222222222222,0.0012757551461813617,0.0006378775730906808,0.0008643541777935684
1589479319.7045183,-0.14671427423566752,-4.386571451528665,8.704142662006348,0.4533333333333333,0.3477777777777778,-0.7322222222222222,-0.0025400786456504696,0.00034283754013377443,0.0
1589479319.7145183,-0.14329835430784124,-4.401649177153921,8.601544240077445,0.4533333333333333,0.3477777777777778,-0.7322222222222222,-0.002552903065374765,0.002373005744846114,0.00017989732052865076
1589479319.7245183,-0.15953959341723137,-4.409769796708616,8.65838857696031,0.4533333333333333,0.3477777777777778,-0.7322222222222222,0.0009903856479068496,-0.002056105146755905,0.0010657194988490544
1589479319.7345183,-0.14,-4.401539237355422,8.721539237355422,0.4581220717724226,0.3477777777777778,-0.7322222222222222,0.002181661564992912,0.0009229260336102287,-0.0001679047488862273
1589479319.7445183,-0.1434680088251517,-4.41,8.726531991174848,0.4844444444444445,0.3477777777777778,-0.7322222222222222,0.0019925110259706707,0.0,-0.0008071049739630941
1589479319.7545183,-0.17238478600180726,-4.412538404666065,8.67223116733755,0.4844444444444445,0.3477777777777778,-0.7322222222222222,-0.0008306909844526532,-0.0002768969948175511,0.0016278675753578099
1589479319.7645183,-0.15171132834962622,-4.419429557216791,8.62399309948246,0.4844444444444445,0.3477777777777778,-0.7322222222222222,-0.0030858153832162543,-0.0010286051277387514,0.0001244513095154092
1589479319.7745183,-0.16,-4.4048102673973055,8.660758930410779,0.4844444444444445,0.3477777777777778,-0.7322222222222222,0.002747773572587381,-0.003272492347489368,0.0
1589479319.7845182,-0.16,-4.388027367520805,8.72789052991678,0.4831293561249813,0.3477777777777778,-0.7322222222222222,0.003932961483814234,-0.0028421307013177786,0.0004303616461715895
1589479319.7945182,-0.14861498182447638,-4.38,8.756204993941491,0.4777777777777778,0.3477777777777778,-0.7322222222222222,0.002181661564992912,-0.001090830782496456,0.0013537196793167246
1589479319.8045182,-0.14018607151083926,-4.38679071434056,8.695674285275524,0.4777777777777778,0.3477777777777778,-0.7322222222222222,0.0007001575174284283,0.00039067326506802766,0.0
1589479319.8145182,-0.16,-4.4037476197111145,8.6162333379778,0.4777777777777778,0.3477777777777778,-0.7322222222222222,-0.0017728596707955267,0.0044988980300815235,0.0004088018941973853
1589479319.8245182,-0.15719857494590764,-4.407198574945908,8.674007125270462,0.4777777777777778,0.3477777777777778,-0.7322222222222222,-0.00047965464572430523,0.005628220489820509,0.0007852427141103807
1589479319.8345182,-0.15,-4.4,8.712033939467533,0.477212794592352,0.34709979795526685,-0.7331261953189036,0.0012017649715424209,0.0029396897803514736,0.00022186837809192968
1589479319.8445182,-0.1530105535109313,-4.396989446489068,8.714947232445343,0.4722222222222222,0.3411111111111111,-0.7411111111111112,0.002181661564992912,0.0006568008884153269,0.0025100620092005756
1589479319.8545182,-0.1547379068245374,-4.387368953412269,8.666844767061344,0.4722222222222222,0.3411111111111111,-0.7411111111111112,-0.00011435972147074173,0.0013206535825690418,0.0026984870258734547
1589479319.8645182,-0.1424643574038808,-4.38246435740388,8.632464357403881,0.4722222222222222,0.3411111111111111,-0.7411111111111112,-0.00600734531193349,-0.0008220110909738336,0.001090830782496456
