time,acc_x,acc_y,acc_z,mag_x,mag_y,mag_z,gyr_x,gyr_y,gyr_z
1589479396.432831,1.2,-4.09,8.71,0.3333333333333333,0.3977777777777778,-0.6222222222222222,0.002181661564992912,-0.008726646259971648,0.0
1589479396.442831,1.1616534116812725,-4.11,8.691494351856543,0.3333333333333333,0.3977777777777778,-0.6222222222222222,0.002181661564992912,-0.004913076205060908,0.0016405838575715404
1589479396.452831,1.166965072691353,-4.11,8.760545944987589,0.3333333333333333,0.3977777777777778,-0.6222222222222222,0.002181661564992912,-0.003174839204266286,-9.765314322308233e-05
1589479396.462831,1.1756070860493404,-4.093178741851979,8.8,0.32648022816191735,0.3946627299725887,-0.6340594038819407,0.001570023358720221,-0.002793299771265603,-0.0017024689887691468
1589479396.472831,1.1743412553321144,-4.085658744667885,8.766047531992688,0.3211111111111111,0.3922222222222223,-0.6433333333333333,0.0004735574950947443,-0.002037945772685944,-0.0009471149901894885
1589479396.482831,1.17,-4.094607373230604,8.70314101415517,0.3211111111111111,0.3922222222222223,-0.6433333333333333,-0.001005172909278561,-0.0015934172371357366,-0.0005025864546392805
1589479396.492831,1.174222343015149,-4.0957776569848505,8.672667029045448,0.3211111111111111,0.3922222222222223,-0.6433333333333333,-0.0017210753914745681,-0.004024006259066287,-0.001090830782496456
1589479396.502831,1.1761983399243838,-4.09,8.705206640302464,0.3211111111111111,0.3922222222222223,-0.6433333333333333,0.0001532595680244686,-0.006544984694978735,-0.0023349211330173803
1589479396.512831,1.1671234080871318,-4.0928765919128685,8.732876591912868,0.3227092177293712,0.3973361634006547,-0.639178256125857,0.0034368115678877235,-0.006544984694978735,-0.0031081731270910127
1589479396.522831,1.166737509177325,-4.093262490822674,8.733262490822675,0.32666666666666666,0.41,-0.6288888888888889,0.006912458815377673,-0.005442562333781924,0.000734948240797875
1589479396.532831,1.163817950308531,-4.08,8.687635900617062,0.32666666666666666,0.41,-0.6288888888888889,0.007635815477475192,-0.003272492347489368,0.002181661564992912
1589479396.542831,1.14,-4.082218569921273,8.657748559370182,0.32666666666666666,0.41,-0.6288888888888889,0.008119832350124177,-0.003272492347489368,0.0026656784376418953
1589479396.552831,1.147949720670391,-4.093974860335195,8.739874301675977,0.32666666666666666,0.41,-0.6288888888888889,0.008950297040517011,-0.0037060823484649148,0.0060976831338880105
1589479396.562831,1.1658750049412974,-4.102937502470649,8.781750009882595,0.3345000065883965,0.4064097192025405,-0.6288888888888889,0.007315383665610893,-0.003402027694392928,0.008406214448107348
1589479396.572831,1.1634062349238439,-4.098937489949229,8.793406234923843,0.3533333333333333,0.3977777777777778,-0.6288888888888889,0.005941618370225877,0.002529367166020694,0.00823918180222805
1589479396.582831,1.15,-4.09,8.727264883115664,0.3533333333333333,0.3977777777777778,-0.6288888888888889,0.004303652136162657,0.0014273976953636004,0.008151395371811837
1589479396.592831,1.1599604508149874,-4.0850197745925065,8.684980225407493,0.3533333333333333,0.3977777777777778,-0.6288888888888889,0.004902267300968916,-0.0043546948362989755,0.00926559043095474
1589479396.602831,1.1458055729303283,-4.084032404511612,8.714194427069671,0.3533333333333333,0.3977777777777778,-0.6288888888888889,0.006544984694978735,-0.005665250501229954,0.01134817492183895
1589479396.6128309,1.1205373626061519,-4.079462637393848,8.735950183191799,0.342015425348948,0.4001194139124782,-0.6312305250235893,0.0053955367452669855,-0.004746472446556407,0.013914885190313933
1589479396.6228309,1.1653645127878256,-4.065072902557565,8.73029161023026,0.3211111111111111,0.4044444444444445,-0.6355555555555555,0.002719124520849663,-0.004347418259202871,0.020773499479781524
1589479396.6328309,1.1951841755319148,-4.08036835106383,8.68778989361702,0.3211111111111111,0.4044444444444445,-0.6355555555555555,0.00048514408936960055,-0.002141480697073827,0.02626030051575311
1589479396.6428308,1.1950862949098158,-4.085086294909816,8.659482230541105,0.3211111111111111,0.4044444444444445,-0.6355555555555555,-0.0005548287056482047,0.001053177524896549,0.029433604498604354
1589479396.6528308,1.181294677987161,-4.084352661006419,8.729173949057776,0.3211111111111111,0.4044444444444445,-0.6355555555555555,0.0014244049834723344,0.0027976906863319234,0.029593658587585874
1589479396.6628308,1.1534429836935056,-4.095519005435498,8.785519005435498,0.32264416817652725,0.40996344987994265,-0.6297299387069741,0.003573507398379699,0.002482676615883243,0.027458555192236857
1589479396.6728308,1.0988677111936682,-4.106660313358101,8.793320626716202,0.32666666666666666,0.4244444444444445,-0.6144444444444445,0.004970495295465195,0.0025438857489141226,0.02521054243051436
1589479396.6828308,1.0152499681742957,-4.074750031825705,8.721625111389965,0.32666666666666666,0.4244444444444445,-0.6144444444444445,0.008385770319555976,-0.005563223104148774,0.029329693570321627
1589479396.6928308,1.0289322476570901,-4.060533876171455,8.67106775234291,0.32666666666666666,0.4244444444444445,-0.6144444444444445,0.004305086273799387,-0.012348559744579636,0.03852849852449459
1589479396.7028308,1.0370290964777948,-4.067297090352221,8.703514548238896,0.32666666666666666,0.4244444444444445,-0.6144444444444445,0.0017982838244371131,-0.016775073074777044,0.0464931123100174
1589479396.7128308,1.102571178547989,-4.060742882145201,8.736285589273995,0.32666666666666666,0.4244444444444445,-0.6144444444444445,-0.001776482209116725,-0.01248535383451244,0.05078283155028201
1589479396.7228308,1.4050767255850696,-4.060153451170139,8.76507672558507,0.32666666666666666,0.4044444444444445,-0.6433333333333333,-0.00545415391248228,0.00031037027912365856,0.052880184562078415
1589479396.7328308,1.406748407643312,-4.091656449044586,8.748527468152865,0.32666666666666666,0.4044444444444445,-0.6433333333333333,-0.0056348444732294035,0.008358577720463688,0.04564757714013145
1589479396.7428308,1.3099933863616051,-4.1037508267047995,8.616255786933596,0.32666666666666666,0.4044444444444445,-0.6433333333333333,-0.00818159158674069,0.01363574549922297,0.027678478413282807
1589479396.7528307,1.1974298004540567,-4.09957163340901,8.676685386545586,0.32666666666666666,0.4044444444444445,-0.6433333333333333,-0.011135819490736762,0.015907438405902433,0.015178175862221269
1589479396.7628307,0.9433293767265193,-4.019990504143646,8.709992878107736,0.33148262450122773,0.4022216946746471,-0.6385173754987723,-0.010908048865654142,0.010180137785828727,0.005817591533774154
1589479396.7728307,1.023228416345202,-4.023034171986481,8.729259891441641,0.3411111111111111,0.3977777777777778,-0.6288888888888889,-0.012432037520051781,0.00012311086494839292,0.009715554950101572
1589479396.7828307,1.198803312499016,-4.126409937497049,8.725639749988192,0.3411111111111111,0.3977777777777778,-0.6288888888888889,-0.011215908469599759,0.006498460762963954,0.024243845950204186
1589479396.7928307,1.1854530838935984,-4.0723370359543996,8.5023370359544,0.3411111111111111,0.3977777777777778,-0.6288888888888889,0.0016856699595637283,0.020528089724156488,0.033475846156208834
1589479396.8028307,1.2604145368407929,-4.120829073681586,8.623730831567135,0.3411111111111111,0.3977777777777778,-0.6288888888888889,0.0075905965228336165,-0.0038489830203484224,0.03172453060168037
1589479396.8128307,1.2766875452456643,-4.140125271473986,8.760250542947972,0.3363264542437373,0.4018263335886325,-0.621895928851958,0.003647490106654213,0.002188494063992528,0.033468086494223746
1589479396.8228307,1.2379529266026634,-4.095421846657523,8.730359686767242,0.32666666666666666,0.41,-0.6077777777777778,-0.0004993990592962583,-0.001498197177888775,0.02286821069264901
1589479396.8328307,1.1793731364475364,-4.0982507454209856,8.76112239102655,0.32666666666666666,0.41,-0.6077777777777778,-0.0028908641992469617,-0.002822483993301742,0.012762394903945828
1589479396.8428307,1.1416254494753062,-4.101625449475306,8.728374550524695,0.32666666666666666,0.41,-0.6077777777777778,-0.0049973930373868975,-0.0026384224400882944,0.005352011101998279
1589479396.8528306,1.1327909547275825,-4.084418090544835,8.762327637820661,0.32666666666666666,0.41,-0.6077777777777778,-0.004972214995866036,-0.0026636004816091557,0.0015727696991127
1589479396.8628306,1.139229954405195,-4.07154009118961,8.81383963524156,0.32666666666666666,0.41,-0.6077777777777778,-0.006376986807230927,-0.0012588286702442638,0.00016799788774780802
1589479396.8728306,1.11,-4.011467446592065,8.81,0.3333333333333333,0.4044444444444445,-0.6222222222222222,-0.0024704598469305547,0.012416661579906889,-0.006609347040232851
1589479396.8828306,1.0346362109072111,-3.9239564486947534,8.773956448694753,0.3333333333333333,0.4044444444444445,-0.6222222222222222,-0.005059647587228166,0.021422109324675007,-0.014821511713736739
1589479396.8928306,1.0091055250923828,-3.790170610323042,8.7283402372154,0.3333333333333333,0.4044444444444445,-0.6222222222222222,-0.014909526887533883,0.021654174315439464,-0.028524041679397504
1589479396.9028306,1.2653433067111695,-3.671426272499702,8.784587555131719,0.3333333333333333,0.4044444444444445,-0.6222222222222222,-0.02718078805073091,0.014836807002552223,-0.03534140899228474
1589479396.9128306,0.863616140101763,-3.6140882735770914,8.790157377825109,0.3366491802416545,0.4029140535636809,-0.6222222222222222,-0.04908738521234052,0.0560611641162239,-0.016112052115148517
1589479396.9228306,0.9940659862330881,-3.439513410871113,8.708210301447899,0.3477777777777778,0.3977777777777778,-0.6222222222222222,-0.0508255164829075,0.05067482492928468,-0.014775022020502673
1589479396.9328306,0.7686004386895917,-3.2108639354701762,8.753209509658246,0.3477777777777778,0.3977777777777778,-0.6222222222222222,-0.05480635483378376,0.0555470824230867,-0.009399992877568696
1589479396.9428306,0.5144094951128095,-3.0925957227897403,8.658702138605129,0.3477777777777778,0.3977777777777778,-0.6222222222222222,-0.038533014177610535,0.05264302699201754,-0.0020255766430027165
1589479396.9528306,0.3714757325660634,-2.606271674112213,8.614970848792307,0.3477777777777778,0.3977777777777778,-0.6222222222222222,-0.036063078764162766,0.034226663861609094,0.00978782547504808
1589479396.9628305,0.2845537407271881,-2.0016489804065065,8.603040817005422,0.3412304610255444,0.39398722597385316,-0.6222222222222222,-0.05126244249928499,-0.008299218836165856,0.002982049262325811
1589479396.9728305,0.10025314546708032,-2.2454315322302656,8.755178386763186,0.32666666666666666,0.3855555555555555,-0.6222222222222222,-0.05963041419267516,-0.005111483203253109,-0.0510694512534679
1589479396.9828305,0.2214785420340976,-2.297379972565158,8.730985694689398,0.32666666666666666,0.3855555555555555,-0.6222222222222222,-0.03156194779937497,0.044312355226174376,-0.05852853311653995
1589479396.9928305,0.3133051286798741,-2.4461025735974817,8.783389742640251,0.32666666666666666,0.3855555555555555,-0.6222222222222222,0.002764279516903211,0.023711583214597334,0.011232487141569839
1589479397.0028305,0.32195745976953144,-2.5819574597695314,8.77880856896289,0.32666666666666666,0.3855555555555555,-0.6222222222222222,0.03303125759788319,0.00406623662061512,0.12248879550100693
1589479397.0128305,0.33615208893852483,-2.596152088938525,8.84268440022336,0.32666666666666666,0.3855555555555555,-0.6222222222222222,0.0036117745549291216,-0.005998323367763902,0.23552154613972515
1589479397.0228305,0.3035614443797321,-2.6113686662783926,8.804064259367113,0.3333333333333333,0.3977777777777778,-0.6077777777777778,-0.021647516760427386,-0.028082804242178953,0.40912549818210653
1589479397.0328305,0.3279895165987187,-2.7579370995923123,8.763350805668802,0.3333333333333333,0.3977777777777778,-0.6077777777777778,0.009440525228675885,-0.011206438590951457,0.5068307730050025
1589479397.0428305,0.4222359252104319,-2.8790670277356147,8.743415551262592,0.3333333333333333,0.3977777777777778,-0.6077777777777778,-0.013591225476553444,-0.04605879446954105,0.6522208879775687
1589479397.0528305,0.4294704705395336,-2.973116117013937,8.7868228232372,0.3333333333333333,0.3977777777777778,-0.6077777777777778,-0.022272056693138538,-0.04684796094377606,0.7295592024525995
1589479397.0628304,0.40333586611335165,-2.898004559004033,8.923351062793461,0.3343699763823675,0.3970373184570391,-0.6077777777777778,0.001817775020719833,-0.044941730928660314,0.8409532802041699
1589479397.0728304,0.36247725368714323,-2.8244590566368575,8.637340775810001,0.3407257605375555,0.3924974726319049,-0.6077777777777778,0.006274758237179869,-0.052964300718288365,0.9140478049541146
1589479397.0828304,0.4127377083059349,-2.899864166682323,8.788348958235481,0.3411111111111111,0.3922222222222223,-0.6077777777777778,-0.010086480458986948,-0.049072568095919436,1.0153708359907263
1589479397.0928304,0.35833714492055846,-2.932771425132403,8.628822821376986,0.3411111111111111,0.3922222222222223,-0.6077777777777778,-0.011089697175713098,-0.05235987755982988,1.0611290148673713
1589479397.1028304,0.3196394981248405,-2.9945047026252234,9.078557992499361,0.3411111111111111,0.3922222222222223,-0.6077777777777778,-0.013502706910401749,-0.05235987755982988,1.134120351444704
1589479397.1128304,0.28432480384812525,-3.0605030950597327,8.915675196151875,0.3422781216733036,0.3922222222222223,-0.609493969781002,-0.01164964955101792,-0.0539099557143051,1.2187699264711824
1589479397.1228304,0.35208734960546595,-3.2179126503945343,8.80825300789068,0.36,0.3922222222222223,-0.6355555555555555,-0.019492028627214414,-0.07312278967064757,1.2730310669009308
1589479397.1328304,0.35691182221813245,-3.2130881777818674,8.71176355563735,0.36,0.3922222222222223,-0.6355555555555555,-0.011598003774402838,-0.0631236915237529,1.3109223861944264
1589479397.1428304,0.3423243559718969,-3.2241405152224822,8.741913348946136,0.36,0.3922222222222223,-0.6355555555555555,-0.013486193873248339,-0.06983437358210273,1.3417324642218056
1589479397.1528304,0.29858454638340787,-3.2214613659585196,8.854825307519805,0.36,0.3922222222222223,-0.6355555555555555,-0.02389701194303942,-0.09277375327793362,1.3597396263753192
1589479397.1628304,0.2651908812250368,-3.1379772030625923,8.693422592587677,0.36,0.3922222222222223,-0.6355555555555555,-0.01721875832893216,-0.0897381834533394,1.3773459313579655
1589479397.1728303,0.17210516353725014,-3.264444654754694,8.983509236826166,0.3715399757722592,0.3633722827915742,-0.648057195975503,-0.01323668811233065,-0.09024551750245947,1.4240636882355533
1589479397.1828303,0.08243631520784336,-3.352842367742484,8.749593947465359,0.37333333333333335,0.3588888888888889,-0.65,-0.026002764938276288,-0.08425973101468508,1.5072233109100603
1589479397.1928303,0.13402494226327946,-3.411037413394919,8.73850623556582,0.37333333333333335,0.3588888888888889,-0.65,-0.02067600469130765,-0.08874656629794353,1.5863032547361866
1589479397.2028303,0.10302780600461894,-3.3645417090069283,8.730756951501155,0.37333333333333335,0.3588888888888889,-0.65,-0.014758794371275464,-0.07944809293789296,1.6327956215364396
1589479397.2128303,0.07742626306151029,-3.4702339760853174,8.800701928255952,0.3737752881611548,0.3588888888888889,-0.6496620345434306,-0.0260268017901757,-0.09936769253367031,1.686482086380069
1589479397.2228303,-0.02197543897446945,-3.4792704944522246,8.827811483356674,0.39084426729864635,0.3588888888888889,-0.6366092857912312,-0.020112414349445485,-0.10331061749415714,1.7308399921855453
1589479397.2328303,-0.13247863642662477,-3.50499145457065,8.817589727008176,0.3922222222222223,0.3588888888888889,-0.6355555555555555,-0.022359234555961928,-0.10171577573997138,1.8213816073317415
1589479397.2428303,-0.1799028159790439,-3.5422813359528487,8.669902815979043,0.3922222222222223,0.3588888888888889,-0.6355555555555555,-0.026730654737244456,-0.11016330789997947,1.9005659164229045
1589479397.2528303,-0.256711164333811,-3.6437358409077523,8.723355582166905,0.3922222222222223,0.3588888888888889,-0.6355555555555555,-0.023107564488579587,-0.11429563431199093,1.988364761382184
1589479397.2628303,-0.398143339225454,-3.74,8.781856660774546,0.3950874712089561,0.35361079865016876,-0.6385716071205385,-0.017897442774915097,-0.11701499389710197,2.0705768832499074
1589479397.2728302,-0.49313299555229495,-3.776231716263928,8.721373400889542,0.4133333333333333,0.32,-0.6577777777777778,-0.022607816839021702,-0.12191180644665614,2.1989144375511214
1589479397.2828302,-0.6133327983859874,-3.87719955064423,8.697333440322803,0.4133333333333333,0.32,-0.6577777777777778,-0.027852522638261566,-0.13030333572543992,2.301710671216222
1589479397.2928302,-0.7253016477100722,-3.924698352289928,8.717952471565107,0.4133333333333333,0.32,-0.6577777777777778,-0.03246208717749806,-0.1388378312673595,2.408949223681314
1589479397.3028302,-0.8031035133717882,-3.8391377031987415,8.816034189826954,0.4133333333333333,0.32,-0.6577777777777778,-0.03524512583187018,-0.14769475841845126,2.528734289655789
1589479397.3128302,-0.819648040561952,-3.779648040561952,8.747743107637055,0.4151713437320282,0.31878769526894596,-0.6580124174031431,-0.036550747139981486,-0.15606558753483576,2.653374635085477
1589479397.3228302,-0.8107871553818528,-3.7707871553818526,8.94268258159924,0.46144485522810236,0.2882668685374929,-0.6639196741898759,-0.023018730299514942,-0.15799873279775958,2.775162786649676
1589479397.3328302,-0.9048469463939077,-3.878282315464636,8.715858842267682,0.4655555555555556,0.2855555555555556,-0.6644444444444444,-0.015353724237670736,-0.1496362912015142,2.920995786657891
1589479397.3428302,-0.9969288184130756,-3.89617968285884,8.695393227619613,0.4655555555555556,0.2855555555555556,-0.6644444444444444,-0.048752371270975176,-0.17276799558808764,3.00596612599604
1589479397.3528302,-0.9841508629225121,-3.838678883151305,8.676226294383769,0.4655555555555556,0.2855555555555556,-0.6644444444444444,-0.04735851255232756,-0.17904035982200195,3.0679928389758593
1589479397.3628302,-0.9219197374717988,-3.916800437547002,8.6506399124906,0.4655555555555556,0.2855555555555556,-0.6644444444444444,-0.03106678909203826,-0.18002198092405772,3.1641688311129514
1589479397.3728302,-1.0413245966689293,-4.041324596668929,8.864102229415757,0.48934469215730636,0.24352808089246247,-0.6747530703052032,-0.03210025725955295,-0.1932215395839587,3.188479696482342
1589479397.3828301,-1.1528919357112646,-4.027108064288735,8.72538594388834,0.4988888888888889,0.22666666666666666,-0.6788888888888889,-0.03860530571300531,-0.18383024681907592,3.2178063613305024
1589479397.3928301,-1.2,-3.8535804767493627,8.694321906997452,0.4988888888888889,0.22666666666666666,-0.6788888888888889,-0.04252909016563073,-0.1964171079913998,3.2391613505028993
1589479397.4028301,-1.200592041200528,-3.8202960206002636,8.563946941336853,0.4988888888888889,0.22666666666666666,-0.6788888888888889,-0.01993633524242252,-0.16289974942606245,3.246983458594021
1589479397.41283,-1.2550481466254084,-3.8475240733127043,8.92698764416939,0.4988888888888889,0.22666666666666666,-0.6788888888888889,-0.04765745341884403,-0.19656110721171716,3.2083719011340066
1589479397.42283,-1.2537544218630783,-3.643553097038219,8.842435839633765,0.5022222222222222,0.15555555555555556,-0.72,-0.037210120481754455,-0.1611272905514762,3.1510285819793906
1589479397.43283,-1.3919449261288757,-3.658099465908303,8.89334813067906,0.5022222222222222,0.15555555555555556,-0.72,-0.033243213747495524,-0.16430081593888338,3.1137396586773574
1589479397.44283,-1.6090234056803578,-3.6477441485799105,8.517070217041073,0.5022222222222222,0.15555555555555556,-0.72,-0.03564481069081816,-0.13035053663273533,3.0663988441243237
1589479397.45283,-1.6697630469018698,-3.632559238274532,8.699289140705611,0.5022222222222222,0.15555555555555556,-0.72,-0.040614060967984374,-0.15602499639809406,3.044865426256603
1589479397.46283,-1.5755868263473054,-3.5160947196516057,8.853397387044094,0.5022222222222222,0.15555555555555556,-0.72,-0.029026431125573626,-0.15931669680953803,3.0246693701210643
1589479397.47283,-1.4204465544406666,-3.3770636039472595,8.535967534621445,0.5142234246436502,0.09093369636325105,-0.743079235425823,-0.04105007272614897,-0.14747914131904438,2.9739353590110147
1589479397.48283,-1.5339914757591901,-3.3320010655301013,9.072964304741609,0.5166666666666667,0.07777777777777778,-0.7477777777777778,-0.08290081484366246,-0.23834100498856367,2.8302774519939367
1589479397.49283,-1.533581133373463,-3.33,8.934764167168288,0.5166666666666667,0.07777777777777778,-0.7477777777777778,-0.033535847209925224,-0.16094941327253293,2.7052864880742806
1589479397.50283,-1.8520425858063279,-3.4829702282580057,8.962459581806424,0.5166666666666667,0.07777777777777778,-0.7477777777777778,-0.030598964796736593,-0.14532094138326226,2.537231537368646
1589479397.51283,-1.9393242497793468,-3.3521635039717563,8.858784752868491,0.5166666666666667,0.07777777777777778,-0.7477777777777778,-0.05611863444578758,-0.15125691419602377,2.3396269561189125
1589479397.52283,-1.9822326669759747,-3.195130615455994,8.774204103039962,0.5288888888888889,-0.0011111111111111113,-0.7688888888888888,-0.034188863142226834,-0.11908710973453203,2.1686183332339635
1589479397.53283,-2.0919681770121463,-3.2154075869716587,8.934314155298244,0.5288888888888889,-0.0011111111111111113,-0.7688888888888888,-0.03630753054364154,-0.11975283628902669,2.071331529627045
1589479397.54283,-2.1924757668175374,-3.010779735426096,8.70573126906117,0.5288888888888889,-0.0011111111111111113,-0.7688888888888888,-0.05009316005433811,-0.10942330201164104,1.9604737612441947
1589479397.55283,-2.3228372734513103,-3.018927329590707,8.974601876493328,0.5288888888888889,-0.0011111111111111113,-0.7688888888888888,-0.04920439540253352,-0.11297836061885941,1.8947051770106544
1589479397.56283,-2.3712801133679733,-3.0043599433160133,8.798859234766178,0.5288888888888889,-0.0011111111111111113,-0.7688888888888888,-0.011553943616399637,-0.09212058229102865,1.8493660141039756
1589479397.57283,-2.41,-3.07,9.21,0.51,-0.08666666666666667,-0.7766666666666666,0.002181661564992912,-0.07090400086226964,1.7867808217291947
1589479397.58283,-2.458305970474241,-2.9948573792622915,9.011408788050343,0.51,-0.08666666666666667,-0.7766666666666666,-0.018310309379544327,-0.06504915202097328,1.7516517286814168
1589479397.59283,-2.4105582804385457,-2.8778256635891517,8.869813906520486,0.51,-0.08666666666666667,-0.7766666666666666,-0.037623512171333875,-0.09089152366737077,1.6766133251832598
1589479397.60283,-2.5514907595700462,-2.930155310733201,8.957950345259112,0.51,-0.08666666666666667,-0.7766666666666666,-0.030526320137038016,-0.09039328007723782,1.614568431878926
1589479397.61283,-2.5685382898899,-2.879211152252274,8.877749442142173,0.51,-0.08666666666666667,-0.7766666666666666,-0.02836160034490785,-0.06839079157777393,1.54042265040671
1589479397.62283,-2.5325214947089947,-2.805042989417989,9.07898754409171,0.4865923843817363,-0.14569456692141877,-0.7573299407211445,-0.023365867106837804,-0.0492801323181983,1.43196911156706
1589479397.63283,-2.370714544532212,-2.627619392709617,8.66982226972969,0.4844444444444445,-0.1511111111111111,-0.7555555555555555,-0.014278132254557614,-0.011271786333401309,1.3107828097773306
1589479397.64283,-2.2795275019928978,-2.5060366693238643,8.37346438147692,0.4844444444444445,-0.1511111111111111,-0.7555555555555555,-0.03665879967206466,-0.057690948384527055,1.210484263202577
1589479397.65283,-2.364031111381175,-2.4540311113811755,9.04167466731482,0.4844444444444445,-0.1511111111111111,-0.7555555555555555,-0.05554951528751488,-0.10023639221650137,1.0518805605916368
1589479397.6628299,-2.2365990156164552,-2.326599015616455,8.735837637479491,0.4844444444444445,-0.1511111111111111,-0.7555555555555555,-0.037478624431549784,-0.05575419934027959,0.9934976824415956
1589479397.6728299,-2.229791414536912,-2.3695828290738237,8.790867089058162,0.45401635778299837,-0.19537014625503274,-0.7555555555555555,-0.01858962959122333,-0.032376481976989384,0.8815697252462571
1589479397.6828299,-2.312934411429917,-2.4045868822859835,8.596609883424264,0.4477777777777778,-0.20444444444444448,-0.7555555555555555,-0.0060197785956148855,0.0049630938094696805,0.7692626494388852
1589479397.6928298,-2.587994424283208,-2.525639404936432,8.955842005335384,0.4477777777777778,-0.20444444444444448,-0.7555555555555555,-0.03909229326561099,0.002793784133199544,0.5848499372924564
1589479397.7028298,-2.69,-2.47,8.52,0.4477777777777778,-0.20444444444444448,-0.7555555555555555,-0.022907446432425576,0.05235987755982988,0.4756022211684547
1589479397.7128298,-2.699226056177682,-2.5161302808884107,8.704521123553642,0.4477777777777778,-0.20444444444444448,-0.7555555555555555,-0.02039142991251127,0.016129239673063865,0.42175946764228855
1589479397.7228298,-2.553228017648913,-2.4383115348250866,8.769498896942956,0.4568357145358406,-0.22883119725461357,-0.778548779633715,-0.012664964802859696,0.0004978870724079709,0.28500627123490135
1589479397.7328298,-2.5219967547962203,-2.3909983773981103,8.754396105755465,0.4622222222222222,-0.2433333333333333,-0.7922222222222223,-0.01725655358259431,0.013657342995582763,0.15856748130486248
1589479397.7428298,-2.6474215537762387,-2.505368967755897,9.094054317247348,0.4622222222222222,-0.2433333333333333,-0.7922222222222223,-0.024417400793005226,-0.007940214156122494,0.0004931282200032749
1589479397.7528298,-2.601967585089141,-2.4310437601296595,8.842207455429499,0.4622222222222222,-0.2433333333333333,-0.7922222222222223,-0.008222777908251242,0.0219919971955104,-0.09743470273334713
1589479397.7628298,-2.431442394083904,-2.329402861289654,8.734726656990807,0.4622222222222222,-0.2433333333333333,-0.7922222222222223,0.0014435847552175091,0.02591938786524857,-0.22338177363688794
1589479397.7728298,-2.729783750302965,-2.511829908706541,9.008155548972612,0.3900704674189176,-0.3067098747146144,-0.7405459654036392,-0.01518203318782642,-0.0016912533274953782,-0.3748858117891622
1589479397.7828298,-2.7710979122527197,-2.54890208774728,8.942077034779917,0.38,-0.31555555555555553,-0.7333333333333333,-0.0038583526394383883,0.04224789931745957,-0.4808266636256567
1589479397.7928298,-2.86771117879408,-2.6210626754866033,9.018828344358253,0.38,-0.31555555555555553,-0.7333333333333333,-0.002181661564992912,0.040244819039109724,-0.5830475737470302
1589479397.8028297,-2.701838229740956,-2.5924922588928325,8.645545653651537,0.38,-0.31555555555555553,-0.7333333333333333,0.010092718009488771,0.04847569285073368,-0.6773548385883199
1589479397.8128297,-2.6831947030829713,-2.596805296917029,8.708468859921373,0.38,-0.31555555555555553,-0.7333333333333333,0.0161047069777508,0.06838829635126084,-0.7496709160928903
1589479397.8228297,-2.597800444669813,-2.5634668642976948,8.795666419627882,0.4013109958263447,-0.2932297504041468,-0.6622966805788508,0.01057382950140078,0.06449725813056005,-0.8786709393301898
1589479397.8328297,-2.6405753029306283,-2.6695798230163614,8.875862954395943,0.4033333333333333,-0.2911111111111111,-0.6555555555555556,-0.003974797275235054,0.04395900134001003,-0.980804237357983
1589479397.8428297,-2.6587707582144127,-2.7075415164288255,8.714584835711745,0.4033333333333333,-0.2911111111111111,-0.6555555555555556,0.010676358788028261,0.07193320200454836,-1.0899573312269613
1589479397.8528297,-2.675637697041221,-2.803826182247324,8.822920424850375,0.4033333333333333,-0.2911111111111111,-0.6555555555555556,0.02161901003991606,0.09171042794467738,-1.169356438173594
1589479397.8628297,-2.5065338742641003,-2.7239929231613944,8.77326693713205,0.4033333333333333,-0.2911111111111111,-0.6555555555555556,0.027677597569677144,0.09441625727907879,-1.231015332008629
1589479397.8728297,-2.4122212683363813,-2.669497592475085,8.867417416296517,0.4158939361891846,-0.2735923755490028,-0.64927525412763,0.020925294808615623,0.07649516517313573,-1.3078666948207884
1589479397.8828297,-2.524658505665161,-2.745879090404881,9.012295776879803,0.4455555555555555,-0.23222222222222225,-0.6344444444444445,0.0006327527263019217,0.061660633911928366,-1.4133746480951446
1589479397.8928297,-2.4261852596796207,-2.706659363551469,8.644288844192229,0.4455555555555555,-0.23222222222222225,-0.6344444444444445,0.013971543394589062,0.08887685041858552,-1.4821215633375968
1589479397.9028296,-2.518067325069826,-2.823775169316709,8.682359480822944,0.4455555555555555,-0.23222222222222225,-0.6344444444444445,0.024723858208036603,0.08778614004784094,-1.5337497189049665
1589479397.9128296,-2.411338712446352,-2.791186266094421,8.751762746781116,0.4455555555555555,-0.23222222222222225,-0.6344444444444445,0.023020218672291558,0.09498179168238445,-1.576794079607882
1589479397.9228296,-2.21681345868382,-2.6527230743856176,8.923650008246742,0.45606153902541824,-0.20792713544816466,-0.6298480766763795,0.014676288870292493,0.08533128597155684,-1.613687584460083
1589479397.9328296,-1.9147488427910166,-2.5442139550831477,8.560126521515516,0.4633333333333333,-0.19111111111111112,-0.6266666666666667,0.028533088743253346,0.10228420844060596,-1.6341331075390293
1589479397.9428296,-1.9664900218011068,-2.6694890714964505,8.897464363575383,0.4633333333333333,-0.19111111111111112,-0.6266666666666667,0.030270813369669664,0.08999509448831569,-1.6511349254731096
1589479397.9528296,-1.9828202052982469,-2.7418314578997496,8.931280821192988,0.4633333333333333,-0.19111111111111112,-0.6266666666666667,0.020342152890943557,0.10259815870163774,-1.6778656642363594
1589479397.9628296,-1.8351476913668332,-2.695049230455611,8.685213331974314,0.4633333333333333,-0.19111111111111112,-0.6266666666666667,0.03652314044494509,0.10554056331135296,-1.7000400837520402
1589479397.9728296,-1.65,-2.72,8.65,0.5044444444444445,-0.12555555555555556,-0.6344444444444445,0.03926990816987242,0.10035643198967394,-1.7431475904293368
1589479397.9828296,-1.6601712950041863,-2.7229060842869104,8.663077379291098,0.5044444444444445,-0.12555555555555556,-0.6344444444444445,0.03720937814202318,0.10019792967983938,-1.7493291805128846
1589479397.9928296,-1.737444,-2.774888,8.821405333333335,0.5044444444444445,-0.12555555555555556,-0.6344444444444445,0.016209163651480004,0.0910199386002346,-1.8066212883335535
1589479398.0028296,-1.679843031930767,-2.8350784840346166,8.716300407838457,0.5044444444444445,-0.12555555555555556,-0.6344444444444445,0.02831207730013203,0.10039067711003163,-1.8293403448067356
1589479398.0128295,-1.7152303143479615,-2.938674136321195,8.790129162776221,0.5044444444444445,-0.12555555555555556,-0.6344444444444445,0.042881905896290026,0.1126950759760632,-1.8433593931275873
1589479398.0228295,-1.8837170167706485,-3.1390647358479766,8.925347719077328,0.5152451363847392,-0.06762457151215664,-0.6344444444444445,0.02820987927562353,0.10573472536751406,-1.8555790215611134
1589479398.0328295,-1.8506022734682346,-3.151767045578039,8.864136364624311,0.5166666666666667,-0.06,-0.6344444444444445,0.04773376305439163,0.11639474326833463,-1.8494093837174759
1589479398.0428295,-1.6778171921921923,-3.065382882882883,8.737177177177177,0.5166666666666667,-0.06,-0.6344444444444445,0.053129068860475366,0.12043893789340467,-1.8447905803464146
1589479398.0528295,-1.5336027916689565,-3.03,8.774036929164149,0.5166666666666667,-0.06,-0.6344444444444445,0.023449594786379407,0.07691391078862919,-1.8460041152153397
1589479398.0628295,-1.262730642593925,-2.9063653212969625,8.85818102527202,0.5166666666666667,-0.06,-0.6344444444444445,0.009420876173159847,0.056128299385853314,-1.853916400765441
1589479398.0728295,-1.3546157292296663,-3.0116486347243687,8.965714445713774,0.5261904939681971,-0.026300303394584695,-0.6344444444444445,0.01986273278606364,0.08365838639883896,-1.878170904706477
1589479398.0828295,-1.5253853624913842,-3.4250460555172633,8.8508531236293,0.5311111111111111,-0.008888888888888889,-0.6344444444444445,0.05450452647561409,0.11936692150735108,-1.9011969681885101
1589479398.0928295,-1.5524332002976393,-3.4527003991070826,8.913249002232295,0.5311111111111111,-0.008888888888888889,-0.6344444444444445,0.037617538981450364,0.1097013608124906,-1.9238434918707288
1589479398.1028295,-1.4271563186264722,-3.359670992214015,8.712126971451388,0.5311111111111111,-0.008888888888888889,-0.6344444444444445,0.02058863069957156,0.10826655580287134,-1.9558301063944745
1589479398.1128294,-1.2927798337776384,-3.3114058334640113,8.508466833934452,0.5311111111111111,-0.008888888888888889,-0.6344444444444445,0.03086385702555937,0.14136530608942857,-1.9712949939869593
1589479398.1228294,-1.307210380770049,-3.4395035098915123,8.927032971708147,0.5435697369354038,0.02848698858398923,-0.6344444444444445,0.03179526926366335,0.10152077376810635,-2.010704132956919
1589479398.1328294,-1.204648771565574,-3.3419432497899053,8.831180977804143,0.5511111111111111,0.05111111111111112,-0.6344444444444445,0.02816267431017408,0.09359294680872576,-2.0460903716856325
1589479398.1428294,-1.2391545882980615,-3.3998899608749777,8.5018008625289,0.5511111111111111,0.05111111111111112,-0.6344444444444445,0.04093425928930697,0.14310347240063093,-2.0630818765182
1589479398.1528294,-1.1993360916001155,-3.5209958625998268,8.611991725199653,0.5511111111111111,0.05111111111111112,-0.6344444444444445,0.035625129015348034,0.12042024536233079,-2.0811863202979763
1589479398.1628294,-1.1868100779331696,-3.6317209351980355,8.642759688267322,0.5511111111111111,0.05111111111111112,-0.6344444444444445,0.036439244795244324,0.1224546350029079,-2.0819541348128734
1589479398.1728294,-1.19,-3.7168612251981257,8.840875513391566,0.551978911577743,0.074541723710174,-0.6248986393114929,0.02454769953361218,0.09549154881603261,-2.0870299911476233
1589479398.1828294,-1.1607403860477983,-3.72268509651195,8.834165868607547,0.5522222222222222,0.0811111111111111,-0.6222222222222222,0.024715445815310697,0.09016529276509806,-2.0825574909641085
1589479398.1928294,-1.069000138102472,-3.5753573894687003,8.63642886736244,0.5522222222222222,0.0811111111111111,-0.6222222222222222,0.03312228570915522,0.12697264282401644,-2.0675918532584863
1589479398.2028294,-0.9157785625531358,-3.2882872277810478,8.37539794650448,0.5522222222222222,0.0811111111111111,-0.6222222222222222,0.030837674220368552,0.11527515339776606,-2.0415124592866953
1589479398.2128294,-0.9368389445711536,-3.5074591450273065,8.817975978740767,0.5522222222222222,0.0811111111111111,-0.6222222222222222,0.022896170869944076,0.08760564247517205,-2.0107064853289796
1589479398.2228293,-0.8176006618863763,-3.6430667402095973,8.646668505239933,0.5691554820126248,0.12062205062205059,-0.6335110620824906,0.03550284168933722,0.13646997044913467,-1.960703050158504
1589479398.2328293,-0.79,-3.64,8.57,0.5722222222222222,0.12777777777777774,-0.6355555555555555,0.03817907738737596,0.1461713248545251,-1.9536779314511523
1589479398.2428293,-0.7460292092729284,-3.5261752556375705,8.689481953003318,0.5722222222222222,0.12777777777777774,-0.6355555555555555,0.028000895617412074,0.11072007542988824,-1.9122988030643857
1589479398.2528293,-0.7306601364485269,-3.572277318290963,8.890660136448526,0.5722222222222222,0.12777777777777774,-0.6355555555555555,0.014742409434563243,0.07947939345807535,-1.8755701734066283
1589479398.2628293,-0.6571645736946463,-3.606192994051553,8.927984137475214,0.5722222222222222,0.12777777777777774,-0.6355555555555555,0.02302136002372395,0.11023086582779125,-1.8368696371840256
1589479398.2728293,-0.6116103977731885,-3.739662386639131,8.983636077938403,0.5913680624145741,0.1191889896541059,-0.6310822284078098,0.02699309107912349,0.10940605701459863,-1.8152897336927503
1589479398.2828293,-0.5118157853930841,-3.732301752209645,8.877519305318653,0.6911111111111111,0.07444444444444444,-0.6077777777777778,0.0283420807492651,0.11825333015548098,-1.7689369343196653
1589479398.2928293,-0.39402137916579333,-3.6132999371201007,8.659899811360301,0.6911111111111111,0.07444444444444444,-0.6077777777777778,0.03155539557327434,0.12227433417002559,-1.743687541377973
1589479398.3028293,-0.2977317724901387,-3.5077317724901387,8.723723374475124,0.6911111111111111,0.07444444444444444,-0.6077777777777778,0.029033837480139667,0.1098440087135471,-1.7237724980813887
1589479398.3128293,-0.30098002159827214,-3.6039200863930887,8.97729211663067,0.6911111111111111,0.07444444444444444,-0.6077777777777778,0.019575170432439774,0.08756184685318406,-1.714679086311738
1589479398.3228292,-0.32,-3.5977047433664584,8.784705255609056,0.8772167241516693,-0.0223735045361928,-0.49428562647269747,0.02157364010569146,0.09642443459353951,-1.7030992486052732
1589479398.3328292,-0.2220592480582858,-3.4178204687607394,8.77534469723005,1.0755555555555556,-0.12555555555555556,-0.37333333333333335,0.017511849042118686,0.0995846255373392,-1.6772580822170184
1589479398.3428292,-0.19286101288334678,-3.4847060404905186,9.048984014723825,1.0755555555555556,-0.12555555555555556,-0.37333333333333335,0.0033833191488708654,0.0648023233728169,-1.6530082029832238
1589479398.3528292,-0.17870694003501172,-3.274066403584251,8.667069400350117,1.0755555555555556,-0.12555555555555556,-0.37333333333333335,0.03153061863929687,0.10607226488849228,-1.6141929303805802
1589479398.3628292,-0.11693098133241994,-3.2584398013358453,8.58767254666895,1.0755555555555556,-0.12555555555555556,-0.37333333333333335,0.038180478522993146,0.10329834974054959,-1.577345514896727
1589479398.3728292,-0.0696513153352206,-3.4376151349858453,8.767963819650625,1.1882412330164867,0.2188256730112699,-0.3842569449239338,0.009621198300550977,0.0711641492792235,-1.5334357302549548
1589479398.3828292,-0.013140774563810402,-3.4807129841023814,8.820712984102382,1.2933333333333332,0.54,-0.3944444444444444,-4.626714564554685e-05,0.08563121031280417,-1.4846039474133514
1589479398.3928292,0.024861278648974666,-3.5523642943305185,8.697913148371532,1.2933333333333332,0.54,-0.3944444444444444,0.028316861808593156,0.11576491023217514,-1.4374412767552271
1589479398.4028292,0.013835205774492113,-3.3805867629082016,8.568446941032656,1.2933333333333332,0.54,-0.3944444444444444,0.02725524432076052,0.10209903718086327,-1.3807221267195706
1589479398.4128292,-0.009996361198889208,-3.379916307574452,8.814903571770564,1.2933333333333332,0.54,-0.3944444444444444,0.014178418582696107,0.06327334549593638,-1.3221000071293727
1589479398.4228292,-0.08434423174656955,-3.636810096561071,8.817261053701507,0.9668459352118508,0.4476541118452011,-0.5284949272497976,0.022480501584063756,0.05084210192897161,-1.2275989353422851
1589479398.4328291,-0.07997167205684474,-3.353188546068318,8.88347182549987,0.6844444444444444,0.36777777777777776,-0.6444444444444445,0.005081616698290544,0.04217398343548985,-1.0926090058548585
1589479398.4428291,-0.05621825086563163,-3.5606585502066346,8.681777951524628,0.6844444444444444,0.36777777777777776,-0.6444444444444445,0.02276891470007905,0.04726283579115382,-0.9643251884336311
1589479398.4528291,-0.0133155409566824,-3.924721823034284,8.54469513446931,0.6844444444444444,0.36777777777777776,-0.6444444444444445,0.03672366592044012,0.06872816183892011,-0.8426767449824788
1589479398.462829,0.06338734118195594,-3.988654854878191,8.65728523137895,0.6844444444444444,0.36777777777777776,-0.6444444444444445,0.013831642773137542,0.0687426835011699,-0.7083063457697992
1589479398.472829,0.08384912624718842,-3.7129061652921163,8.712113155314608,0.608176429500612,0.3628427885755298,-0.6475848921186023,0.0010454712465266768,0.029559507313563202,-0.5742052963377714
1589479398.482829,0.10022944785276074,-3.7053877300613496,8.801519018404909,0.4955555555555556,0.3555555555555556,-0.6522222222222223,0.021535274999032485,0.021751031958711538,-0.4586175174300477
1589479398.492829,0.13163122859174045,-3.7814186001421835,8.596099657467848,0.4955555555555556,0.3555555555555556,-0.6522222222222223,-0.010286788780274536,0.03982692064402122,-0.3323862842304962
1589479398.502829,0.047675618534645484,-3.675891872844882,8.639027207973623,0.4955555555555556,0.3555555555555556,-0.6522222222222223,-0.023774213636961406,-0.009619990298653527,-0.22091971419575324
1589479398.512829,-0.045666013617054295,-3.802072042364169,8.622557950070801,0.4955555555555556,0.3555555555555556,-0.6522222222222223,0.016943668261482542,-0.00819387361293892,-0.0870495787031326
1589479398.522829,-0.13421643286573146,-3.8460400801603205,8.61475751503006,0.47467557336896016,0.35432732130928524,-0.6749445557782231,0.027898598421595727,0.012198067667996441,0.1073176374882345
1589479398.532829,-0.30151082450483646,-3.802877706126209,8.84520865960387,0.4577777777777778,0.3533333333333333,-0.6933333333333334,-0.02969257970985211,-0.053796020850511835,0.341927616553775
1589479398.542829,-0.5576230076230076,-3.9531518118614892,8.60948695593857,0.4577777777777778,0.3533333333333333,-0.6933333333333334,0.0008589502935786864,-0.035597642056969435,0.6010968489065401
1589479398.552829,-0.736634663971703,-4.162708438605356,8.679575543203638,0.4577777777777778,0.3533333333333333,-0.6933333333333334,0.023458098252392205,-0.018324744499289884,0.887780817699632
1589479398.562829,-0.8124605678233439,-4.307476340694006,8.892744479495269,0.4577777777777778,0.3533333333333333,-0.6933333333333334,0.002216072630686806,-0.04577359958601848,1.1815796449443945
1589479398.572829,-0.8478381889033215,-4.328702913341993,8.673403228799407,0.4577777777777778,0.3533333333333333,-0.6933333333333334,-0.028656725837741377,-0.0828209577481323,1.4825894300115694
1589479398.582829,-0.5516788734269925,-4.3573167321392905,8.576656901258406,0.44,0.3588888888888889,-0.7,-0.009815879181277947,-0.11580480818127159,2.151717319454184
1589479398.592829,-0.3193982912197782,-4.444298006423074,8.372894019269223,0.44,0.3588888888888889,-0.7,-0.019576610755197153,-0.11797955471567033,2.531228533477724
1589479398.602829,-0.20657261874915628,-4.363427381250844,8.344475343760246,0.44,0.3588888888888889,-0.7,-0.01857490041147476,-0.10343092423447192,2.7392871378819836
1589479398.612829,-0.12840304306657524,-4.283612172266301,8.822500734645901,0.44,0.3588888888888889,-0.7,-0.04362557372261473,-0.2079773047688324,2.8599687955730904
1589479398.622829,-0.054398944669466015,-4.008509159823121,8.703364795065216,0.4430982786881862,0.34649577413614424,-0.6876068852472553,-0.057827205267574754,-0.2298744177073544,2.9198419276669307
1589479398.632829,-0.11053913309848369,-4.195747817429928,8.895147802113646,0.4488888888888889,0.3233333333333333,-0.6644444444444444,-0.02008551280950311,-0.1499731098837343,2.922661963216907
1589479398.642829,-0.16761426610843772,-4.218346854750448,8.803575386967323,0.4488888888888889,0.3233333333333333,-0.6644444444444444,0.0030122491507132473,-0.16727757303381055,2.8576467459819237
1589479398.652829,-1.8474043062200955,-10.893977272727273,7.580968899521531,0.4488888888888889,0.3233333333333333,-0.6644444444444444,0.011971084944992506,-0.16562882321407912,2.7994358330872418
1589479398.662829,-3.7651798242505845,-18.138369534405783,4.35783254198852,0.4488888888888889,0.3233333333333333,-0.6644444444444444,-0.10732301107059555,-0.2432530226929614,2.2202205121602603
1589479398.672829,0.39497892736137513,1.1695644988017517,4.233093959176927,0.45924441506211605,0.30262228098687893,-0.6712290995234553,-0.9162419681072742,-0.001759698182391023,-0.4479996320778745
1589479398.682829,0.5923419895575708,2.116088211046991,9.246477512137034,0.4811111111111111,0.2588888888888889,-0.6855555555555556,-1.9951254044504598,0.24568178095155396,-5.362151248876551
1589479398.692829,-0.8086597726806823,-1.3241245472974512,9.442698448853154,0.4811111111111111,0.2588888888888889,-0.6855555555555556,-1.286640312043019,0.0906438066863156,-5.84956529996215
1589479398.702829,-0.9730101574158764,-1.5017474606460308,7.870526163770279,0.4811111111111111,0.2588888888888889,-0.6855555555555556,0.20191281459846044,0.47230058468750924,-5.575174480307536
1589479398.7128289,0.3033317367702981,-1.594160498127667,12.002261749252519,0.4811111111111111,0.2588888888888889,-0.6855555555555556,1.512241870457215,0.7236048272083038,-5.3607705139123025
1589479398.7228289,1.0642935934279658,-1.3567403988504747,14.346024267758136,0.4811111111111111,0.2588888888888889,-0.6855555555555556,2.2599784907443095,0.7016906989050408,-5.149598004808132
1589479398.7328289,1.2133750211255705,-0.7683569376373163,11.003388203481494,0.4444444444444444,0.3377777777777778,-0.65,1.5818795141331747,0.5888991840771903,-4.3907296588499465
1589479398.7428288,-0.996577884697998,-0.7894531317123463,8.910321333447891,0.4444444444444444,0.3377777777777778,-0.65,-0.7629285863194194,-0.10520912473309785,-3.4300027735095
1589479398.7528288,-0.7892042901819143,-0.6444582213804343,8.196621371624895,0.4444444444444444,0.3377777777777778,-0.65,-0.22881145028631422,0.3896682220872244,-2.7908772477573156
1589479398.7628288,0.8629652551045272,-1.4141079869402076,9.436482627552264,0.4444444444444444,0.3377777777777778,-0.65,0.5510235935797773,0.33561595628651264,-2.1399214601239205
1589479398.7728288,0.32750929438904886,-2.1949278374101544,9.25617319021563,0.4203289843006912,0.35318487731406456,-0.6523445586250871,0.3474874514696259,0.05942081849745327,-1.5832448707974687
1589479398.7828288,0.08154563571143882,-2.202271821442806,9.295614587485053,0.3644444444444445,0.3888888888888889,-0.6577777777777778,-0.2929033254273074,0.00988651806608725,-1.0445326024662709
1589479398.7928288,0.37594591210717415,-2.509102917240516,8.786716539376487,0.3644444444444445,0.3888888888888889,-0.6577777777777778,-0.06656013978142686,0.09001894265168123,-0.437837787859664
1589479398.8028288,0.9886375007627067,-2.790309658917567,8.151085789248887,0.3644444444444445,0.3888888888888889,-0.6577777777777778,0.2325122552408055,0.11682339090989702,-0.15634326033449303
1589479398.8128288,0.7072554078190117,-2.7377495534828338,9.537265330422702,0.3644444444444445,0.3888888888888889,-0.6577777777777778,0.026450535818637023,-0.04119807442899048,-0.03970004922262504
1589479398.8228288,-0.41871368390470654,-8.032114323067983,8.491647661243462,0.3600062140874169,0.40309122603137715,-0.6546710165278585,-0.07343011237111084,0.03109770945608832,0.36529057177348806
1589479398.8328288,-0.794199515374902,-12.603968237716574,9.71683776435389,0.3533333333333333,0.4244444444444445,-0.65,0.012994403961519234,-0.025092384100925486,1.1980265769363887
1589479398.8428288,0.8662857922937783,-6.171973425252835,11.114890049258843,0.3533333333333333,0.4244444444444445,-0.65,-0.06820218340863676,-0.2952271843900982,1.555083364987203
1589479398.8528287,1.6306824994235647,-2.7191632464837445,10.261293982015218,0.3533333333333333,0.4244444444444445,-0.65,-0.09615689696334544,-0.2382400586777512,1.5525273634823233
1589479398.8628287,0.568035286603864,-4.2785490180424715,8.576413060833467,0.3533333333333333,0.4244444444444445,-0.65,-0.05313741888519469,-0.030595251848999472,1.2809906032346805
1589479398.8728287,-0.819382303198032,-6.766599976937269,8.571957833640836,0.35610536678283444,0.4204123957906246,-0.6565520790624573,-0.004813160847160379,0.0024514761439199066,1.2414660606269536
1589479398.8828287,-0.27326371504184255,-5.395504613403905,8.978568771904728,0.3655555555555556,0.4066666666666667,-0.6788888888888889,-0.0006456351280422123,0.02956330091797204,1.5779649443090225
1589479398.8928287,0.6696756398104265,-2.534819146919431,8.361816303317536,0.3655555555555556,0.4066666666666667,-0.6788888888888889,-0.024999132552212002,-0.19855345329439228,1.7494418598180217
1589479398.9028287,0.3259947467166979,-4.176496810506566,10.472484052532833,0.3655555555555556,0.4066666666666667,-0.6788888888888889,-0.01223523286462573,-0.05421375777749703,1.729131499565279
1589479398.9128287,-0.24734457869761134,-3.6835552498305217,8.63542788212306,0.3655555555555556,0.4066666666666667,-0.6788888888888889,-0.011751758352244793,-0.07338328432038535,1.9322187926672985
1589479398.9228287,-0.1338200078697371,-3.561029998688377,9.12558001836272,0.3682963892896626,0.4039258329325597,-0.6788888888888889,-0.05559255393991677,-0.1913775321396812,2.05920545198752
1589479398.9328287,-0.3270582852315923,-3.5385844009573417,9.556184710685626,0.37777777777777777,0.3944444444444444,-0.6788888888888889,-0.04038154812751012,-0.14299082288275233,2.1868726124533744
1589479398.9428287,-0.6627526665962614,-3.932936424120815,9.144498363079522,0.37777777777777777,0.3944444444444444,-0.6788888888888889,-0.04064096346165419,-0.11540756974389584,2.4492646817398684
1589479398.9528286,-0.5815450417150702,-3.7926687084169397,8.502219875382828,0.37777777777777777,0.3944444444444444,-0.6788888888888889,-0.03822504227091341,-0.18627459133895866,2.5998571026293766
1589479398.9628286,9.174241210125121,-17.5283574690593,8.414913671629629,0.37777777777777777,0.3944444444444444,-0.6788888888888889,-0.08116847351781546,-0.23664092575727735,2.2188929457525526
1589479398.9728286,2.1959650612023154,-3.408029302412441,6.307189447057025,0.37777777777777777,0.3944444444444444,-0.6788888888888889,-0.10757786399620298,-0.20790129494256152,1.3497133003020925
1589479398.9828286,-1.2545815942652867,-2.803004173763312,8.294187239139793,0.4122222222222222,0.38222222222222224,-0.6855555555555556,0.14822952811519344,0.2901183177527826,0.786935257056731
1589479398.9928286,-0.8691967138293016,-3.612647193062528,8.312180511182108,0.4122222222222222,0.38222222222222224,-0.6855555555555556,0.007511472717124447,-0.03165911060514047,0.5162242168315105
1589479399.0028286,-0.014446272889604705,-4.470144602780015,8.860834704667203,0.4122222222222222,0.38222222222222224,-0.6855555555555556,-0.07977081549771,-0.15919140102183743,0.18644639686788134
1589479399.0128286,0.0265419494500351,-4.290130762930025,8.824486016849988,0.4122222222222222,0.38222222222222224,-0.6855555555555556,0.03273918749782183,0.011748321559999568,0.02662847369328875
1589479399.0228286,-0.08570139605871527,-4.226447905911927,8.845701396058715,0.42464150868110107,0.3660231529280324,-0.6804258502790621,0.009358953029032863,-0.02426333386643046,-0.01282491273844904
1589479399.0328286,-0.05182506279274998,-4.3567300251171,8.758846649921933,0.4633333333333333,0.31555555555555553,-0.6644444444444444,-0.019719297052912824,-0.01292269040430412,-0.01047833640832172
1589479399.0428286,-0.16,-4.4,8.73,0.4633333333333333,0.31555555555555553,-0.6644444444444444,0.00545415391248228,0.01854412330243975,-0.006544984694978735
1589479399.0528286,-0.1210654879609166,-4.3454916831452834,8.73,0.4633333333333333,0.31555555555555553,-0.6644444444444444,0.002056476773785397,0.008351091886349101,-0.005270855767967405
1589479399.0628285,-0.10149186086036938,-4.277782226083016,8.732963704347169,0.4633333333333333,0.31555555555555553,-0.6644444444444444,-0.0006861724018007507,-0.0024631755860979564,-0.0026259123610672137
1589479399.0728285,-0.2,-4.308341518614915,8.742119723888198,0.46227347138923464,0.31555555555555553,-0.6637378698150452,0.004644862888808718,0.007736442981593232,-0.001090830782496456
1589479399.0828285,-0.19754771950974484,-4.220422192083585,8.758773859754871,0.4533333333333333,0.31555555555555553,-0.6577777777777778,-0.0025160394457536426,-0.00921559685709879,-0.001090830782496456
1589479399.0928285,-0.16154227931866907,-4.369204044769316,8.729975184428652,0.4533333333333333,0.31555555555555553,-0.6577777777777778,-0.0064581594482668704,0.0006729463024047552,-0.0009225942068952672
1589479399.1028285,-0.17570336107500378,-4.270076472474973,8.637928153012474,0.4533333333333333,0.31555555555555553,-0.6577777777777778,0.004354981277014353,0.006851883859708313,0.0006221401824306222
1589479399.1128285,-0.15934490597230833,-4.299563270648205,8.691310188055382,0.4533333333333333,0.31555555555555553,-0.6577777777777778,-0.0010193711094128898,-0.0010193711094128898,-7.145967308356615e-05
1589479399.1228285,-0.13767565612729904,-4.285117104084867,8.734648687745402,0.4533333333333333,0.31555555555555553,-0.6577777777777778,0.0013443773670413805,0.0013443773670413805,-0.0024352081495378364
1589479399.1328285,-0.18890608575881693,-4.319270723839211,8.75,0.4707869883729828,0.32319152963540215,-0.6577777777777778,0.002181661564992912,0.007536375866834045,0.0010112790939835392
1589479399.1428285,-0.14754011352691654,-4.286032090821534,8.77547593188385,0.4711111111111111,0.3233333333333333,-0.6577777777777778,-0.0005973315061757476,0.0011514983114149875,-0.0016881622886722035
1589479399.1528285,-0.11326888702440448,-4.306924451902383,8.658172217561011,0.4711111111111111,0.3233333333333333,-0.6577777777777778,-0.002758711964160181,0.001447411041568821,-0.002181661564992912
1589479399.1628284,-0.12856929194177946,-4.245722832232882,8.696423229854448,0.4711111111111111,0.3233333333333333,-0.6577777777777778,0.004751856736679561,0.003116426308422097,-0.002181661564992912
1589479399.1728284,-0.15918078459489912,-4.318361569189799,8.750819215405102,0.4711111111111111,0.32366708775763364,-0.6585363105602786,-0.0020029364887170407,0.0010610432697838108,-0.0011206182952091012
1589479399.1828284,-0.13340407661579434,-4.2668081532315885,8.776595923384205,0.4711111111111111,0.3341687095268986,-0.6824036327631534,0.003620668818288862,0.0001237757186161604,-0.0020578858463767514
1589479399.1928284,-0.13,-4.324224517310676,8.684224517310676,0.4711111111111111,0.33555555555555555,-0.6855555555555556,-0.0028524873940700616,0.0022224799639411017,-0.0013008332592061092
1589479399.2028284,-0.13707759916734127,-4.302359199722447,8.671795998612236,0.4711111111111111,0.33555555555555555,-0.6855555555555556,-0.0008334820145662178,-0.001152266493271959,-0.00243901033292315
1589479399.2128284,-0.15647856422825293,-4.304717846342379,8.711760717885875,0.4711111111111111,0.33555555555555555,-0.6855555555555556,0.0007682581076811756,0.001989597038072618,-0.0028883632936487803
1589479399.2228284,-0.14,-4.279927017623264,8.72058385901389,0.4710138012754629,0.33536093588425914,-0.6854014816491126,0.0043553619876734685,0.001090830782496456,-0.0011067530671211674
1589479399.2328284,-0.14,-4.275456971579932,8.794543028420067,0.4577777777777778,0.3088888888888889,-0.6644444444444444,0.0029748607185594235,0.0009420149680314837,-0.002826044904094451
1589479399.2428284,-0.14,-4.308870367051044,8.761129632948956,0.4577777777777778,0.3088888888888889,-0.6644444444444444,0.0011524427021785961,3.080595984107019e-05,-9.241787952321036e-05
1589479399.2528284,-0.14,-4.311820904575956,8.684089547712022,0.4577777777777778,0.3088888888888889,-0.6644444444444444,-0.003025021770757412,-0.0010664104323025688,-0.0019586113384548434
1589479399.2628284,-0.14,-4.280018197672215,8.699990901163892,0.4577777777777778,0.3088888888888889,-0.6644444444444444,0.0021786839778397196,0.0032700110248617084,-0.001091327047021988
1589479399.2728283,-0.13334798546423982,-4.28665201453576,8.746564101750321,0.4577777777777778,0.3088888888888889,-0.6644444444444444,0.002907283787115021,0.0018212479032451501,-0.002542075226740674
1589479399.2828283,-0.14542018050007396,-4.29,8.777710090250036,0.4577777777777778,0.3088888888888889,-0.6807213016389669,0.005795613481659211,0.001090830782496456,-0.0007493712133195252
1589479399.2928283,-0.16459384439546088,-4.29,8.794593844395461,0.4577777777777778,0.3088888888888889,-0.6855555555555556,0.0009731895494425073,0.001090830782496456,-0.0015919414701532082
1589479399.3028283,-0.14959590846778445,-4.309797954233892,8.641414320362754,0.4577777777777778,0.3088888888888889,-0.6855555555555556,-0.0021375820167642244,4.407954822868733e-05,-4.407954822868733e-05
1589479399.3128283,-0.13190403880628493,-4.300952019403142,8.703335864178003,0.4577777777777778,0.3088888888888889,-0.6855555555555556,-0.00020769841409634063,0.0019739631508965713,-0.0019739631508965713
1589479399.3228283,-0.13935491127218197,-4.271935266183454,8.728709822544364,0.4577777777777778,0.3088888888888889,-0.6855555555555556,0.0030613875549657475,-0.0008797259899728355,-0.0011611990466709962
1589479399.3328283,-0.14,-4.287687606722387,8.78306282016716,0.4538471985061362,0.3216632715217239,-0.6609894351077958,0.0013430737593422705,-0.001090830782496456,0.0018032970997241902
1589479399.3428283,-0.13,-4.288456356230773,8.739194493615413,0.4533333333333333,0.3233333333333333,-0.6577777777777778,-0.00016838541406814523,0.0023500469790610572,0.0
1589479399.3528283,-0.13,-4.281248045095984,8.688736315671886,0.4533333333333333,0.3233333333333333,-0.6577777777777778,-0.0009546901816321862,0.0031363517466250984,0.0
1589479399.3628283,-0.13168773351024826,-4.308312266489751,8.693501868081986,0.4533333333333333,0.3233333333333333,-0.6577777777777778,-0.00035441811624461474,0.004901844412793399,0.0
1589479399.3728282,-0.13901044030867002,-4.30098955969133,8.75208352246936,0.4533333333333333,0.3233333333333333,-0.6577777777777778,0.002840715478521184,0.00250549421671905,0.0
1589479399.3828282,-0.1484054830145744,-4.308405483014574,8.764783550956276,0.4455555555555555,0.33,-0.6711111111111111,0.0029246227053062322,0.00017393482109156797,0.0
1589479399.3928282,-0.14083057918404943,-4.3008305791840495,8.78750826244785,0.4455555555555555,0.33,-0.6711111111111111,0.0012720350507488334,0.0010002286483702671,0.0
1589479399.4028282,-0.14790241557505107,-4.290487922124745,8.652585506549693,0.4455555555555555,0.33,-0.6711111111111111,0.00022881096596194138,0.0018996265517177199,-0.0013196417484583973
1589479399.4128282,-0.14117112810707458,-4.3264866156787765,8.705855640535372,0.4455555555555555,0.33,-0.6711111111111111,0.0009630805235520813,-0.0027614913117118695,-0.0019261610471041626
1589479399.4228282,-0.1465898403183298,-4.3102304790450106,8.732949201591648,0.4455555555555555,0.33,-0.6711111111111111,0.0003719907153994168,-0.0003971320791012114,-0.0007439814307988336
1589479399.4328282,-0.13733183947850885,-4.3,8.775336321042982,0.45681614268576987,0.3257772798261696,-0.6668883909372807,0.0,0.00039988980977401136,-0.0006909409727224446
1589479399.4428282,-0.13885071058216694,-4.291149289417833,8.710343604760498,0.4633333333333333,0.3233333333333333,-0.6644444444444444,0.0,0.0019309255099989654,0.0008400947275025094
1589479399.4528282,-0.13001313742437337,-4.31,8.660052549697493,0.4633333333333333,0.3233333333333333,-0.6644444444444444,0.0010922638531873762,-1.4330706909201495e-06,-0.001090830782496456
1589479399.4628282,-0.13726343993085569,-4.31,8.689053759723421,0.4633333333333333,0.3233333333333333,-0.6644444444444444,0.0018831491688355844,-0.0007923183863391284,-0.001090830782496456
1589479399.4728281,-0.13159250434670616,-4.2931850086934125,8.733629982613175,0.4633333333333333,0.3233333333333333,-0.6644444444444444,0.00034743055252929806,0.0016605157361989648,-0.001090830782496456
1589479399.4828281,-0.13,-4.28300756000756,8.76097731997732,0.4633333333333333,0.31789476889476886,-0.6644444444444444,0.0007627568788512829,0.000656147807290346,0.0004346829752061099
1589479399.4928281,-0.13,-4.289923373108154,8.740229880675537,0.4633333333333333,0.31555555555555553,-0.6644444444444444,8.358697239212523e-06,0.0010824720852572434,-0.001074113388018031
1589479399.5028281,-0.14870560610507777,-4.299352803052539,8.661294393894922,0.4633333333333333,0.31555555555555553,-0.6644444444444444,-0.003131295876963704,0.002181661564992912,-0.001161429017759288
1589479399.512828,-0.13062794481543,-4.29,8.68376766889258,0.4633333333333333,0.31555555555555553,-0.6644444444444444,-0.001090830782496456,0.0020446652581168952,-0.002181661564992912
1589479399.522828,-0.13773668689196977,-4.29,8.726420121351818,0.4633333333333333,0.31555555555555553,-0.6644444444444444,-0.001090830782496456,0.0004937783217334219,-0.002181661564992912
1589479399.532828,-0.16735348638243264,-4.298235657588288,8.79,0.4711111111111111,0.3233333333333333,-0.6711111111111111,0.0031762623968114166,0.0008983708811405529,-9.622995067795153e-05
1589479399.542828,-0.1408230746220576,-4.28,8.779300029913252,0.4711111111111111,0.3233333333333333,-0.6711111111111111,0.0020918780515897083,-0.0008214802422868453,-0.001090830782496456
1589479399.552828,-0.14898552864737152,-4.281014471352629,8.663043414057885,0.4711111111111111,0.3233333333333333,-0.6711111111111111,0.0010354999535260583,0.0022923232229337073,-0.0010354999535260583
1589479399.562828,-0.13125495450231675,-4.300627477251158,8.72,0.4711111111111111,0.3233333333333333,-0.6711111111111111,-0.00020534145026394516,0.0042264288298098605,0.0
1589479399.572828,-0.14686484675933678,-4.308432423379668,8.72,0.4711111111111111,0.3233333333333333,-0.6711111111111111,-0.0027595040980755263,0.002523653731268806,0.0
1589479399.582828,-0.13488603314169767,-4.31,8.727556983429151,0.4610351332055762,0.3233333333333333,-0.6551574794273476,2.4863711444119297e-05,0.003006000579726284,-0.0016486780294667437
1589479399.592828,-0.13,-4.280242580394254,8.718544517634477,0.4577777777777778,0.3233333333333333,-0.65,0.0021287387327364542,-0.0010379079502399983,-0.0011172921986246848
1589479399.602828,-0.13,-4.290280666739432,8.660842000218297,0.4577777777777778,0.3233333333333333,-0.65,0.0,0.0010295987986973629,-0.002089813589294272
1589479399.612828,-0.13,-4.2968206695461,8.680462008638298,0.4577777777777778,0.3233333333333333,-0.65,0.0,-0.00039720847712783943,5.039732444353127e-05
1589479399.622828,-0.14452211703668766,-4.3,8.740827409628407,0.4577777777777778,0.3233333333333333,-0.65,-0.0015841172290635122,-0.00029877216796469987,-0.0012853450610988122
1589479399.632828,-0.15,-4.3,8.772773601299535,0.4577777777777778,0.3233333333333333,-0.6684507574326621,-0.0014849696899494177,0.0020900756251304824,-9.158593986242957e-05
1589479399.642828,-0.15,-4.308082905225863,8.763834189548273,0.4577777777777778,0.3233333333333333,-0.6788888888888889,0.00067258558397824,0.0015090759810146718,0.000209122599259108
1589479399.652828,-0.13732957599930634,-4.297329575999306,8.70298309199688,0.4577777777777778,0.3233333333333333,-0.6788888888888889,0.001090830782496456,0.0024729596352203106,0.0006910644263619272
1589479399.662828,-0.14495777178796046,-4.29,8.707394429469902,0.4577777777777778,0.3233333333333333,-0.6788888888888889,0.001090830782496456,0.0024566724522961515,-0.0005408090078899768
1589479399.672828,-0.15,-4.298256234487649,8.753024937950597,0.4577777777777778,0.3233333333333333,-0.6788888888888889,-0.0016110156354945295,0.0030822770376565736,-0.001090830782496456
1589479399.682828,-0.1409470281024621,-4.318579457846307,8.77621188759015,0.4577777777777778,0.33,-0.6644444444444444,-0.001090830782496456,0.004363323129985824,0.0
1589479399.692828,-0.15485501119124595,-4.297717483213131,8.720579955235015,0.4577777777777778,0.33,-0.6644444444444444,-0.001090830782496456,0.004363323129985824,0.0
1589479399.702828,-0.14131773355484079,-4.29,8.643953200664523,0.4577777777777778,0.33,-0.6644444444444444,0.0009470883500215775,0.00028748486494975696,0.0
1589479399.712828,-0.13077853377030493,-4.299480977486463,8.71025951125677,0.4577777777777778,0.33,-0.6644444444444444,0.004278398269799659,0.002266586425179076,-0.0021533532782641905
1589479399.722828,-0.1531903676261043,-4.28453975491593,8.717730122542035,0.4577777777777778,0.33,-0.6644444444444444,0.00183364644358944,0.0047113382513892955,-0.0013384360028607842
1589479399.732828,-0.1474196467040069,-4.298870529943989,8.751450883239983,0.4549821437120015,0.31672073818756286,-0.6602509933457801,0.0004046789509989545,0.003395698417989775,-0.001090830782496456
1589479399.742828,-0.15976653074278405,-4.300116734628608,8.740350203885825,0.4533333333333333,0.3088888888888889,-0.6577777777777778,0.0010780970098695686,2.5467545253774794e-05,-1.2733772626887397e-05
1589479399.752828,-0.14975227969136484,-4.29,8.660743160925906,0.4533333333333333,0.3088888888888889,-0.6577777777777778,0.0031914260660567484,-0.0021546394711820386,-0.0010638086886855828
1589479399.7628279,-0.14201000479935025,-4.29,8.68396998560195,0.4533333333333333,0.3088888888888889,-0.6577777777777778,0.0006577725324290566,-0.0013100882933061416,-0.0002192575108096856
1589479399.7728279,-0.1326112922030027,-4.304777415593994,8.726943538984987,0.4533333333333333,0.3088888888888889,-0.6577777777777778,0.0008059829907836243,0.002133101180638041,-0.0016119659815672486
1589479399.7828279,-0.13,-4.300272341762211,8.759455316475577,0.4630609915711219,0.3229399507879168,-0.6577777777777778,-0.0010314150269805503,0.002211369442750865,-5.941575551590564e-05
1589479399.7928278,-0.12231204027775178,-4.315375919444497,8.76,0.4633333333333333,0.3233333333333333,-0.6577777777777778,0.0005864218414277959,-0.0011728436828555918,0.0008386263119621259
1589479399.8028278,-0.14961467889908256,-4.3002568807339445,8.661284403669725,0.4633333333333333,0.3233333333333333,-0.6577777777777778,0.001090830782496456,-2.8021341201743544e-05,0.001090830782496456
1589479399.8128278,-0.13421888053467002,-4.3,8.699452798663327,0.4633333333333333,0.3233333333333333,-0.6577777777777778,0.0019515573272482541,-0.0017214530895035966,0.001090830782496456
1589479399.8228278,-0.14443560091764596,-4.292782199541177,8.738871201835293,0.4633333333333333,0.3233333333333333,-0.6577777777777778,0.001394321672752797,-0.0029690014572330272,0.0003034908902563411
1589479399.8328278,-0.13575348958456762,-4.304246510415432,8.742876744792284,0.45621007812561715,0.32808217013847746,-0.6625266145829218,0.001090830782496456,-0.0017184391370583668,0.0
1589479399.8428278,-0.1423701413244236,-4.303814929337788,8.715259717351152,0.4533333333333333,0.33,-0.6644444444444444,-0.00025854231155481825,0.0009332288585804556,0.0006746865470256371
1589479399.8528278,-0.15,-4.3,8.672370118447285,0.4533333333333333,0.33,-0.6644444444444444,0.0009184709051323701,-0.0008322909664503276,8.617993868204293e-05
1589479399.8628278,-0.15,-4.293187837007713,8.676812162992286,0.4533333333333333,0.33,-0.6644444444444444,0.002577014199970469,-0.001090830782496456,-0.0007430917087370062
1589479399.8728278,-0.1312275038334275,-4.28374250127781,8.717544992333146,0.4533333333333333,0.33,-0.6644444444444444,0.0012247306792099667,-0.0017734180052562565,-0.00040824355973665555
1589479399.8828278,-0.1317653725078699,-4.28,8.757648058761804,0.4533333333333333,0.32607820916404334,-0.6683662352804011,0.0,-0.002181661564992912,0.0006417015249560998
1589479399.8928277,-0.14,-4.288769297246337,8.743692108260989,0.4533333333333333,0.3233333333333333,-0.6711111111111111,0.0019131638754331527,-0.0012250796272763355,0.001090830782496456
1589479399.9028277,-0.14,-4.298995665577266,8.66803467538187,0.4533333333333333,0.3233333333333333,-0.6711111111111111,0.0012003866729203287,-0.002072105674569039,0.002072105674569039
1589479399.9128277,-0.14,-4.290838225621788,8.724132420647488,0.4533333333333333,0.3233333333333333,-0.6711111111111111,9.143623109230726e-05,-0.002181661564992912,0.00018287246218461452
1589479399.9228277,-0.13269508793898344,-4.304609824122033,8.737304912061017,0.4533333333333333,0.3233333333333333,-0.6711111111111111,0.0,0.0002088653168830371,0.0015936845879172992
1589479399.9328277,-0.13,-4.292277170787809,8.757722829212192,0.4533333333333333,0.3341639511852278,-0.6592958916363172,-0.0019332607657585263,0.00012420039961719284,0.00024840079923438567
1589479399.9428277,-0.1449774629748873,-4.304977462974887,8.715067611075337,0.4533333333333333,0.33555555555555555,-0.6577777777777778,-0.002181661564992912,-0.002450681648506204,-0.0008168938828354013
1589479399.9528277,-0.13301513115616054,-4.30150756557808,8.657537827890401,0.4533333333333333,0.33555555555555555,-0.6577777777777778,-0.0003288997878404046,-0.0014197305703368605,0.0016883118832323049
