time,acc_x,acc_y,acc_z,mag_x,mag_y,mag_z,gyr_x,gyr_y,gyr_z
1589552010.8820815,0.09,-4.14,8.78,0.4744444444444445,0.3377777777777778,-0.6311111111111111,-0.15817046346198613,-0.011999138607461015,-0.07635815477475191
1589552010.8920815,0.09860492788708122,-4.114185216338757,8.874654206757894,0.4744444444444445,0.3377777777777778,-0.6311111111111111,0.06616736980534405,-0.06268634779756908,0.06819425661925999
1589552010.9020815,-0.027819636669920933,-4.029271808418997,8.768907712628497,0.4744444444444445,0.3377777777777778,-0.6311111111111111,-0.05230214010096576,0.046510394326835694,0.10777426506820428
1589552010.9120815,0.1722708742811386,-4.20705175802577,9.315936157821941,0.4583665364425355,0.3307436930269427,-0.6180478108595602,-0.02798786553542837,-0.062107792997474,0.03078664811855998
1589552010.9220815,0.10157877169559412,-4.254605307076101,8.94530624165554,0.4566666666666666,0.33,-0.6166666666666667,-0.0496615641656105,0.04204504576139041,-0.019338398119534552
1589552010.9320815,0.1874188511311069,-4.202581148868894,8.916022680694084,0.4566666666666666,0.33,-0.6166666666666667,-0.09540524873233414,0.05300447970961772,9.555654659778104e-05
1589552010.9420815,0.16285870435071145,-4.227141295649289,8.97332968984834,0.4566666666666666,0.33,-0.6166666666666667,-0.027534806267928133,0.027999579854310244,0.08404057748941574
1589552010.9520814,0.13413867696315596,-4.195518235950875,8.867934266840342,0.4566666666666666,0.33,-0.6166666666666667,-0.012112200153023079,-0.08775220098127844,0.012941842526629069
1589552010.9620814,0.10643656350193026,-4.1821455211673095,8.85,0.4706301845914488,0.3247636807782067,-0.6166666666666667,0.037071973005559394,-0.01327718715757431,-0.10024451530663041
1589552010.9720814,0.14759258249250068,-4.188796291246251,8.840370329970002,0.4744444444444445,0.3233333333333333,-0.6166666666666667,0.010019460707948086,0.009373053483959866,0.04903693391680972
1589552010.9820814,0.1323419689119171,-4.181170984455958,8.779367875647669,0.4744444444444445,0.3233333333333333,-0.6166666666666667,-0.02325221678337004,-0.007262785261699205,0.12473000020955848
1589552010.9920814,0.1295105704103148,-4.167377642602578,8.926066463903869,0.4744444444444445,0.3233333333333333,-0.6166666666666667,-0.0946392843179202,0.028521765803595826,-0.0009306653238084816
1589552011.0020814,0.06690090123710185,-4.151725225309276,8.902587837963914,0.4744444444444445,0.3233333333333333,-0.6166666666666667,0.043661238374601494,0.04901073212841386,0.019558301001009547
1589552011.0120814,0.15162403552732776,-4.177606867293522,9.028034336467611,0.4888888888888889,0.31777777777777777,-0.6022222222222222,-0.0010254734912138264,-0.013658699607888921,-0.100673665185705
1589552011.0220814,0.09143740959163235,-4.161437409591633,8.929938132858572,0.4888888888888889,0.31777777777777777,-0.6022222222222222,-0.03853474138636016,0.003980664498084376,0.03549328134235403
1589552011.0320814,0.10135761135584925,-4.17,8.874072834067547,0.4888888888888889,0.31777777777777777,-0.6022222222222222,0.06833224582214607,0.09098863565450811,-0.004442772772881307
1589552011.0420814,0.11778169358786099,-4.17,8.923345080763582,0.4888888888888889,0.31777777777777777,-0.6022222222222222,0.05041635134921456,0.14921529269153552,-0.05819045619167584
1589552011.0520813,0.143887011105746,-4.17,8.953887011105747,0.4888888888888889,0.31777777777777777,-0.6022222222222222,0.027151204817058093,0.005082291752925294,-0.02028492278875109
1589552011.0620813,0.13980149358524288,-4.17,8.879751866981554,0.4888888888888889,0.33,-0.6311111111111111,0.01833568041898416,0.022864139050877558,0.09317266341686195
1589552011.0720813,0.11302993553328654,-4.17,8.846287419416608,0.4888888888888889,0.33,-0.6311111111111111,0.13733888186422838,0.01702349112718459,0.007023106542390703
1589552011.0820813,0.08247894201424212,-4.143718413021363,8.742394710071212,0.4888888888888889,0.33,-0.6311111111111111,-0.021668271541074452,-0.0718254920950113,0.20304415690010053
1589552011.0920813,0.1446547234278327,-4.183103148951888,8.859309446855665,0.4888888888888889,0.33,-0.6311111111111111,0.013465660819119797,-0.0965321680386937,0.09487191734232744
1589552011.1020813,0.16249571304078936,-4.19249571304079,8.962530008714475,0.4888888888888889,0.33,-0.6311111111111111,-0.07533279285123923,-0.06379208957951943,0.037632726726713674
1589552011.1120813,0.12244320763289414,-4.182488641526579,8.949954566106316,0.47386617194204655,0.3358421677015498,-0.6311111111111111,-0.02987146675966272,0.053609302549686114,-0.03665434276568112
1589552011.1220813,0.06604658859871708,-4.1460465885987166,8.854837270878974,0.4688888888888889,0.3377777777777778,-0.6311111111111111,-0.05211622905710266,0.09395832064770104,0.10190878860167311
1589552011.1320813,0.09909911897744644,-4.1790991189774465,8.881279295181958,0.4688888888888889,0.3377777777777778,-0.6311111111111111,-0.003081813153039202,-0.018532398191032737,0.026914976042517247
1589552011.1420813,0.08051074983712368,-4.137957000651505,8.831236496416722,0.4688888888888889,0.3377777777777778,-0.6311111111111111,0.05226606753389921,0.021587924788617874,0.09981690864815163
1589552011.1520813,0.08686565355070378,-4.112537385797185,8.971044378115483,0.4688888888888889,0.3377777777777778,-0.6311111111111111,-0.0031909291906944692,-0.04911974603523908,0.03881421225109857
1589552011.1620812,0.06753936106512627,-4.129947518579831,8.957644323905463,0.4688888888888889,0.3377777777777778,-0.6144736007889824,-0.07464462333035837,-0.03499245756282976,-0.059875471505184644
1589552011.1720812,0.08125246769105525,-4.097495064617889,8.837905973338762,0.4688888888888889,0.3377777777777778,-0.6088888888888889,-0.03844586304959759,0.046367845389520726,0.011373767440021443
1589552011.1820812,0.05944311789226597,-3.9316467683839895,8.680580760046947,0.4688888888888889,0.3377777777777778,-0.6088888888888889,0.04107146317299336,-0.05562716054909615,-0.09436337438372232
1589552011.1920812,0.05095572463474848,-3.804335869521227,8.841841231939778,0.4688888888888889,0.3377777777777778,-0.6088888888888889,-0.06447326887137042,-0.022297245166665487,-0.13602576861176063
1589552011.2020812,0.016359363702096896,-3.6621655820679684,8.900368763557484,0.4688888888888889,0.3377777777777778,-0.6088888888888889,0.01464852443421849,-0.04790111659565601,0.005333870691708098
1589552011.2120812,-0.08174109976342969,-2.7716386821302867,9.168668570769142,0.4566666666666666,0.3233333333333333,-0.6233333333333333,0.06871831107212643,-0.003942814188905746,-0.1054490526949172
1589552011.2220812,-0.25844167329972584,-2.940130007959671,9.011298310780932,0.4566666666666666,0.3233333333333333,-0.6233333333333333,-0.024564772160957156,-0.055093852402420054,0.03858995987633434
1589552011.2320812,-0.2814741573033708,-3.033226966292135,8.873087640449437,0.4566666666666666,0.3233333333333333,-0.6233333333333333,0.02249317586558984,0.0030175566140519926,0.0549268842911339
1589552011.2420812,-0.10496860298025629,-3.3878484675498517,8.899208873841067,0.4566666666666666,0.3233333333333333,-0.6233333333333333,-0.10774020180417117,-0.0776836813398646,0.04203145942428285
1589552011.2520812,0.05190173421783037,-3.156671128521092,8.890952540304326,0.4566666666666666,0.3233333333333333,-0.6233333333333333,-0.1392621215076949,-0.10290121710268357,0.07085150029607598
1589552011.2620811,0.08939030763334843,-2.9748775389332125,8.993414974044526,0.46025746437654597,0.3326694073790196,-0.6283604501271643,0.012917544930486802,0.10782001302802172,0.1467967958163872
1589552011.2720811,-0.4088144576392764,-2.6916486012592653,9.38633498047342,0.4622222222222222,0.3377777777777778,-0.6311111111111111,0.06430850427722712,0.02245427392475341,0.35774485377457765
1589552011.2820811,-0.3387254828567151,-2.825681614014074,8.950158706393172,0.4622222222222222,0.3377777777777778,-0.6311111111111111,0.013329318470919976,-0.04753516844982422,0.6223704079925312
1589552011.292081,-0.15728438323863173,-2.9102263013967806,8.853168219554929,0.4622222222222222,0.3377777777777778,-0.6311111111111111,-0.05400777886278216,-0.0463626392819409,0.9288834141295959
1589552011.302081,-0.07486679002439864,-2.9170944341646337,8.949322078304869,0.4622222222222222,0.3377777777777778,-0.6311111111111111,0.028403898193127934,-0.02988030387075888,0.8142562633154664
1589552011.312081,0.0544203831597019,-3.1466089195832847,8.933347770104179,0.4622222222222222,0.31889370114583737,-0.6237673035320231,0.05708838575805167,-0.10736470799791009,0.9799962630395946
1589552011.322081,0.06,-3.1760298336201953,8.962059667240391,0.4622222222222222,0.31777777777777777,-0.6233333333333333,0.0025171092410790283,-0.11760132138249656,1.0101418480229802
1589552011.332081,-0.02776997196916608,-3.208513314646111,9.02067309039944,0.4622222222222222,0.31777777777777777,-0.6233333333333333,-0.09249874290699932,-0.08027933598140491,1.0799301380061757
1589552011.342081,-0.00572564821303434,-3.1938170988086894,8.829622284512963,0.4622222222222222,0.31777777777777777,-0.6233333333333333,-0.03638994673115105,-0.08669176983007329,1.1015721022454315
1589552011.352081,-0.0434839643340647,-3.226236636945054,8.982925166892302,0.4622222222222222,0.31777777777777777,-0.6233333333333333,0.054077219294992124,-0.11602692070588215,1.1419779185836585
1589552011.362081,-0.11963696532648424,-3.2200726069347034,8.979709572261187,0.4888888888888889,0.31777777777777777,-0.6022222222222222,-0.06750478550774523,-0.07115744687633975,1.307927713623889
1589552011.372081,-0.07625037311205302,-3.232777943605357,8.93826378524665,0.4888888888888889,0.31777777777777777,-0.6022222222222222,-0.04881459611629385,-0.10346212944466529,1.1632499165571069
1589552011.382081,-0.22648498597098682,-3.299548882653772,8.896531948341392,0.4888888888888889,0.31777777777777777,-0.6022222222222222,-0.01603848805570128,-0.04701438778475587,1.1996678144022097
1589552011.392081,-0.30366808252427185,-3.256331917475728,8.84527659789644,0.4888888888888889,0.31777777777777777,-0.6022222222222222,-0.03432542640697889,-0.13477469153818508,1.408316375702708
1589552011.402081,-0.2752718010960315,-3.2638912795615873,8.853891279561587,0.4888888888888889,0.31777777777777777,-0.6022222222222222,-0.09163917387943579,-0.15071723546073815,1.469385754035253
1589552011.412081,-0.24457125456760048,-3.2854287454323994,8.968001218026796,0.5034604817972662,0.30149187982135606,-0.6245081878467993,0.020696155724375803,-0.14261821927772605,1.3923041907462284
1589552011.422081,-0.29092849572354634,-3.4512735697912302,8.957559586897045,0.5077777777777778,0.2966666666666667,-0.6311111111111111,-0.05742946730869661,-0.12018231036502712,1.330370780217485
1589552011.432081,-0.3183044522823698,-3.370173286305781,8.858477738588151,0.5077777777777778,0.2966666666666667,-0.6311111111111111,0.011977522355692466,-0.08610273505072286,1.4387463806537508
1589552011.442081,-0.35854383469341916,-3.4213112974470317,8.96412704948716,0.5077777777777778,0.2966666666666667,-0.6311111111111111,0.1025064882905487,-0.01516546340106513,1.411476272892706
1589552011.452081,-0.3573907927636417,-3.381735549345492,9.03,0.5077777777777778,0.2966666666666667,-0.6311111111111111,0.0771154310349936,-0.09564150485029836,1.4406345761493433
1589552011.462081,-0.3900524424233534,-3.4341363503007187,9.086073419392694,0.5193484833667465,0.27530536404087824,-0.6311111111111111,0.06153200906235253,-0.13392656130190755,1.4070744595439337
1589552011.472081,-0.41744059985194737,-3.337915801036368,9.012797000740264,0.5222222222222223,0.27,-0.6311111111111111,0.038536019245974926,-0.03264307925685982,1.1755504624604662
1589552011.482081,-0.4017731609496052,-3.2835463218992103,8.835958448546446,0.5222222222222223,0.27,-0.6311111111111111,-0.020764126850695064,0.06695018424381065,1.3063230272345823
1589552011.492081,-0.4190041753997987,-3.2736652748667336,8.889681976465928,0.5222222222222223,0.27,-0.6311111111111111,0.015280740264209596,0.0034021469824395967,1.4070813004261598
1589552011.502081,-0.4768506159487193,-3.306439367960115,8.90397188002849,0.5222222222222223,0.27,-0.6311111111111111,0.002927796841316027,-0.0608928969677237,1.2972623575703346
1589552011.512081,-0.5028563185227929,-3.3742873629544143,8.957146566647433,0.5165076617298199,0.24237962428672177,-0.649207219337052,-0.004362064236988136,-0.07620205204303863,1.1807478443028039
1589552011.522081,-0.5,-3.296494369396878,8.979278403400347,0.5155555555555555,0.23777777777777775,-0.6522222222222223,0.07287240989893075,-0.04490381986770098,1.057194226446367
1589552011.532081,-0.5527460485671124,-3.2636269757164436,8.874507902865775,0.5155555555555555,0.23777777777777775,-0.6522222222222223,0.011413300669009058,-0.023363396040008703,1.0980219130615834
1589552011.5420809,-0.5684231734555251,-3.27684634691105,8.918962214188676,0.5155555555555555,0.23777777777777775,-0.6522222222222223,-0.04192197151465748,0.05094261888699922,0.9874018944565089
1589552011.5520809,-0.5897351403025362,-3.3260486607059176,8.982627040806763,0.5155555555555555,0.23777777777777775,-0.6522222222222223,-0.045872676287058406,0.07009973577766232,1.00628786973326
1589552011.5620809,-0.6697812799175198,-3.3761679799690696,9.05361329994845,0.5262165844318433,0.2203324577983978,-0.6454379311191301,0.00013552040136030619,-0.12577670943262168,0.9181407178586152
1589552011.5720809,-0.6707476613038983,-3.296728951735084,8.985981290431186,0.5277777777777778,0.21777777777777774,-0.6444444444444445,-0.027770317228310446,-0.08929518802585566,0.7900876890808898
1589552011.5820808,-0.675933384262796,-3.284066615737204,8.926599541634836,0.5277777777777778,0.21777777777777774,-0.6444444444444445,-0.0046539891169489755,-0.11441386578394545,0.7078976446273736
1589552011.5920808,-0.7102713698846579,-3.3163256438615893,8.920271369884658,0.5277777777777778,0.21777777777777774,-0.6444444444444445,-0.01332678428885937,-0.006481342845328419,0.6055978733296996
1589552011.6020808,-0.7523642217245241,-3.328817889137738,8.962364221724524,0.5277777777777778,0.21777777777777774,-0.6444444444444445,0.03410502902186935,0.022558927218952987,0.5423206322477186
1589552011.6120808,-0.7966283951402582,-3.3146743209719483,8.97467432097195,0.5342869410342854,0.2035759670363067,-0.6485866392440403,0.033961952365571556,-0.04280156042911194,0.4239610526758024
1589552011.6220808,-0.7814206824939821,-3.277850568744985,8.944280454995988,0.54,0.19111111111111112,-0.6522222222222223,0.09359906814815262,-0.04394116819088156,0.3733046180364547
1589552011.6320808,-0.7278149192822421,-3.2439074596411213,8.905861189461682,0.54,0.19111111111111112,-0.6522222222222223,0.010313859711151951,-0.02503863506137427,0.10810730088491532
1589552011.6420808,-0.7775314884832177,-3.272875136276124,8.932875136276124,0.54,0.19111111111111112,-0.6522222222222223,0.026207417665345366,-0.06952702024981673,0.015960121261176838
1589552011.6520808,-0.79,-3.2594916403974303,9.001525078807708,0.54,0.19111111111111112,-0.6522222222222223,-0.03300802324782201,0.017311002674048045,0.02134817780302649
1589552011.6620808,-0.8056431784107946,-3.255214392803598,8.988284857571214,0.54,0.19111111111111112,-0.6707622855239047,0.018732851746667778,0.04966371020147358,-0.06880999826270671
1589552011.6720808,-0.8630076445293836,-3.33884734830387,9.00017558528428,0.54,0.19111111111111112,-0.6877777777777778,0.06158946300045565,0.013158244035206889,-0.20290286443231018
1589552011.6820807,-0.9050551505850758,-3.3783517168616917,8.936482831383081,0.54,0.19111111111111112,-0.6877777777777778,-0.03764035806078146,0.02695929793000281,-0.2842997867388355
1589552011.6920807,-0.8775782369528036,-3.3232619146674063,8.92,0.54,0.19111111111111112,-0.6877777777777778,-0.017406549112400457,0.024560761261459636,-0.28079097711942647
1589552011.7020807,-0.87,-3.3360461167390256,8.946046116739026,0.54,0.19111111111111112,-0.6877777777777778,-0.021512003916513027,0.03143101820345316,-0.5334884695325132
1589552011.7120807,-0.8841600901916573,-3.35,8.967080045095829,0.5486533884504572,0.18245772266065388,-0.6822710760365778,0.08362380106898985,0.05298830431276752,-0.6067589428397789
1589552011.7220807,-0.89,-3.3420508629869,8.97,0.5522222222222222,0.17888888888888888,-0.68,0.05090127664872264,0.006234480278645212,-0.4875405284626855
1589552011.7320807,-0.9363927045527634,-3.4250532916800664,8.854018238618092,0.5522222222222222,0.17888888888888888,-0.68,-0.05886171412673727,-0.017757133519358738,-0.4399866737965989
1589552011.7420807,-0.9114164544524874,-3.4242776363016585,8.897167091095024,0.5522222222222222,0.17888888888888888,-0.68,-0.08789067564679562,-0.06281390404851346,-0.485669969627444
1589552011.7520807,-0.893787990522963,-3.417575981045926,8.951363971568888,0.5522222222222222,0.17888888888888888,-0.68,-0.07291989749969789,0.015059756505975394,-0.5099136613388238
1589552011.7620807,-0.8945427124018717,-3.420904520669786,8.978185931397194,0.5509084307634136,0.18131435004361257,-0.6813137914588087,-0.04006034814057579,0.16649311550702414,-0.5075367046726451
1589552011.7720807,-0.8297321080478975,-3.2991963241436926,9.053154738698598,0.5377777777777778,0.20555555555555555,-0.6944444444444444,0.004012653384702084,0.011765358777271855,-0.5605701322880838
1589552011.7820807,-0.8203314829500397,-3.301988897700238,9.01933703409992,0.5377777777777778,0.20555555555555555,-0.6944444444444444,-0.04661039483755832,-0.006017648894019307,-0.5519603759432067
1589552011.7920806,-0.827514031352816,-3.4440224501645056,8.968994387458874,0.5377777777777778,0.20555555555555555,-0.6944444444444444,-0.07562089925730774,-0.04197555696191317,-0.5490169695302548
1589552011.8020806,-0.8159217465602074,-3.4437848030405704,8.936215196959429,0.5377777777777778,0.20555555555555555,-0.6944444444444444,-0.04483979472569961,-0.0536000905490098,-0.5962165901807482
1589552011.8120806,-0.8180049895709787,-3.496802993742587,8.918389022943847,0.5260471055489664,0.2109321136604274,-0.7007985585683839,-0.026453059145153307,0.0048404584299244595,-0.6883980068401898
1589552011.8220806,-0.7776549179284896,-3.4923450820715103,8.924447130678203,0.5111111111111111,0.21777777777777774,-0.7088888888888889,0.0061155368719676625,0.04361865727871532,-0.7490216842251483
1589552011.8320806,-0.7213230564489298,-3.4939153820561164,8.908253853831651,0.5111111111111111,0.21777777777777774,-0.7088888888888889,-0.031674377338129875,0.09697403393453259,-0.8494912162204651
1589552011.8420806,-0.663891718543671,-3.4704187889077533,8.809039803810602,0.5111111111111111,0.21777777777777774,-0.7088888888888889,0.016174174590496394,0.043141832713063,-0.8863618471583251
1589552011.8520806,-0.6561963780759281,-3.472392756151856,8.867731183442633,0.5111111111111111,0.21777777777777774,-0.7088888888888889,-0.04392856482499115,-0.011075729118878792,-0.8309582818746181
1589552011.8620806,-0.7479642686233849,-3.597285691497847,8.969321422874462,0.5257718225483419,0.22755158540259832,-0.7243640842948548,-0.0491808949367804,-0.01374641670373098,-0.7606889060298255
1589552011.8720806,-0.7998219029814032,-3.6994657089442096,9.046073009938011,0.5311111111111111,0.2311111111111111,-0.73,0.014142911432296366,0.060075334525115015,-0.7749580444806063
1589552011.8820806,-0.7791382239768128,-3.6991382239768127,8.944208185497976,0.5311111111111111,0.2311111111111111,-0.73,-0.028895104960783763,0.03244718708806546,-0.6827068651096744
1589552011.8920805,-0.7189570119802677,-3.7151797040169137,8.977265680056378,0.5311111111111111,0.2311111111111111,-0.73,-0.026321385477574802,0.07614982838852462,-0.5811422133881313
1589552011.9020805,-0.6935101094304161,-3.7470202188608326,8.99681803025251,0.5311111111111111,0.2311111111111111,-0.73,-0.023970798953069458,0.09046447265500016,-0.5647473569897765
1589552011.9120805,-0.6998672284700961,-3.759734456940192,8.88238988753827,0.5311111111111111,0.2311111111111111,-0.73,-0.07528640336300026,0.00933034135821767,-0.5800033474900262
1589552011.9220805,-0.6099420677361854,-3.691965240641711,8.689478609625668,0.5111111111111111,0.26222222222222225,-0.7422222222222222,-0.03065701164390441,0.08686250521101124,-0.6603055392517517
1589552011.9320805,-0.6075984206247822,-3.767992103123911,8.768110169163473,0.5111111111111111,0.26222222222222225,-0.7422222222222222,-0.08901006902060618,-0.010367178398351617,-0.5368863216240052
1589552011.9420805,-0.62,-3.83380886298455,8.9880886298455,0.5111111111111111,0.26222222222222225,-0.7422222222222222,-0.07428528362362996,-0.051266019214795275,-0.5632161470288
1589552011.9520805,-0.6144214645053102,-3.8176858580212407,8.949586361095584,0.5111111111111111,0.26222222222222225,-0.7422222222222222,-0.030795695640450527,-0.06502607534898522,-0.640254256021127
1589552011.9620805,-0.6039302827965436,-3.8307450903377847,8.823629615082481,0.5189716767041983,0.24431760059352364,-0.7527029763463384,-0.019081698079658253,0.05118633472605262,-0.4586209079061698
1589552011.9720805,-0.6053830063171987,-3.8938300631719867,8.983830063171986,0.5311111111111111,0.21666666666666667,-0.7688888888888888,0.007719374493613375,0.059033189919134435,-0.41457872028764114
1589552011.9820805,-0.6046311162079511,-3.900204510703364,8.892951070336391,0.5311111111111111,0.21666666666666667,-0.7688888888888888,0.017658865752271567,-0.06298213419335998,-0.35935264320803884
1589552011.9920805,-0.6131654814530079,-3.963669037093984,8.859496444359024,0.5311111111111111,0.21666666666666667,-0.7688888888888888,0.011206436091870182,-0.014667197907489826,-0.3607980992146456
1589552012.0020804,-0.609721152823567,-3.9037451877060514,8.905697117941083,0.5311111111111111,0.21666666666666667,-0.7688888888888888,-0.03278575849162676,-0.013007115902255798,-0.26726245118776654
1589552012.0120804,-0.6347625261752299,-3.917937543625383,8.958968771812692,0.5426986198361877,0.21666666666666667,-0.7534388772554533,-0.005834559257438938,-0.02297557576842077,-0.21685034662669592
1589552012.0220804,-0.648028901487702,-3.942043352231553,8.938101155206956,0.5511111111111111,0.21666666666666667,-0.7422222222222222,0.047917737848731,-0.02802048032187217,-0.20968605036501953
1589552012.0320804,-0.6231611163739708,-3.991742573295441,8.84825742670456,0.5511111111111111,0.21666666666666667,-0.7422222222222222,0.004911586885515878,-0.04870721469405591,-0.07261280746006801
1589552012.0420804,-0.6143474778366373,-4.048694955673275,8.826084867019825,0.5511111111111111,0.21666666666666667,-0.7422222222222222,-0.033484749973745814,0.03011094477874588,-0.016216608569088364
1589552012.0520804,-0.6079383184297223,-4.053969159214861,8.86301542039257,0.5511111111111111,0.21666666666666667,-0.7422222222222222,-0.03916276087006628,0.10771688977841397,-0.03338900721861886
1589552012.0620804,-0.5472266477119537,-4.056386676144023,8.886386676144022,0.5511111111111111,0.2084733285946551,-0.7481396330520084,-0.05280418810527281,0.07555602692098892,-0.007732575608896411
1589552012.0720804,-0.5,-4.08,8.893659488806199,0.5511111111111111,0.19666666666666666,-0.7566666666666667,-0.05109756682085851,0.0059365868517307005,0.06362185863611931
1589552012.0820804,-0.4942355702549877,-4.1030577189800495,8.862706710764963,0.5511111111111111,0.19666666666666666,-0.7566666666666667,-0.028416066236960386,0.019413715493500627,0.22817507882472166
1589552012.0920804,-0.4708091380920324,-4.100809138092033,8.845202284523008,0.5511111111111111,0.19666666666666666,-0.7566666666666667,-0.006532524554875952,0.014205720452659498,0.17107715508773208
1589552012.1020803,-0.4417247883695252,-4.071724788369525,8.88965126978285,0.5511111111111111,0.19666666666666666,-0.7566666666666667,0.001200837272891754,-0.056082683884653664,0.03656596670271533
1589552012.1120803,-0.42696318848602266,-4.04785275394409,8.932668696374204,0.5565098871359596,0.17878322108435588,-0.7647648307039395,0.033809051671347665,-0.05406638011970436,-0.014950389894176446
1589552012.1220803,-0.41331824139163587,-4.021670439652091,8.866659120695818,0.5688888888888889,0.13777777777777778,-0.7833333333333333,0.0062151230810175775,-0.005089720513921567,0.04217055887924402
1589552012.1320803,-0.4184289879216993,-4.03,8.877948354852144,0.5688888888888889,0.13777777777777778,-0.7833333333333333,0.03270456978099288,-0.003272492347489368,0.04381477898027705
1589552012.1420803,-0.48301909596325837,-4.0241825799693824,8.916038191926516,0.5688888888888889,0.13777777777777778,-0.7833333333333333,-0.05443870518593625,-0.005049322183840053,0.07412182422686377
1589552012.1520803,-0.42665418122836646,-3.9632709061418323,8.843458187716335,0.5688888888888889,0.13777777777777778,-0.7833333333333333,-0.02759896912212343,0.008463820302327528,-0.030382582205487764
1589552012.1620803,-0.419038564781675,-3.9117327308518255,8.907115694345025,0.565043148015589,0.13339790622763065,-0.7753213731806251,-0.01438996717020714,0.049801949650301915,-0.12353819659624111
1589552012.1720803,-0.46386521308225964,-3.82079781962339,8.887695030440323,0.5288888888888889,0.09222222222222222,-0.7,-0.035734399423885045,-0.020373809311251247,-0.017801407001572494
1589552012.1820803,-0.5393931222989695,-3.95,8.897348280574743,0.5288888888888889,0.09222222222222222,-0.7,0.01642866182519632,0.04419446138035884,-0.07128391603414418
1589552012.1920803,-0.5292756233171312,-3.965420498653705,8.89,0.5288888888888889,0.09222222222222222,-0.7,0.02131706954622686,-0.0008002045024027224,-0.08723833070818622
1589552012.2020802,-0.5560605006954104,-3.9840907510431154,8.89,0.5288888888888889,0.09222222222222222,-0.7,0.02270907908220108,-0.026477300161513423,-0.15445249797331384
1589552012.2120802,-0.5273122450344413,-3.9346244900688823,8.947094897345014,0.5260693877854313,0.10455753954984878,-0.6841403062930516,0.029217457145566478,-0.013758270118804528,-0.243297284060056
1589552012.2220802,-0.5067387419585418,-3.8867387419585415,9.005981951393853,0.52,0.13111111111111112,-0.65,-0.022274604735610916,-0.008846528484995838,-0.11934275501157281
1589552012.2320802,-0.5248632218844985,-3.9,8.82164133738602,0.52,0.13111111111111112,-0.65,-0.04134878628727448,0.050851281796802865,-0.10450755703431093
1589552012.2420802,-0.5557811357543261,-3.9,8.816718498659517,0.52,0.13111111111111112,-0.65,0.047553628745311015,0.07666490606815782,-0.17889640784647204
1589552012.2520802,-0.5669447676138268,-3.9391656971585194,8.86129651174255,0.52,0.13111111111111112,-0.65,-0.0018988065812643137,0.025413821216761993,-0.10852846738269059
1589552012.2620802,-0.5366422257934914,-3.9677370429891523,8.890073322619525,0.5145579438417928,0.14842674434177047,-0.6341685639033972,0.0004937006333797737,-0.03790823229955642,-0.08731445214197577
1589552012.2720802,-0.48987593739488317,-3.8747311976889134,8.884772551890618,0.5077777777777778,0.17,-0.6144444444444445,-0.04822210661087431,0.017602156959423257,-0.04660348372476707
1589552012.2820802,-0.5081736315940591,-3.9632797368901884,8.917588421080108,0.5077777777777778,0.17,-0.6144444444444445,-0.05572146206148989,0.06682688876894832,-0.005349629368551181
1589552012.2920802,-0.5201140622453968,-4.060228124490793,8.876185025256639,0.5077777777777778,0.17,-0.6144444444444445,-0.006520100173298841,0.035018565387446104,-0.07302345112306281
1589552012.3020802,-0.4645529392392557,-3.9248509797464184,8.669701959492837,0.5077777777777778,0.17,-0.6144444444444445,-0.03398729112504765,-0.04069483169984844,-0.11682091774893175
1589552012.3120801,-0.5102217684296508,-3.9448789054523177,8.70842720032673,0.5074574456016155,0.17086243278197538,-0.6144444444444445,-0.07228512584034487,-0.06087103072219339,-0.1289710819096106
1589552012.3220801,-0.5325431582614755,-4.178814737392213,9.036098946084836,0.4933333333333334,0.2088888888888889,-0.6144444444444445,-0.09397840207659598,-0.009429600761093351,0.07299150570698958
1589552012.3320801,-0.55907639141506,-4.21168752273554,8.93722917424518,0.4933333333333334,0.2088888888888889,-0.6144444444444445,-0.11062539948842594,-0.02069094494647843,0.022560475739004365
1589552012.34208,-0.5114404664234469,-4.10923717422801,8.859575994553738,0.4933333333333334,0.2088888888888889,-0.6144444444444445,-0.07125522144954331,-0.036764902783112396,0.11983425556302531
1589552012.35208,-0.42100078945770325,-4.054996052711483,8.749507499848182,0.4933333333333334,0.2088888888888889,-0.6144444444444445,-0.04155901660006295,-0.12462590986188271,0.1271342178462896
1589552012.36208,-0.43133811975074504,-3.96,8.886690598753725,0.4933333333333334,0.2153050964809296,-0.6144444444444445,-0.004071390687029985,-0.04300379445332316,0.022815829650368158
1589552012.37208,-0.401763995695651,-3.9847080129130465,8.903540064565235,0.4933333333333334,0.2311111111111111,-0.6144444444444445,-0.006031420153984499,0.06782393059528101,-0.15804635250841215
1589552012.38208,-0.39,-4.010707897240723,8.982432921027593,0.4933333333333334,0.2311111111111111,-0.6144444444444445,-0.013331384461326335,0.07566317828382935,-0.2801846089200476
1589552012.39208,-0.4305703483787169,-3.972953101080855,8.874507816486524,0.4933333333333334,0.2311111111111111,-0.6144444444444445,-0.024213032785776738,0.015367016028244723,-0.2562539728894861
1589552012.40208,-0.47649974127522565,-3.929499223825677,8.915002587247743,0.4933333333333334,0.2311111111111111,-0.6144444444444445,-0.02868935758456326,-0.11557682343739155,-0.14846167438284041
1589552012.41208,-0.47265064218971836,-3.9046987156205635,8.969397431241127,0.49539494392533656,0.23464530069740225,-0.6144444444444445,-0.04145156973486533,-0.15024478744574737,-0.1495228373339786
1589552012.42208,-0.4630167597765363,-3.8220670391061455,8.906033519553072,0.5011111111111111,0.24444444444444444,-0.6144444444444445,-0.018294268207007608,0.0410676460516403,-0.25177471384827416
1589552012.43208,-0.4364643212821641,-3.7724281446140306,8.89535678717836,0.5011111111111111,0.24444444444444444,-0.6144444444444445,-0.01853601350599301,0.08496047608670343,-0.2723149894684495
1589552012.44208,-0.42137907024370264,-3.847126356747901,8.951379070243703,0.5011111111111111,0.24444444444444444,-0.6144444444444445,-0.0769850864782125,-0.0065583436302220875,-0.12164615157497147
1589552012.45208,-0.4152081947585473,-3.849505121724092,8.933802048689637,0.5011111111111111,0.24444444444444444,-0.6144444444444445,-0.06817133697172942,-0.05184312241596001,-0.1136195237853143
1589552012.46208,-0.4504083863914078,-3.885068064398568,8.954931935601431,0.5027550896449218,0.2507463621573854,-0.6128004659106338,-0.02077033291212269,0.03802716972422297,-0.12657579754299958
1589552012.47208,-0.36681358106347584,-3.868637283787305,8.968637283787306,0.5077777777777778,0.27,-0.6077777777777778,-0.0037731424204131506,-0.04195221980778911,0.016295013138164352
1589552012.48208,-0.408846531577576,-3.8602306936844846,8.960230693684485,0.5077777777777778,0.27,-0.6077777777777778,0.040243660427520325,0.002064583040144362,-0.2734822722773977
1589552012.49208,-0.3728201959572778,-3.8179482743401887,8.761793097360755,0.5077777777777778,0.27,-0.6077777777777778,0.02931218007984633,-0.02973293322252027,-0.16449137000381578
1589552012.50208,-0.40984288110159767,-3.869780033542237,8.969120134168948,0.5077777777777778,0.27,-0.6077777777777778,0.07615934222292044,0.06396139106362794,-0.20164601584142627
1589552012.51208,-0.43312446235342056,-4.049373387060262,9.071405577941775,0.5081597520914767,0.2709549357842472,-0.6089237007188744,0.038723085223170695,0.04513417929238098,-0.1572172767864674
1589552012.52208,-0.39613730504628464,-3.938411915138854,8.950814753448833,0.51,0.27555555555555555,-0.6144444444444445,-0.05094603702107858,0.08531398433459395,-0.2394490850650201
1589552012.53208,-0.3538276785714286,-3.9161723214285717,8.777033928571429,0.51,0.27555555555555555,-0.6144444444444445,-0.014733909816542982,-0.007124293756968818,-0.2604076045954107
1589552012.54208,-0.36703422678474945,-4.0009537456834785,8.960402405506354,0.51,0.27555555555555555,-0.6144444444444445,-0.011860891712500633,0.030723687560951004,-0.3141803547370242
1589552012.55208,-0.44308305175856244,-4.089249155275687,8.945415258792812,0.51,0.27555555555555555,-0.6144444444444445,-0.04687464560862036,0.05981450220774434,-0.36271176904360247
1589552012.56208,-0.45,-4.114009491525424,8.975990508474577,0.5113364971751413,0.27822854990583806,-0.6173401883239171,0.07940419804725796,0.04647353279359104,-0.3237502933264641
1589552012.57208,-0.4331444115419048,-4.121572205770953,8.951572205770953,0.5166666666666667,0.2888888888888889,-0.6288888888888889,0.05717587931355537,0.049773389392889895,-0.2904900177444522
1589552012.58208,-0.4217741822018994,-4.121774182201899,8.881129088990502,0.5166666666666667,0.2888888888888889,-0.6288888888888889,0.06550847478783359,0.033592907082408086,-0.23957813263349018
1589552012.5920799,-0.42489401789919923,-4.102235044747998,8.835317946302402,0.5166666666666667,0.2888888888888889,-0.6288888888888889,0.06715648587774872,-0.021537099895959224,-0.17379097529367465
1589552012.6020799,-0.42367308022348926,-4.134692320893957,8.912959135027936,0.5166666666666667,0.2888888888888889,-0.6288888888888889,0.010596790466434653,-0.03751198592850481,-0.15345052617637553
1589552012.6120799,-0.4705845576742732,-4.349015317286653,8.923138480775242,0.5156205064082526,0.2920273696641312,-0.6278427286304749,-0.01296243868890912,0.07274330728327179,-0.19007291621247174
1589552012.6220798,-0.41044317263095187,-4.27407195438492,8.949556827369047,0.51,0.3088888888888889,-0.6222222222222222,-0.019133332525579617,0.03684938803687276,-0.1098900962233435
1589552012.6320798,-0.39257948691262945,-4.255476921475776,8.944205130873707,0.51,0.3088888888888889,-0.6222222222222222,-0.014916970460126123,-0.04837806422269198,-0.24978849907606282
1589552012.6420798,-0.41473220165361824,-4.317187568595887,8.901919770249506,0.51,0.3088888888888889,-0.6222222222222222,-0.03968873706656885,-0.06685227525733438,-0.25864350507873457
1589552012.6520798,-0.46018700101805715,-4.3705610030541715,8.999438996945829,0.51,0.3088888888888889,-0.6222222222222222,-0.060392969832494946,-0.012589705730985858,-0.05527589040550037
1589552012.6620798,-0.468065866084425,-4.389362263464338,8.967098799126639,0.5131161046417597,0.3088888888888889,-0.6235116448326056,-0.021888464402342458,0.06668437523711049,-0.08115257041921779
1589552012.6720798,-0.4528027656477438,-4.305415211062591,8.944204148471615,0.5377066553453017,0.3088888888888889,-0.6336870451237263,-0.005239004609675482,0.03338545565177654,0.01874418833678408
1589552012.6820798,-0.48190906007878326,-4.403818120157567,8.82572718023635,0.5422222222222223,0.3088888888888889,-0.6355555555555555,-0.02752861574507908,0.007516923373823762,0.06513255471529397
1589552012.6920798,-0.49,-4.428082840236686,8.847305719921104,0.5422222222222223,0.3088888888888889,-0.6355555555555555,-0.011654461898672195,-0.0330696001836825,0.12390202518755997
1589552012.7020798,-0.4943292189752787,-4.458658437950557,8.848658437950558,0.5422222222222223,0.3088888888888889,-0.6355555555555555,0.018983148456488064,-0.04340069565251521,0.28954598851257807
1589552012.7120798,-0.5090786651193867,-4.488157330238773,8.878157330238775,0.5422222222222223,0.3088888888888889,-0.6355555555555555,0.00932965852922805,0.03543613875344159,0.21312252658843628
1589552012.7220798,-0.8699319703912584,-4.715389848431442,8.9506436376454,0.5877777777777777,0.29444444444444445,-0.6355555555555555,0.007025611581873547,0.06658862507052045,0.6170665938939398
1589552012.7320797,-0.690311999105379,-4.739207142058374,8.609022999217206,0.5877777777777777,0.29444444444444445,-0.6355555555555555,-0.055477814876780274,-0.034016622936911975,0.8318837299465167
1589552012.7420797,-0.8968410991636798,-4.879381123058542,8.873660692951015,0.5877777777777777,0.29444444444444445,-0.6355555555555555,-0.016759435520419863,-0.05774417659782971,0.983115608654586
1589552012.7520797,-0.2793218954248366,-4.29312908496732,8.572581699346406,0.5877777777777777,0.29444444444444445,-0.6355555555555555,-0.03596176775759558,-0.04822826685096259,0.9657051838908309
1589552012.7620797,-0.21985365648228086,-4.318854940936177,8.744567391716325,0.6106481228022151,0.28938154363750795,-0.634508058836879,0.017142427223143752,0.02346812486414397,0.915567183737359
1589552012.7720797,-0.36801339650383924,-4.405928769808854,8.93416925338997,0.7333333333333333,0.26222222222222225,-0.6288888888888889,-0.01599659413469154,0.02982221937665773,0.8291524001051345
1589552012.7820797,-0.18458884957772198,-4.166277105683634,8.965237959370006,0.7333333333333333,0.26222222222222225,-0.6288888888888889,0.05017821599483697,-0.1064149811020335,0.6954447114370127
1589552012.7920797,-0.3092046241706818,-4.180341271185137,8.807272601326908,0.7333333333333333,0.26222222222222225,-0.6288888888888889,0.06336725564966413,-0.02729568825276167,0.6155137661498337
1589552012.8020797,-0.2769224019826671,-4.031843049120268,8.858924156827731,0.7333333333333333,0.26222222222222225,-0.6288888888888889,0.10280743034254985,0.024821685448551595,0.5739607249555434
1589552012.8120797,-0.4287635249233849,-3.931236475076615,8.959454625054725,0.7965674317760125,0.23665464451254684,-0.6220404305737973,0.011653994262683381,-0.019650850236810725,0.359311568408357
1589552012.8220797,-0.5759961606206337,-3.8461790259059154,8.915996160620635,1.0411111111111109,0.13777777777777778,-0.5955555555555555,0.04887005667848091,-0.003033122248807014,0.48528425376655665
1589552012.8320796,-0.6441069045618544,-3.8921425394158056,8.954641427371127,1.0411111111111109,0.13777777777777778,-0.5955555555555555,0.03872473538913777,-0.026023967176407693,0.4156842713223897
1589552012.8420796,-0.6026198503845749,-3.8326883363186175,8.822414392582447,1.0411111111111109,0.13777777777777778,-0.5955555555555555,0.05351794425084604,0.005334623408447266,0.37838191331181104
1589552012.8520796,-0.596965701641158,-3.7920219435736677,8.911909459708648,1.0411111111111109,0.13777777777777778,-0.5955555555555555,0.01698763268931831,0.017907285711183288,0.33928488189171463
1589552012.8620796,-0.7422538050599737,-3.9173705607633638,9.06173604811343,1.0616875165660569,0.1348561786259599,-0.5894619344674782,-0.004609175123702392,-0.09895773645654853,0.4038277693743472
1589552012.8720796,-0.8157479275926239,-3.8567491118254105,8.874746743359838,1.5888888888888888,0.06,-0.43333333333333335,-0.027105013479034927,-0.009213580129485293,0.4467485197637254
1589552012.8820796,-0.865418203349687,-3.8780363728641514,8.952800033835222,1.5888888888888888,0.06,-0.43333333333333335,-0.07819077263444729,-0.10364483190161115,0.47616153261078104
1589552012.8920796,-0.9163885729451016,-3.9043937670609647,8.94161662117076,1.5888888888888888,0.06,-0.43333333333333335,0.05855783612893936,0.0008263117619911739,0.4336911964526165
1589552012.9020796,-0.9952114137483787,-3.9437748378728923,8.82430972762646,1.5888888888888888,0.06,-0.43333333333333335,0.04530476323198873,0.012733772816933725,0.30080144112629525
1589552012.9120796,-0.9043733956633345,-3.804693115178329,8.926400233737505,1.5542661732208238,0.07810099871769008,-0.45641514377870995,0.08116366537722582,-0.13674932149266156,0.659554349634039
1589552012.9220796,-0.9393864390508587,-3.6821474633219946,9.05769914644072,1.2770795797362566,0.22301609496049887,-0.6412062061017547,0.10216998341102332,-0.06131754309857053,0.7960954168537226
1589552012.9320796,-1.035020132188711,-3.6956174504292334,8.895617450429233,1.272222222222222,0.2255555555555556,-0.6444444444444445,-0.005588860699456981,0.06070875643227512,0.7533423816951952
1589552012.9420795,-0.9712914988984274,-3.71951568791309,8.919515687913089,1.272222222222222,0.2255555555555556,-0.6444444444444445,-0.010802647318417194,-0.03835318932796891,0.7933147457738902
1589552012.9520795,-0.9558011126084102,-3.6987016689126153,8.86320445043364,1.272222222222222,0.2255555555555556,-0.6444444444444445,0.020068859062929344,-0.02022558047523784,0.8220042598565245
1589552012.9620795,-0.9976185067393609,-3.804284416174466,8.954284416174467,1.272222222222222,0.2255555555555556,-0.6444444444444445,0.06804666189300435,-0.18756895603865817,0.9570208022906798
1589552012.9720795,-0.9382343648359818,-3.7405859120899545,8.987648452746027,0.8511111111111112,0.25222222222222224,-0.6877777777777778,-0.10982324864887369,-0.025536499657909904,1.1815631999981078
1589552012.9820795,-0.9665429678798948,-3.8096289036396844,8.934814451819841,0.8511111111111112,0.25222222222222224,-0.6877777777777778,-0.02555995307478331,-0.10069412447007525,1.1561868880741475
1589552012.9920795,-0.95,-3.767350401222774,8.91490026748185,0.8511111111111112,0.25222222222222224,-0.6877777777777778,0.01006298691288859,-0.15346534390798536,1.1803846134576657
1589552013.0020795,-0.93818137032731,-3.774202810018326,8.930794726781878,0.8511111111111112,0.25222222222222224,-0.6877777777777778,0.01093276967355622,-0.053315093401408255,1.0985782884530895
1589552013.0120795,-0.8720604173645733,-3.517984117287721,8.823348178217431,0.8511111111111112,0.25222222222222224,-0.6877777777777778,-0.03775280065677737,-0.16240683432678535,1.1175115658037749
1589552013.0220795,-0.7192059852781465,-3.4589528176662245,9.139746832388077,0.6577777777777778,0.24444444444444444,-0.7022222222222222,-0.09145655858963167,-0.01091207248773509,1.0186627237116193
1589552013.0320795,-0.7510484048404841,-3.3741936193619364,9.01598393839384,0.6577777777777778,0.24444444444444444,-0.7022222222222222,-0.062078903824084555,0.03892151433843746,0.9888944819239743
1589552013.0420794,-0.7154314036013842,-3.207284298199308,8.865431403601384,0.6577777777777778,0.24444444444444444,-0.7022222222222222,0.10475677942682174,0.09971612048395727,0.8125655592174552
1589552013.0520794,-0.7646342894011379,-3.182682855299431,8.914634289401137,0.6577777777777778,0.24444444444444444,-0.7022222222222222,0.0260378132137125,-0.014784194007838009,0.8215108962871268
1589552013.0620794,-0.8847190978152052,-3.274290088922914,9.13056180436959,0.6549177184958352,0.24463511506324062,-0.7012688691282414,0.02932652403514278,-0.04830965196437605,0.8453726899108246
1589552013.0720794,-0.9860484833260064,-3.368024241663003,8.961490925076934,0.5911111111111111,0.2488888888888889,-0.68,0.015975056846721628,-0.06497516463540452,0.6928322348150917
1589552013.0820794,-0.9672004340412339,-3.3509014106340103,9.11110292977833,0.5911111111111111,0.2488888888888889,-0.68,0.07031521264576789,-0.004079920186029219,0.5836140836364982
1589552013.0920794,-0.934691520694466,-3.2452474422570146,8.891667764687645,0.5911111111111111,0.2488888888888889,-0.68,0.050811264784477506,0.01187785533684474,0.7485110973728625
1589552013.1020794,-0.9980041475279571,-3.282973041068279,8.937006221291934,0.5911111111111111,0.2488888888888889,-0.68,-0.058287915069995325,-0.024440491054437474,0.7558527102834366
1589552013.1120794,-0.9817462255557493,-3.3886495338876292,8.912619338333624,0.5911111111111111,0.2488888888888889,-0.68,0.08890961142769466,-0.0013854567837149473,0.6928947320826173
1589552013.1220794,-0.7983500837520938,-3.175631281407035,8.980193676716919,0.5822222222222222,0.2088888888888889,-0.7122222222222222,-0.020143597332972135,0.05700961228974254,0.6957302057678827
1589552013.1320794,-0.73,-3.151111952512397,9.034996213694212,0.5822222222222222,0.2088888888888889,-0.7122222222222222,0.017212354201665628,-0.00012212124670057055,0.3875481657935411
1589552013.1420794,-0.7352327780828605,-3.2013376858461977,8.86218032420119,0.5822222222222222,0.2088888888888889,-0.7122222222222222,0.0827064362802415,-0.043684015599513175,0.3963932456928897
1589552013.1520793,-0.8376014399902373,-3.423136453312181,8.904833933329266,0.5822222222222222,0.2088888888888889,-0.7122222222222222,0.036178566458766874,-0.06601739311382099,0.3619626220249985
1589552013.1620793,-0.85,-3.514836865711019,8.987804238853222,0.5822222222222222,0.2088888888888889,-0.7122222222222222,0.06024820247233165,-0.1104507081825963,0.28211562427359704
1589552013.1720793,-0.78346453624318,-3.588020265003897,8.934949337490258,0.5811661037498917,0.1877665194422794,-0.7143344591668832,0.04110553066356677,-0.07605505175529753,0.3696419967489803
1589552013.1820793,-0.7727092081985669,-3.5827092081985668,8.966453959007167,0.5811111111111111,0.18666666666666668,-0.7144444444444444,0.036088700119561994,0.028712995182670994,0.26817554625072293
1589552013.1920793,-0.711854103343465,-3.667218844984802,8.795871327254305,0.5811111111111111,0.18666666666666668,-0.7144444444444444,0.05816327415444883,-0.04340003444564672,0.13072838815358995
1589552013.2020793,-0.71,-3.6862580619633603,8.879419340798481,0.5811111111111111,0.18666666666666668,-0.7144444444444444,0.06245182114548222,0.009845618603429904,0.06821564013330264
1589552013.2120793,-0.7452438296718199,-3.7869205315975045,9.014542446433413,0.5811111111111111,0.18666666666666668,-0.7144444444444444,-0.04630021936759246,-0.15874543513074219,0.03724126469023539
1589552013.2220793,-0.7657226280427821,-3.831445256085564,8.857051091529398,0.5924663424753426,0.16832360061675422,-0.7083300890944736,-0.004489125872132786,-0.10007854720298234,0.0040352770684309106
1589552013.2320793,-0.8352971593580014,-4.034715767913505,8.987661506950507,0.5955555555555555,0.16333333333333333,-0.7066666666666667,0.00859416573682714,-0.017774622801819642,-0.09957706046306894
1589552013.2420793,-0.807130481498892,-3.943174064871399,8.853869787119738,0.5955555555555555,0.16333333333333333,-0.7066666666666667,0.0470005147985497,-0.013165860914412936,-0.18637540934256192
1589552013.2520792,-0.5518313540659024,-3.625726840512894,8.879767221684812,0.5955555555555555,0.16333333333333333,-0.7066666666666667,-0.07356137843052098,-0.08332807112264831,-0.47839277856262197
1589552013.2620792,-0.5777290221664231,-3.565298948278346,9.017888118220922,0.5955555555555555,0.16333333333333333,-0.7066666666666667,-0.034011415448026654,-0.07391141326967347,-0.44072614715072256
1589552013.2720792,-0.47949030637870416,-3.4060588648920143,8.89686288297338,0.5866666666666667,0.14888888888888888,-0.7122222222222222,-0.027185409725187418,-0.05846868334844947,-0.8550656848307027
1589552013.2820792,-0.41207815168257156,-3.380779306880964,8.812597689603216,0.5866666666666667,0.14888888888888888,-0.7122222222222222,0.09230937714236359,0.03528876480916748,-0.9800756157075252
1589552013.2920792,-0.5831292808219177,-3.5358276255707763,9.048276255707762,0.5866666666666667,0.14888888888888888,-0.7122222222222222,0.014282287282925915,0.10698313560029346,-0.9930892001522098
1589552013.3020792,-0.6153977210042711,-3.5040482907532033,8.698096581506407,0.5866666666666667,0.14888888888888888,-0.7122222222222222,0.07012307749652177,0.17542621708153877,-1.2934363235867787
1589552013.3120792,-0.6682817696102381,-3.543711327207679,8.777422654415357,0.5866666666666667,0.14888888888888888,-0.7122222222222222,-0.03371450912384788,0.013179987987211206,-1.3547293434668581
1589552013.3220792,-0.8237976929902395,-3.539332903121723,9.113629910462208,0.5522222222222222,0.16666666666666666,-0.7122222222222222,0.1257502545954481,-0.22336918263463024,-1.4187044930107697
1589552013.3320792,-28.395232355605103,-29.941980073852154,8.731030446596531,0.5522222222222222,0.16666666666666666,-0.7122222222222222,-0.920076510935631,-2.0940190534339678,-7.026800615997128
1589552013.3420792,0.30825531357172503,-1.694924528714039,-0.6528215994233164,0.5522222222222222,0.16666666666666666,-0.7122222222222222,-0.3149107588651366,-0.6193602506076048,-5.016643700489155
1589552013.3520792,1.178651128246576,-0.9711216933528474,14.776089473339304,0.5522222222222222,0.16666666666666666,-0.7122222222222222,0.4896270419988037,2.1980211911755605,-4.578895182752005
1589552013.3620791,-2.8183502704474677,-1.5877708572365186,14.499694722176692,0.5522222222222222,0.16666666666666666,-0.7122222222222222,0.8699333026499902,-0.06916150551748768,-3.9062052250559267
1589552013.3720791,-1.8862361308677096,-0.6227474090631984,6.281960170697012,0.5435260899997743,0.19354562080877874,-0.6924582853530221,-0.06078350295419033,-0.6142548601909977,-3.152366319956256
1589552013.3820791,-0.06007677411615512,-2.179988004044351,12.31953935530307,0.54,0.20444444444444448,-0.6844444444444444,0.3315445129789468,0.5747348731095258,-2.2688186323303596
1589552013.392079,-0.2900865422514695,-2.144048977773208,10.939480746491183,0.54,0.20444444444444448,-0.6844444444444444,0.12768685300148722,0.1764283682304893,-1.9410782405204436
1589552013.402079,-0.5308365622347688,-2.8181918151961325,9.890926602457654,0.54,0.20444444444444448,-0.6844444444444444,-0.1484196865415371,0.09065408008237466,-1.1661240297708964
1589552013.412079,-0.3797595858211176,-2.651687461567453,9.178978239739749,0.54,0.20444444444444448,-0.6844444444444444,-0.07382851271575729,0.05644733927220424,-0.9074602519540242
1589552013.422079,-0.1597014302989867,-2.39033589091364,9.06955214544848,0.4933333333333334,0.2977777777777777,-0.6933333333333334,0.04299406659695807,0.0487861228682984,-0.7010418641098192
1589552013.432079,-0.08974104499395355,-2.469041324381802,8.96461156749093,0.4933333333333334,0.2977777777777777,-0.6933333333333334,-0.10677400677590107,-0.02180519833929126,-0.6161414913060965
1589552013.442079,-0.1502392309741156,-2.8354546114918033,8.885980774352891,0.4933333333333334,0.2977777777777777,-0.6933333333333334,-0.07286128393148039,0.05063233482685375,-0.28963906712267345
1589552013.452079,-0.16,-2.65,9.13,0.4933333333333334,0.2977777777777777,-0.6933333333333334,0.06981317007977318,-0.0643590161672909,-0.2683443724941282
1589552013.462079,-0.20273769601737407,-2.655342212002172,8.953707003928333,0.4933333333333334,0.2977777777777777,-0.6933333333333334,-0.06713188843711489,-0.2712334662672707,-1.0480570886456015
1589552013.472079,-0.17106985799358682,-5.868384791571232,8.900262024736602,0.48915574896930836,0.33119845268997805,-0.6884594849086375,0.02537018555818546,0.19572325007462915,-1.8269915277257944
1589552013.482079,-0.9989748658571026,-1.135963004800903,10.209151369669584,0.4866666666666667,0.3511111111111111,-0.6855555555555556,0.4458708441857693,0.17954078114632877,-1.588838855852321
1589552013.492079,-0.5572866285899462,-1.2748493134038157,7.318640580062381,0.4866666666666667,0.3511111111111111,-0.6855555555555556,-0.24664653000996856,-0.09326075162319797,-0.9575253133798114
1589552013.502079,-1.2838655934107077,-2.6418207912142764,8.803923624110821,0.4866666666666667,0.3511111111111111,-0.6855555555555556,0.02294181992207739,0.08665747326919132,-0.4854916443070853
1589552013.512079,-0.8614994567901235,-6.728995555555555,7.608661925925926,0.4866666666666667,0.3511111111111111,-0.6855555555555556,0.22033967319444145,0.1009417206127841,-0.45986695750344075
1589552013.522079,-0.14767102642768726,-2.8614093869422463,8.959164917379837,0.4629588962448643,0.37086758646261314,-0.6855555555555556,-0.015561614981795202,0.03962253908002225,-0.2550989308014606
1589552013.532079,0.11895356099023258,-4.849216107516675,9.04662786340586,0.46,0.37333333333333335,-0.6855555555555556,0.0034120378106844984,0.10995830979277475,-0.051874643022998074
1589552013.542079,0.08027106279502216,-4.531127163495923,8.862396652839363,0.46,0.37333333333333335,-0.6855555555555556,0.08558894554312667,0.02154433704665973,-0.04610121449063873
1589552013.552079,0.13878820334315115,-4.074089813716865,8.977121982939984,0.46,0.37333333333333335,-0.6855555555555556,0.0017845178788130078,0.13296627642627343,-0.12856961459012478
1589552013.562079,0.07318562594114121,-4.130740340053508,8.870667387903687,0.46,0.37333333333333335,-0.6855555555555556,-0.01060118922714703,0.10412202367481613,-0.027109842479091387
1589552013.572079,0.09759547541717997,-4.19253182513906,8.873228431701945,0.44623055130390776,0.38084394171302,-0.6818002513657122,0.015727558884200774,0.022547949133441783,0.009775818032855463
1589552013.582079,0.10684657874890444,-4.129857931962251,8.880681804284462,0.4355555555555555,0.38666666666666666,-0.6788888888888889,-0.0513496456560059,-0.12932235716832458,0.028603330278404962
1589552013.592079,0.12152362826773916,-4.221180336110313,8.908133079574835,0.4355555555555555,0.38666666666666666,-0.6788888888888889,-0.049293345721330976,-0.057376218499891773,-0.06503792593180643
1589552013.602079,0.04139153393351801,-4.113059643351801,8.799170273545705,0.4355555555555555,0.38666666666666666,-0.6788888888888889,-0.05993440934808761,0.00921030582264017,-0.0068504588623416185
1589552013.612079,0.09095156081808396,-4.16385184460319,8.905452979743615,0.4355555555555555,0.38666666666666666,-0.6788888888888889,-0.06826425228093409,-0.03633678065492172,0.09681852799157306
1589552013.622079,0.10637971066261832,-4.205275942132523,8.92803536345776,0.44552856660911666,0.3945400964457939,-0.6788888888888889,0.00542278692623796,-0.04386682767567771,0.010978250359509362
1589552013.632079,0.08913346021172833,-4.190866539788272,8.894355893897941,0.4566666666666666,0.4033333333333333,-0.6788888888888889,0.061551557425661804,-0.01455889948257581,-0.08819905998870103
1589552013.6420789,0.10146200771880318,-4.17,8.901618043739884,0.4566666666666666,0.4033333333333333,-0.6788888888888889,0.03972911003971696,0.014414656329750544,-0.024440458195269184
1589552013.6520789,0.09595968731830222,-4.177979843659151,8.875758123909813,0.4566666666666666,0.4033333333333333,-0.6788888888888889,0.024085732541563168,0.08699112983485999,-0.0005721593851727436
1589552013.6620789,0.08668345739818287,-4.160025186097275,8.880025186097274,0.4566666666666666,0.4033333333333333,-0.6788888888888889,0.04865417473367403,0.03316362870759972,-0.09364935205052843
1589552013.6720788,0.09955435608115439,-4.189108712162309,8.90259059346859,0.44363042927923035,0.3939182729979627,-0.673819241015997,0.02800903607225331,-0.0052597050705986215,-0.04085274896327627
1589552013.6820788,0.09632879286049789,-4.203164396430249,8.872150775011743,0.43666666666666665,0.3888888888888889,-0.6711111111111111,0.015603337788481714,-0.08139975023440837,0.04418607602241046
1589552013.6920788,0.09529261944599368,-4.1735369027700315,8.839414761108012,0.43666666666666665,0.3888888888888889,-0.6711111111111111,0.01026991122647063,-0.037174312524955996,0.09784168071279212
1589552013.7020788,0.1,-4.136879785302708,8.862800536743231,0.43666666666666665,0.3888888888888889,-0.6711111111111111,0.08086242746594595,0.06884512126079712,0.003968457712941964
1589552013.7120788,0.1,-4.1542922941950575,8.916438441292586,0.43666666666666665,0.3888888888888889,-0.6711111111111111,-0.0006179287622809088,0.040659485268440786,-0.04955057757852998
1589552013.7220788,0.1,-4.190779387865655,8.933073537378114,0.4589852684482966,0.3888888888888889,-0.6618758276152642,0.03261250172171386,0.040039871609521854,-0.02264759115799285
