time,acc_x,acc_y,acc_z,mag_x,mag_y,mag_z,gyr_x,gyr_y,gyr_z
1589552599.6172767,0.08,-4.13,8.94,0.4511111111111111,0.3144444444444445,-0.6222222222222222,-0.03926990816987242,0.025089107997418484,-0.07635815477475191
1589552599.6272767,0.07,-4.152259134868288,8.916445190790272,0.4511111111111111,0.3144444444444445,-0.6222222222222222,-0.03968305817692,-0.029097281025192247,0.03722596327389536
1589552599.6372766,0.06925954965822276,-4.16,8.870740450341776,0.4511111111111111,0.3144444444444445,-0.6222222222222222,0.02391836190789716,-0.007877271989644191,-0.0001555541363137767
1589552599.6472766,0.060827100924809,-4.16,8.879172899075192,0.4511111111111111,0.3144444444444445,-0.6222222222222222,-0.0018370871127495608,-0.035472395940337104,-0.17584450995572531
1589552599.6572766,0.050143564356435646,-4.140287128712871,8.919425742574257,0.4511111111111111,0.3144444444444445,-0.6222222222222222,-0.03876877402821068,-0.010224648532568267,-0.06083109661182093
1589552599.6672766,0.07,-4.17,8.908817702508388,0.43666666666666665,0.3144444444444445,-0.6288888888888889,0.04404593097919225,-0.1039018498852364,0.11009321648504251
1589552599.6772766,0.07,-4.17,8.871588645683548,0.43666666666666665,0.3144444444444445,-0.6288888888888889,0.05704132335930235,-0.04379816012722722,0.004505653396648032
1589552599.6872766,0.1085755258126195,-4.16857552581262,8.82643881453155,0.43666666666666665,0.3144444444444445,-0.6288888888888889,0.12197438295120386,0.02805395686418467,-0.045821150020391284
1589552599.6972766,0.09253613766730401,-4.152536137667305,8.78634034416826,0.43666666666666665,0.3144444444444445,-0.6288888888888889,-0.015371244871149298,0.012307324374997687,-0.02132638837054486
1589552599.7072766,0.08091912048347692,-4.140919120483477,8.870808795165232,0.43666666666666665,0.3144444444444445,-0.6288888888888889,0.022345970847709958,0.05538371042278669,-0.01943443310169628
1589552599.7172766,0.10841990259800381,-4.161314926948503,8.965259707794011,0.43666666666666665,0.3089183522726104,-0.6288888888888889,-0.021240486998217855,0.04759517120152365,-0.06768697619858922
1589552599.7272766,0.0896291251315708,-4.130741749736858,8.93517862671042,0.43666666666666665,0.30666666666666664,-0.6288888888888889,0.04387299659475406,0.03558691062171353,-0.011714459531972032
1589552599.7372766,0.08097269518915237,-4.1480546096216955,8.822645037458981,0.43666666666666665,0.30666666666666664,-0.6288888888888889,-0.0014519645942733458,-0.07583695230131217,0.02039072131025571
1589552599.7472765,0.07,-4.141788019105261,8.93178801910526,0.43666666666666665,0.30666666666666664,-0.6288888888888889,0.022705364133746735,0.018970401215693003,-0.012713963475430854
1589552599.7572765,0.07,-4.15708061399351,8.94708061399351,0.43666666666666665,0.30666666666666664,-0.6288888888888889,-0.025671372286467525,0.003956931292178233,-0.1027947830165195
1589552599.7672765,0.07,-4.091018818224435,9.01239100832645,0.4511111111111111,0.30666666666666664,-0.6288888888888889,-0.028121309295023378,0.05291105185189871,0.032108173200119244
1589552599.7772765,0.0781653548958159,-4.019830147604124,8.875334082916677,0.4511111111111111,0.30666666666666664,-0.6288888888888889,0.06308535816864722,-0.023925391629038617,-0.0397813337739337
1589552599.7872765,0.14381771150334755,-4.178589850882532,8.843817711503348,0.4511111111111111,0.30666666666666664,-0.6288888888888889,0.09981242744164714,-0.03038474952443453,0.06616456352760683
1589552599.7972765,0.1757280888618381,-4.2503881999391355,8.87572808886184,0.4511111111111111,0.30666666666666664,-0.6288888888888889,0.00408816720641865,-0.01994210295331869,0.01743221286239962
1589552599.8072765,0.16313306713715292,-4.299356176679977,8.874377689045717,0.4511111111111111,0.30666666666666664,-0.6288888888888889,-0.016086234089209506,-0.00750474155858296,-0.03815561103662116
1589552599.8172765,0.12098062825370967,-4.26228813259199,8.88934624783086,0.441437987195681,0.3136528117166995,-0.6256645142504123,0.035162787531281436,-0.006295388148401209,-0.052089149716088155
1589552599.8272765,0.08204101221640489,-4.166123036649215,8.94183595113438,0.4311111111111111,0.3211111111111111,-0.6222222222222222,0.012646783689843732,0.07958381564362102,-0.027916320554286698
1589552599.8372765,0.06272555571698388,-4.1509085185723285,8.777268148578623,0.4311111111111111,0.3211111111111111,-0.6222222222222222,0.00416511512495281,0.023303862442491604,0.07378419772858226
1589552599.8472764,0.08303791951184077,-4.1576793065039475,8.831434452031575,0.4311111111111111,0.3211111111111111,-0.6222222222222222,0.002687958345439715,0.026258176001517794,0.022083710445623926
1589552599.8572764,0.09,-4.151713907842136,8.916288737262917,0.4311111111111111,0.3211111111111111,-0.6222222222222222,0.11878120622696935,0.06161792225353624,-0.010098635897856218
1589552599.8672764,0.0846899757050808,-4.148937995141017,8.966813985423048,0.4311111111111111,0.3144444444444445,-0.6144444444444445,-0.007027084197879884,0.04327633478927363,0.16666470181150086
1589552599.8772764,0.04038554980458434,-4.140077109960917,8.94023132988275,0.4311111111111111,0.3144444444444445,-0.6144444444444445,0.07996445263369077,0.08580553057359708,0.05550884919338281
1589552599.8872764,0.08111179227559476,-4.148222358455119,8.882443490814167,0.4311111111111111,0.3144444444444445,-0.6144444444444445,0.0825153182462505,-0.014279427307494041,-0.060264242731993274
1589552599.8972764,0.11905854099958234,-4.18,8.89952927049979,0.4311111111111111,0.3144444444444445,-0.6144444444444445,-0.042117792015641045,-0.06756503055640108,0.10649062770140712
1589552599.9072764,0.10446053181122095,-4.18,8.892230265905612,0.4311111111111111,0.3144444444444445,-0.6144444444444445,0.015208456013349587,0.05186465283732941,0.10012104458707483
1589552599.9172764,0.11752692125860166,-4.16,8.913405123356272,0.43666666666666665,0.3144444444444445,-0.6222222222222222,-0.01981480144617987,0.06013665241771908,0.025194827532728985
1589552599.9272764,0.09549456321899458,-4.16,8.854652168583986,0.43666666666666665,0.3144444444444445,-0.6222222222222222,-0.021417039736885645,-0.05522450451309696,-0.061326040165383046
1589552599.9372764,0.059217652958876627,-4.1594784353059175,8.730782347041124,0.43666666666666665,0.3144444444444445,-0.6222222222222222,0.041234935336736646,0.11467071396299502,0.03710794064107303
1589552599.9472764,0.03053410230692076,-4.140356068204613,8.75946589769308,0.43666666666666665,0.3144444444444445,-0.6222222222222222,-0.12668216134307703,0.03957735395711566,-0.04215727269846634
1589552599.9572763,0.0871320365633613,-4.131838280490948,8.849778914599566,0.43666666666666665,0.3144444444444445,-0.6222222222222222,-0.06481656250347811,-0.008116807981215918,0.0008820430930185641
1589552599.9672763,0.092645085768313,-4.137354914231687,8.928839313853496,0.4472904316679923,0.30872395559757676,-0.6271254983766803,-0.0453644358869097,0.053662578316469325,-0.04364786673154452
1589552599.9772763,0.14005747444045316,-4.148342912406743,8.975028737220226,0.4511111111111111,0.30666666666666664,-0.6288888888888889,-0.08185619510943135,0.028666695376143803,-0.16610615944388402
1589552599.9872763,0.1702717123256961,-4.130543424651392,8.88081513697709,0.4511111111111111,0.30666666666666664,-0.6288888888888889,0.04002888732437092,0.016658853906299842,-0.038629485882915114
1589552599.9972763,0.17654037573420617,-4.143080751468412,8.899621127202618,0.4511111111111111,0.30666666666666664,-0.6288888888888889,0.007206242471033623,0.023496904917411778,-0.07418735114069719
1589552600.0072763,0.18,-4.122677714784126,8.930491713911906,0.4511111111111111,0.30666666666666664,-0.6288888888888889,-0.037731898610425814,-0.06214119972245949,-0.004399478009824334
1589552600.0172763,0.1603669887421328,-4.129633011257867,8.949816505628933,0.4445667740251554,0.30666666666666664,-0.6147094918693181,0.02477880962129659,0.007735799435377985,-0.17600386907527163
1589552600.0272763,0.11689698335210916,-4.1644824133183125,8.881035173363374,0.4444444444444444,0.30666666666666664,-0.6144444444444445,0.005491975933605262,-0.005228314118484392,0.01466784403290769
1589552600.0372763,0.09020191643162673,-4.183198722378916,8.81060574929488,0.4444444444444444,0.30666666666666664,-0.6144444444444445,-0.04820984274691773,0.05715326149498133,0.012700475745595588
1589552600.0472763,0.07139745587649042,-4.19,8.78,0.4444444444444444,0.30666666666666664,-0.6144444444444445,0.05344481794307322,-0.014560948355126557,-0.15169086615200536
1589552600.0572762,0.06218102687278028,-4.18218102687278,8.834732811890538,0.4444444444444444,0.30666666666666664,-0.6144444444444445,0.10658736419355765,-0.01969324548783983,-0.05706820159382385
1589552600.0672762,0.05226177943662871,-4.18,8.94,0.4266666666666667,0.30666666666666664,-0.6144444444444445,0.05157036759736842,-0.0416647109778165,0.007524564448297245
1589552600.0772762,0.08571234886911028,-4.18,8.94,0.4266666666666667,0.30666666666666664,-0.6144444444444445,0.03989391613209293,0.003581538450126022,-0.10705061555471848
1589552600.0872762,0.09048697442394489,-4.170486974423945,8.844869744239448,0.4266666666666667,0.30666666666666664,-0.6144444444444445,-0.03358228243815758,-0.08293898512455178,-0.06778344226617875
1589552600.0972762,0.12328128831848278,-4.153359355840759,8.873281288318484,0.4266666666666667,0.30666666666666664,-0.6144444444444445,-0.02438175778225024,-0.08291165531537183,-0.01607265547217148
1589552600.1072762,0.16392159328086103,-4.1669607966404305,8.973284381522369,0.4266666666666667,0.30666666666666664,-0.6144444444444445,0.011485830677950209,-0.08921285231565182,0.15719204308376133
1589552600.1172762,0.17,-4.177715949878565,8.966852150364305,0.4343826165452318,0.31266796101666183,-0.6144444444444445,0.07300414376861832,-0.01142107589606263,0.05438837220019732
1589552600.1272762,0.13438834399431415,-4.11767960199005,8.862067945984364,0.43666666666666665,0.3144444444444445,-0.6144444444444445,-0.03680232024199061,-0.08123195880056358,-0.1857579228311027
1589552600.1372762,0.14805485102045654,-4.046808021428403,8.705561191836347,0.43666666666666665,0.3144444444444445,-0.6144444444444445,-0.026756654113377878,-0.025758339806093516,0.01497497317962665
1589552600.1472762,0.13042775493314712,-4.030213877466574,8.738930612667133,0.43666666666666665,0.3144444444444445,-0.6144444444444445,-0.15743582347421897,-0.17546667770337304,0.03286490594942616
1589552600.1572762,0.1453512423693692,-4.006973136445946,8.816756211846846,0.43666666666666665,0.3144444444444445,-0.6144444444444445,-0.07076312369249513,-0.12782214476489995,-0.07779608751717988
1589552600.1672761,0.11282716243894753,-3.8698950685363163,8.886466046951316,0.43150377256096495,0.32063991737128655,-0.6216724961924269,-0.025386057331906808,-0.08802600530653307,-0.21365166041258815
1589552600.1772761,0.14117637820009424,-3.8522059054499764,8.95235275640019,0.4311111111111111,0.3211111111111111,-0.6222222222222222,-0.00019257009573205724,-0.16184377230321673,-0.19933334937896127
1589552600.1872761,0.1616147212345866,-3.86742208185188,8.964192639382707,0.4311111111111111,0.3211111111111111,-0.6222222222222222,-0.03146410166342811,-0.12307851805859377,-0.11769236055769912
1589552600.197276,0.19962840875037458,-3.8651857956248126,8.967407102187595,0.4311111111111111,0.3211111111111111,-0.6222222222222222,-0.050824967179484634,-0.0036796334141957904,-0.21840217083101499
1589552600.207276,0.20397094014151188,-3.902203419009417,9.000145299292441,0.4311111111111111,0.3211111111111111,-0.6222222222222222,-0.09140266937865107,0.008438741449489901,-0.3055911160398769
1589552600.217276,0.1849938391827974,-3.9149938391827974,8.892447633053777,0.4411152183225795,0.326946840317801,-0.6272242758279565,-0.090526858210916,-0.03382919507548997,-0.23640027383587975
1589552600.227276,0.13645331798199706,-3.8975580908519993,8.769127590537995,0.4444444444444444,0.3288888888888889,-0.6288888888888889,-0.13025934174930975,-0.09833353117442578,-0.20888142139016289
1589552600.237276,0.019530375537350972,-3.7913058642225645,8.621305864222565,0.4444444444444444,0.3288888888888889,-0.6288888888888889,-0.16752936511750643,-0.10847081861667654,-0.3029373071873565
1589552600.247276,-0.02394454477849782,-3.5784436417720173,8.839445447784978,0.4444444444444444,0.3288888888888889,-0.6288888888888889,-0.1777852534593674,-0.13932550124407195,-0.2671644257154839
1589552600.257276,0.15759956631731115,-3.4752834598241176,9.298649078424287,0.4444444444444444,0.3288888888888889,-0.6288888888888889,0.030620951243548744,0.045201762125786915,-0.1550163711307634
1589552600.267276,0.12002736310844911,-2.6402493083214256,9.83986926514852,0.4266720717251258,0.3288888888888889,-0.6222242491191444,0.09599111895828805,0.25629747625306537,-0.13417019634566402
1589552600.277276,0.018235358591209658,-2.5738529830842864,9.056412261152314,0.4266666666666667,0.3288888888888889,-0.6222222222222222,0.044929427287214004,0.0976037889983237,0.12225630164949072
1589552600.287276,0.008643856920684284,-2.554321928460342,8.477287713841369,0.4266666666666667,0.3288888888888889,-0.6222222222222222,-0.028537185082059303,-0.04112805273607516,0.22797164514746746
1589552600.297276,0.16433951219512194,-2.712102299651568,9.16169756097561,0.4266666666666667,0.3288888888888889,-0.6222222222222222,-0.021587290332532934,-0.026309318152166437,0.3047194970267598
1589552600.307276,0.14892957342671664,-2.776605639859925,9.201161966783395,0.4266666666666667,0.3288888888888889,-0.6222222222222222,-0.01794032519836454,0.06133696521773663,0.44864873099011904
1589552600.317276,0.1308360394402787,-2.817491881679164,8.887589301529196,0.4266666666666667,0.332961760248765,-0.6283315292620365,-0.08142980623595909,-0.0037913405959272006,0.6213697898574564
1589552600.327276,0.25537083784108666,-2.8356713547301355,9.063727611491766,0.4266666666666667,0.3333333333333333,-0.6288888888888889,-0.042819992627777095,-0.035931853207736064,0.5730861583226006
1589552600.337276,0.29,-2.848531974354759,9.000552359033373,0.4266666666666667,0.3333333333333333,-0.6288888888888889,-0.07521657516578062,-0.02578990804640684,0.5879672959627742
1589552600.347276,0.1847240852646258,-2.971472209310047,8.971901852712664,0.4266666666666667,0.3333333333333333,-0.6288888888888889,0.04430226065819126,-0.0794431798226131,0.7117836374637772
1589552600.357276,0.16,-2.967938513006864,9.002061486993137,0.4266666666666667,0.3333333333333333,-0.6288888888888889,-0.033542370179986486,0.013599300599757835,0.705309086726769
1589552600.367276,0.19173367861523785,-2.9182663213847624,8.964466062423334,0.44077052382899456,0.3298073690427514,-0.6403482728332803,0.023883202521497976,-0.053263005757768406,0.6913249732115734
1589552600.377276,0.17837241545602509,-2.9820919484799164,8.892326441216067,0.4444444444444444,0.3288888888888889,-0.6433333333333333,0.11352162655385384,-0.08774843414866085,0.642347872279143
1589552600.387276,0.1076335241482799,-3.08795809481465,8.80763352414828,0.4444444444444444,0.3288888888888889,-0.6433333333333333,-0.03797628580356832,-0.06454634830300557,0.6279667221795923
1589552600.397276,0.05712271826515652,-3.1264386408674216,8.877672751292915,0.4444444444444444,0.3288888888888889,-0.6433333333333333,0.03407188481892816,-0.04346861108784186,0.6072935050743967
1589552600.407276,0.021047999742110184,-3.153428000386835,8.96790400051578,0.4444444444444444,0.3288888888888889,-0.6433333333333333,0.13124265101319735,-0.0013622286091077157,0.7042770084135108
1589552600.417276,0.015113053156625512,-3.17,8.984886946843375,0.4353545721659991,0.3215033676626521,-0.6359478121070965,0.10922153149198566,-0.0008139242978163139,0.7633802981580118
1589552600.427276,0.013262757270073533,-3.217160699109485,8.892415844510955,0.4266666666666667,0.3144444444444445,-0.6288888888888889,0.012258514732996426,-0.06833385956178173,0.6942397690878137
1589552600.437276,-0.01880017395085888,-3.2616001304631443,8.842799956512286,0.4266666666666667,0.3144444444444445,-0.6288888888888889,0.003665371692592033,-0.11619548944624777,0.8531615013857905
1589552600.4472759,-0.07713660197848532,-3.3171366019784854,8.90284880263798,0.4266666666666667,0.3144444444444445,-0.6288888888888889,0.10353929447666305,-0.009599534960620076,0.8804605958832707
1589552600.4572759,-0.09667864506627394,-3.2498562592047127,8.946714580265096,0.4266666666666667,0.3144444444444445,-0.6288888888888889,0.008877274086432421,0.012708066159302013,0.8846872841372557
1589552600.4672759,-0.16789673569038793,-3.1647355095397414,8.801574283389096,0.4501371432016156,0.31276798183480525,-0.6397858958515438,-0.010677496356383154,-0.05655285393501225,1.0508574911716888
1589552600.4772758,-0.16614526717018424,-3.189757888049693,8.948789440248465,0.4577777777777778,0.31222222222222223,-0.6433333333333333,-0.06894370857091808,-0.06530562968038552,1.0516543499085662
1589552600.4872758,-0.25299664241745945,-3.285246922216005,8.89150391717963,0.4577777777777778,0.31222222222222223,-0.6433333333333333,-0.016255942447270216,0.029121885593704357,0.9361819413836974
1589552600.4972758,-0.24958749293652288,-3.3480156338293465,8.852396873234131,0.4577777777777778,0.31222222222222223,-0.6433333333333333,0.0441732017832639,0.029092450805133865,1.098894793745399
1589552600.5072758,-0.21248432031601927,-3.365503135936796,8.883018815620776,0.4577777777777778,0.31222222222222223,-0.6433333333333333,0.020705260209097458,-0.048908900061955946,1.1403435535373494
1589552600.5172758,-0.21742837536455653,-3.388285583576371,8.937428375364556,0.4603174421633849,0.2944445715229726,-0.6463809305960618,0.012217155053096349,-0.06292565940396938,1.11766526964949
1589552600.5272758,-0.2329023609145751,-3.414274409771356,8.944353541371862,0.4633333333333333,0.2733333333333333,-0.65,0.0398858412582389,-0.05209799530561246,1.130823131474651
1589552600.5372758,-0.21858809085328423,-3.428588090853284,8.91,0.4633333333333333,0.2733333333333333,-0.65,0.08063743906913104,-0.08988472433057046,1.0906971908812884
1589552600.5472758,-0.23,-3.444477950176994,8.901044099646013,0.4633333333333333,0.2733333333333333,-0.65,0.07558884967646667,-0.059929904685285654,1.0206936147071761
1589552600.5572758,-0.23590182018753447,-3.4677054605626036,8.887049089906233,0.4633333333333333,0.2733333333333333,-0.65,0.02675273023327216,-0.08095492652228248,1.0523478609032548
1589552600.5672758,-0.33852965403624385,-3.533607907742998,8.950823723228995,0.4600544572579169,0.2733333333333333,-0.6545904265055831,0.06337511196067343,-0.19570798139408818,1.194699617722356
1589552600.5772758,-0.393057175896184,-3.452800462546576,8.979171527688552,0.4577777777777778,0.2733333333333333,-0.6577777777777778,0.004376049255522339,-0.08242072400611086,1.2206243686566678
1589552600.5872757,-0.39,-3.389191079714662,8.850348708359306,0.4577777777777778,0.2733333333333333,-0.6577777777777778,0.006468908332490059,-0.03434519134608985,1.1684440839309762
1589552600.5972757,-0.3950279073053554,-3.3498883707785785,8.81541860958033,0.4577777777777778,0.2733333333333333,-0.6577777777777778,0.014089473729239407,-0.0600687541918767,1.1245247681628934
1589552600.6072757,-0.42843789542430305,-3.341375158169721,8.872937262745419,0.4577777777777778,0.2733333333333333,-0.6577777777777778,-0.002181661564992912,-0.061918127008694396,1.0147304750241015
1589552600.6172757,-0.4900262828936825,-3.410039424340524,8.920039424340523,0.47927337414660726,0.25554387426947445,-0.6622251425437424,0.07786515783213076,-0.12985903594867165,0.9734013925248686
1589552600.6272757,-0.5358325147347741,-3.4464581286836937,9.053330058939096,0.49,0.2466666666666667,-0.6644444444444444,0.047362468854655185,-0.012299505506988051,0.99738258828159
1589552600.6372757,-0.569757799342369,-3.38414066885877,8.879492341005694,0.49,0.2466666666666667,-0.6644444444444444,-0.014262597171542402,0.017049381562947052,0.939625486602841
1589552600.6472757,-0.5983275742916379,-3.337781617138908,8.88218382861092,0.49,0.2466666666666667,-0.6644444444444444,-0.02218148233875309,-0.011999138607461015,0.9524626293279161
1589552600.6572757,-0.6272215158383548,-3.347221515838355,8.968610757919178,0.49,0.2466666666666667,-0.6644444444444444,9.009349267784933e-05,-0.027967034265529538,1.117944461330336
1589552600.6672757,-0.6575288982848569,-3.377528898284857,8.98,0.4920913606346825,0.23913776838180972,-0.6744829754909204,0.013860807768804833,-0.030198050995305013,1.2319759614111583
1589552600.6772757,-0.65819266284003,-3.39,9.00361467431994,0.4955555555555556,0.22666666666666666,-0.6911111111111111,-0.018566137739494375,-0.03668993592883841,1.1091557414609967
1589552600.6872756,-0.6500848048753626,-3.39,9.037983039024926,0.4955555555555556,0.22666666666666666,-0.6911111111111111,-0.016406713289069827,-0.08082123411749145,1.0554266578390454
1589552600.6972756,-0.6442617753623188,-3.195612545289855,8.835612545289855,0.4955555555555556,0.22666666666666666,-0.6911111111111111,0.021793766499706983,-0.04005690700887461,1.034944848776131
1589552600.7072756,-0.631658757244694,-3.0662440679335203,8.901172883135766,0.4955555555555556,0.22666666666666666,-0.6911111111111111,-0.0038204960910254715,-0.038274725265111775,1.1535406107285626
1589552600.7172756,-0.6693030163158,-3.10702422284212,9.02981215757892,0.5058504975906489,0.2163717246315733,-0.6911111111111111,0.035871780592682534,-0.002845433267336432,1.0740585121686634
1589552600.7272756,-0.7253031654034775,-3.1162624461286965,8.933131223064349,0.5222222222222223,0.2,-0.6911111111111111,0.08116768264969561,0.019436532792355483,0.9546783144643894
1589552600.7372756,-0.7739371950897339,-3.079291463393156,8.91,0.5222222222222223,0.2,-0.6911111111111111,0.07082671150814251,-0.015434989487921508,1.0368390486752397
1589552600.7472756,-0.8254729158663081,-3.1210388013830195,8.794713023434499,0.5222222222222223,0.2,-0.6911111111111111,0.012017661358358564,-0.05847364255631118,1.0266357890599638
1589552600.7572756,-0.9179340045393702,-3.2505420085743664,8.873692021183729,0.5222222222222223,0.2,-0.6911111111111111,-0.10567947205846677,-0.05888173323105901,1.0082121321349502
1589552600.7672756,-0.9371642411642411,-3.2386569646569647,8.984365904365905,0.5152446292446292,0.18985077385077387,-0.7145811965811966,-0.06505524288293833,-0.026025272128425838,1.0446738994403357
1589552600.7772756,-0.8672562215730504,-3.0750611988314906,8.999115667640424,0.51,0.18222222222222226,-0.7322222222222222,0.03487988201218947,0.020938521677212874,1.0287399908812245
1589552600.7872756,-0.86193901385467,-3.052908520782005,8.970394842095159,0.51,0.18222222222222226,-0.7322222222222222,0.07656966837478801,-0.023600834085613247,1.0732875094384113
1589552600.7972755,-0.9373692201518289,-3.1722820335863813,8.718066712675409,0.51,0.18222222222222226,-0.7322222222222222,0.003270836151684331,-0.06340133348996874,0.9243021010594905
1589552600.8072755,-0.9800333274520182,-3.230033327452018,8.845374933835206,0.51,0.18222222222222226,-0.7322222222222222,0.026296273533718793,-0.03271219936119638,0.8159850508400256
1589552600.8172755,-1.018702905129369,-3.175188379482524,8.995188379482524,0.49337519544056085,0.16767551823271298,-0.735339373077117,0.006225608455891027,-0.011827999983221186,0.7135906248727364
1589552600.8272755,-1.0458602204915546,-3.1368817639324362,8.96274198442399,0.4744444444444445,0.1511111111111111,-0.7388888888888889,-0.04868854296709679,-0.013348030803961637,0.6356318521752824
1589552600.8372755,-1.0599869163623583,-3.165006541818821,8.920104669101134,0.4744444444444445,0.1511111111111111,-0.7388888888888889,0.014142265678799764,-0.021820897260335134,0.66325223262375
1589552600.8472755,-1.103895108840911,-3.179368633623378,8.902948059275978,0.4744444444444445,0.1511111111111111,-0.7388888888888889,0.04152044112273061,-0.017487728213875932,0.6509504915989232
1589552600.8572755,-1.1497400023780269,-3.209740002378027,8.984610003567042,0.4744444444444445,0.1511111111111111,-0.7388888888888889,0.0052708860401426,0.010199274301404587,0.5977981610794435
1589552600.8672755,-1.1673666582551443,-3.2384166456378614,9.011049987382716,0.4768999971961593,0.14783704077549137,-0.744209253184271,0.0007962706865875385,0.025321833245226914,0.5315218440993862
1589552600.8772755,-1.1884043515034852,-3.2742021757517428,9.017393472744772,0.4811111111111111,0.14222222222222222,-0.7533333333333333,-0.0022983579020943445,0.038109848589793424,0.5163921723028944
1589552600.8872755,-1.1886293439609708,-3.257258687921942,9.007580437359353,0.4811111111111111,0.14222222222222222,-0.7533333333333333,-0.08154837534637456,0.05475352903502126,0.4941112470518367
1589552600.8972754,-1.1762558934676983,-3.2074882130646034,8.999147021774338,0.4811111111111111,0.14222222222222222,-0.7533333333333333,-0.059246186092239764,0.011916379158495655,0.4343266919312938
1589552600.9072754,-1.238170426464727,-3.166361737744121,8.85956349143085,0.4811111111111111,0.14222222222222222,-0.7533333333333333,-0.003460676961238175,0.0003107541690303556,0.269274130742428
1589552600.9172754,-1.3184121163810283,-3.1797353527301717,8.732514149063372,0.4811111111111111,0.14222222222222222,-0.7533333333333333,-0.07494359637143168,-0.09305469159122237,0.35607481859766305
1589552600.9272754,-1.3817779206859593,-3.2582220793140406,8.985832797427653,0.5133333333333333,0.07444444444444444,-0.7833333333333333,0.020228328617339857,0.0885872914867496,0.4237037428154892
1589552600.9372754,-1.438949412183826,-3.2557328108300676,8.857483790523691,0.5133333333333333,0.07444444444444444,-0.7833333333333333,-0.08571015368709026,0.009177978953520408,0.4538846624356822
1589552600.9472754,-1.490433384155893,-3.243033689091251,8.78130015246768,0.5133333333333333,0.07444444444444444,-0.7833333333333333,-0.11510979358561037,0.011911606038561257,0.40406794935718915
1589552600.9572754,-1.5205101044086045,-3.177365473528837,8.90835768087,0.5133333333333333,0.07444444444444444,-0.7833333333333333,-0.09612577778834573,0.011906178012438748,0.5965358336714198
1589552600.9672754,-1.5787602582339426,-3.1338012911697124,9.059172776014881,0.5123966881861619,0.06289248762932972,-0.7749035270087902,-0.021474052530795207,-0.06464738985921688,0.5148542253425537
1589552600.9772754,-1.5335398101861915,-2.99,8.726955734260669,0.51,0.03333333333333333,-0.7533333333333333,-0.04126237543701003,-0.053045291989779295,0.6034746482452875
1589552600.9872754,-1.5324956071395543,-3.0441593452325906,8.934548922593175,0.51,0.03333333333333333,-0.7533333333333333,-0.06254224269443612,-0.056277153496177665,0.6581377666844601
1589552600.9972754,-1.5289287470438102,-3.033036036246985,8.849644554756832,0.51,0.03333333333333333,-0.7533333333333333,-0.011609798836051337,-0.033776623605300676,0.5500129619045274
1589552601.0072753,-1.5415714100289881,-3.0446666378228704,8.79171418682127,0.51,0.03333333333333333,-0.7533333333333333,0.0863054667794771,-0.030938052698443266,0.5878850162251316
1589552601.0172753,-1.621657135791784,-3.1622095143890454,9.171352353868505,0.5105862432554034,0.013401062649617563,-0.7580232793765606,0.0956773003496309,0.016965013314931665,0.7068645850007272
1589552601.0272753,-1.6063537500877008,-3.1064723216165016,8.887183750789308,0.5111111111111111,-0.004444444444444445,-0.7622222222222222,-0.0053377465862929074,-0.012178073734765909,0.7127997126983393
1589552601.0372753,-1.58,-3.05,8.65,0.5111111111111111,-0.004444444444444445,-0.7622222222222222,-0.03490658503988659,-0.035997415822383035,0.7275841319251362
1589552601.0472753,-1.585810337187286,-3.0942392136325183,8.972144382226162,0.5111111111111111,-0.004444444444444445,-0.7622222222222222,-0.006762685041290118,-0.10618885893022412,0.5693132995509629
1589552601.0572753,-1.5209824263292044,-2.970780753923892,8.80528954075929,0.5111111111111111,-0.004444444444444445,-0.7622222222222222,-0.06036118939527341,-0.14855883115869142,0.7364839414135593
1589552601.0672753,-1.5459898045879354,-2.927017841971113,8.749022939677145,0.5111111111111111,-0.004444444444444445,-0.7622222222222222,-0.0835481846903063,-0.04967311592987472,0.761716848058154
1589552601.0772753,-1.7344657159601484,-3.10708667057368,9.076693364589438,0.5066666666666667,-0.09555555555555556,-0.76,0.04464926591031791,-0.08066870149844778,0.7715252847879378
1589552601.0872753,-1.7296442080820942,-3.08274034680349,8.705124901689075,0.5066666666666667,-0.09555555555555556,-0.76,0.019666125347699577,-0.06740236092259186,0.8136121598467283
1589552601.0972753,-1.7782153622741974,-3.1593768839798457,8.91991528966534,0.5066666666666667,-0.09555555555555556,-0.76,0.07198052692637036,0.008124144001769959,0.6957553654560479
1589552601.1072752,-1.743690309355979,-3.0905354640339686,8.811927670522287,0.5066666666666667,-0.09555555555555556,-0.76,-0.07700602735248804,-0.07450895143586195,0.6963993175890764
1589552601.1172752,-1.755186440677966,-3.0651468926553673,9.042101694915255,0.4978694287507847,-0.09995417451349656,-0.730224733207784,-0.09758744741015046,-0.07005105747075828,0.6807554443499987
1589552601.1272752,-1.5977841994294928,-2.7984090288974324,8.80062482946794,0.4777777777777778,-0.11,-0.6622222222222223,0.0041153123411389325,-0.010834142695984712,0.6443275919630282
1589552601.1372752,-1.652556753038294,-2.8801618894748913,8.762815409309791,0.4777777777777778,-0.11,-0.6622222222222223,0.0017509322351467946,0.05813880438861424,0.6740169115492196
1589552601.1472752,-1.788327723378213,-2.994514993880049,8.722842717258262,0.4777777777777778,-0.11,-0.6622222222222223,0.02827030835622584,0.03049586350992692,0.7221955680520543
1589552601.1572752,-1.861276717922542,-3.0944043897147964,8.898808779429592,0.4777777777777778,-0.11,-0.6622222222222223,0.10954487000884064,-0.028519521294661218,0.7697480511182323
1589552601.1672752,-1.8659236561022587,-3.1025512169497462,9.056744878305025,0.4766536313936069,-0.10100682892663282,-0.6599739294538804,0.047740607441830535,-0.06044990343842162,0.6686280802727248
1589552601.1772752,-1.74,-2.946970946054106,9.166722026572755,0.4744444444444445,-0.08333333333333333,-0.6555555555555556,0.018430971654119326,-0.041311265183282826,0.7775179717906144
1589552601.1872752,-1.803756461803561,-2.986944284893739,9.292751292360713,0.4744444444444445,-0.08333333333333333,-0.6555555555555556,0.023083508149761303,-0.05291688420293118,0.8592212800642274
1589552601.1972752,-1.9312304428533544,-3.112460885706709,9.188456642800318,0.4744444444444445,-0.08333333333333333,-0.6555555555555556,-0.044591384352599975,-0.0719971457912153,0.7376700499557126
1589552601.2072752,-1.855256538397468,-3.0177448775612192,8.88990671331001,0.4744444444444445,-0.08333333333333333,-0.6555555555555556,-0.12744734985010703,-0.17937120401120288,0.7072518947450585
1589552601.2172751,-1.7271614192903548,-2.895472263868066,8.936486756621688,0.4744444444444445,-0.08333333333333333,-0.6555555555555556,-0.08108236245147071,-0.07838445063609092,0.6469138974454632
1589552601.2272751,-1.74,-2.9370704957067613,9.203544267263151,0.49,-0.05666666666666665,-0.6411111111111111,0.03479804505510682,0.017522320487058485,0.6946027738814154
1589552601.2372751,-1.74,-2.8538442528320944,9.097619958149938,0.49,-0.05666666666666665,-0.6411111111111111,-0.10633252627494139,-0.017141328611549853,0.6929521239243388
1589552601.247275,-1.966401384083045,-2.966401384083045,8.827837370242214,0.49,-0.05666666666666665,-0.6411111111111111,0.04244048899096938,0.015939717627967247,0.48273602801592297
1589552601.257275,-2.065354671280277,-3.065354671280277,9.116451124567474,0.49,-0.05666666666666665,-0.6411111111111111,0.035244402877372516,-0.05242310045120295,0.46654483426033005
1589552601.267275,-1.7761285763234538,-2.7931364570841186,9.033648278225117,0.49,-0.054590257552395625,-0.6394240287057659,0.08237631884683233,0.12384218506188627,0.5280408228103691
1589552601.277275,-1.5245737862214546,-2.5908071387449625,8.908116676261754,0.49,-0.03888888888888889,-0.6266666666666667,-0.03873175661054754,-0.14586796043886704,0.4468541514720511
1589552601.287275,-1.7704203746667129,-2.723397624571488,9.104238373904913,0.49,-0.03888888888888889,-0.6266666666666667,-0.06308476233414162,-0.16461416131381706,0.3990166762032313
1589552601.297275,-1.9705540047240713,-2.9763989692935366,9.737839811037148,0.49,-0.03888888888888889,-0.6266666666666667,0.022608328779591565,-0.03891644807736926,0.22154733372611884
1589552601.307275,-1.969842717651874,-2.832722329415892,8.879370870607497,0.49,-0.03888888888888889,-0.6266666666666667,-0.048796356687489245,0.018937455082575133,0.3662677218263341
1589552601.317275,-1.8912143688674539,-2.779205388325295,8.760959587560286,0.49319840345917176,-0.03748958737550123,-0.6266666666666667,-0.10040222039637645,-0.13642742854802584,0.32223827052573417
1589552601.327275,-1.9026118417951257,-2.864462593692547,9.19111936076934,0.5077777777777778,-0.031111111111111114,-0.6266666666666667,-0.033607389276921765,-0.015952211042931368,0.30539839725929846
1589552601.337275,-2.0432523460386287,-2.9960334982870194,9.213252346038628,0.5077777777777778,-0.031111111111111114,-0.6266666666666667,0.03612009163322801,0.06158385282073548,0.34618628172278637
1589552601.347275,-1.8766493437712055,-2.8363722877807387,9.046649343771204,0.5077777777777778,-0.031111111111111114,-0.6266666666666667,0.03914901968872189,0.08732974129243341,0.2818215605435415
1589552601.357275,-1.6848817992869092,-2.6253699792156002,8.567826255935381,0.5077777777777778,-0.031111111111111114,-0.6266666666666667,0.022507216472805684,-0.03705910445196839,0.06991631966085517
1589552601.367275,-1.7557566028489835,-2.703332263133882,8.971812636239205,0.5077777777777778,-0.031111111111111114,-0.6266666666666667,0.0008597395927136264,0.010874594353949739,0.008066385717734992
1589552601.377275,-1.6775668891007307,-2.717754051477598,9.108395932634254,0.52,-0.031111111111111114,-0.6133333333333333,0.0008341891837165463,-0.17338673830763726,-0.028034940373689338
1589552601.387275,-1.4958530317554202,-2.5345724133711327,8.673721523118028,0.52,-0.031111111111111114,-0.6133333333333333,-0.025760390190322273,0.017825965042176133,-0.11353405762329433
1589552601.397275,-1.2121947741282546,-2.277093568865581,9.152085288434998,0.52,-0.031111111111111114,-0.6133333333333333,0.10999059847696406,0.06090918478284586,-0.5112521849557837
1589552601.407275,-0.3069461604004686,-2.0149962722334647,8.11714213441261,0.52,-0.031111111111111114,-0.6133333333333333,-0.03165114236939492,-0.05444493397031798,-0.9589495848743836
1589552601.417275,-1.3565332770075655,-3.0653777026767544,9.970688966550174,0.5205827156700846,-0.03300493703888612,-0.6197432057042641,0.12941859545819207,0.286330994507983,-0.9219241043334537
1589552601.427275,-1.8880894043550058,-3.7741192058066746,9.237785821268098,0.5241622182111448,-0.044638320297331786,-0.6591177336559264,0.06001376951807036,-0.03872958267992893,-1.070397719319284
1589552601.437275,-1.221113982725848,-3.625554406909661,8.73447143762297,0.5244444444444445,-0.045555555555555564,-0.6622222222222223,-0.061563569035450266,0.06944241784263029,-1.3376100302738858
1589552601.447275,-1.2560816353753292,-3.6115673458498683,9.063167372528095,0.5244444444444445,-0.045555555555555564,-0.6622222222222223,0.03303303488076105,-0.017525427693241405,-1.4482270267888102
1589552601.457275,-1.2073958221516132,-3.43,8.998138431481998,0.5244444444444445,-0.045555555555555564,-0.6622222222222223,0.029249365503088057,0.0483506253759907,-1.7266942163687902
1589552601.467275,-1.4835020257826887,-3.4388132596685086,9.220282136279927,0.5259133210558625,-0.0442498874565173,-0.6602637200736649,0.04434839844271042,0.24112342356414015,-1.9705264657781625
1589552601.477275,-1.62,-3.49,9.28,0.5344444444444445,-0.03666666666666667,-0.6488888888888888,-0.002181661564992912,0.15271630954950385,-2.1063942410006566
1589552601.487275,-1.7432530060986149,-3.5960549122243894,9.133816202069085,0.5344444444444445,-0.03666666666666667,-0.6488888888888888,-0.03469935924199203,0.12551400476201421,-2.066059789074379
1589552601.4972749,-1.930223172314993,-3.7343804002327974,8.939440390383668,0.5344444444444445,-0.03666666666666667,-0.6488888888888888,-0.04201441927525405,0.06227546442197097,-1.9602596157625993
1589552601.5072749,-1.6532961133777109,-3.4233519433111446,9.283519433111445,0.5344444444444445,-0.03666666666666667,-0.6488888888888888,0.10952179975611237,0.07211874177659788,-1.9432652641535149
1589552601.5172749,-1.6928177631993944,-3.4035911184003025,9.048204440799848,0.5418261878228446,-0.03806321271122886,-0.6510834612446295,-0.005881802516104019,0.062454655305853195,-1.9324217659824783
1589552601.5272748,-1.66,-3.42,9.04,0.5755555555555556,-0.04444444444444445,-0.6611111111111111,-0.10253809355466686,0.03381575425739013,-1.9449512851911808
1589552601.5372748,-1.5023046088064793,-3.5398484973070756,8.926459318340665,0.5755555555555556,-0.04444444444444445,-0.6611111111111111,-0.1610245491250492,0.054458032693995656,-2.037153462208019
1589552601.5472748,-1.3815437250326306,-3.6289708499782463,8.755660325119646,0.5755555555555556,-0.04444444444444445,-0.6611111111111111,-0.09696227121649777,0.1586289204447337,-1.961785190505748
1589552601.5572748,-1.2731655891694638,-3.5290169621336696,9.03,0.5755555555555556,-0.04444444444444445,-0.6611111111111111,-0.08812432497167863,0.1436181817548357,-2.1281585180033504
1589552601.5672748,-1.3636816780693182,-3.673444101947222,9.014798135478534,0.5865346799321689,-0.055930297638439895,-0.6552837297112164,0.000766968609721589,0.1266451996131625,-2.1042592438003913
1589552601.5772748,-1.5055834147808436,-4.0203150139087285,8.857129539132396,0.7004064439599361,-0.1750576815444119,-0.5948441011118629,-0.08178811538741941,0.10514647982224037,-1.9916059520959588
1589552601.5872748,-1.5778322609274462,-4.304055913024184,8.87986021743954,0.72,-0.1955555555555556,-0.5844444444444444,0.04198548868454076,0.024906133053649394,-1.8306050149743358
1589552601.5972748,-1.4717788471177946,-4.290889423558897,8.84,0.72,-0.1955555555555556,-0.5844444444444444,0.06403958592010572,-0.018033034906943468,-1.7246933362734689
1589552601.6072748,-1.3080360938140871,-4.22374734330139,8.85669320258026,0.72,-0.1955555555555556,-0.5844444444444444,0.04156968646525683,0.009563875866851361,-1.7942614666397128
1589552601.6172748,-1.292396808232969,-4.333222342369216,8.989627130019763,0.72,-0.1955555555555556,-0.5844444444444444,-0.00960975591915219,0.02491770858217407,-1.7669657640346947
1589552601.6272748,-1.4093511988716503,-4.482507757404796,8.879351198871651,1.3777777777777778,-0.4488888888888889,-0.13111111111111112,-0.11118104278421846,0.09483150485293942,-1.6082227463278334
1589552601.6372747,-1.3354037376586743,-4.31242859661495,8.805403737658676,1.3777777777777778,-0.4488888888888889,-0.13111111111111112,-0.1265072345101481,0.08676508815508174,-1.4727069458038244
1589552601.6472747,-1.2686681575350975,-4.378013417815877,8.877991054789414,1.3777777777777778,-0.4488888888888889,-0.13111111111111112,-0.028356721489376745,0.08693375175724799,-1.390956968586562
1589552601.6572747,-1.261223931988002,-4.311015387892018,8.922656408071987,1.3777777777777778,-0.4488888888888889,-0.13111111111111112,-0.052717892625231515,-0.06735366543649891,-1.3795884220564967
1589552601.6672747,-1.2214051702777855,-4.1938642182639105,8.93,1.3777777777777778,-0.4488888888888889,-0.13111111111111112,0.029582677337895942,0.1419892712948707,-1.2335253113442861
1589552601.6772747,-1.201415318526643,-4.282923407366786,8.976461703683393,1.0453184758655008,0.07974205079771302,-0.620507723242848,0.0002885352604464625,0.1687801163551375,-1.0802844398625941
1589552601.6872747,-1.0736858266960945,-4.217311198541407,8.706555992707033,1.02,0.12,-0.6577777777777778,-9.221974084822754e-05,-0.018952779225562884,-0.9658993073757716
1589552601.6972747,-0.968820699366346,-4.130654775874208,8.552053508566065,1.02,0.12,-0.6577777777777778,-0.12595972295509153,0.014914506115339366,-1.0800653246073357
1589552601.7072747,-0.8226738274844211,-4.020513283043621,9.088716792390949,1.02,0.12,-0.6577777777777778,0.012338659241304615,0.0765856944197725,-1.0406922786094763
1589552601.7172747,-0.7805554952411972,-4.141333188578873,8.791110990482393,1.017938495438224,0.12032095280602499,-0.6580123202129499,-0.017550244729323792,0.02127114104519796,-0.9771722981588047
1589552601.7272747,-0.8564484493178446,-4.323476278362827,8.94289689863569,0.7362913103093323,0.16417021516142133,-0.6900560119342011,-0.03079606400634731,0.09577887447845522,-0.9481970684903157
1589552601.7372746,-0.6999639925867089,-4.260576118612655,8.889927985173419,0.6488888888888888,0.17777777777777778,-0.7,-0.05015464919794745,0.10351109035271573,-0.9819912278146687
1589552601.7472746,-0.6925607625099285,-4.379027799841143,8.875121525019857,0.6488888888888888,0.17777777777777778,-0.7,-0.04530924644335398,0.07928407657974837,-1.0320603896121345
1589552601.7572746,-0.6317350984001133,-4.313181013733541,8.840867549200057,0.6488888888888888,0.17777777777777778,-0.7,0.005093915656759082,0.07302257246907909,-0.990059207770926
1589552601.7672746,-0.7069933539267996,-4.322832225654467,8.891328902617866,0.6488888888888888,0.17777777777777778,-0.7,0.021942550121994923,0.1269771414218192,-0.9427998819983323
1589552601.7772746,-0.7087604886744054,-4.395983218120952,8.936495804530237,0.5563290968025545,0.21810085551835912,-0.687169929809815,-0.02523854531734572,0.003229809520471111,-0.9353828194431473
1589552601.7872746,-0.5753772378516624,-4.265377237851662,8.908477347460723,0.5366666666666666,0.22666666666666666,-0.6844444444444444,-0.1317451176472439,0.030640508059308562,-0.9287997664679181
1589552601.7972746,-0.6349699437318701,-4.3209988466780835,8.771323699017929,0.5366666666666666,0.22666666666666666,-0.6844444444444444,-0.0760116111822278,-0.08340328307702703,-0.9329359908405801
1589552601.8072746,-0.495712088910635,-4.071800580155873,8.807970502918254,0.5366666666666666,0.22666666666666666,-0.6844444444444444,-0.06641750035632722,-0.006650396469822434,-0.8801683812981269
1589552601.8172746,-0.44152478642762605,-4.125603417157984,8.94712820358561,0.5366666666666666,0.22666666666666666,-0.6844444444444444,-0.06326818538479445,0.09435331889685342,-0.8415835940928489
1589552601.8272746,-0.4242774911525178,-4.267918816356117,8.797052402677696,0.5060951216854513,0.2633525206441251,-0.7193833529944049,-0.011816395498075068,0.12085519493882896,-0.9329438522477089
1589552601.8372746,-0.35158228429660937,-4.114294771662226,8.89660939079298,0.4977777777777778,0.2733333333333333,-0.7288888888888889,-0.010612421353409883,0.04865638527071278,-0.9353844391306464
1589552601.8472745,-0.4619317318101204,-4.314352212267084,8.838386346362023,0.4977777777777778,0.2733333333333333,-0.7288888888888889,0.004400557651478782,0.011564157993015956,-1.0985173746054677
1589552601.8572745,-0.372018423461064,-4.2568626397676175,8.822018423461063,0.4977777777777778,0.2733333333333333,-0.7288888888888889,0.054101187436134464,0.1291823223136902,-1.0452839420567892
1589552601.8672745,-0.41374278779197005,-4.398725478492699,8.863742787791969,0.4977777777777778,0.2733333333333333,-0.7288888888888889,0.04499834323768457,0.09368122993973563,-0.9606274910112051
1589552601.8772745,-0.23357885316995938,-4.154631376058375,8.516000550698699,0.5155555555555555,0.2877777777777778,-0.7177777777777777,0.007693259240716727,-0.033241616984521126,-0.9850087078416513
1589552601.8872745,-0.12733791562124439,-3.91407661978958,9.140864450020029,0.5155555555555555,0.2877777777777778,-0.7177777777777777,0.0406564861330415,-0.009200269534844603,-0.9782737615878262
1589552601.8972745,-0.2069278289654009,-3.9582932383141114,8.716384912184528,0.5155555555555555,0.2877777777777778,-0.7177777777777777,-0.015293618224934288,0.04482052087975271,-0.9879203313047186
1589552601.9072745,-0.5982534180627769,-4.6394434816098595,9.262967456191026,0.5155555555555555,0.2877777777777778,-0.7177777777777777,0.022780991564129247,0.04267053584902418,-1.1037015564461023
1589552601.9172745,-0.4849714177107852,-4.38017412535271,8.720348250705419,0.5155555555555555,0.2877777777777778,-0.7177777777777777,-0.060430548560724,0.02695554037416559,-0.9052135148783188
1589552601.9272745,-0.5585788575284825,-4.297607081894327,8.759101266325274,0.4991942448581725,0.2896656213197835,-0.7190363401391149,-0.0028997885824563335,0.10470719742338237,-0.6357366650258253
1589552601.9372745,-0.7660873667850799,-4.526348523534636,8.4343447491119,0.4866666666666667,0.2911111111111111,-0.72,0.04000956119157406,-0.01827943820221309,-0.28001979180881514
1589552601.9472744,-0.24300919198404922,-3.981455679091616,9.046214051569732,0.4866666666666667,0.2911111111111111,-0.72,0.05541019299115872,0.09837560331654142,-0.25425768509203395
1589552601.9572744,-0.17922510222702848,-3.9034973471663683,9.10291102024264,0.4866666666666667,0.2911111111111111,-0.72,0.08324125240734877,0.05044433432199191,-0.10582536820568708
1589552601.9672744,-0.17683336684571854,-3.795833165771407,8.943249648119956,0.4866666666666667,0.2911111111111111,-0.72,-0.07179517135274681,0.006617648256998936,-0.02987052078158092
1589552601.9772744,-0.2291646423751687,-3.8361881627144783,9.029399845768268,0.4640353233511128,0.317644410170726,-0.7246823468928733,-0.030520254991141346,0.08766546650247924,-0.039321221590140225
1589552601.9872744,-0.4704270566727605,-4.222515539305301,9.042155027422304,0.4544444444444444,0.3288888888888889,-0.7266666666666667,0.007860044020773005,0.07196180759036358,0.004355266537003577
1589552601.9972744,-4.9263649208741525,-16.64301431801055,5.677514129615675,0.4544444444444444,0.3288888888888889,-0.7266666666666667,-3.817602560947089,-3.257043775068003,-6.164768515199831
1589552602.0072744,2.27869604129376,6.131300004162678,2.676133705199184,0.4544444444444444,0.3288888888888889,-0.7266666666666667,-2.6401170868830426,-1.0734112279472654,-3.8568660815153812
1589552602.0172744,1.222395204595596,-1.5858069350206048,12.331247138159263,0.4544444444444444,0.3288888888888889,-0.7266666666666667,-1.3621721130089643,1.1339482723806877,-3.7359279207985354
1589552602.0272744,-0.3631510264954676,-0.9240582107985925,3.10772213548342,0.4311111111111111,0.3555555555555556,-0.6766666666666666,0.2989421594204215,2.524443159411549,-3.510874829472157
1589552602.0372744,-0.1,-1.81,16.66,0.4311111111111111,0.3555555555555556,-0.6766666666666666,1.6547902970471235,0.04908738521234052,-3.0554170217725733
1589552602.0472744,-0.2418116112813261,-1.4953554874695578,10.965377484484248,0.4311111111111111,0.3555555555555556,-0.6766666666666666,2.470309667078819,0.05392152492799965,-2.9302128031370014
1589552602.0572743,-0.1638849734293144,-1.6634530584555085,8.02053103682207,0.4311111111111111,0.3555555555555556,-0.6766666666666666,3.576041492023174,0.40363082349444296,-2.5337441485602104
1589552602.0672743,1.1360872225135468,-1.9803338577171823,14.615301520713162,0.4311111111111111,0.3555555555555556,-0.6766666666666666,-0.9520926848120466,-0.18983172682148797,-1.0360377478634852
1589552602.0772743,0.3093847369844209,-1.1402641595773448,5.6455005511991185,0.3879507641676663,0.4376448428793625,-0.6766666666666666,-0.6943406004007484,-0.8839708804721742,-0.8261148285200237
1589552602.0872743,1.062624912033779,-4.344591958067412,11.256204469897353,0.3744444444444445,0.4633333333333333,-0.6766666666666666,0.2706583875234732,0.2081056784962727,0.03163703093930592
1589552602.0972743,1.6321056292808218,-13.519854987157535,10.929032534246575,0.3744444444444445,0.4633333333333333,-0.6766666666666666,0.23084875709477937,0.11895945128202912,0.635730261254616
1589552602.1072743,1.347505885382182,-4.5003463179577725,7.314900868093872,0.3744444444444445,0.4633333333333333,-0.6766666666666666,-0.08134004067024078,-0.1724814282433718,0.697730935041255
1589552602.1172743,1.328764331210191,-3.572545759302715,9.937571572242708,0.3744444444444445,0.4633333333333333,-0.6766666666666666,0.005841631048631557,0.07988677111823878,0.930680367915211
1589552602.1272743,0.9768300793821069,-5.0619507616391335,9.048052992919974,0.36528457174187706,0.4710839948508904,-0.6801896946291925,0.1568666035613246,0.040440836964664384,1.0799222991462636
1589552602.1372743,0.5809925646170188,-3.4661241590935914,8.444625280302137,0.36,0.4755555555555556,-0.6822222222222222,0.034129884684545975,0.01712847650858504,1.1437585409227549
1589552602.1472743,0.5568768094962363,-3.7138983786913724,8.577507237984944,0.36,0.4755555555555556,-0.6822222222222222,-0.056329535209102964,-0.0784994707599927,1.2072247798230287
1589552602.1572742,0.5976624070188823,-4.393702078962426,8.957208468434104,0.36,0.4755555555555556,-0.6822222222222222,0.019805142828037872,-0.09880513454919139,1.441264093204503
1589552602.1672742,0.4281253670886076,-3.6915789367088605,8.726280303797468,0.36,0.4755555555555556,-0.6822222222222222,0.05474925539858547,-0.04351647098217735,1.4362216101811067
1589552602.1772742,0.34891671462632573,-4.413500287757954,9.15052125298035,0.3622222222222222,0.4566666666666666,-0.6966666666666667,-0.06266844818108565,-0.17638072779287928,1.5796500378458442
1589552602.1872742,0.32132944174956835,-4.24797665049741,8.909132615308724,0.3622222222222222,0.4566666666666666,-0.6966666666666667,0.0637223469471197,-0.05676086811797064,1.694003614390411
1589552602.1972742,0.31,-4.113515465898175,8.791004418828049,0.3622222222222222,0.4566666666666666,-0.6966666666666667,0.012023239575758238,0.017229342131052663,1.6259645749249023
1589552602.2072742,0.26162956790858233,-3.974562790144031,8.712607308653732,0.3622222222222222,0.4566666666666666,-0.6966666666666667,-0.03988729683843737,-0.07220988151287355,1.8372712119136851
1589552602.2172742,0.26506042729392987,-3.97,8.856752391523965,0.3622222222222222,0.4566666666666666,-0.6966666666666667,-0.045867625626708444,-0.06864324015449078,1.8710911885525656
1589552602.2272742,0.25661501469409564,-4.011939620625167,8.975907026449372,0.36361029477246415,0.45408881764478876,-0.6974598509810906,-0.05134627631443243,-0.06490282868135405,1.8911144291633597
1589552602.2372742,0.12757880617035547,-4.212635814889336,8.699684775318579,0.37777777777777777,0.42777777777777776,-0.7055555555555556,-0.03846660018920098,-0.07287934835572399,1.8389453593702274
1589552602.2472742,0.12127177302806724,-4.041328439948277,8.76705141857458,0.37777777777777777,0.42777777777777776,-0.7055555555555556,0.02056805539930109,-0.07866572610717759,1.8552257031929984
1589552602.2572742,4.8574490193531625,-9.665580131000315,8.272245003989386,0.37777777777777777,0.42777777777777776,-0.7055555555555556,-0.1832223690958652,-0.20536465723183833,1.1745260813251859
1589552602.2672741,3.858403536141445,-5.768083923356935,8.727489499579983,0.37777777777777777,0.42777777777777776,-0.7055555555555556,0.08413560938659181,0.05070510833847647,0.4201090904717818
1589552602.2772741,0.18977659297035732,-2.880293529599258,9.443683753006287,0.441436707780772,0.3970092949429973,-0.6779700192209247,-0.032067472798995356,0.003437329139547529,-0.11842323977977043
1589552602.2872741,-0.7704750335120641,-3.605955931635389,8.231923592493297,0.4444444444444444,0.3955555555555556,-0.6766666666666666,-0.13599107529269377,-0.06299895050835054,0.02814039090212697
1589552602.297274,0.0010254694678620835,-4.329352558098042,8.95873879298809,0.4444444444444444,0.3955555555555556,-0.6766666666666666,0.009080598199276285,-0.0192365057474607,0.05890486225480863
1589552602.307274,0.042299858638894516,-4.208303666733981,8.874307474829068,0.4444444444444444,0.3955555555555556,-0.6766666666666666,-0.052976681741145136,-0.023217925516754973,-0.05478410681000535
1589552602.317274,0.05906453617754967,-4.24250325788408,8.87906453617755,0.4444444444444444,0.3955555555555556,-0.6766666666666666,0.04752509088789135,0.029455274167596055,-0.15493672393926433
1589552602.327274,0.1095186552909716,-4.348916974404686,8.978916974404687,0.4488354061434413,0.37469848748532064,-0.6909372921884064,-0.061561722101594524,0.025325387528938474,-0.03018620339386774
1589552602.337274,0.12926646966799932,-4.335550147749,8.965550147749001,0.4488888888888889,0.3744444444444445,-0.6911111111111111,0.025000938987534804,-0.00643557927841339,-0.05147970434718456
1589552602.347274,0.14870815226838172,-4.320968885798714,8.950968885798712,0.4488888888888889,0.3744444444444445,-0.6911111111111111,0.11407279953243088,-0.03824695804444771,-0.07480804877560972
1589552602.357274,0.040849284519606024,-4.203572570154247,8.77535885523137,0.4488888888888889,0.3744444444444445,-0.6911111111111111,-0.0006611071079497266,0.0167904420288437,-0.006506711353269884
1589552602.367274,0.05569688860667635,-4.16618854317852,8.85233649310595,0.4488888888888889,0.3744444444444445,-0.6911111111111111,-0.08226842121371436,-0.013125888436950055,0.07634044262761232
1589552602.377274,0.06745094081499922,-4.237647177555003,8.866715557648748,0.45014161439916667,0.3744444444444445,-0.6873529345802777,-0.059214920550293156,-0.09084382684860465,0.13524701749308848
1589552602.387274,0.08660124336816066,-4.2607190053054715,8.897842984083585,0.4511111111111111,0.3744444444444445,-0.6844444444444444,-0.04475967394561166,-0.08740912308482766,0.08114225177458656
1589552602.397274,0.09301376108762331,-4.215068805438117,8.832192655226725,0.4511111111111111,0.3744444444444445,-0.6844444444444444,-0.003586729019061548,-0.0669890188596665,0.08350059607090399
1589552602.407274,0.09,-4.230562712620602,8.851125425241202,0.4511111111111111,0.3744444444444445,-0.6844444444444444,-0.062559702015604,0.0006515418928412786,0.08265760977043024
1589552602.417274,0.06330888654164259,-4.213308886541642,8.829963329812465,0.4511111111111111,0.3744444444444445,-0.6844444444444444,-0.053783651193312514,-0.018580124174867634,0.007206870300014642
