time,acc_x,acc_y,acc_z,mag_x,mag_y,mag_z,gyr_x,gyr_y,gyr_z
1589552563.9105935,-0.11,-4.26,8.8,0.4455555555555555,0.3333333333333333,-0.5455555555555556,-0.01090830782496456,0.022907446432425576,-0.08072147790473774
1589552563.9205935,-0.11,-4.274088542541399,8.8140885425414,0.4455555555555555,0.3333333333333333,-0.5455555555555556,-0.023202880532699963,0.024444268020892498,-0.023859079131461486
1589552563.9305935,-0.11,-4.260837531486146,8.848743702770781,0.4402326476350406,0.3333333333333333,-0.5455555555555556,-0.011639191926083092,0.020908505892712294,-0.03135451578529643
1589552563.9405935,-0.11,-4.26,8.867737232611619,0.44,0.3333333333333333,-0.5455555555555556,0.01811417116861766,-0.025710181522298894,-0.1362384318853369
1589552563.9505935,-0.12904287862290661,-4.26,8.746221288951107,0.44,0.3333333333333333,-0.5455555555555556,0.11529312750137531,-0.019170557778871063,-0.01338356106268726
1589552563.9605935,-0.10165221284818778,-4.26,8.796695574303625,0.44,0.3333333333333333,-0.5455555555555556,-0.04080633589783225,-0.01442110479032584,0.10683802438815371
1589552563.9705935,-0.08143961760157459,-4.266186794132808,8.812373588265617,0.44,0.3333333333333333,-0.5455555555555556,-0.07042445244994482,-0.07896875682879902,0.09589966311853795
1589552563.9805934,-0.09006638434245165,-4.27,8.833377589561634,0.45337758956163443,0.33036053565297013,-0.5462987549756464,-0.025991662160937644,0.012433623112793238,-0.04041230277440974
1589552563.9905934,-0.10792736112104097,-4.27,8.824145277757918,0.46,0.3288888888888889,-0.5466666666666666,0.03504181779722189,-0.015943037418560305,0.054844759978640356
1589552564.0005934,-0.11,-4.263402916956047,8.740835003472567,0.46,0.3288888888888889,-0.5466666666666666,0.047951012055275695,0.07981749207341717,0.009637493751338877
1589552564.0105934,-0.11445054747801113,-4.26,8.713351642434032,0.46,0.3288888888888889,-0.5466666666666666,-0.024585614500001275,0.09277458042597654,-0.02131316131355237
1589552564.0205934,-0.11076078759949728,-4.255380393799748,8.76695684960201,0.46,0.3288888888888889,-0.5466666666666666,-0.05330785383767264,0.0013988408149231864,-0.021496632527221112
1589552564.0305934,-0.1,-4.25,8.858348508008241,0.4664464677344321,0.3288888888888889,-0.5402201989322346,-0.04780023823664936,-0.04014455915617,0.047151698848052745
1589552564.0405934,-0.1,-4.25,8.893235801391961,0.4666666666666667,0.3288888888888889,-0.54,-0.033863630137156785,0.02671033624031635,-0.006016468626061457
1589552564.0505934,-0.08818975665466046,-4.261810243345339,8.823233418255294,0.4666666666666667,0.3288888888888889,-0.54,-0.017660284920030474,0.021036273467563427,-0.02131818561690438
1589552564.0605934,-0.08,-4.262581993313167,8.7922540200605,0.4666666666666667,0.3288888888888889,-0.54,0.022022155887325166,-0.023112986669821624,-0.027234993230426954
1589552564.0705934,-0.1015006468305304,-4.245666235446313,8.814333764553687,0.4666666666666667,0.3288888888888889,-0.54,0.05148777739995562,-0.013489329171906369,-0.058069452392922584
1589552564.0805933,-0.10113118866905904,-4.2666064339928225,8.82,0.4666666666666667,0.33972854718226114,-0.5587230461430976,-0.09781997068908041,0.010024841933827747,-0.02144130806005435
1589552564.0905933,-0.1,-4.2637867676816725,8.807573535363346,0.4666666666666667,0.3411111111111111,-0.5611111111111111,-0.09612145228039272,-0.0652653312091514,0.060637321847335494
1589552564.1005933,-0.1,-4.26,8.752244410120625,0.4666666666666667,0.3411111111111111,-0.5611111111111111,0.016818258271380518,0.07443600278360316,-0.07542501948379683
1589552564.1105933,-0.1,-4.273203028981485,8.769609086944454,0.4666666666666667,0.3411111111111111,-0.5611111111111111,0.030142963383841724,0.01670013793574726,-0.051614983241242904
1589552564.1205933,-0.1,-4.28,8.816335687357299,0.4666666666666667,0.3411111111111111,-0.5611111111111111,0.005908024778071523,-0.027649864102391185,0.02303637912088929
1589552564.1305933,-0.1,-4.262817633849426,8.838591183075286,0.4666666666666667,0.3411111111111111,-0.5611111111111111,-0.024058613913445645,-0.017622054781412134,0.06083950434464927
1589552564.1405933,-0.1083072625698324,-4.268307262569832,8.823385474860336,0.4666666666666667,0.3411111111111111,-0.5611111111111111,-0.04467287225792469,-0.0801644838627256,0.050950938582661275
1589552564.1505933,-0.11,-4.27,8.77103227185296,0.4666666666666667,0.3411111111111111,-0.5611111111111111,0.10423763542352756,0.008768843390048991,0.056899138631795625
1589552564.1605933,-0.09561453688903844,-4.2771927315554805,8.78157819466644,0.4666666666666667,0.3411111111111111,-0.5611111111111111,-0.04270831471394235,-0.06094933260083692,0.07459696823671272
1589552564.1705933,-0.10276961550484526,-4.273615192247577,8.802769615504845,0.4666666666666667,0.3411111111111111,-0.5611111111111111,0.014704903614997558,0.005994283940451761,0.03196826404808542
1589552564.1805933,-0.11,-4.27,8.854997378997028,0.45466736560079213,0.3471107616440484,-0.5421122177568097,0.06370589005173921,0.0015308227060181895,-0.1075493964729062
1589552564.1905932,-0.11,-4.277936314528248,8.867936314528247,0.4533333333333333,0.3477777777777778,-0.54,0.014337772410071607,0.01012876322409436,-0.059391152765701
1589552564.2005932,-0.10265179190751446,-4.28,8.789169710982659,0.4533333333333333,0.3477777777777778,-0.54,-0.06194355110278951,-0.06437258534557953,-0.05004575256663648
1589552564.2105932,-0.10716344232622646,-4.28,8.788653769304906,0.4533333333333333,0.3477777777777778,-0.54,-0.04288864268505999,-0.038021892725597826,0.03203243913949725
1589552564.2205932,-0.10400188720913892,-4.274001887209138,8.8,0.4533333333333333,0.3477777777777778,-0.54,-0.010476916213938134,-0.030756899089592248,0.011797853182699929
1589552564.2305932,-0.1,-4.262149939368,8.839250303159996,0.4638000808426659,0.3425444040231115,-0.5443611447955553,0.053091144247461086,-0.019809328275932323,0.023955014363429908
1589552564.2405932,-0.1,-4.265242147361046,8.839515705277908,0.4666666666666667,0.3411111111111111,-0.5455555555555556,0.0070175740119751764,0.06187253274144303,0.017646041198319376
1589552564.2505932,-0.10355943177057547,-4.27,8.794405682294245,0.4666666666666667,0.3411111111111111,-0.5455555555555556,-0.05032619707596781,0.06528142603375581,0.038050829886687884
1589552564.2605932,-0.11926373443369169,-4.260736265566308,8.748527468867383,0.4666666666666667,0.3411111111111111,-0.5455555555555556,-0.004015705719106449,-0.03930347498872576,0.07153333330065123
1589552564.2705932,-0.11755860565051471,-4.262441394349485,8.803177051598627,0.4666666666666667,0.3411111111111111,-0.5455555555555556,0.027398627257630738,-0.01205028168554875,0.006114641229427911
1589552564.2805932,-0.1,-4.273275431425976,8.829826294277929,0.4666666666666667,0.33289219396508224,-0.5373366384095267,0.01843315777324847,0.03408103122561305,-0.13472441313843012
1589552564.2905931,-0.1,-4.27,8.826924566118526,0.4666666666666667,0.3288888888888889,-0.5333333333333333,-0.015617667741234957,0.05513020911435659,-0.13441270765200528
1589552564.3005931,-0.1,-4.2564118490205445,8.775647396082178,0.4666666666666667,0.3288888888888889,-0.5333333333333333,-0.004479025200561169,0.031133759414233533,-0.05642195836192133
1589552564.3105931,-0.10654317305927694,-4.25,8.763086346118554,0.4666666666666667,0.3288888888888889,-0.5333333333333333,-0.02049666836338289,0.025681617890700538,-0.09977695941603036
1589552564.320593,-0.10438311213292925,-4.25561688786707,8.798084439335353,0.4666666666666667,0.3288888888888889,-0.5333333333333333,0.027858739779775835,-0.006084599158539174,-0.08917537657037339
1589552564.330593,-0.1073774932282689,-4.26,8.82737749322827,0.4568300090289748,0.3231508386002353,-0.5382516621521793,0.01254952330909491,0.053098290222002444,-0.08776930308847129
1589552564.340593,-0.11540962778222201,-4.26,8.813771116653335,0.4533333333333333,0.3211111111111111,-0.54,-0.034512261851747786,-0.032255503329680274,-0.009481208986558534
1589552564.350593,-0.11650281363786825,-4.266994372724263,8.775519695465078,0.4533333333333333,0.3211111111111111,-0.54,-0.007237541279165496,-0.09236982468657964,0.05847589602852402
1589552564.360593,-0.10616160982948847,-4.272323219658977,8.745353560682046,0.4533333333333333,0.3211111111111111,-0.54,0.0371763227111894,-0.008164682407755256,0.009630110170349225
1589552564.370593,-0.09749209736847404,-4.252476292105422,8.777523707894577,0.4533333333333333,0.3211111111111111,-0.54,-0.004273670619180853,0.008716301739494151,-0.05458291720673279
1589552564.380593,-0.09331674493586598,-4.233316744935866,8.8049751174038,0.4533333333333333,0.32313801079414034,-0.5409213180377406,0.07637986893625952,0.007592387154459984,-0.062334782273228126
1589552564.390593,-0.10612404922656184,-4.257751901546876,8.833875950773438,0.4533333333333333,0.3333333333333333,-0.5455555555555556,0.017335082671878554,0.04365863523014029,0.07823548191623746
1589552564.400593,-0.10508578431372549,-4.275085784313726,8.78405637254902,0.4533333333333333,0.3333333333333333,-0.5455555555555556,-0.05365657591647396,-0.06323209171919714,-0.014175452962735806
1589552564.410593,-0.11473665370409541,-4.2657900388877135,8.763156575928669,0.4533333333333333,0.3333333333333333,-0.5455555555555556,-0.05924958175004359,-0.04794339641891683,-0.05672398164223
1589552564.420593,-0.11698970948108176,-4.25,8.80301029051892,0.4533333333333333,0.3333333333333333,-0.5455555555555556,-0.03725477677328095,0.061052848175389904,-0.03490658503988659
1589552564.430593,-0.10584779762658897,-4.262456607120233,8.822456607120234,0.45886960316454806,0.3333333333333333,-0.5432487764592161,-0.04294581304163736,0.03364972722330436,0.010386916600829466
1589552564.440593,-0.1105516883886256,-4.28,8.850551688388625,0.4666666666666667,0.3333333333333333,-0.54,-0.03589983558058389,0.021515716311599785,0.09719670621300547
1589552564.450593,-0.1266545056548705,-4.266690988690259,8.766836920831814,0.4666666666666667,0.3333333333333333,-0.54,-0.03189953746872891,-0.018480448393574576,0.006022054505923524
1589552564.460593,-0.11008592361804154,-4.266638025460653,8.759828152763916,0.4666666666666667,0.3333333333333333,-0.54,-0.07483497977125433,-0.007033565792481763,0.15691331171895712
1589552564.470593,-0.1,-4.265182635499614,8.784817364500384,0.4666666666666667,0.3333333333333333,-0.54,-0.07239328049467875,-0.009179958882607857,0.1314771365085058
1589552564.480593,-0.10475897477690396,-4.264758974776903,8.832830772992136,0.4666666666666667,0.3333333333333333,-0.5468740746777502,-0.008135914786136927,0.02775633394316163,0.05149169342537243
1589552564.490593,-0.11604267963263101,-4.27,8.831658562938953,0.4666666666666667,0.3333333333333333,-0.5544444444444444,0.0014008129497536798,0.006622185576938236,-0.0061112453887024465
1589552564.500593,-0.10802061262392425,-4.27,8.752082450495697,0.4666666666666667,0.3333333333333333,-0.5544444444444444,-0.03446350726148263,-0.005089773230474388,-0.044143763732315974
1589552564.510593,-0.0847737112124044,-4.27,8.745377147979326,0.4666666666666667,0.3333333333333333,-0.5544444444444444,-0.0370882466048795,0.022907446432425576,-0.01859349185748837
1589552564.520593,-0.07534948154292825,-4.27,8.791397926171713,0.4666666666666667,0.3333333333333333,-0.5544444444444444,-0.02308333667506486,-0.015022517960822403,-0.02706845687360961
1589552564.530593,-0.08926669431771049,-4.27,8.847066777270841,0.4666666666666667,0.3333333333333333,-0.5544444444444444,0.01335184116802008,-0.11370112461917743,-0.040731648564766465
1589552564.540593,-0.11476547979153759,-4.262617260104231,8.854765479791537,0.4666666666666667,0.3477777777777778,-0.5466666666666666,-0.02585657358494333,-0.05822334645232541,0.013849245497501467
1589552564.550593,-0.09892104268983756,-4.271078957310162,8.836223649414432,0.4666666666666667,0.3477777777777778,-0.5466666666666666,-0.06523159837313072,-0.07422520352275147,0.0892844377322169
1589552564.560593,-0.08613767181740599,-4.29,8.773068835908703,0.4666666666666667,0.3477777777777778,-0.5466666666666666,0.039407527189660424,0.06226910061549,-0.07891006854712787
1589552564.5705929,-0.1,-4.29,8.78264743049705,0.4666666666666667,0.3477777777777778,-0.5466666666666666,-0.07882860620781518,-0.022715838834994645,-0.18470214232783239
1589552564.5805929,-0.10700016254876463,-4.282999837451235,8.803500081274382,0.4619998916341569,0.3384442277127583,-0.5443332791504117,-0.05399550313738817,-0.05443222553941819,-0.05535793340803302
1589552564.5905929,-0.10928056004308023,-4.277146293304613,8.802853706695387,0.4533333333333333,0.3211111111111111,-0.54,-0.008261021488696011,-0.035997415822383035,0.017421807043399518
1589552564.6005929,-0.09,-4.284519445584279,8.746155564674234,0.4533333333333333,0.3211111111111111,-0.54,-0.0619028191571067,-0.04436711626892392,-0.0202464420013541
1589552564.6105928,-0.09579551409705482,-4.28,8.744773084582329,0.4533333333333333,0.3211111111111111,-0.54,0.004587525956154526,0.0018351247133267592,0.0660450534327217
1589552564.6205928,-0.09501261434761675,-4.270025228695234,8.789949542609532,0.4533333333333333,0.3211111111111111,-0.54,0.012172516102847503,-0.005338568915557958,0.07854532038721741
1589552564.6305928,-0.095316163944283,-4.26,8.825948491832849,0.4633749763392012,0.32760864482079033,-0.54,0.009385801447711277,-0.011835606905826114,0.06128066305917559
1589552564.6405928,-0.11136062171949383,-4.26,8.828639378280506,0.4722222222222222,0.3333333333333333,-0.54,0.04408572834292905,-0.010552346443362993,0.03312553537393803
1589552564.6505928,-0.10521523927373105,-4.26,8.795358732122885,0.4722222222222222,0.3333333333333333,-0.54,-0.014676830570634087,0.008084887950577747,0.03471875333957618
1589552564.6605928,-0.09,-4.27001918360409,8.795047959010223,0.4722222222222222,0.3333333333333333,-0.54,0.006666355876965548,0.01738423650260596,-0.025229312638679113
1589552564.6705928,-0.09437079868418365,-4.28,8.82,0.4722222222222222,0.3333333333333333,-0.54,0.0059246266458193725,0.0005270836927703353,-0.013307899295996142
1589552564.6805928,-0.10300641306845482,-4.2860128261369095,8.82601282613691,0.46420512070634273,0.32965882847188854,-0.54,-0.05340173933496103,0.0408306500132751,0.08877823543575383
1589552564.6905928,-0.10816075968621656,-4.298160759686216,8.841839240313783,0.4455555555555555,0.3211111111111111,-0.54,-0.004815119881640194,0.06621370583342125,0.06156207190121232
1589552564.7005928,-0.10106510024758483,-4.28786979950483,8.836153696781397,0.4455555555555555,0.3211111111111111,-0.54,-0.012237809141793338,0.0038145450631373954,0.020848482810199027
1589552564.7105927,-0.10696529570581163,-4.2710115680980625,8.725057840490315,0.4455555555555555,0.3211111111111111,-0.54,0.09920250701986835,-0.10166795269616205,0.05681770223918912
1589552564.7205927,-0.08216798376130698,-4.2792773387462315,8.766386693731155,0.4455555555555555,0.3211111111111111,-0.54,0.05411972169948046,-0.10347126410897758,-0.03154455698877115
1589552564.7305927,-0.0849436747377962,-4.271292243946653,8.821292243946653,0.44848317435653956,0.3211111111111111,-0.5420911562864172,-0.005748366073551827,0.07655406080807091,-0.015222477891075104
1589552564.7405927,-0.08997290689222229,-4.280009031035926,8.825013546553889,0.4533333333333333,0.3211111111111111,-0.5455555555555556,-0.0011036375140780035,-0.029387412336297998,-0.05939067708754275
1589552564.7505927,-0.1096001947630383,-4.27,8.79266699127173,0.4533333333333333,0.3211111111111111,-0.5455555555555556,0.003258132063437894,-0.0590947327502399,-0.10313483220768263
1589552564.7605927,-0.09209826674500587,-4.27,8.757901733254993,0.4533333333333333,0.3211111111111111,-0.5455555555555556,-0.024884817567382797,0.01248591062820488,-0.04781117087882344
1589552564.7705927,-0.1,-4.2785779681659735,8.77573390449792,0.4533333333333333,0.3211111111111111,-0.5455555555555556,-0.0405008780210202,0.023562879467794805,-0.02495396244249158
1589552564.7805927,-0.1,-4.276537841209945,8.81,0.4563249241755678,0.3246013004270513,-0.5455555555555556,-0.029732898224611108,0.038512822942508775,-0.028779661964297418
1589552564.7905927,-0.10504552576970314,-4.270091051539406,8.820091051539407,0.46,0.3288888888888889,-0.5455555555555556,-0.025961430771563262,-0.05823118312461992,-0.12338477386773512
1589552564.8005927,-0.10559616252285627,-4.28,8.781557787751419,0.46,0.3288888888888889,-0.5455555555555556,0.02375908243337867,-0.06904126567266787,-0.13323682948220064
1589552564.8105927,-0.09557138037401196,-4.275571380374012,8.733285858877965,0.46,0.3288888888888889,-0.5455555555555556,0.02194090348344664,-0.014461183851027938,-0.010067156789242523
1589552564.8205926,-0.09719228197535582,-4.27,8.775172986913745,0.46,0.3288888888888889,-0.5455555555555556,0.03663282553465928,0.005970175535104828,-0.07646085062146396
1589552564.8305926,-0.11,-4.271735385629803,8.821735385629804,0.46115692375320244,0.33216683952296244,-0.5445914524278869,0.09963880914257076,0.009457665392879112,-0.0763171792227029
1589552564.8405926,-0.10763049095607236,-4.2794076227390185,8.828815245478037,0.4666666666666667,0.3477777777777778,-0.54,-0.09638081887036612,-0.0404714427740292,0.14700368229656954
1589552564.8505926,-0.07334533970192886,-4.276690679403857,8.77989194268264,0.4666666666666667,0.3477777777777778,-0.54,-0.013132705197764924,-0.052751817020374514,0.06663056243931122
1589552564.8605926,-0.09201358622872587,-4.281990942514183,8.740022643714543,0.4666666666666667,0.3477777777777778,-0.54,0.11884868432432094,0.07673075989874799,-0.07722192723484175
1589552564.8705926,-0.11,-4.273554729993227,8.78066418997968,0.4666666666666667,0.3477777777777778,-0.54,0.033116736834506326,-0.011513424377550338,-0.07087849940989256
1589552564.8805926,-0.11,-4.28,8.803368269691644,0.4576846141556159,0.3455322646500151,-0.5448652784434859,0.01173461344982032,-0.0549188247100518,-0.016055342068983
1589552564.8905926,-0.10576761744966444,-4.2715352348993285,8.805767617449664,0.44,0.3411111111111111,-0.5544444444444444,0.0028423828946593857,-0.07436638195755096,0.15420110228826261
1589552564.9005926,-0.1,-4.243240321723676,8.790423040984958,0.44,0.3411111111111111,-0.5544444444444444,-0.0281161379372821,0.019710559384402766,0.14402401843354037
1589552564.9105926,-0.10220512820512821,-4.184571992110454,8.761526627218934,0.44,0.3411111111111111,-0.5544444444444444,-0.007359127432841968,0.09020417532243968,-0.07136400011532239
1589552564.9205925,-0.24091340374721523,-3.886370105620823,8.858185052810411,0.44,0.3411111111111111,-0.5544444444444444,-0.05930340982453261,-0.035394419433552524,0.038058740357966844
1589552564.9305925,-0.2678029586652349,-3.9267044379978526,8.878352218998927,0.44,0.3411111111111111,-0.5544444444444444,-0.07103619151741451,0.014469902761195627,-0.09393505368695475
1589552564.9405925,-0.29,-4.028209124345209,8.884527250436527,0.4533333333333333,0.3333333333333333,-0.5333333333333333,-0.005047680949357137,-0.007266950381725937,0.02131916244730088
1589552564.9505925,-0.29387686847314176,-4.0296464405160055,8.851584874752575,0.4533333333333333,0.3333333333333333,-0.5333333333333333,-0.06219097974960512,-0.034527240091636,0.22614140938973484
1589552564.9605925,-0.33,-3.8021185797831993,8.763339124476962,0.4533333333333333,0.3333333333333333,-0.5333333333333333,0.029317395207746656,-0.052060310822071854,-0.015036739456040046
1589552564.9705925,-0.3167723895502117,-3.7565345130622356,8.847089558200848,0.4533333333333333,0.3333333333333333,-0.5333333333333333,-0.006787168824127707,-0.005436855046114497,0.04165915613127874
1589552564.9805925,-0.27540860912827164,-3.7845282284231017,8.769182781743456,0.45191472588747084,0.3311040930612637,-0.5319147258874709,0.046583169963663275,-0.01538833545527977,-0.004143694037978967
1589552564.9905925,-0.2034625575673459,-3.7482326036212226,8.883002649675099,0.4455555555555555,0.3211111111111111,-0.5255555555555556,0.011764057038285071,-0.03437049445912529,0.02988818537097049
1589552565.0005925,-0.11718452380952382,-3.6343204365079362,8.745024305555555,0.4455555555555555,0.3211111111111111,-0.5255555555555556,0.002663553377935047,0.039704076136080325,0.028854097457124257
1589552565.0105925,0.08344327537745941,-3.3708979429395813,8.811497151953834,0.4455555555555555,0.3211111111111111,-0.5255555555555556,0.028995266043846293,0.03368502712981089,0.01816531852283541
1589552565.0205925,0.20795332099527042,-3.1137976557680442,8.961750976763314,0.4455555555555555,0.3211111111111111,-0.5255555555555556,0.07086241335927254,-0.03448299366631754,-0.002455838506273081
1589552565.0305924,0.10322507288629738,-3.2125755102040814,8.91709970845481,0.4566641399416909,0.32361950113378685,-0.5302139941690962,-0.00970871199068566,-0.0009441569758237532,-0.10982706936701359
1589552565.0405924,0.11804516129032258,-3.2519548387096773,8.85781935483871,0.48,0.3288888888888889,-0.54,-0.03926990816987242,-0.014385594854845196,-0.15980319082675504
1589552565.0505924,0.11998135253157088,-3.20660450843857,8.84339549156143,0.48,0.3288888888888889,-0.54,0.0015303816449536017,0.0709487515739415,-0.24314338771753002
1589552565.0605924,0.06321175708574364,-3.054160766533402,8.781241149800103,0.48,0.3288888888888889,-0.54,0.037422758624258964,0.05201764228406708,-0.06808547519046108
1589552565.0705924,-0.026585144745059328,-2.899510868470356,8.579996978182479,0.48,0.3288888888888889,-0.54,-0.06353430599109255,-0.07915242114088211,0.09934398702077496
1589552565.0805924,-0.053224831200241865,-3.0378501125331723,8.912899324800968,0.47785011253317206,0.3293666416592951,-0.5405971909630077,-0.046873514293395015,-0.004352586678668297,0.24983575643171127
1589552565.0905924,-0.057543090855974297,-3.012514363618658,8.97009575745772,0.46,0.3333333333333333,-0.5455555555555556,0.03926155175526959,-0.007032949735832555,0.2418901591908511
1589552565.1005924,0.00372334209757523,-2.9920922193008086,8.833948128672056,0.46,0.3333333333333333,-0.5455555555555556,0.05114267371073396,-0.08871566317965009,0.24411786955750062
1589552565.1105924,0.003497682976693471,-3.0434976829766933,8.782167439007768,0.46,0.3333333333333333,-0.5455555555555556,-0.0063298515148952714,-0.02615250818438944,0.43744336362385106
1589552565.1205924,-0.017939723320158106,-3.022060276679842,8.789313241106719,0.46,0.3333333333333333,-0.5455555555555556,-0.03439135073748213,-0.10877803367311742,0.6245200251077635
1589552565.1305923,-0.008469727752945957,-3.01,8.828416497358797,0.46,0.3333333333333333,-0.5451304799313739,0.03758902702668547,0.11913135398713437,0.5441866663347138
1589552565.1405923,0.008573344169036977,-3.01,8.922153392929703,0.46,0.3333333333333333,-0.5403962932863786,0.04316635927092548,-0.011935953752505751,0.48190645627403367
1589552565.1505923,-0.037663818304474926,-3.0993447267821,8.8093447267821,0.46,0.3333333333333333,-0.54,-0.03662208631275981,-0.13303163398950305,0.6698602221594777
1589552565.1605923,-0.034139201853216804,-3.1341392018532166,8.821373591660524,0.46,0.3333333333333333,-0.54,0.019702836678645322,-0.0722505112616806,0.707645486507261
1589552565.1705923,-0.059111201064014345,-3.159111201064014,8.775055802926039,0.46,0.3333333333333333,-0.54,-0.05857748055347531,-0.0029333778915418204,0.6399961540013934
1589552565.1805923,-0.08877086940895873,-3.1912291305910414,8.863072826477602,0.4607511353611919,0.33258219797214145,-0.5412974156238769,-0.010140267724242546,-0.0887959494174652,0.5335263086886106
1589552565.1905923,-0.0782273727019961,-3.21,8.904515084865336,0.4722222222222222,0.3211111111111111,-0.5611111111111111,0.015162307954588145,-0.054997617480371276,0.6442284450290612
1589552565.2005923,-0.11109176795286875,-3.1970596040549863,8.865967836102119,0.4722222222222222,0.3211111111111111,-0.5611111111111111,-0.0070417958485588,-0.01704193682175119,0.7050529558210076
1589552565.2105923,-0.1679262466759231,-3.169062904478385,8.778494575577154,0.4722222222222222,0.3211111111111111,-0.5611111111111111,0.06982169279692163,0.06192937433828001,0.6736190057245638
1589552565.2205923,-0.19201578341231332,-3.2338737327014933,8.844110483886194,0.4722222222222222,0.3211111111111111,-0.5611111111111111,-0.0784881652437322,0.04820783377354167,0.6974329281949773
1589552565.2305923,-0.19993448751109183,-3.1705240999112654,8.899541412577642,0.4722222222222222,0.3211111111111111,-0.5611111111111111,-0.05257426667844691,0.044752647298170294,0.7846763866981042
1589552565.2405922,-0.20163142820364294,-3.2514199974255007,8.891631428203643,0.4866666666666667,0.3144444444444445,-0.5666666666666667,-0.12691535671049872,-0.010964404484243354,0.8329861214157307
1589552565.2505922,-0.20838031795069833,-3.2986622256548883,8.898380317950698,0.4866666666666667,0.3144444444444445,-0.5666666666666667,-0.1239705980369936,-0.0698595779543455,0.876421311849931
1589552565.2605922,-0.19,-3.226042591880267,8.792468091058502,0.4866666666666667,0.3144444444444445,-0.5666666666666667,-0.06434509326504202,0.06972494083894672,0.6961774974960542
1589552565.2705922,-0.19,-3.3213775920551107,8.807135014162325,0.4866666666666667,0.3144444444444445,-0.5666666666666667,-0.07074474574750504,-0.015070454553688495,0.7169763680640591
1589552565.2805922,-0.1797858917988912,-3.2404282164022176,8.801284649206654,0.48695214426814504,0.3143611801440133,-0.566535822765989,0.06985988124308407,-0.06562981004772167,0.6882675125919528
1589552565.2905922,-0.1630281205316952,-3.267887517873219,8.906373457607371,0.5133333333333333,0.30666666666666664,-0.5544444444444444,0.05072400687727232,-0.0019355126498725658,0.6737110826491217
1589552565.3005922,-0.18886807671625738,-3.219953172611579,8.818914904104679,0.5133333333333333,0.30666666666666664,-0.5544444444444444,-0.06137433577747044,-0.0876981805362198,0.6230908918550412
1589552565.3105922,-0.22,-3.2631253107906515,8.801499751367478,0.5133333333333333,0.30666666666666664,-0.5544444444444444,0.019053033019067387,0.018089565273731626,0.6349409204615013
1589552565.3205922,-0.22,-3.1452591589115326,8.85792672870774,0.5133333333333333,0.30666666666666664,-0.5544444444444444,0.0356265025164959,0.03217284753522285,0.5776447784871024
1589552565.3305922,-0.22,-3.169963482153375,8.660292142773,0.5133333333333333,0.30666666666666664,-0.5544444444444444,-0.1557059748794087,0.014207356699926649,0.5650689349023952
1589552565.3405921,-0.2207166916167665,-3.1751791729041914,8.863387443862276,0.4866666666666667,0.2888888888888889,-0.5966666666666667,0.061999614912204654,0.0736683301796271,0.3751624306419541
1589552565.3505921,-0.27771437480511385,-3.1968568755846585,8.739142500779545,0.4866666666666667,0.2888888888888889,-0.5966666666666667,0.017639689547947056,0.003709913110286518,0.4488937039551132
1589552565.3605921,-0.27583009195539865,-3.2287451379330983,8.788947798855045,0.4866666666666667,0.2888888888888889,-0.5966666666666667,0.057093882540305604,-0.08068150710411846,0.3263479878454799
1589552565.370592,-0.3092954740390561,-3.278943211058584,8.897710290626932,0.4866666666666667,0.2888888888888889,-0.5966666666666667,-0.015916255309412305,-0.024098650270587094,0.24603683621079017
1589552565.380592,-0.32651715676414983,-3.28,8.908258578382075,0.4866666666666667,0.2888888888888889,-0.5966666666666667,0.011374584340303362,-0.031916157951252654,0.31281230282229194
1589552565.390592,-0.3913120608762634,-3.3531974043556407,8.915082747835019,0.4988888888888889,0.2966666666666667,-0.6022222222222222,0.026769187536212248,0.001090830782496456,0.3649905641189304
1589552565.400592,-0.4340524419038151,-3.402565552379769,8.923498198086243,0.4988888888888889,0.2966666666666667,-0.6022222222222222,-0.04354417005664957,0.003037164618097812,0.3828338206559044
1589552565.410592,-0.39955672823219,-3.35911345646438,8.61019525065963,0.4988888888888889,0.2966666666666667,-0.6022222222222222,-0.03337193867253274,0.014954455355396003,0.3075175737661328
1589552565.420592,-0.38490556560176814,-3.3239244524814144,9.028604380148684,0.4988888888888889,0.2966666666666667,-0.6022222222222222,-0.14885947644468803,0.03367609635612295,0.3032509575340148
1589552565.430592,-0.4270423950170785,-3.3576339160136626,8.758928671890697,0.4988888888888889,0.2966666666666667,-0.6022222222222222,-0.06888185439542842,-0.09870065738058262,0.3032509575340148
1589552565.440592,-0.43,-3.36,8.805714939097781,0.5061905487886423,0.28832191249551997,-0.610566976393369,-0.03459463400969888,0.0067019580332331186,0.254096298033851
1589552565.450592,-0.43130072969487093,-3.315202918779484,8.98699270305129,0.5066666666666667,0.2877777777777778,-0.6111111111111112,-0.04303048846179053,-0.09155032327778208,0.25002159924269585
1589552565.460592,-0.4461218396084737,-3.374487358433895,8.838781603915264,0.5066666666666667,0.2877777777777778,-0.6111111111111112,0.013555141774033767,-0.02849776387214928,0.31469089094078084
1589552565.470592,-0.4289125445955067,-3.305650178382027,8.74936129592132,0.5066666666666667,0.2877777777777778,-0.6111111111111112,0.012904177904642482,-0.06506574745586001,0.23755385139962681
1589552565.480592,-0.4208240285411243,-3.273296114164497,8.967751229389645,0.5066666666666667,0.2877777777777778,-0.6111111111111112,0.07643123444186971,0.01081379229693917,0.07344228867845651
1589552565.490592,-0.4371493096983126,-3.305723964547469,8.915701380603375,0.4844444444444445,0.2877777777777778,-0.6322222222222222,-0.022428685691854862,-0.1516821398682458,0.16252885953969032
1589552565.500592,-0.4204047125038754,-3.281214137511626,8.947976437480623,0.4844444444444445,0.2877777777777778,-0.6322222222222222,-0.05138863727379514,-0.004446024497889194,0.18255487984135915
1589552565.510592,-0.43039513537259255,-3.3088145938822224,8.88775080344963,0.4844444444444445,0.2877777777777778,-0.6322222222222222,-0.02974088299347473,-0.08278709793473107,0.3365395689696213
1589552565.520592,-0.43951771002465573,-3.2795177100246553,8.593134884839738,0.4844444444444445,0.2877777777777778,-0.6322222222222222,-0.06261933272498729,-0.05238097828156317,0.08480421610075291
1589552565.530592,-0.389072102952673,-3.229072102952673,8.921031330807626,0.4844444444444445,0.2877777777777778,-0.6322222222222222,0.005248066552548239,0.05950851782464405,0.0554561515483051
1589552565.540592,-0.4,-3.214259170380528,8.870833733287625,0.4777777777777778,0.28,-0.6377777777777778,0.04780478959430612,0.05744037424986771,0.027341447319659196
1589552565.550592,-0.40467760779875134,-3.256236810398335,8.717796012997919,0.4777777777777778,0.28,-0.6377777777777778,0.0002877325564330808,0.033956424392253666,0.034820478349180194
1589552565.560592,-0.4735897623133375,-3.34811968308445,8.832649603855563,0.4777777777777778,0.28,-0.6377777777777778,0.13309071488747048,0.0038878246191886012,0.0014109230457745592
1589552565.570592,-0.46022137782917566,-3.3897786221708244,8.900110688914587,0.4777777777777778,0.28,-0.6377777777777778,-0.02855100446722799,-0.037430471560432256,0.013234860840333674
1589552565.580592,-0.47561980285258,-3.37438019714742,8.90780990142629,0.4777777777777778,0.28,-0.6377777777777778,0.11002487267709092,0.014640464093796678,0.023313106450829593
1589552565.590592,-0.45404648146146365,-3.376488379634634,8.858092962922928,0.48210336420086725,0.28,-0.6514754681175609,0.052478995196461375,-0.05406471483358302,0.04458202178826809
1589552565.600592,-0.4781234934173929,-3.3895308733543486,8.88718524012609,0.4844444444444445,0.28,-0.6588888888888889,0.03742765214039389,-0.022330982918590064,-0.08061387138215512
1589552565.610592,-0.48714413670770473,-3.4042882734154096,8.747117265845905,0.4844444444444445,0.28,-0.6588888888888889,-0.08775671286270115,0.03600718634345074,0.06313929113823873
1589552565.6205919,-0.4992983345401883,-3.437895003620565,8.8480716871832,0.4844444444444445,0.28,-0.6588888888888889,-0.09897816216173907,-0.02738640868374194,0.12934962414753196
1589552565.6305919,-0.47551713586291305,-3.382873317013464,8.89264381884945,0.4844444444444445,0.28,-0.6588888888888889,-0.0318971204330971,0.03740201066104432,-0.12479464646632502
1589552565.6405919,-0.44,-3.235057780042148,8.665057780042149,0.4977777777777778,0.26666666666666666,-0.68,-0.05023788442095625,-0.06869712799784106,-0.0012135274572048996
1589552565.6505919,-0.4409512195121951,-3.3612682926829267,8.793065040650406,0.4977777777777778,0.26666666666666666,-0.68,0.0022508361999804922,-0.013050947800990116,-0.08469281143646062
1589552565.6605918,-0.5292831898504757,-3.4767231536021748,9.075187131853195,0.4977777777777778,0.26666666666666666,-0.68,0.00883834891372978,0.0930892352696006,-0.05040933175101973
1589552565.6705918,-0.47607050294517445,-3.2334651563207975,8.71790194834617,0.4977777777777778,0.26666666666666666,-0.68,0.01713063989882246,0.12045379552040641,-0.2295228170290216
1589552565.6805918,-0.531840985930854,-3.391487621332752,8.881399280183226,0.4977777777777778,0.26666666666666666,-0.68,0.030083801938038918,0.044256512188668246,-0.11991738708380278
1589552565.6905918,-0.5754587842751422,-3.439214612653463,9.018079308722248,0.5244444444444445,0.23222222222222225,-0.6877777777777778,0.03967027297775279,0.06069124523150844,-0.10107657535564339
1589552565.7005918,-0.5036908072036617,-3.2687656671086964,8.829688368909613,0.5244444444444445,0.23222222222222225,-0.6877777777777778,-0.022959101891903845,0.037205229655387195,0.12889066049387707
1589552565.7105918,-0.5416616054786488,-3.3433232109572972,8.82,0.5244444444444445,0.23222222222222225,-0.6877777777777778,0.04289761901067132,0.10507497361296927,-0.06378875672745601
1589552565.7205918,-0.5990572575289463,-3.467925966563682,8.898491612046314,0.5244444444444445,0.23222222222222225,-0.6877777777777778,-0.06100576586853192,0.07609002199816911,-0.01909868853177059
1589552565.7305918,-0.5670740216502861,-3.3547590757760015,8.760064592013716,0.5244444444444445,0.23222222222222225,-0.6877777777777778,-0.0327390152662666,-0.030686854654399937,0.0902967196630961
1589552565.7405918,-0.5885908593164659,-3.320469713561178,8.73,0.5307979687369924,0.2152794907754276,-0.6803653327698052,-0.0781595878472926,-0.013946175051119322,0.08225861193920482
1589552565.7505918,-0.6753526395031524,-3.5381234120636114,8.957607038675073,0.5311111111111111,0.21444444444444444,-0.68,0.03721188504258695,0.10593422433986367,-0.0020387767951392244
1589552565.7605917,-0.6998548070198808,-3.5764730760265078,8.632468280662028,0.5311111111111111,0.21444444444444444,-0.68,-0.009790414238746374,-0.013262190534178597,0.06853689552143855
1589552565.7705917,-0.6594713484895671,-3.5310499065711616,8.771593350981004,0.5311111111111111,0.21444444444444444,-0.68,0.008843593783134027,-0.027842597938193762,0.10138959583809105
1589552565.7805917,-0.6896590603223973,-3.5823213805066243,8.858327900230284,0.5311111111111111,0.21444444444444444,-0.68,0.02239744381189242,0.019773049210165962,0.15536011511260794
1589552565.7905917,-0.7357397959183674,-3.6404931972789116,8.822287414965986,0.5375236205593348,0.1864625850340136,-0.6916591080876795,-0.0413532465520893,0.030773301054508862,0.16767998487538208
1589552565.8005917,-0.6982088898203365,-3.5982088898203366,8.798772838988702,0.5433333333333333,0.16111111111111112,-0.7022222222222222,-0.010890102026091183,-0.049847248703674275,0.2606128310924397
1589552565.8105917,-0.7064281497225174,-3.575476049907506,8.696191600739954,0.5433333333333333,0.16111111111111112,-0.7022222222222222,-0.056384535234927986,-0.0531913854027318,0.46217358632360955
1589552565.8205917,-0.7935990239934932,-3.58,8.733599023993493,0.5433333333333333,0.16111111111111112,-0.7022222222222222,-0.0456568072917288,-0.054957844576695725,0.4127635284759442
1589552565.8305917,-0.8494181788810511,-3.6770908944052554,8.821781810349469,0.5433333333333333,0.16111111111111112,-0.7022222222222222,-0.06495004192430341,-0.035346888068565355,0.5329560960336872
1589552565.8405917,-0.8971037735849057,-3.7856556603773583,8.874735849056604,0.5206588050314466,0.10408123689727464,-0.6664926624737946,0.030107958682546065,-0.01802752230921973,0.5417585354127552
1589552565.8505917,-0.8824757168389152,-3.679283938145932,8.617948947082136,0.5066666666666667,0.06888888888888889,-0.6444444444444445,-0.05709921478190946,-0.17088318967862007,0.6578094024203774
1589552565.8605917,-0.8967684827328264,-3.6532315172671734,8.792837551427503,0.5066666666666667,0.06888888888888889,-0.6444444444444445,-0.020073407948889406,-0.044805660195993635,0.5708193319674366
1589552565.8705916,-0.9768181363977018,-3.7694948788408693,8.8556060454659,0.5066666666666667,0.06888888888888889,-0.6444444444444445,0.04495541739945173,0.044768098618565386,0.8117266982367424
1589552565.8805916,-1.0050631458094146,-3.7674052812858783,8.905189437428243,0.5066666666666667,0.06888888888888889,-0.6444444444444445,0.1038355685152482,-0.011736136926262103,0.9318863426583701
1589552565.8905916,-0.9065728021978022,-3.6220970695970696,8.859667467948718,0.4769792302604803,0.10432228072853073,-0.5726200015262515,0.0034090959276234234,0.06020222166759918,0.9717014723973901
1589552565.9005916,-0.9178078565542043,-3.5351150013735233,8.840730714481932,0.4722222222222222,0.11,-0.5611111111111111,0.05550692286905049,-0.035956117731174464,1.0681462531355077
1589552565.9105916,-0.9867345123661615,-3.623428317312626,9.006836280915405,0.4722222222222222,0.11,-0.5611111111111111,0.02032073002721787,0.012056864985886838,0.9918436821460213
1589552565.9205916,-0.8859076005961252,-3.485622950819672,8.58715350223547,0.4722222222222222,0.11,-0.5611111111111111,-0.01645561315896256,-0.09128416631933157,1.1274685533787874
1589552565.9305916,-0.8813506095252518,-3.4784674793670027,8.675038615885516,0.4722222222222222,0.11,-0.5611111111111111,0.06886667387684911,-0.05305982800022256,1.3232114378854918
1589552565.9405916,-0.8984566435558933,-3.5407398613353593,9.11363567290341,0.48631662814871096,0.14758508247063665,-0.5479563322463883,0.09180508116934367,-0.06785974483483344,1.2677831370114592
1589552565.9505916,-0.923355070409224,-3.4857735563746335,9.010675739533125,0.4888888888888889,0.15444444444444444,-0.5455555555555556,0.013018834975448201,-0.030683571965186437,1.2673837188812431
1589552565.9605916,-0.9898288220819514,-3.534121108377019,8.8567807852787,0.4888888888888889,0.15444444444444444,-0.5455555555555556,-0.05473830179726198,-0.11305427648082024,1.2961037322782287
1589552565.9705915,-1.0825502996150642,-3.5866443112821935,8.86503353307671,0.4888888888888889,0.15444444444444444,-0.5455555555555556,-0.013221783340221442,-0.12418638127500603,1.2813381732309659
1589552565.9805915,-1.1795727758209296,-3.57,8.884042722417908,0.4888888888888889,0.15444444444444444,-0.5455555555555556,0.05908953875360646,-0.0938338811512606,1.3262163492651995
1589552565.9905915,-1.2255464152756095,-3.581092830551219,8.835628677795125,0.4956678408924115,0.16245593317588033,-0.5424742137357725,0.005460572875895561,-0.0929949289486762,1.3653625117239663
1589552566.0005915,-1.3385237710338747,-3.6478793445513995,8.857879344551401,0.5011111111111111,0.1688888888888889,-0.54,0.025354341229785353,-0.12085537791857587,1.3269333263151692
1589552566.0105915,-1.393747004313788,-3.6287589870586356,8.72878295254833,0.5011111111111111,0.1688888888888889,-0.54,0.055223635142556536,-0.10070532268670383,1.4085826743766905
1589552566.0205915,-1.4090330561473436,-3.6280661122946873,8.912925572125626,0.5011111111111111,0.1688888888888889,-0.54,0.07227790339479748,-0.06231619170003584,1.5671821392576184
1589552566.0305915,-1.4313835252113085,-3.622872158262897,9.054045467793646,0.5011111111111111,0.1688888888888889,-0.54,0.07262143937384002,0.02086710643048123,1.5530870578442457
1589552566.0405915,-1.3968764415156507,-3.5423775947281713,8.755011532125206,0.5059026176093722,0.16697228628958447,-0.5524579168954786,0.18959609425855203,-0.0801443259869345,1.471873968881717
1589552566.0505915,-1.4252743947997608,-3.501780484160191,8.749384152719665,0.5066666666666667,0.16666666666666666,-0.5544444444444444,0.0059523181720693985,-0.04296010133627199,1.6645579148747687
1589552566.0605915,-1.3943883833494677,-3.424116553727009,8.977786253630203,0.5066666666666667,0.16666666666666666,-0.5544444444444444,0.001067472431181049,-0.03291766155274581,1.6916455937288486
1589552566.0705914,-1.4227370914639044,-3.37322492572071,8.677452822613025,0.5066666666666667,0.16666666666666666,-0.5544444444444444,0.002081189156133728,-0.21857698090866307,1.6539093458562806
1589552566.0805914,-1.5266890345327628,-3.475270049332518,8.810607202263325,0.5066666666666667,0.16666666666666666,-0.5544444444444444,-0.0402059516787355,-0.19740377229654393,1.6811839387256124
1589552566.0905914,-1.59387926215763,-3.5432755729457797,9.19715483510341,0.5102937705732563,0.15873237687100178,-0.5501372585553692,-0.05565127194994496,-0.07299785939054958,1.6759014396867966
1589552566.1005914,-1.5316161439983256,-3.330909059196986,8.983939372797991,0.5244444444444445,0.12777777777777774,-0.5333333333333333,0.07247972565744104,-0.023810948232390543,1.4731724321939221
1589552566.1105914,-1.6027409555077066,-3.355131430276931,8.81203999403074,0.5244444444444445,0.12777777777777774,-0.5333333333333333,0.10329170095521646,-0.08146282982481799,1.572269472755602
1589552566.1205914,-1.6427712721145744,-3.3572287278854254,8.80469945240101,0.5244444444444445,0.12777777777777774,-0.5333333333333333,0.02355036573776216,0.0050351903457256375,1.4378963552609905
1589552566.1305914,-1.5912723512430522,-3.301950105562497,8.883388771597225,0.5244444444444445,0.12777777777777774,-0.5333333333333333,0.024478150638563238,0.04091590691319648,1.3530828305250948
1589552566.1405914,-1.704421953301092,-3.357764404665514,9.094421953301092,0.5283945214006268,0.1159275469092306,-0.5491336411580628,0.08871712407602986,0.012727154827444315,1.3556617808909845
1589552566.1505914,-1.8109593139210212,-3.3479457518946947,9.06230235341045,0.5333333333333333,0.10111111111111112,-0.5688888888888889,0.10669826196094004,0.0457878287744358,1.2653759779105145
1589552566.1605914,-1.6940059230009872,-3.160010769092704,8.760016153639056,0.5333333333333333,0.10111111111111112,-0.5688888888888889,0.01702424350679374,-0.03555192064828408,1.3236053197741229
1589552566.1705914,-1.91846583147953,-3.4251703547593957,8.946818093119463,0.5333333333333333,0.10111111111111112,-0.5688888888888889,-0.02704764798683227,-0.06681339607099014,1.26563025304691
1589552566.1805913,-1.7347934914254621,-3.119561355777501,8.699020203261307,0.5333333333333333,0.10111111111111112,-0.5688888888888889,-0.04052944425900867,-0.05287717539997148,1.1600843970341521
1589552566.1905913,-1.6203863951874131,-3.162704766311893,9.340037019898194,0.531538382436115,0.058032289577870336,-0.5787611188235899,-0.013172248620659424,0.03684039935166074,1.0894449074787125
1589552566.2005913,-1.888825177273921,-3.0924991245732296,9.321616256675128,0.5311111111111111,0.04777777777777778,-0.5811111111111111,0.09268915115784065,0.05075566970592479,0.9047627968560015
1589552566.2105913,-1.8641357466063349,-2.90053781512605,8.570819650937299,0.5311111111111111,0.04777777777777778,-0.5811111111111111,0.06076808866700554,-0.0044345409121656285,0.8033040061411836
1589552566.2205913,-1.6676645585957668,-2.6983318275684045,8.509561177077956,0.5311111111111111,0.04777777777777778,-0.5811111111111111,0.014350309757137166,-0.11728972147720235,0.8626182969365053
1589552566.2305913,-1.889856353358083,-2.912892971650354,9.15511833445832,0.5311111111111111,0.04777777777777778,-0.5811111111111111,-0.0015677241084756481,-0.06151332562929629,0.8005711529508512
1589552566.2405913,-1.9439171405361495,-2.980818034118603,9.310057676685622,0.5418714685440924,0.016692300749165084,-0.5703507536781298,-0.011240076342402962,0.028240908913083302,0.64971299219666
1589552566.2505913,-1.8331997699386504,-2.7607189417177915,8.815757285276074,0.5511111111111111,-0.01,-0.5611111111111111,0.06822544245310272,0.05851211298150947,0.31215055568377253
1589552566.2605913,-2.0825106078506415,-2.9275091934705557,8.735836397823519,0.5511111111111111,-0.01,-0.5611111111111111,0.043449214752061364,-0.006729309812642713,0.25389217604798525
1589552566.2705913,-2.29421776504298,-3.076161277118297,8.959524355300859,0.5511111111111111,-0.01,-0.5611111111111111,0.02247816902174522,0.008736380239119587,0.28914758268193946
1589552566.2805912,-2.3217881760822787,-3.020861081731646,8.959471899048106,0.5511111111111111,-0.01,-0.5611111111111111,0.01699116442010453,0.07489192447864679,0.2670804028092128
1589552566.2905912,-2.2977884401512503,-3.0400959613612533,8.867306409075022,0.6203416902333365,-0.09740360614180957,-0.5766879914136118,-0.033668962977676346,-0.03312342627132092,0.10800295785804208
1589552566.3005912,-2.2786827673058174,-3.038682767305817,9.184749350016249,0.64,-0.12222222222222222,-0.5811111111111111,0.03519794888433386,0.013897412828691134,0.05097967705805727
1589552566.3105912,-2.350239629137267,-3.0441599345536354,9.080640828987287,0.64,-0.12222222222222222,-0.5811111111111111,0.09146383904864147,0.04732455031449284,-0.007190551864277014
1589552566.3205912,-2.3824467956225015,-2.9891652869200014,8.89770867827,0.64,-0.12222222222222222,-0.5811111111111111,0.06411352087387523,0.04357609736919968,0.008955181982605885
1589552566.3305912,-2.2932402334444975,-2.8776536445926633,8.875307289185326,0.64,-0.12222222222222222,-0.5811111111111111,-0.028934429420661413,-0.024625933659686242,0.0977238088184346
1589552566.3405912,-2.225226332365837,-2.8539140369295373,8.955633298338787,0.8347508182548015,-0.3507839464240378,-0.53039475219059,-0.014896546301276556,-0.03296682882535035,0.10652134706970517
1589552566.3505912,-2.1398262080788597,-2.8437282760098572,8.967282760098575,0.96,-0.4977777777777778,-0.4977777777777778,-0.05939084472492758,-0.02375874559533045,-0.003115710989765083
1589552566.3605912,-2.162873068016587,-2.873045667510367,8.77138079595024,0.96,-0.4977777777777778,-0.4977777777777778,-0.09310933035181204,-0.0020565353025815067,0.0022812926171289494
1589552566.3705912,-2.21463333263392,-2.90847499947544,8.868591661595921,0.96,-0.4977777777777778,-0.4977777777777778,-0.02310925207268809,-0.03771183679076498,-0.09306876957945895
1589552566.3805912,-2.23,-2.924871382636656,8.999485530546623,0.96,-0.4977777777777778,-0.4977777777777778,0.02282326656496604,0.005671618570086079,-0.10282395435458154
1589552566.3905911,-2.2027684818174564,-3.0026173818201167,9.101694554547631,1.1012004646502265,-0.5144192611115546,-0.5361036181828392,0.04004226198080922,0.08498413619514814,-0.16282283890301574
1589552566.4005911,-2.0227771313729637,-2.9767516395176643,9.081089221493547,1.2711111111111109,-0.5344444444444445,-0.5822222222222222,-0.006279546127691556,0.012054753208387947,-0.18641956539215587
1589552566.4105911,-1.9475009177006093,-2.908750458850305,8.75249418789614,1.2711111111111109,-0.5344444444444445,-0.5822222222222222,-0.0395422488116028,0.0261816739437762,-0.20398842623213026
1589552566.420591,-1.9025307312127742,-2.8862653656063872,8.839395513876568,1.2711111111111109,-0.5344444444444445,-0.5822222222222222,0.02391892898666794,0.14011196790494113,-0.29102828916159407
1589552566.430591,-1.859564406840426,-2.8856533897393613,8.803901695765962,1.2711111111111109,-0.5344444444444445,-0.5822222222222222,-0.0010473821394909183,0.06468247586692982,-0.38606618291780803
1589552566.440591,-1.745923237346595,-2.7408237747653805,8.71897730007219,0.9541191411994331,-0.2745926579503222,-0.6094318333734392,-0.05467479775013299,0.04013455802891067,-0.5327453658977821
1589552566.450591,-1.6866296912553151,-2.6930375300425218,9.121262710297652,0.7533333333333333,-0.11,-0.6266666666666667,0.019199347782441777,0.07678629930262028,-0.5650987460334413
1589552566.460591,-1.716363824075986,-2.72,8.71022300227132,0.7533333333333333,-0.11,-0.6266666666666667,0.028708467866081618,0.04645930064282397,-0.6361780081749959
1589552566.470591,-1.8486859548020376,-2.8499893790688984,8.733451015872392,0.7533333333333333,-0.11,-0.6266666666666667,-0.009104252258278938,0.03751479119876287,-0.6961854636997518
1589552566.480591,-1.9496682995783676,-3.0225122468377568,8.956160951475713,0.7533333333333333,-0.11,-0.6266666666666667,-0.011414868467641741,-0.0018251762255545659,-0.789301796169896
1589552566.490591,-1.947367107105888,-3.1694809109176156,8.98316446447056,0.6599902913935064,-0.019464267592197923,-0.6133319463895486,-0.1368852483890139,-0.056551967555962215,-0.8267876627818147
1589552566.500591,-1.888001306762496,-3.164501143417184,9.000500490035936,0.6055555555555555,0.03333333333333333,-0.6055555555555555,-0.055472861296327614,0.05906543995836721,-1.0240117843325713
1589552566.510591,-1.9847083775185579,-3.302120890774125,8.952587486744433,0.6055555555555555,0.03333333333333333,-0.6055555555555555,-0.04753616137424109,0.008044154041866758,-0.9755971769185668
1589552566.520591,-1.9932389293745667,-3.368844833708131,8.845435977207785,0.6055555555555555,0.03333333333333333,-0.6055555555555555,-0.039675084955457886,-0.01751133564377056,-0.9626019944906452
1589552566.530591,-1.9212114043442194,-3.4140855325816464,8.902565362991183,0.6055555555555555,0.03333333333333333,-0.6055555555555555,0.0595889062224124,0.06600174720251867,-1.1030346215377087
1589552566.540591,-1.8647533184991945,-3.6157922197498658,8.898502519246016,0.5829283499720084,0.05964403750024866,-0.6266041188890878,0.029300464190340506,0.021207548236115967,-1.1781548569421494
1589552566.550591,-1.7416027226077477,-3.5034492568663422,8.594704208875063,0.5577777777777778,0.08888888888888889,-0.65,-0.06372422811761129,-0.0993187926579525,-1.1658548295589948
1589552566.560591,-1.7646541402749885,-3.4051921442916733,8.873808705391626,0.5577777777777778,0.08888888888888889,-0.65,-0.00901169805490333,0.03879668258805599,-1.1855150797892882
1589552566.570591,-1.7782397389661686,-3.402685900738451,8.912033316160054,0.5577777777777778,0.08888888888888889,-0.65,-0.008263188359251019,0.07781971441154352,-1.2744760693227093
1589552566.580591,-1.6860686617641276,-3.3940457745094186,8.80145994730426,0.5577777777777778,0.08888888888888889,-0.65,-0.011178902837587448,-0.013445929664964568,-1.3481565157812716
1589552566.590591,-1.5994789520164852,-3.370521047983515,8.901563143950545,0.5851391750891309,0.10427967487652504,-0.6636806986556766,0.09131501184847117,0.13841749927620578,-1.4338610183294969
1589552566.600591,-1.395299349076597,-3.2596230699364215,8.427627535573722,0.6111111111111112,0.11888888888888888,-0.6766666666666666,0.029904735376133584,0.11649638472327367,-1.5389614806172103
1589552566.610591,-1.2588521812791191,-3.244260906395595,8.413600169419738,0.6111111111111112,0.11888888888888888,-0.6766666666666666,-0.013913290209274995,0.006106758097266795,-1.6514002204412077
1589552566.620591,-1.206561738104601,-3.267921942587495,9.081435705859223,0.6111111111111112,0.11888888888888888,-0.6766666666666666,-0.011325937730524344,0.029260088019708117,-1.67583209254667
1589552566.630591,-1.090989205031584,-3.110096663207908,9.12989205031584,0.6111111111111112,0.11888888888888888,-0.6766666666666666,-0.08746118501890277,0.03301577594010085,-1.603825109382414
1589552566.640591,-1.030209870470569,-2.951049352352845,8.520839481882275,0.6110411542875882,0.11897633491829261,-0.6766491774607859,-0.10878546512912189,-0.018618526582570676,-1.7031159429083158
1589552566.650591,-1.215628518912644,-3.421554803134372,8.945628518912644,0.5844444444444444,0.15222222222222226,-0.67,0.02517777163517156,0.024829786379453232,-1.8178251672114674
1589552566.660591,-1.377230375029117,-3.5844397856976475,8.988086419753087,0.5844444444444444,0.15222222222222226,-0.67,0.00379935878762596,0.1452960938667988,-1.7956896542624134
1589552566.6705909,-1.1085472812436359,-3.5338626026746316,8.624082207589437,0.5844444444444444,0.15222222222222226,-0.67,-0.12344015448467047,0.10630072295662259,-1.7541842639566605
1589552566.6805909,-7.553034358390281,-9.401716970387245,11.082546190837764,0.5844444444444444,0.15222222222222226,-0.67,-0.2570368388246964,0.3679412814560502,-2.442174581411817
1589552566.6905909,-23.752080468295812,-22.294945973578173,9.822144818876168,0.5739751462867554,0.16656903821609234,-0.6575919429242205,-0.7644610701112906,0.7984297676658516,-4.3221023309994635
1589552566.7005908,-6.579125547349847,-3.648737990980982,-4.817245931638455,0.5544444444444444,0.19333333333333333,-0.6344444444444445,0.00493415393028962,0.2075043032861226,-3.0536149872853398
1589552566.7105908,1.2526219122919018,2.0690391887246475,3.6296370868732506,0.5544444444444444,0.19333333333333333,-0.6344444444444445,1.4618159675957563,0.5176814351042296,-3.1730359593729993
1589552566.7205908,-0.10891621887535002,0.5090736395973663,5.693654733974117,0.5544444444444444,0.19333333333333333,-0.6344444444444445,0.1054551763419771,-0.11521098301476954,-2.6714544106631264
1589552566.7305908,-0.16563035032832535,-0.07414755732801592,7.949377728882318,0.5544444444444444,0.19333333333333333,-0.6344444444444445,-0.4961107549366678,-0.20301262043670104,-2.02075204257465
1589552566.7405908,0.3555539493233747,-1.4974549251094245,9.59847407942818,0.5508308682131113,0.228746380400398,-0.6344444444444445,0.05619480283697652,0.14579501166926923,-1.6257744522912065
1589552566.7505908,0.9035162501676427,-1.0214370333944298,8.807779963342124,0.5433333333333333,0.3022222222222222,-0.6344444444444445,-0.027316706466032986,0.151808933789751,-1.1227298657772606
1589552566.7605908,0.5276296023224736,-1.6794815907101055,7.721777798258145,0.5433333333333333,0.3022222222222222,-0.6344444444444445,-0.1463369525872713,0.025412320841593963,-0.7756775999418496
1589552566.7705908,0.3558501700749969,-2.2981267161181917,8.781411827384124,0.5433333333333333,0.3022222222222222,-0.6344444444444445,-0.026283697570381487,0.11022261441870532,-0.5472575679985707
1589552566.7805908,0.14304117992560206,-2.6733857599686743,9.714954969653462,0.5433333333333333,0.3022222222222222,-0.6344444444444445,0.07480566259275866,0.14678372920135183,-0.41396864460780003
1589552566.7905908,-0.11699830320433333,-2.5638954512823857,8.503718429811395,0.5433333333333333,0.3022222222222222,-0.6344444444444445,0.089735087480264,-0.040580553136840114,-0.3699268411896593
1589552566.8005908,-0.15226728760413383,-2.588050911924597,9.04415273577379,0.5277777777777778,0.3388888888888889,-0.6488888888888888,-0.04662369075211988,0.09490227807719166,-0.34433459931750976
1589552566.8105907,-0.3156906692394753,-2.6191791750932336,9.1375375252797,0.5277777777777778,0.3388888888888889,-0.6488888888888888,-0.00757467293162066,0.09490227807719166,-0.11937830100376423
1589552566.8205907,-0.4372310624106717,-2.6287651262505953,8.70954168651739,0.5277777777777778,0.3388888888888889,-0.6488888888888888,0.09604726063078681,-0.009209231045405764,-0.07540826411050847
1589552566.8305907,-0.4184122659555968,-2.7242061329777982,8.66592197553765,0.5277777777777778,0.3388888888888889,-0.6488888888888888,0.012799477440807353,-0.09652243147752347,0.09197617556371282
1589552566.8405907,-0.32103122488582236,-2.6710312248858226,8.978117294235254,0.5297708389142617,0.3468611334348246,-0.6384253179223482,0.072777102946654,0.005189961483516911,0.08729537067384735
1589552566.8505907,-0.2610307309867781,-3.035345318298087,9.110852037323918,0.5366666666666666,0.3744444444444445,-0.6022222222222222,0.0007435428326127804,-0.03515189129576232,-0.04963647508851735
1589552566.8605907,-1.8448688092214514,-13.39143694441731,8.195200547035263,0.5366666666666666,0.3744444444444445,-0.6022222222222222,-0.04524061100305704,-0.273372935105908,-1.0286965198125366
1589552566.8705907,-4.102689211504059,-19.64494736479978,6.735230838034952,0.5366666666666666,0.3744444444444445,-0.6022222222222222,0.05906232496168062,4.724631743371205e-05,-1.7844132145701719
1589552566.8805907,0.3286358035557121,-0.6202951358328933,9.693535762483132,0.5366666666666666,0.3744444444444445,-0.6022222222222222,0.3203598411798976,0.0611648654778298,-1.4279460737963934
1589552566.8905907,-0.841031559688977,-1.7059021192254917,11.040517761853941,0.5366666666666666,0.36960041334214233,-0.6022222222222222,-0.1680973728348221,-0.09194926826258469,-1.137812842678209
1589552566.9005907,-1.0121288312441128,-2.6448837040794144,9.490769147163249,0.5366666666666666,0.36,-0.6022222222222222,0.07590932624070322,-0.07187579743286553,-0.7400184646698644
1589552566.9105906,-0.6065769047996198,-3.601780453033423,9.94791858070648,0.5366666666666666,0.36,-0.6022222222222222,0.09182365744488699,-0.037908140801449386,-0.5265640452099608
1589552566.9205906,-0.5604907334899505,-7.775454308155952,8.092877957333712,0.5366666666666666,0.36,-0.6022222222222222,-0.07472769395683382,0.04461881261125457,-0.8112471591158741
1589552566.9305906,-0.9890351812366738,-7.317421477775955,8.175157659504675,0.5366666666666666,0.36,-0.6022222222222222,-0.019202164243561935,0.08817433277388909,-0.6430009797603933
1589552566.9405906,-0.7937629813239881,-3.3360293174922004,9.44174964742083,0.5310791534301086,0.36898860825011515,-0.6053803818776681,-0.014106723070296272,0.11238955562386431,-0.5666646574121542
1589552566.9505906,-0.7134241708436557,-4.969239884004532,8.150925083059668,0.5111111111111111,0.4011111111111111,-0.6166666666666667,-0.05492092391618479,-0.10334378869965762,-0.4600634496911716
1589552566.9605906,-0.8181386952430335,-5.275328493787328,8.626167924564538,0.5111111111111111,0.4011111111111111,-0.6166666666666667,-0.04086236064365342,0.12862250529711017,-0.31332719553412525
1589552566.9705906,-0.6571955331969705,-4.522804466803029,8.560793299795456,0.5111111111111111,0.4011111111111111,-0.6166666666666667,-0.031155101653347554,0.016161982609998696,-0.10768632759542573
1589552566.9805906,-0.6264366564637729,-4.557126687072454,8.626900306086814,0.5111111111111111,0.4011111111111111,-0.6166666666666667,-0.061187676476022676,-0.09244304053687503,-0.0977231464473924
1589552566.9905906,-0.603742951703849,-4.527731674430008,8.862268325569993,0.49846674021410475,0.4058075917299992,-0.6188342731061535,-0.05293738407485834,-0.02100618106146246,-0.08792219122895926
1589552567.0005906,-0.5529695013785291,-4.337817008271175,8.920196627412427,0.4722222222222222,0.4155555555555556,-0.6233333333333333,-0.036023247545801086,-0.052240813831043,-0.07244744633649676
1589552567.0105906,-0.5066765226659332,-4.1948170050368745,8.851493527702807,0.4722222222222222,0.4155555555555556,-0.6233333333333333,-0.12905354563778146,-0.05094320957878675,-0.07161939503380252
1589552567.0205905,-0.4417838785649207,-4.180396417458871,8.772180296023791,0.4722222222222222,0.4155555555555556,-0.6233333333333333,-0.04804187835415849,-0.06824667249373535,-0.1494849781510712
1589552567.0305905,-0.44,-4.22,8.709677982619995,0.4722222222222222,0.4155555555555556,-0.6233333333333333,0.08522530762296684,0.027222664217256227,0.027195931642853704
1589552567.0405905,-0.43714516285225474,-4.222854837147745,8.778548371477452,0.4823727543030942,0.4199964133409371,-0.6233333333333333,0.06700867966682529,-0.01982147174705841,0.09928848897013377
1589552567.0505905,-0.42683537832310836,-4.214176891615542,8.859493865030675,0.5077777777777778,0.4311111111111111,-0.6233333333333333,0.04128537976902486,0.07043443055610296,-0.011682373840355701
1589552567.0605905,-0.4201343622188139,-4.1806718110940695,8.879596913343558,0.5077777777777778,0.4311111111111111,-0.6233333333333333,-0.009882342714957429,0.0602008860593065,-0.09647459967095491
1589552567.0705905,-0.44,-4.1965304216054635,8.767959437859382,0.5077777777777778,0.4311111111111111,-0.6233333333333333,-0.061576631171561924,-0.03450598953258696,0.02021423362073063
1589552567.0805905,-0.4384825238115761,-4.246069904753696,8.722139809507391,0.5077777777777778,0.4311111111111111,-0.6233333333333333,0.01612904472951274,-0.01392599248202033,-0.09190132986622342
1589552567.0905905,-0.42888420187336407,-4.2777684037467285,8.793347394379907,0.5064140245118894,0.43042923447816694,-0.6233333333333333,0.012986660562523948,-0.055112262583093055,-0.11659257756603088
1589552567.1005905,-0.41073766413567825,-4.241475328271357,8.847787007592965,0.48423492283249564,0.4193396836384701,-0.6233333333333333,0.08226846742252827,-0.15309653228509917,-0.09679777560602963
1589552567.1105905,-0.4322897288252375,-4.17915891530095,8.824812982922388,0.4833333333333333,0.4188888888888889,-0.6233333333333333,0.02588418668676208,0.03754698714508484,-0.1637113995960298
1589552567.1205904,-0.4382684053335074,-4.2082684053335075,8.748657973332463,0.4833333333333333,0.4188888888888889,-0.6233333333333333,-0.06326818538479445,0.013925828513372205,-0.21461528181462403
1589552567.1305904,-0.4314231390661466,-4.201423139066147,8.782884304669267,0.4833333333333333,0.4188888888888889,-0.6233333333333333,-0.06326818538479445,-0.0129554692583863,0.006408722086501506
1589552567.1405904,-0.4434440850137558,-4.257377634005502,8.785734195966986,0.4852272643293594,0.41816045389041734,-0.6205652803391413,0.004184051849831918,0.0019489980474274586,0.01709474995963548
1589552567.1505904,-0.4147328602035351,-4.2282137118371725,8.863480851633637,0.4977777777777778,0.4133333333333333,-0.6022222222222222,-0.02304577218912404,0.015349923041107064,0.07352539810893174
1589552567.1605904,-0.4425848176927675,-4.192584817692768,8.797528272564255,0.4977777777777778,0.4133333333333333,-0.6022222222222222,-0.07199837863786637,0.027344786962548277,0.11946624852994628
1589552567.1705904,-0.4249554502369668,-4.179910900473933,8.787522274881516,0.4977777777777778,0.4133333333333333,-0.6022222222222222,0.09552844596522944,0.023311932690352224,0.00793711224526615
1589552567.1805904,-0.44,-4.216146444355163,8.775902370429892,0.4977777777777778,0.4133333333333333,-0.6022222222222222,0.10649078835935732,0.04006223961690951,-0.06431063219043771
1589552567.1905904,-0.4392950095510984,-4.240704990448902,8.762819961795607,0.4986394327708798,0.4128633397007322,-0.6032405417595246,-0.09269456993190993,-0.06978712349948435,0.06286713316479708
1589552567.2005904,-0.4277397618599201,-4.24547952371984,8.81582166698056,0.51,0.4066666666666667,-0.6166666666666667,0.0222950225710491,0.06344744531186551,0.20033229330519425
1589552567.2105904,-0.42397737302415145,-4.2220452539516975,8.856742089919495,0.51,0.4066666666666667,-0.6166666666666667,-0.01997356121702462,0.07960596492047094,0.07677080851215141
1589552567.2205904,-0.44568799020719047,-4.172156004896404,8.778624019585619,0.51,0.4066666666666667,-0.6166666666666667,0.017502994879122193,0.0647184557160593,-0.03786835109611127
1589552567.2305903,-0.4315176891425263,-4.184553067427578,8.805446932572421,0.51,0.4066666666666667,-0.6166666666666667,-0.03786829109719506,-0.06954302802320184,0.04460828691525269
1589552567.2405903,-0.44,-4.21057550356562,8.78,0.5097655355843771,0.4069011310822896,-0.6161551079416712,0.004829060881818624,0.05999569303730508,-0.010824604224322602
1589552567.2505903,-0.44,-4.236812836231703,8.78,0.4990762519056026,0.4175904147610641,-0.5928330344607087,-0.07340027878706677,0.05999569303730508,-0.007008538874620876
1589552567.2605903,-0.4209596127145613,-4.219040387285438,8.809040387285439,0.4977777777777778,0.4188888888888889,-0.59,0.0529382442513935,0.07544354676896751,-0.11151250785923075
1589552567.2705903,-0.43126666420927173,-4.208733335790728,8.798733335790727,0.4977777777777778,0.4188888888888889,-0.59,-0.011148275317682275,0.030470550580142412,-0.020442190576859948
1589552567.2805903,-0.44,-4.2027054201343415,8.792705420134341,0.4977777777777778,0.4188888888888889,-0.59,-0.059547535825536325,-0.01353812660172622,0.0452136939975262
1589552567.2905903,-0.44029817534490434,-4.220596350689808,8.808210947930574,0.49834099787370817,0.4193195866093063,-0.5907951342530782,-0.02220692626369287,-0.05257008215654594,-0.027776134424262224
1589552567.3005903,-0.44638952364211637,-4.236389523642116,8.768052381789419,0.5166666666666667,0.43333333333333335,-0.6166666666666667,-0.025060538163248693,-0.08741928245094685,-0.01542195813608542
1589552567.3105903,-0.4300058592605613,-4.220005859260561,8.849970703697194,0.5166666666666667,0.43333333333333335,-0.6166666666666667,0.01961897543047883,-0.05346285211971394,-0.04580402737982013
1589552567.3205903,-0.4466236434855198,-4.209870930456559,8.75350542605792,0.5166666666666667,0.43333333333333335,-0.6166666666666667,-0.024791201151084616,-0.024562570079738794,-0.05580692524732959
