time,acc_x,acc_y,acc_z,mag_x,mag_y,mag_z,gyr_x,gyr_y,gyr_z
1589552553.3976347,-0.26,-4.27,8.73,0.48,0.3022222222222222,-0.5555555555555556,-0.07199483164476607,-0.035997415822383035,-0.061086523819801536
1589552553.4076347,-0.26,-4.260429871996714,8.787420768019713,0.48,0.3022222222222222,-0.5555555555555556,0.09712328989356221,-0.025558025603967714,-0.08614106034399832
1589552553.4176347,-0.26818817325184474,-4.243623653496311,8.822752693007379,0.48,0.3022222222222222,-0.5555555555555556,-0.05426826843270914,-0.0018661382650499957,0.05921688494291556
1589552553.4276347,-0.268928600016009,-4.248928600016009,8.82892860001601,0.4922222222222222,0.3088888888888889,-0.5511111111111111,-0.08251380028305398,-0.05080190960560878,0.062489157750004305
1589552553.4376347,-0.26053529976787004,-4.2405352997678705,8.82053529976787,0.4922222222222222,0.3088888888888889,-0.5511111111111111,-0.011099572119294063,0.055403865612290576,0.02220420852942178
1589552553.4476347,-0.27236748448867754,-4.252367484488677,8.77671380428963,0.4922222222222222,0.3088888888888889,-0.5511111111111111,-0.017337650920816242,0.062177354602297986,0.031776703589003405
1589552553.4576347,-0.2737893666269201,-4.26,8.793474433611559,0.4922222222222222,0.3088888888888889,-0.5511111111111111,-0.04838737743868126,0.05946745457743585,0.059594158356338425
1589552553.4676347,-0.2802044962967818,-4.254897751851609,8.830204496296782,0.4922222222222222,0.3088888888888889,-0.5511111111111111,0.01799087898213053,0.042230101319751204,-0.03876238622522071
1589552553.4776347,-0.2812949588328759,-4.254352520583562,8.857410082334248,0.4806155006660568,0.3026019147126326,-0.5632014460654501,0.01527943048170663,-0.0031155564151816306,-0.12941254473983224
1589552553.4876347,-0.27555733964337026,-4.243327981069889,8.83554128285304,0.4655555555555556,0.29444444444444445,-0.5788888888888889,-0.02640210578623764,-0.037692706795940875,-0.00481466323909617
1589552553.4976346,-0.28,-4.2552089192446765,8.766388107673764,0.4655555555555556,0.29444444444444445,-0.5788888888888889,0.08266209610678449,0.023014820294101603,0.043708173872701504
1589552553.5076346,-0.2603400245093809,-4.26,8.77310665032708,0.4655555555555556,0.29444444444444445,-0.5788888888888889,0.056638889450986996,-0.02909165132426992,-0.08944142144005038
1589552553.5176346,-0.2632801498806394,-4.2666400749403195,8.79328014988064,0.4655555555555556,0.29444444444444445,-0.5788888888888889,0.0037695351471528638,0.03488150051368829,-0.1545401622683964
1589552553.5276346,-0.27617826862560385,-4.27,8.812356537251208,0.4744797213480944,0.29444444444444445,-0.5747700431384863,-0.06835342330455133,0.07321085729328196,-0.09382607449786792
1589552553.5376346,-0.27065064574137654,-4.251301291482753,8.829349354258623,0.48,0.29444444444444445,-0.5722222222222222,0.07899633535285439,-0.013008116957528848,-0.03428636116191984
1589552553.5476346,-0.27,-4.257551700260139,8.739379596878335,0.48,0.29444444444444445,-0.5722222222222222,-0.036877197091854816,0.012758859692554934,0.054593923826933594
1589552553.5576346,-0.2788251842338624,-4.251174815766138,8.789426658104762,0.48,0.29444444444444445,-0.5722222222222222,-0.14688997296659084,-0.048330744981470275,-0.07112538250626038
1589552553.5676346,-0.2721322815784583,-4.265735436843083,8.831470873686166,0.48,0.29444444444444445,-0.5722222222222222,-0.10878587996471656,0.021143583396223298,0.06800191389581504
1589552553.5776346,-0.26056687651042754,-4.279433123489572,8.858866246979144,0.46637437718172875,0.29444444444444445,-0.5648853483969992,0.03160216546151054,-0.07682092062182405,0.014539289925987908
1589552553.5876346,-0.26,-4.261709678892797,8.86,0.4655555555555556,0.29444444444444445,-0.5644444444444444,0.025303756470035063,0.03970623051776086,0.08653806287335118
1589552553.5976346,-0.26950698091137604,-4.250493019088624,8.745916229063488,0.4655555555555556,0.29444444444444445,-0.5644444444444444,-0.015409651006671653,0.003564712614351609,-0.0410051492528621
1589552553.6076345,-0.27,-4.241881107657301,8.788713354056195,0.4655555555555556,0.29444444444444445,-0.5644444444444444,0.04454107129039449,-0.02547818227907688,-0.09582077794067606
1589552553.6176345,-0.2752430299335879,-4.245243029933588,8.815729089800763,0.4655555555555556,0.29444444444444445,-0.5644444444444444,-0.012013942464530407,0.008400716423358677,-0.09317519641639352
1589552553.6276345,-0.2753239983257867,-4.245323998325786,8.834676001674213,0.47802489335345777,0.29444444444444445,-0.5644444444444444,-0.06003582976599402,0.022280865195312582,-0.004210579426185093
1589552553.6376345,-0.2530702604482132,-4.256929739551786,8.806140520896427,0.4922222222222222,0.29444444444444445,-0.5644444444444444,-0.037758073526317965,-0.05867493547569973,-0.13224301467815297
1589552553.6476345,-0.25754934075833263,-4.26,8.709407910900008,0.4922222222222222,0.29444444444444445,-0.5644444444444444,0.012322073115586855,0.0020991189687250555,-0.138320219704966
1589552553.6576345,-0.26,-4.265703385154034,8.725627081232279,0.4922222222222222,0.29444444444444445,-0.5644444444444444,0.04453731338008991,0.003936252489872706,-0.09340934705458483
1589552553.6676345,-0.2656811313558079,-4.2643188686441915,8.794086788134848,0.4922222222222222,0.29444444444444445,-0.5644444444444444,-0.01392434308064442,-0.07830867530429637,0.004255465848144041
1589552553.6776345,-0.27,-4.249195292810224,8.841609414379551,0.4880203916484205,0.3058494131447635,-0.5644444444444444,-0.06763150851478028,-0.06094791594338858,0.04947597649603392
1589552553.6876345,-0.27,-4.24,8.86,0.4844444444444445,0.31555555555555553,-0.5644444444444444,0.07736613611424534,0.07719740467176046,-0.0526830267782194
1589552553.6976345,-0.2634654194023202,-4.259603741793039,8.794654194023202,0.4844444444444445,0.31555555555555553,-0.5644444444444444,0.07442563944216814,0.0539049729305788,-0.15867735446123926
1589552553.7076344,-0.2437357138026645,-4.27,8.808792858592007,0.4844444444444445,0.31555555555555553,-0.5644444444444444,-0.042341378411302207,-0.09063869141964345,0.018934880768787493
1589552553.7176344,-0.253707070136811,-4.256292929863189,8.84741414027362,0.4844444444444445,0.31555555555555553,-0.5644444444444444,-0.022211079307816017,-0.06887219278929245,-0.0205858463393407
1589552553.7276344,-0.23506294489849724,-4.208438241497496,8.843375296598998,0.4844444444444445,0.29800725752116475,-0.5570556873773326,-0.0460732210352644,0.049208388916989955,-0.10098294790311146
1589552553.7376344,-0.21352704334988593,-4.183527043349886,8.798817608374714,0.4844444444444445,0.29444444444444445,-0.5555555555555556,0.004756847911001859,0.048956210285335165,-0.07134774104502992
1589552553.7476344,-0.23518597944243141,-4.213581305923242,8.756418694076759,0.4844444444444445,0.29444444444444445,-0.5555555555555556,-0.037493990806310926,0.019081996530102723,-0.12828913732086195
1589552553.7576344,-0.24899314720812182,-4.273958883248731,8.767986294416243,0.4844444444444445,0.29444444444444445,-0.5555555555555556,0.08149546941122175,-0.07803321680527478,0.005451855969463321
1589552553.7676344,-0.2782848896750768,-4.294142444837538,8.777071222418769,0.4844444444444445,0.29444444444444445,-0.5555555555555556,0.0003456210147092381,-0.04053354945972349,0.02644471990049261
1589552553.7776344,-0.2979010187473627,-4.292098981252638,8.827406112484177,0.48093288055672767,0.3058570270795239,-0.5555555555555556,0.06587792027512657,-0.025896989545055562,-0.011284302183534375
1589552553.7876344,-0.2820579107999282,-4.2810289553999645,8.804115821599858,0.48,0.3088888888888889,-0.5555555555555556,-0.05884846167884204,-0.05075690940449404,0.01732695075354197
1589552553.7976344,-0.256852993226338,-4.287715668924554,8.738274648603568,0.48,0.3088888888888889,-0.5555555555555556,-0.012392837079295088,0.005464715850857581,0.04706608316129366
1589552553.8076344,-0.24463650175506,-4.29,8.76290798595952,0.48,0.3088888888888889,-0.5555555555555556,-0.022708360242252684,-0.02740830685961246,0.05922207431477983
1589552553.8176343,-0.2352955378973105,-4.275886613691932,8.814113386308069,0.48,0.3088888888888889,-0.5555555555555556,-0.06954999715199119,-0.0462714948941015,0.008871401371756488
1589552553.8276343,-0.24878940538890162,-4.269394702694451,8.834697351347225,0.49252627025926776,0.30575732132407196,-0.5534678438456776,-0.06101774844186534,-0.01239530476753415,-0.05235987755982988
1589552553.8376343,-0.27504508678761097,-4.28,8.855135260362832,0.5066666666666667,0.3022222222222222,-0.5511111111111111,0.016726408950440003,0.01545852276702795,-0.03805120404227025
1589552553.8476343,-0.27044746120697,-4.275223730603485,8.807908497845304,0.5066666666666667,0.3022222222222222,-0.5511111111111111,0.08485774977917318,0.03495539548574017,-0.0458807042844223
1589552553.8576343,-0.26437388470789047,-4.252504461168438,8.766243308247343,0.5066666666666667,0.3022222222222222,-0.5511111111111111,0.07364178385419902,0.007097213018028573,0.008433986406928523
1589552553.8676343,-0.2513789359391965,-4.248621064060804,8.824828085414405,0.5066666666666667,0.3022222222222222,-0.5511111111111111,-0.06567725141258794,-0.08888514019951217,0.10502059227357302
1589552553.8776343,-0.2474532966219617,-4.26,8.84745329662196,0.48099420052435415,0.30719108663686334,-0.5610488399403933,-0.015368128642077691,-0.07856768699034418,-0.05193732878527371
1589552553.8876343,-0.2560065215824746,-4.2539934784175255,8.843993478417525,0.4722222222222222,0.3088888888888889,-0.5644444444444444,0.06287880509502748,-0.08838574915386846,0.007976341452093236
1589552553.8976343,-0.26,-4.262969144506017,8.762185132963898,0.4722222222222222,0.3088888888888889,-0.5644444444444444,-0.05620784869079255,-0.06336915975273186,0.14161377897643435
1589552553.9076343,-0.26,-4.278013654680321,8.728013654680321,0.4722222222222222,0.3088888888888889,-0.5644444444444444,-0.08128213821683167,0.017333433004533855,0.04494143869474404
1589552553.9176342,-0.26,-4.259595132039453,8.791214603881642,0.4722222222222222,0.3088888888888889,-0.5644444444444444,-0.01569557298511884,0.039053512053777426,-0.018071591927839394
1589552553.9276342,-0.28163978325906397,-4.244590054185234,8.830819891629533,0.4764299578559291,0.3088888888888889,-0.5716577055307991,0.005185845004140875,0.031919996749869464,-0.0032182463429705696
1589552553.9376342,-0.2811748282460708,-4.252550114502619,8.821174828246072,0.48,0.3088888888888889,-0.5777777777777777,-0.042995507471938296,0.00647938496445059,0.020447610527597873
1589552553.9476342,-0.25722777954762666,-4.266386110226186,8.752525007964321,0.48,0.3088888888888889,-0.5777777777777777,-0.0029379801744307266,0.013446305128846245,-0.04724023582040625
1589552553.9576342,-0.26408265303240025,-4.27,8.755206632581,0.48,0.3088888888888889,-0.5777777777777777,-0.025004401525254343,-0.02625028613384391,0.10616950223091867
1589552553.9676342,-0.2576040415181297,-4.25760404151813,8.788593937722805,0.48,0.3088888888888889,-0.5777777777777777,-0.056939162540123045,-0.040144777102061525,0.06821549926438772
1589552553.9776342,-0.24586992611511446,-4.25,8.820650369424428,0.48,0.31164227147881257,-0.5685998358113655,-0.03765942283618869,-0.05762243211494873,-0.02598833942255152
1589552553.9876342,-0.25220112429731417,-4.25,8.813396627108057,0.48,0.31555555555555553,-0.5555555555555556,0.02136811000152729,-0.06706231423889174,-0.07624359823786013
1589552553.9976342,-0.27,-4.257369611495476,8.730521554018095,0.48,0.31555555555555553,-0.5555555555555556,-0.08016982173067322,-0.11719130647286666,-0.022721964561745633
1589552554.0076342,-0.2629189583195282,-4.26,8.76248625008283,0.48,0.31555555555555553,-0.5555555555555556,-0.054883946216247204,-0.03417016041513847,-0.03362095013845646
1589552554.0176342,-0.26,-4.26,8.789230620933408,0.48,0.31555555555555553,-0.5555555555555556,-0.03809494085292716,0.03717175224675588,-0.06729559326955749
1589552554.0276341,-0.2530432628797886,-4.256521631439894,8.82434857992074,0.48425133935124026,0.31091773080874796,-0.5489853038309115,-0.05302381452553034,0.03618618574643461,-0.08119556420254663
1589552554.0376341,-0.24955033606078317,-4.259550336060783,8.860449663939216,0.4922222222222222,0.3022222222222222,-0.5366666666666666,-0.03142617498991817,-0.030101805369892064,0.0020696537724155667
1589552554.0476341,-0.26,-4.27,8.793134105607278,0.4922222222222222,0.3022222222222222,-0.5366666666666666,-0.027449925979037747,-0.0010743958364450579,0.04763824159659137
1589552554.057634,-0.26,-4.246190601530146,8.768095037551765,0.4922222222222222,0.3022222222222222,-0.5366666666666666,-0.03854272593103195,-0.04212640021210461,0.027530403673694158
1589552554.067634,-0.26,-4.22,8.8217303152789,0.4922222222222222,0.3022222222222222,-0.5366666666666666,-0.0015394735221107674,-0.07171059835631478,0.0057214206817296775
1589552554.077634,-0.2667037971746004,-4.193184811301598,8.8534075943492,0.47881462787302137,0.3066914203386225,-0.5463499292522006,0.03047035632805782,-0.01075531368945647,-0.011384409120280943
1589552554.087634,-0.2565756491582344,-4.166575649158235,8.880136526262648,0.4722222222222222,0.3088888888888889,-0.5511111111111111,-0.07631103444770454,0.014478654272286142,-0.060845798327863174
1589552554.097634,-0.23060794936951623,-4.166464016876828,8.812431797478064,0.4722222222222222,0.3088888888888889,-0.5511111111111111,-0.14236829659786165,-0.011950394574796366,-0.06919874422597022
1589552554.107634,-0.21493989579456643,-4.159879791589133,8.795300521027167,0.4722222222222222,0.3088888888888889,-0.5511111111111111,-0.08042112392095284,0.05510414717838542,0.06082055516064536
1589552554.117634,-0.21388660288289196,-4.142226794234216,8.816113397117109,0.4722222222222222,0.3088888888888889,-0.5511111111111111,-0.021083410378559854,0.137692072726529,0.050492938560993336
1589552554.127634,-0.22,-4.101262280730197,8.81,0.49457378165429133,0.3005868810998346,-0.5536655750462047,-0.05965879853961438,0.12435470920459595,-0.05951318230370965
1589552554.137634,-0.27885907958675327,-3.9446241169504677,8.780570460206624,0.5111111111111111,0.29444444444444445,-0.5555555555555556,-0.012152858932112709,-0.003413829522256065,-0.033773304106885046
1589552554.147634,-0.36426130099228227,-3.8057386990077178,8.747353914002206,0.5111111111111111,0.29444444444444445,-0.5555555555555556,-0.03900772392446533,0.010739932621492115,-0.0795969720815468
1589552554.157634,-0.4484126604003273,-3.645650881079247,8.798412660400327,0.5111111111111111,0.29444444444444445,-0.5555555555555556,-0.0679778122943,0.03649610371408771,-0.03938075672690752
1589552554.167634,-0.5283550598926063,-3.4698030565881863,8.888815530772408,0.5111111111111111,0.29444444444444445,-0.5555555555555556,-0.03304082734859212,0.044709535694734834,0.0008611660710325596
1589552554.177634,-0.5770157415078707,-3.3147763048881522,8.971642087821044,0.5083251403847924,0.29444444444444445,-0.5550912271011691,0.0054707829815775055,0.07059591120713041,-0.004623423460725242
1589552554.187634,-0.3557337578350413,-3.0920475574569695,8.835290020893444,0.4844444444444445,0.29444444444444445,-0.5511111111111111,-0.060892907053711226,-0.12493349744089621,-0.08094483177503697
1589552554.197634,-0.2783187478314507,-2.894837503373299,8.82799375457805,0.4844444444444445,0.29444444444444445,-0.5511111111111111,-0.05309346220726688,0.04375867747065075,-0.04023529278157636
1589552554.207634,-0.1869638681708795,-3.084763018210988,8.858273113618132,0.4844444444444445,0.29444444444444445,-0.5511111111111111,-0.047052636069130474,0.05155467982447481,-0.0074018838364028755
1589552554.217634,-0.12241073086205831,-3.220553561482765,8.787035707655177,0.4844444444444445,0.29444444444444445,-0.5511111111111111,0.0216880165633114,0.05086387527188484,-0.03717975109932062
1589552554.227634,-0.06894494032694815,-3.273688095476883,8.8,0.4905270172388817,0.2977196759491414,-0.5501753306811977,0.046957732568619175,-0.025558522973001256,-0.05769089045047103
1589552554.237634,-0.035199970646510606,-3.0943986203859986,8.780799882586043,0.4988888888888889,0.3022222222222222,-0.5488888888888889,-0.050963819084249184,-0.06396581437646222,0.12260987625779367
1589552554.247634,-0.011868375807961,-2.8983509978454376,8.723736751615922,0.4988888888888889,0.3022222222222222,-0.5488888888888889,-0.12220853898913911,0.09563254523644156,0.31074157896883947
1589552554.257634,0.0,-2.9363490155218934,8.85872538804734,0.4988888888888889,0.3022222222222222,-0.5488888888888889,-0.06682006633295688,0.031689346764252446,0.3507115241529087
1589552554.267634,0.047202633775387186,-2.8875526291384586,8.876573680793841,0.4988888888888889,0.3022222222222222,-0.5488888888888889,-0.09218639976396474,-0.04307633401175261,0.3640093722413291
1589552554.277634,0.10077731509022407,-2.9154412056315686,8.880052548086457,0.4988888888888889,0.3022222222222222,-0.5488888888888889,-0.06135117411969929,-0.06990942621663832,0.34886760601810884
1589552554.287634,0.08266290104666874,-2.970887633682223,8.926331450523334,0.4988888888888889,0.3022222222222222,-0.5488888888888889,0.018640949116854696,-0.015407627454602696,0.3211173001355499
1589552554.297634,0.052830314331379864,-2.9486787426744807,8.850563399041024,0.4988888888888889,0.3022222222222222,-0.5488888888888889,0.04215244449442351,0.03010942856992549,0.2896035137550803
1589552554.3076339,0.06383557267687683,-2.9506845814150147,8.749862444799398,0.4988888888888889,0.3022222222222222,-0.5488888888888889,0.07710561420635861,-0.0697084839422892,0.2949863282806519
1589552554.3176339,0.05348444559184201,-3.0094374596618048,8.801687621014587,0.4988888888888889,0.3022222222222222,-0.5488888888888889,-0.0027916932265506303,-0.07769444008416819,0.40041358005231387
1589552554.3276339,-0.020170222498121344,-3.072272355996994,8.798748978991734,0.49306193572276497,0.3022222222222222,-0.5511300247220134,-0.10196806880427485,-0.041476624592907435,0.23403846252883875
1589552554.3376338,-0.06995736002966259,-3.1160085279940675,8.922017055988135,0.4844444444444445,0.3022222222222222,-0.5544444444444444,-0.05154488904417162,-0.0337599386667396,0.3659442018890285
1589552554.3476338,-0.10980979108200811,-3.1320720299345184,8.900190208917993,0.4844444444444445,0.3022222222222222,-0.5544444444444444,0.00888821302694571,-0.037772949556287475,0.41839210926406356
1589552554.3576338,-0.15582547748379183,-3.211869108112844,8.818567198177677,0.4844444444444445,0.3022222222222222,-0.5544444444444444,0.008529811225835515,0.03983074848562519,0.2512004385901776
1589552554.3676338,-0.18405970799738505,-3.2462388319895403,8.774507517977773,0.4844444444444445,0.3022222222222222,-0.5544444444444444,-0.0859704919250225,-0.01870695160621183,0.2165413201920882
1589552554.3776338,-0.2039723753445252,-3.313972375344525,8.933834252067152,0.48753406971240854,0.3022222222222222,-0.5637133202483365,-0.06604890191534402,-0.05351097599142192,0.24870941840919195
1589552554.3876338,-0.2209272097053726,-3.325463604852686,8.953609185441941,0.4922222222222222,0.3022222222222222,-0.5777777777777777,0.0409751583705861,-0.01652126552553991,0.2820846812067525
1589552554.3976338,-0.21982824679614216,-3.2943988637864976,8.848454221165278,0.4922222222222222,0.3022222222222222,-0.5777777777777777,0.07705554282555127,-0.056644079788826074,0.306467243776976
1589552554.4076338,-0.21468345066221214,-3.3068345066221214,8.755316549337788,0.4922222222222222,0.3022222222222222,-0.5777777777777777,0.07702048858765825,-0.08899297140890577,0.4023626892565165
1589552554.4176338,-0.20931497917044015,-3.345753305560587,8.774931715268973,0.4922222222222222,0.3022222222222222,-0.5777777777777777,0.0737877377945009,-0.04911718004697201,0.5012739881004108
1589552554.4276338,-0.17975045063088324,-3.307188063288604,8.840499098738233,0.4922222222222222,0.3039304804504083,-0.5772083583683824,1.4593930757207663e-05,-0.027775352533621858,0.4383997573929185
1589552554.4376338,-0.12366790582403965,-3.2384014869888476,8.884200743494423,0.4922222222222222,0.3088888888888889,-0.5755555555555556,-0.013863148085853351,0.005816412462307626,0.24050318088684253
1589552554.4476337,-0.11974392228064798,-3.239615883420972,8.800896272017733,0.4922222222222222,0.3088888888888889,-0.5755555555555556,-0.030837980934302296,-0.05074599638798055,0.21153109447637963
1589552554.4576337,-0.15452143887614408,-3.299042877752288,8.778404796253813,0.4922222222222222,0.3088888888888889,-0.5755555555555556,-0.03995397668508364,-0.09143782035703346,0.3299132476877758
1589552554.4676337,-0.16735296438529118,-3.348529249302962,8.843235178073545,0.4922222222222222,0.3088888888888889,-0.5755555555555556,0.007058407968743574,-0.04183659415146588,0.3675781967774376
1589552554.4776337,-0.16183676153401022,-3.3871426692619284,8.870816192329949,0.4922222222222222,0.3088888888888889,-0.5755555555555556,-0.014603669972875637,-0.03581935027879388,0.2947695459181064
1589552554.4876337,-0.16391035061935755,-3.319217929876128,8.931397228637413,0.4988888888888889,0.2888888888888889,-0.5844444444444444,-0.0077996805677284405,0.04808862118914777,0.1857153721062048
1589552554.4976337,-0.20794037371404578,-3.310411925257191,8.8345311778291,0.4988888888888889,0.2888888888888889,-0.5844444444444444,-0.12018825320470339,-0.06141819317508419,0.2010847495608339
1589552554.5076337,-0.22738937412536794,-3.302463124708456,8.774188743586032,0.4988888888888889,0.2888888888888889,-0.5844444444444444,0.08309621804475342,-0.02190675056813085,0.20737047784308996
1589552554.5176337,-0.24762920426579163,-3.309209734755264,8.922614164615805,0.4988888888888889,0.2888888888888889,-0.5844444444444444,0.04777105044527547,0.09437192611348408,0.18676413007672776
1589552554.5276337,-0.25269982297337923,-3.298898760813654,8.775399645946758,0.4988888888888889,0.2918886921926436,-0.5859443460963217,-0.03172128191256202,-0.03143646865137177,0.1691446459672925
1589552554.5376337,-0.25614119681106523,-3.3538588031889347,8.828588031889348,0.4988888888888889,0.3,-0.59,-0.014701938789875968,-0.0839939702522271,0.12594874082428556
1589552554.5476336,-0.23911234207438534,-3.349112342074385,8.832839795890523,0.4988888888888889,0.3,-0.59,0.01982861100285369,-0.04598887452566082,0.051236512653250466
1589552554.5576336,-0.2249083542820882,-3.3721792399873087,8.76945012569253,0.4988888888888889,0.3,-0.59,0.027806187956641408,0.013349891312431125,-0.02463366557933422
1589552554.5676336,-0.2337391617773684,-3.420973988265684,8.845200144175895,0.4988888888888889,0.3,-0.59,0.0227386198416265,-0.05781403147231216,0.024832952035418125
1589552554.5776336,-0.2,-3.3655018403389936,8.743553864711886,0.4988888888888889,0.3,-0.5902833537815444,-0.00013138149352142584,-0.050581301434770326,0.05354723696404303
1589552554.5876336,-0.2039588090540271,-3.4281235728379187,8.935629281486245,0.4988888888888889,0.3,-0.5911111111111111,0.015775850295962884,-0.021679327726719145,0.011093018967729717
1589552554.5976336,-0.21690590336529422,-3.4203588550479416,8.896770304568529,0.4988888888888889,0.3,-0.5911111111111111,0.0652932668966879,-0.025637138183266607,0.026150355711598506
1589552554.6076336,-0.20824990830646875,-3.388343532227863,8.804281605312434,0.4988888888888889,0.3,-0.5911111111111111,0.060282051121029356,-0.04851466904489194,-0.043742434404659636
1589552554.6176336,-0.15633584160395989,-3.24894402639934,8.99726481837954,0.4988888888888889,0.3,-0.5911111111111111,0.06267146132333129,-0.0211588338618589,-0.11930025296914804
1589552554.6276336,-0.21729675357974043,-3.2558096327561046,8.735809632756105,0.4995645142203463,0.2991892496022511,-0.593813612436941,0.00510015348458601,0.045903575845511684,-0.11782413925902105
1589552554.6376336,-0.2669314819928208,-3.3633515443177786,8.843351544317779,0.5041603224067427,0.2936742797785754,-0.6121968451825262,0.0249526196836605,0.02424633999197588,-0.1476028385576328
1589552554.6476336,-0.22863482257213893,-3.362423215048093,8.656279916622719,0.5044444444444445,0.2933333333333333,-0.6133333333333333,-0.06579978723999076,-0.04102341748845941,-0.060479703139646845
1589552554.6576335,-0.27,-3.3673740748836773,8.897151110139587,0.5044444444444445,0.2933333333333333,-0.6133333333333333,0.006465717817082559,0.018367569702037567,-0.16635484524871785
1589552554.6676335,-0.27,-3.3018852075071043,8.975737750991476,0.5044444444444445,0.2933333333333333,-0.6133333333333333,-0.006392991223052336,0.06837366041367327,-0.19635849967569927
1589552554.6776335,-0.21155728277160085,-3.30862291310864,8.853532815168519,0.49989346252599537,0.29908194207242683,-0.6198005181648135,0.0434366680868121,-0.029230622658369267,-0.015232318312341155
1589552554.6876335,-0.275033495033495,-3.351224878724879,8.874899514899514,0.4833333333333333,0.32,-0.6433333333333333,-0.04860408342420741,-0.05134212160452769,-0.09739186184505146
1589552554.6976335,-0.23984195363614336,-3.349683907272287,8.889051721816859,0.4833333333333333,0.32,-0.6433333333333333,-0.021018867993318667,-0.044097541464918046,-0.23278266046696697
1589552554.7076335,-0.21931097640748332,-3.2993109764074835,8.759658540839911,0.4833333333333333,0.32,-0.6433333333333333,-0.052659188853862754,-0.13552308296161358,-0.10502039837749316
1589552554.7176335,-0.23785746925888998,-3.31785746925889,8.863572407776669,0.4833333333333333,0.32,-0.6433333333333333,0.0023371384848477365,-0.02664786494558703,-0.09505825346574903
1589552554.7276335,-0.22858581691932214,-3.307171633838644,8.821615619951187,0.48254767606629,0.31811442255909617,-0.6420762817060641,-0.002049821441543821,-0.02253299948340321,-0.09224683950429793
1589552554.7376335,-0.22780380853086382,-3.3134114255925913,8.777633007267488,0.4777777777777778,0.30666666666666664,-0.6344444444444445,-0.07220884333856305,-0.05432060332652195,-0.08861549223567006
1589552554.7476335,-0.24709622520008587,-3.3712886756002574,8.944833951734077,0.4777777777777778,0.30666666666666664,-0.6344444444444445,-0.051164081367027894,-0.04029076201216518,-0.07037669852700626
1589552554.7576334,-0.31630967206309674,-3.33295696692957,8.715098934550989,0.4777777777777778,0.30666666666666664,-0.6344444444444445,0.08067830956326909,0.020405795762839823,-0.0028699400163812944
1589552554.7676334,-0.261674434219361,-3.1566511315612784,8.76947292547099,0.4777777777777778,0.30666666666666664,-0.6344444444444445,0.05513682365113717,-0.0779394479620803,0.02518884626755077
1589552554.7776334,-0.2355309033280507,-3.213407290015848,8.718304278922345,0.4786053882725832,0.3086529318541997,-0.6405687621060047,0.07695975400186567,-0.021064616616036952,0.06135966369877846
1589552554.7876334,-0.2015326285906391,-3.281532628590639,8.837663142953197,0.4833333333333333,0.32,-0.6755555555555556,0.029619614971884645,0.15676763494680968,-0.06309272995356552
1589552554.7976334,-0.17019797542116472,-3.2501979754211647,8.680989877105823,0.4833333333333333,0.32,-0.6755555555555556,0.026201534548273356,-0.054298831211187115,-0.022075764870230094
1589552554.8076334,-0.12616429745672567,-3.27,8.897041388647132,0.4833333333333333,0.32,-0.6755555555555556,-0.0644755782033279,0.08559551153017436,-0.04673256836937953
1589552554.8176334,-0.08022874090927558,-3.27,8.99801466704587,0.4833333333333333,0.32,-0.6755555555555556,-0.05857153684485633,-0.031650091957520575,-0.13978500323196083
1589552554.8276334,-0.056146866290751184,-3.27,8.945367165726877,0.4833333333333333,0.3179510445697496,-0.677604510985806,-0.020485475461138963,0.03449617135835234,-0.19525376106467657
1589552554.8376334,-0.08640434377626825,-3.244830406433878,8.861004157484608,0.4833333333333333,0.30666666666666664,-0.6888888888888889,0.02549317905879488,-0.005895224550346558,-0.2565183859569423
1589552554.8476334,-0.08,-3.202625670593177,8.712288894404246,0.4833333333333333,0.30666666666666664,-0.6888888888888889,-0.0027300029709596482,0.03975702193688958,-0.3286142362344166
1589552554.8576334,-0.08,-3.214456416595013,9.103457383920896,0.4833333333333333,0.30666666666666664,-0.6888888888888889,-0.031795419342947,0.13853336968855243,-0.34791091689384906
1589552554.8676333,-0.08498873338432597,-3.250022533231348,8.701730510822154,0.4833333333333333,0.30666666666666664,-0.6888888888888889,-0.00870698230606478,0.032374422516666106,-0.39158367097384417
1589552554.8776333,-0.10784501174962614,-3.2008619953001496,8.576377910702842,0.4851052125614185,0.30499056469415364,-0.6898466614446106,-0.05019720824195798,0.006751569076239814,-0.4488296194131961
1589552554.8876333,-0.0733335758457621,-3.2388892324481633,8.925555292833756,0.5244444444444445,0.2677777777777778,-0.7111111111111111,-0.01612030841441357,0.09138751336365893,-0.49463090904348295
1589552554.8976333,-0.16487886504183338,-3.3685783921425974,8.826381229538015,0.5244444444444445,0.2677777777777778,-0.7111111111111111,-0.11181987705171109,0.1421498932495298,-0.4005956807303123
1589552554.9076333,-0.2585837003207742,-3.45,8.605665198716904,0.5244444444444445,0.2677777777777778,-0.7111111111111111,-0.03604579043817473,-0.02977079026623108,-0.46471886175588467
1589552554.9176333,-0.21297613222421571,-3.45,8.788095471103137,0.5244444444444445,0.2677777777777778,-0.7111111111111111,-0.04931249422338252,-0.004895720668966451,-0.5650483091315186
1589552554.9276333,-0.29823583204870274,-3.6405941525357304,8.898235832048703,0.5313050975883783,0.2644454605364385,-0.7048385139509431,-0.06224515922779271,0.009556234000314037,-0.32802099332360923
1589552554.9376333,-0.2806717386439919,-3.554664130678004,8.857351085253972,0.5633333333333334,0.2488888888888889,-0.6755555555555556,-0.020281983451291456,0.04452498363388655,-0.29445518545672317
1589552554.9476333,-0.24636875473126418,-3.5754468679031035,8.728212528387585,0.5633333333333334,0.2488888888888889,-0.6755555555555556,-0.042079509653990724,-0.07328064533302862,-0.27944152162459773
1589552554.9576333,-0.21421836583677464,-3.5386269782541238,8.65454920869835,0.5633333333333334,0.2488888888888889,-0.6755555555555556,0.03648915285070391,-0.07098701159281169,-0.3398267144279379
1589552554.9676332,-0.14147893379191748,-3.2426053310404126,8.762605331040412,0.5633333333333334,0.2488888888888889,-0.6755555555555556,-0.08234975154051921,-0.009172170440268999,-0.4445965520566876
1589552554.9776332,-0.1498660241156592,-3.2006698794217043,8.720669879421704,0.5633333333333334,0.2488888888888889,-0.6755555555555556,-0.042094607817370386,-0.00551261191998274,-0.23783149566051398
1589552554.9876332,-0.1,-3.3573777907485773,9.022266160805486,0.5555555555555556,0.17555555555555555,-0.7177777777777777,-3.883886048870917e-05,0.17296743260555397,-0.1880738392277696
1589552554.9976332,-0.0858726697656587,-3.331163559687545,9.176575214453443,0.5555555555555556,0.17555555555555555,-0.7177777777777777,0.01616010366206256,-0.07829914039578481,-0.13865644851613582
1589552555.0076332,-0.025884288026734897,-3.2811827058639236,8.606488434024334,0.5555555555555556,0.17555555555555555,-0.7177777777777777,-0.0514603736322447,-0.015589977424762532,-0.10555694538863439
1589552555.0176332,-0.09703827097215104,-3.482978387151888,9.208552451734153,0.5555555555555556,0.17555555555555555,-0.7177777777777777,-0.010744953445866977,0.06056925048359465,-0.21433100942220043
1589552555.0276332,-0.08509482316760636,-3.3336852895950795,8.880107637109175,0.5555555555555556,0.17555555555555555,-0.7177777777777777,-0.027681718114505142,-0.016297604550993938,-0.1856687922906589
1589552555.0376332,-0.0606702833031947,-3.376313441832429,8.933297166968053,0.5061573906637198,0.16374295090750787,-0.6028733507467685,0.09371465989796013,0.06477404473263856,-0.20296172440267182
1589552555.0476332,-0.07466267187416403,-3.3066866406291795,8.983988015622492,0.5044444444444445,0.16333333333333333,-0.5988888888888889,0.09177697289108779,0.07512013683086997,-0.15760132420828618
1589552555.0576332,-0.002394981803551508,-3.1886238364331305,8.625808781843785,0.5044444444444445,0.16333333333333333,-0.5988888888888889,0.040798439766157116,0.056115893553670804,-0.11176091112134928
1589552555.0676332,-0.03307693714452918,-3.042884548563486,8.572115359997074,0.5044444444444445,0.16333333333333333,-0.5988888888888889,0.03243123442787711,0.03436115967414281,-0.1460664530082973
1589552555.0776331,-0.1475760419541816,-3.3327281258625447,8.981339497653877,0.5044444444444445,0.16333333333333333,-0.5988888888888889,0.06574743931672622,-0.009663321546846185,-0.2916901685087333
1589552555.0876331,-0.060724791508718734,-3.221087187263078,8.723901440485216,0.4750295678544352,0.2175670120461629,-0.5869390952741976,-0.07277189351226697,-0.04847341040345093,-0.16232190573793434
1589552555.0976331,-0.12151470287931386,-3.3563528691035325,8.608779354706963,0.4688888888888889,0.2288888888888889,-0.5844444444444444,0.028887747436649056,0.01887135026169793,0.09024380469464145
1589552555.107633,-0.12865223606289566,-3.5276536655094954,8.744392485195018,0.4688888888888889,0.2288888888888889,-0.5844444444444444,0.07248845651999831,0.07181506843433631,0.05287176833748495
1589552555.117633,-0.07539383856347887,-3.5146461285449293,8.820079934216816,0.4688888888888889,0.2288888888888889,-0.5844444444444444,-0.018295076035841448,-0.013819672248896688,-0.014112316867634242
1589552555.127633,-0.05133153576960588,-3.434438452565353,8.611539976669917,0.4688888888888889,0.2288888888888889,-0.5844444444444444,-0.011295635879759545,-0.08031435373167474,0.026134464029836674
1589552555.137633,0.04415326850871282,-3.2426485029363628,8.663198228554924,0.4811111111111111,0.25555555555555554,-0.5488888888888889,-0.012231125244462526,-0.11008548316145157,-0.07284401405617133
1589552555.147633,-0.13188171338747706,-3.4777239979041132,8.626600951881931,0.4811111111111111,0.25555555555555554,-0.5488888888888889,0.06829357068737221,-0.08296439212828845,0.07388847234949544
1589552555.157633,-0.21223294772593784,-3.668373553972267,8.685630634081566,0.4811111111111111,0.25555555555555554,-0.5488888888888889,0.016489515012529612,-0.08846855204932114,0.0798501838161521
1589552555.167633,-0.2437961410891972,-3.800251078854453,8.934047219943649,0.4811111111111111,0.25555555555555554,-0.5488888888888889,0.040181897014099445,-0.048230173276767666,0.19463348300792982
1589552555.177633,-0.19144031527515246,-3.7179776382895255,8.799417953564678,0.4811111111111111,0.25555555555555554,-0.5488888888888889,0.06628994110140574,-0.004172848879438272,0.042064600372733574
1589552555.187633,-0.16131777178461826,-3.683162652283084,8.92500753278155,0.4622222222222222,0.30666666666666664,-0.5344444444444445,-0.09317567544683306,-0.025718306253287176,0.19387874268097746
1589552555.197633,-0.20032363061471217,-3.776776713475309,9.073229796335905,0.4622222222222222,0.30666666666666664,-0.5344444444444445,-0.009780044088060852,0.02023438857705669,0.15303190283178286
1589552555.207633,-0.1635255664388923,-3.7129270769426053,8.492306797266707,0.4622222222222222,0.30666666666666664,-0.5344444444444445,-0.02542504113966396,-0.08977454954748483,0.16136103215384784
1589552555.217633,-0.1902471027472646,-3.810049420549453,8.810444784945076,0.4622222222222222,0.30666666666666664,-0.5344444444444445,0.07823792338261047,-0.051150445972744936,0.28446238191818735
1589552555.227633,-0.23550575134341886,-3.8191011502686836,8.891910352418154,0.4622222222222222,0.30666666666666664,-0.5344444444444445,0.022944053072190378,-0.0294278540650799,0.43948269689561514
1589552555.237633,-0.18057084505989887,-3.831141690119798,8.95029563398172,0.4622222222222222,0.3211111111111111,-0.5555555555555556,-0.010783768752289813,0.05901051942183133,0.3263196472902459
1589552555.247633,-0.19552526550767774,-3.852762632753839,8.783093418115403,0.4622222222222222,0.3211111111111111,-0.5555555555555556,-0.006315794381075334,-0.13510916583687266,0.243939662488163
1589552555.257633,-0.2522701752012447,-3.8811350876006223,8.712162280998443,0.4622222222222222,0.3211111111111111,-0.5555555555555556,0.018443843316414403,-0.11112326681742947,0.2957801539172822
1589552555.267633,-0.35444784972812654,-3.9983404844290655,8.719987740978743,0.4622222222222222,0.3211111111111111,-0.5555555555555556,0.13762971541675884,0.03454386628023769,0.34827583655998745
1589552555.277633,-0.27151557093425605,-3.8241826989619376,9.01854394463668,0.4622222222222222,0.3211111111111111,-0.5555555555555556,0.058925093580047994,0.012832246463214014,0.4016502352768373
1589552555.287633,-0.2617974791042775,-3.806087471505833,8.789652482903499,0.4777777777777778,0.3288888888888889,-0.5555555555555556,0.03996532315448543,-0.03632878986311237,0.585924496448804
1589552555.297633,-0.3609538829151732,-3.950015770609319,8.86856917562724,0.4777777777777778,0.3288888888888889,-0.5555555555555556,-0.002119313482992158,0.11535416928004909,0.5169914428213194
1589552555.307633,-0.38149606111243733,-4.142519694437814,8.82902888517546,0.4777777777777778,0.3288888888888889,-0.5555555555555556,0.1265993624063246,-0.07050602600314113,0.39512695489056127
1589552555.317633,-0.40699729648543104,-3.9931366776809853,8.637158305797536,0.4777777777777778,0.3288888888888889,-0.5555555555555556,0.06526267886839295,-0.17709469001095512,0.5940729321167779
1589552555.327633,-0.3482006608591169,-3.858744367677981,8.973139080805046,0.4777777777777778,0.3288888888888889,-0.5555555555555556,0.06159769715134088,0.029060531573224108,0.7351747282232828
1589552555.337633,-0.3489487685180938,-3.7292991790120626,8.9343934320965,0.4977777777777778,0.32,-0.5633333333333334,0.021205033964599728,0.06577910243662904,0.7751778849684793
1589552555.347633,-0.3104742466633032,-3.7036494977755354,8.729195982204283,0.4977777777777778,0.32,-0.5633333333333334,-0.0011785355186206756,-0.04194182570136913,0.8003594006371023
1589552555.3576329,-0.29726750861079215,-3.7554075774971296,8.532789896670494,0.4977777777777778,0.32,-0.5633333333333334,-0.011504444969015435,-0.01998938016007569,0.8137597637423563
1589552555.3676329,-0.34379915380786463,-3.892663846026215,8.587358345777336,0.4977777777777778,0.32,-0.5633333333333334,-0.049597054945791655,0.025844042715792548,0.757882128850114
1589552555.3776329,-0.39599303135888503,-4.06664343786295,9.100598141695704,0.4977777777777778,0.32,-0.5633333333333334,-0.011640596085455791,-0.11364594359594174,0.8594156563015124
1589552555.3876328,-0.44110823668690946,-3.9805171771205576,8.751403766470085,0.5877777777777777,0.3144444444444445,-0.57,0.13917783994042157,0.03775999250735343,0.7628586239379893
1589552555.3976328,-0.5790393089689343,-4.044885010852169,8.926116458027316,0.5877777777777777,0.3144444444444445,-0.57,-0.05240720516640174,-0.014399286788745067,0.9444130384109475
1589552555.4076328,-0.5341608214621447,-3.994160821462145,8.681743799262419,0.5877777777777777,0.3144444444444445,-0.57,-0.028039296882815118,-0.05052244808210391,0.9116341593301186
1589552555.4176328,-0.3999015484986638,-3.8072433579625846,8.683347351045432,0.5877777777777777,0.3144444444444445,-0.57,-0.025449660067878917,-0.020553954582247715,0.7872361643920712
1589552555.4276328,-0.3916593302939789,-3.5764612482314098,8.963582770004717,0.5877777777777777,0.3144444444444445,-0.57,0.03568822420143647,-0.006168570048291152,0.7584653953241582
1589552555.4376328,-0.5061265963097245,-3.6492550169734197,8.80400364870794,0.7466666666666667,0.26222222222222225,-0.5777777777777777,-0.0015275611077889544,0.05699342080860285,0.8280806491278777
1589552555.4476328,-0.5667304809133894,-3.84859877753431,8.940191442740169,0.7466666666666667,0.26222222222222225,-0.5777777777777777,-0.01398870022955552,-0.03867020913398721,0.9666849049259212
1589552555.4576328,-0.5102969669011648,-3.8244129858147846,8.770890900703494,0.7466666666666667,0.26222222222222225,-0.5777777777777777,0.04581187361231051,0.02816572633633365,0.7820066621789818
1589552555.4676328,-0.5438951330039172,-3.714651680790599,8.748779026600783,0.7466666666666667,0.26222222222222225,-0.5777777777777777,-0.025634118435996507,-0.03816600719084741,0.8153449439879973
1589552555.4776328,-0.5815662548295334,-3.6210843629261666,8.67897592663355,0.7466666666666667,0.26222222222222225,-0.5777777777777777,-0.01126316476274267,-0.09901587677380506,0.7953996454795655
1589552555.4876328,-0.59,-3.699488881982313,8.98559997739666,1.33455551474397,0.09741235712020896,-0.5968716036127671,0.0035294430505570075,-0.20016259435567396,0.8053385488686625
1589552555.4976327,-0.6617263828501012,-3.826555372131414,9.02,1.3966666666666667,0.08,-0.5988888888888889,-0.015197013452518227,-0.1165279114724253,0.7896104761231237
1589552555.5076327,-0.7525678982138488,-3.9042194763885494,8.845689992659652,1.3966666666666667,0.08,-0.5988888888888889,0.07661731716521046,-0.07178504622880275,0.6384679010998038
1589552555.5176327,-0.7332228650775283,-3.6154515158528118,8.713965748669288,1.3966666666666667,0.08,-0.5988888888888889,0.055875477994230635,0.1425584306956221,0.6990429900730514
1589552555.5276327,-0.8457768949034701,-3.7883984108262463,8.970146088108097,1.3966666666666667,0.08,-0.5988888888888889,0.0439403441689924,0.1031575333950056,0.6776388576331849
1589552555.5376327,-0.9213616417830578,-3.7507320597206615,8.719106865735538,1.1788286866092292,0.07356596683374658,-0.6678249585273184,-0.07766140773402927,-0.05677591221101197,0.7688424552691707
1589552555.5476327,-0.93,-3.75283624351109,8.885974516281266,1.1333333333333333,0.07222222222222223,-0.6822222222222222,0.046924770716225556,-0.01144419968177382,0.6610573534052767
1589552555.5576327,-0.795009583964658,-3.5575143759469867,8.8025111812921,1.1333333333333333,0.07222222222222223,-0.6822222222222222,-0.054053802613464694,-0.0456744443442694,0.6599498355480445
1589552555.5676327,-0.6753462682916888,-3.3340582073125993,8.78257612195818,1.1333333333333333,0.07222222222222223,-0.6822222222222222,-0.08356040358854461,-0.10812217073566316,0.7600295113927924
1589552555.5776327,-0.8574476282205634,-3.531529015169757,8.92792439200578,1.1333333333333333,0.07222222222222223,-0.6822222222222222,0.06598698852219409,-0.03522624337417461,0.7079460259092126
1589552555.5876327,-1.0404330285099517,-3.6595669714900483,8.807834857450242,0.863779809933656,0.15758083796545336,-0.660401222708915,0.10621249078086822,-0.045479839407720726,0.7038612658018834
1589552555.5976326,-0.9225432126998647,-3.5946103710479673,8.81335505879214,0.6666666666666666,0.22,-0.6444444444444445,0.02220145088796724,-0.10866516863478601,0.7452333968839832
1589552555.6076326,-0.9990086069493147,-3.586273509722665,8.708444373605355,0.6666666666666666,0.22,-0.6444444444444445,0.07074926076083167,-0.14955943761488666,0.6129909151420386
1589552555.6176326,-1.1655381805932308,-3.6758945446164213,8.897861815860859,0.6666666666666666,0.22,-0.6444444444444445,0.018815443357182285,-0.022300945832473634,0.639442227483665
1589552555.6276326,-1.2373261379332499,-3.6394124827342518,8.785563586136005,0.6666666666666666,0.22,-0.6444444444444445,-0.07339432994077036,-0.1345030691316201,0.7302144108332372
1589552555.6376326,-1.2075065723343386,-3.6035013144668677,8.797480282996984,0.6031239636760397,0.23949605659939688,-0.6444444444444445,-0.025757371531766243,0.04314757417114762,0.675403508066729
1589552555.6476326,-1.1431808715470155,-3.5719085229282093,8.75636174309403,0.5688888888888889,0.25,-0.6444444444444445,-0.027906219534925447,-0.06141854375147732,0.7982237084447117
1589552555.6576326,-0.8181414473684212,-3.228634868421053,8.525674342105262,0.5688888888888889,0.25,-0.6444444444444445,0.10351051178511599,-0.08808817394574177,0.6998128002108883
1589552555.6676326,-0.8197201966699128,-3.3074817700292156,8.636642360038955,0.5688888888888889,0.25,-0.6444444444444445,-0.037300603772009513,-0.06715111390329201,0.7097645777025879
1589552555.6776326,-0.8605453791960216,-3.3505453791960216,8.876514711976792,0.5688888888888889,0.25,-0.6444444444444445,0.07133020693841456,-0.044426603874777953,0.5885034331889106
1589552555.6876326,-1.0098952351863164,-3.5545879657910815,8.873777947464875,0.5757254802144844,0.24164416615760537,-0.6505214145116406,0.045649602348297555,0.015404169893642225,0.4667544640381601
1589552555.6976326,-1.018317107093185,-3.6055447380621235,8.92336578581363,0.5788888888888889,0.23777777777777775,-0.6533333333333333,0.04819074961782674,-0.05014534441353783,0.5548758323461237
1589552555.7076325,-0.8807754873089328,-3.4277006497452436,8.681550974617867,0.5788888888888889,0.23777777777777775,-0.6533333333333333,-0.10803472220383029,0.007061769156279235,0.511753678022667
1589552555.7176325,-1.0070736506050932,-3.6874621352735915,8.820499480288069,0.5788888888888889,0.23777777777777775,-0.6533333333333333,-0.07364539249226579,0.09073873272081362,0.5251177912755209
1589552555.7276325,-1.0667900173690466,-3.825596672456349,8.958436602980163,0.5788888888888889,0.23777777777777775,-0.6533333333333333,-0.006167606505630564,0.08186581813031744,0.45983618130778936
1589552555.7376325,-1.0224282238442823,-3.8239388251651025,8.866385818561001,0.5858912447379601,0.22377306607963543,-0.6625239253852392,0.07453532610949995,-0.01959544606702306,0.41801151236937534
1589552555.7476325,-0.9546342557449451,-3.9060972327651644,8.866746946380513,0.5966666666666667,0.20222222222222225,-0.6766666666666666,0.09500883186731131,-0.05146431384308429,0.3434793605181531
1589552555.7576325,-0.9785210771719478,-3.955651346464935,8.795915691312208,0.5966666666666667,0.20222222222222225,-0.6766666666666666,0.03655828698520933,0.003499024757777726,0.42227231488766326
1589552555.7676325,-0.9790607757304286,-3.9645303878652145,9.089115952356714,0.5966666666666667,0.20222222222222225,-0.6766666666666666,0.10417130810056238,0.05512612137110376,0.2730693366224116
1589552555.7776325,-0.8707928461223591,-3.9103964230611794,8.867763783494443,0.5966666666666667,0.20222222222222225,-0.6766666666666666,0.028329004910146394,-0.033169547187208825,0.0972136687855924
1589552555.7876325,-12.398652266504413,-13.758757986005477,13.729447824764224,0.5625823952945949,0.195910320116283,-0.6564685799276612,0.7590332944521709,0.46832606126156995,0.2713083160372287
1589552555.7976325,-21.00081847853377,-8.703017825759478,1.8909314586994714,0.5366666666666666,0.19111111111111112,-0.6411111111111111,-1.1213456986905677,-0.539602191602416,-3.3125056802535378
1589552555.8076324,-0.3745201018414335,-0.4270501509858491,12.25759606844692,0.5366666666666666,0.19111111111111112,-0.6411111111111111,-0.7045338163062056,0.14262788484094702,-2.3225808325373842
1589552555.8176324,0.4537309441027011,1.0512730676651512,6.594372826959081,0.5366666666666666,0.19111111111111112,-0.6411111111111111,1.0077222552570335,0.2953840808156363,-1.785139178291616
1589552555.8276324,1.3429024731684553,-0.21588549169185844,8.526730710706243,0.5366666666666666,0.19111111111111112,-0.6411111111111111,1.9270702605903816,0.4846342575553852,-2.0121626305375933
1589552555.8376324,1.227623226467668,0.04123690868910734,11.558662204144381,0.5671045561142605,0.1953094406900896,-0.6463590230848342,-0.7327395415138467,-0.20898012664520482,-0.9148035068162965
1589552555.8476324,1.18,0.08,11.66,0.5688888888888889,0.1955555555555556,-0.6466666666666666,-0.9021170571245691,-0.25416357232167425,-0.8464846872172498
1589552555.8576324,2.761898860036534,-1.4522057021296275,12.910611140657156,0.5688888888888889,0.1955555555555556,-0.6466666666666666,0.35548131359944923,0.43245622778626663,-0.8500984756388705
1589552555.8676324,1.7690048712595685,-1.17705332289492,7.210510612386917,0.5688888888888889,0.1955555555555556,-0.6466666666666666,-0.04604115295539246,-0.12761097572885927,-0.6813688597555926
1589552555.8776324,1.1903863775198535,-1.7511990575093814,6.7989911859673615,0.5688888888888889,0.1955555555555556,-0.6466666666666666,-0.09501232261725326,-0.0811325742250284,-0.44156702039205337
1589552555.8876324,0.5786395902596819,-2.8803899721448465,10.591365801060292,0.5317367039067102,0.2406689230339154,-0.6422437875021215,0.23617069641978797,0.275366405748583,-0.29348631163466515
1589552555.8976324,-0.09430656934306575,-2.650774845592364,8.515845030881527,0.5222222222222223,0.25222222222222224,-0.6411111111111111,0.047818934594401064,0.011305808767042125,-0.19406865716939758
1589552555.9076324,-0.3363135684916685,-2.8126271369833367,9.014531486691192,0.5222222222222223,0.25222222222222224,-0.6411111111111111,-0.07624885924298479,-0.01566750267584338,-0.12294059498634344
1589552555.9176323,-0.4189928026455141,-2.7050359867724296,9.00357317310394,0.5222222222222223,0.25222222222222224,-0.6411111111111111,0.00030866830796126565,-0.009597740666803654,0.027137348087101817
1589552555.9276323,-0.3569032898820608,-2.5808238361266294,8.668550962135319,0.5222222222222223,0.25222222222222224,-0.6411111111111111,0.005732989490528237,0.07994997412225702,0.07028417063365558
1589552555.9376323,-0.3767608377983439,-2.6213544906141104,8.718115328412454,0.5256458549298296,0.25849888218616907,-0.6405405056598432,-0.013973947364547502,0.027205333611915808,0.0198097224324185
1589552555.9476323,-0.45893009478672986,-2.7331003159557663,9.000370853080568,0.5288888888888889,0.2644444444444444,-0.64,-0.0010384433325945725,-0.01939688414401696,0.12663851768054069
1589552555.9576323,-0.44631717549626776,-2.775920706125933,8.839488930458945,0.5288888888888889,0.2644444444444444,-0.64,-0.05206964180378526,-0.0383770716635473,0.2264324472464158
1589552555.9676323,-0.2980840979110946,-2.6480840979110947,8.791915902088904,0.5288888888888889,0.2644444444444444,-0.64,-0.030449974217969085,0.04203267893223071,0.13456594450968307
1589552555.9776323,-3.655890560926279,-14.165308667173843,9.15584547158258,0.5288888888888889,0.2644444444444444,-0.64,-0.1665221511884609,-0.16059922320657036,-1.001027070125729
1589552555.9876323,-4.815836932476561,-16.069175181712843,7.32272411250395,0.5203321745847818,0.2644444444444444,-0.6322211688144481,-0.11953312913153674,0.406217546610427,-1.681070321533512
1589552555.9976323,0.34226236222646644,-2.6075588485699157,9.009392991095055,0.5166666666666667,0.2644444444444444,-0.6288888888888889,0.13007731004910153,0.4649131889300405,-1.4279180262738724
1589552556.0076323,0.029031304418256187,-1.0509686955817439,8.19816101729235,0.5166666666666667,0.2644444444444444,-0.6288888888888889,-0.08750682263242063,0.010061459483310775,-0.9362814019017291
1589552556.0176322,-1.0670850834308798,-2.354661800821685,8.480087217976084,0.5166666666666667,0.2644444444444444,-0.6288888888888889,-0.09167199786905111,-0.06477472812562299,-0.516321237531311
1589552556.0276322,-0.9496888239940637,-2.7328474998204753,9.598464705459943,0.5166666666666667,0.2644444444444444,-0.6288888888888889,0.059945899746685335,0.008390574186785162,-0.33821582187367233
1589552556.0376322,-1.3059667111961584,-6.025479113261364,8.991688991587536,0.5056026525135093,0.2672104479827338,-0.6325768936066081,-0.029210748522906005,-0.07112540048113825,-0.5649733290644285
1589552556.0476322,-1.636922284718371,-8.419207795294305,8.310423829517546,0.49,0.27111111111111114,-0.6377777777777778,-0.05052897905798781,-0.0754538964123941,-0.8179634762841085
1589552556.0576322,-0.9147952166000993,-3.4642750454942925,9.429121073901637,0.49,0.27111111111111114,-0.6377777777777778,0.04311716648280406,0.0028006145169688357,-0.35069378251009187
1589552556.0676322,-1.1585892106269113,-3.2510552847859326,8.84595828555046,0.49,0.27111111111111114,-0.6377777777777778,-0.106113968001235,-0.17791013271521527,-0.24658011442834554
1589552556.0776322,-1.1156061439706557,-4.468953690967446,8.912922512608896,0.49,0.27111111111111114,-0.6377777777777778,-0.027168988698478322,-0.0661675645898068,-0.28154737616049286
1589552556.0876322,-0.7722936773075971,-4.562066010888394,9.159857708487998,0.4849952569495999,0.29113008331271134,-0.6094175671588441,0.13616262849615723,0.05725154232531217,-0.1965500731229446
1589552556.0976322,-0.9124067269032899,-4.3367563010678305,8.670537806406985,0.4833333333333333,0.2977777777777777,-0.6,0.0296903945586644,0.0768359208314495,-0.13211115695657838
1589552556.1076322,-1.080154554792322,-4.357449765680169,8.595409578224304,0.4833333333333333,0.2977777777777777,-0.6,0.010385651630243988,0.03338077349052382,-0.07536679918815559
1589552556.1176322,-1.0252860596293312,-4.377767929089444,8.79958904109589,0.4833333333333333,0.2977777777777777,-0.6,0.008473496167015183,-0.004696461620369508,-0.018516874507711792
1589552556.1276321,-0.7245903423062694,-4.226392836158683,8.951310904619938,0.4833333333333333,0.2977777777777777,-0.6,-0.0761794078857088,-0.01868759557300769,0.006473485939361489
1589552556.1376321,-0.8143374024666499,-4.145848854769696,8.694534356909136,0.5073786251643035,0.30622612355622675,-0.608448345778449,-0.08854248476474348,-0.07872500772227538,0.20613969907409588
1589552556.1476321,-0.7761070365542867,-4.239485827675427,8.765750248039998,0.5244444444444445,0.31222222222222223,-0.6144444444444445,-0.04552187122322107,0.02530429046020305,0.14459404164654444
1589552556.157632,-0.728229271673387,-4.224930065524194,8.80454794606855,0.5244444444444445,0.31222222222222223,-0.6144444444444445,0.048746844226499414,0.04701142537009708,-0.066116771213481
1589552556.167632,-0.7652309140302467,-4.13215362895463,8.748923185522685,0.5244444444444445,0.31222222222222223,-0.6144444444444445,-0.01043897221652089,-0.059794695874575934,0.05445851754309651
1589552556.177632,-0.7764697637164598,-4.138241890268322,8.777651181417701,0.5244444444444445,0.31222222222222223,-0.6144444444444445,-0.05915954961812278,-0.05921634096843296,0.038795918823052764
1589552556.187632,-0.7704707077063906,-4.186234338348876,8.807646461468048,0.5244444444444445,0.31222222222222223,-0.6144444444444445,-0.044762848702374236,0.008840790633287382,-0.14181723811997435
1589552556.197632,-0.762094778243213,-4.236047389121607,8.763715665270361,0.4922222222222222,0.3055555555555556,-0.6355555555555555,-0.0779359579792876,-0.09449696187175538,0.047194153914365905
1589552556.207632,-0.7390518860076534,-4.213577829011481,8.81642217098852,0.4922222222222222,0.3055555555555556,-0.6355555555555555,0.01727372144111436,-0.008135430650595868,0.006431786986320461
1589552556.217632,-0.7465107783999423,-4.166978443200115,8.83,0.4922222222222222,0.3055555555555556,-0.6355555555555555,0.04001546168827378,-0.0036412844324707483,0.103624939662944
1589552556.227632,-0.7551341445535845,-4.164329277232078,8.84946342178566,0.4922222222222222,0.3055555555555556,-0.6355555555555555,0.023822682404896947,-0.002554120866038838,0.08674895366962433
1589552556.237632,-0.7618852999340804,-4.197923533289387,8.854152933421226,0.4970643814546254,0.31127810737566836,-0.6293928074415879,0.009799500266223931,0.010234538251332921,0.009096248779551858
1589552556.247632,-0.7758365368996697,-4.21416346310033,8.817509610699009,0.5044444444444445,0.32,-0.62,0.038587112714728644,-0.031107547864525874,-0.022148076062045097
1589552556.257632,-0.7539541547277937,-4.2135816618911175,8.79679083094556,0.5044444444444445,0.32,-0.62,0.09840918964728057,0.0011720961129976248,-0.08422213829555732
1589552556.267632,-0.7209375295191914,-4.200375011807677,8.790187505903837,0.5044444444444445,0.32,-0.62,0.047267107068678135,-0.0031497700204053966,-0.09142524851789569
1589552556.277632,-0.7574731577909624,-4.172526842209037,8.820107368836151,0.5044444444444445,0.32,-0.62,0.005853167764288285,-0.0009268610583211684,0.014743783748435223
1589552556.287632,-0.75,-4.180290195776167,8.849516340373054,0.504508932394704,0.32004299196683966,-0.62,-0.03393581795073104,0.04544158558303488,0.018896326951883077
1589552556.297632,-0.75,-4.216408172925213,8.79038774061218,0.5111111111111111,0.3244444444444444,-0.62,0.06964398632161697,0.07765818480245573,-0.05392710777526262
1589552556.307632,-0.7530457782299085,-4.226954221770092,8.745633774160732,0.5111111111111111,0.3244444444444444,-0.62,0.03734170108170778,-0.026429620291676593,-0.018094696581268777
1589552556.317632,-0.7545694307877199,-4.20913886157544,8.749736261335082,0.5111111111111111,0.3244444444444444,-0.62,-0.0010391792954283913,-0.011044527598196657,0.03359148621778543
1589552556.327632,-0.75,-4.17864352735692,8.82135647264308,0.5111111111111111,0.3244444444444444,-0.62,0.04022378140134338,-0.039334620723503196,0.01963495408493621
1589552556.337632,-0.7439432955597689,-4.168170113320693,8.865141761100578,0.5090922096310341,0.32074312506430325,-0.62,0.015547140400787491,-0.09218782703392753,-0.0041496686330569806
1589552556.347632,-0.7432605274146404,-4.21331513185366,8.866848681463399,0.5044444444444445,0.31222222222222223,-0.62,-0.06413862861639948,0.047438367772729376,-0.020572634790334672
1589552556.357632,-0.7596999829397285,-4.22,8.75364992322878,0.5044444444444445,0.31222222222222223,-0.62,-0.06137545533363671,0.07957604044857386,0.08818281256464758
1589552556.367632,-0.75,-4.203740902832416,8.78587578678206,0.5044444444444445,0.31222222222222223,-0.62,0.03873640094314593,-0.02248931966464627,0.05277800432760919
1589552556.377632,-0.75,-4.174620611177994,8.853844847205501,0.5044444444444445,0.31222222222222223,-0.62,0.03994688994678925,-0.05731741266561663,-0.01224744801080878
1589552556.387632,-0.75,-4.152844185426115,8.860948061808704,0.5039177434396084,0.31222222222222223,-0.6206320412058033,0.009780609375094734,-0.021159242979768983,-0.03435981537184656
1589552556.397632,-0.75,-4.178665325973199,8.869555108657732,0.4991360507457037,0.31222222222222223,-0.6263700724384889,-0.02026365190269483,0.014518317287606119,-0.08881503893784015
1589552556.4076319,-0.7677313299100528,-4.224537340179895,8.754119309370369,0.4988888888888889,0.31222222222222223,-0.6266666666666667,0.014392410141598654,0.024665888059129035,-0.0493901953564977
1589552556.4176319,-0.7605040148878244,-4.238991970224351,8.70352810421477,0.4988888888888889,0.31222222222222223,-0.6266666666666667,-0.009258922961538563,0.07196855426540348,-0.03992966211524282
1589552556.4276319,-0.756202084887296,-4.212404169774592,8.793292702894464,0.4988888888888889,0.31222222222222223,-0.6266666666666667,0.009361374947136066,0.07040608494303016,-0.0077612569491974995
1589552556.4376318,-0.7409409281932796,-4.181881856386559,8.846706751323522,0.4988888888888889,0.31222222222222223,-0.6266666666666667,-0.005621230601365384,0.042105607795860756,-0.047714871745201365
1589552556.4476318,-0.7413221890392895,-4.188491641779467,8.851508358220533,0.5044444444444445,0.32,-0.6266666666666667,-0.08981781269503766,-0.046601105036868824,-0.030006963922896736
1589552556.4576318,-0.7642570636692586,-4.211914312110247,8.808942566787282,0.5044444444444445,0.32,-0.6266666666666667,-0.06373554032394241,-0.11723298416018352,-0.005709708464113407
