time,acc_x,acc_y,acc_z,mag_x,mag_y,mag_z,gyr_x,gyr_y,gyr_z
1589552288.6953485,-0.13,-4.23,8.85,0.4633333333333333,0.25222222222222224,-0.7144444444444444,-0.11780972450961726,-0.03817907738737596,0.01308996938995747
1589552288.7053485,-0.13434669833432294,-4.217386793337292,8.882613206662707,0.4667140987044734,0.25222222222222224,-0.7110636790733044,-0.06497852514601861,0.03475839786492761,-0.04638500611859254
1589552288.7153485,-0.1448613120834777,-4.24,8.864861312083477,0.4711111111111111,0.25222222222222224,-0.7066666666666667,-0.019421576583756168,-0.0045782790644419424,0.029606873042459306
1589552288.7253485,-0.1438822453830682,-4.233882245383068,8.830234594989943,0.4711111111111111,0.25222222222222224,-0.7066666666666667,0.021765434962639198,-0.06877351998456664,0.09871366356934165
1589552288.7353485,-0.13154700854700854,-4.221547008547009,8.75082905982906,0.4711111111111111,0.25222222222222224,-0.7066666666666667,0.045501628640134226,-0.040649762493030324,0.08069723722068227
1589552288.7453485,-0.14,-4.238180841793827,8.826361683587654,0.4711111111111111,0.25222222222222224,-0.7066666666666667,0.018549981209857867,0.030441113267715505,0.026381892901318215
1589552288.7553484,-0.13583164829430566,-4.25,8.858336703411387,0.46509015864733033,0.25500112335935177,-0.6987931134447996,-0.018712326548791694,0.05380917194432341,-0.018362685790511896
1589552288.7653484,-0.13,-4.2735428795068735,8.858228560246562,0.4566666666666666,0.2588888888888889,-0.6877777777777778,0.018089081275026838,0.023156766985031774,-0.003370132224291271
1589552288.7753484,-0.13176612599019238,-4.308233874009807,8.831169370049038,0.4566666666666666,0.2588888888888889,-0.6877777777777778,-0.006295134656830171,0.0028871834283155915,0.014881055104801142
1589552288.7853484,-0.13606944661560108,-4.3117916601531965,8.813583320306392,0.4566666666666666,0.2588888888888889,-0.6877777777777778,0.024929989430290615,0.019098619003077997,-0.05175384151152718
1589552288.7953484,-0.12734209369351765,-4.316710468467589,8.868605344145376,0.4566666666666666,0.2588888888888889,-0.6877777777777778,0.08981249820069742,0.048065454053788564,-0.07456676455219484
1589552288.8053484,-0.1299310517738498,-4.2775172370565375,8.915034474113074,0.46328736784923313,0.25723371359324726,-0.6943984789603443,-0.05059953348773802,0.02581126888025211,0.014684849597586426
1589552288.8153484,-0.15626350906869654,-4.27,8.896263509068698,0.4833333333333333,0.25222222222222224,-0.7144444444444444,-0.09656799646689046,-0.022737891492640865,0.023757988956847446
1589552288.8253484,-0.13611416346574612,-4.258342490397238,8.848913307725969,0.4833333333333333,0.25222222222222224,-0.7144444444444444,-0.01700310670374114,0.0895786504716926,0.0016835294743036133
1589552288.8353484,-0.13331798782897336,-4.25990792697384,8.80995396348692,0.4833333333333333,0.25222222222222224,-0.7144444444444444,0.05235987755982988,0.052807184563305964,-0.029910148137755162
1589552288.8453484,-0.14212575555381113,-4.302125755553811,8.825748488892378,0.4833333333333333,0.25222222222222224,-0.7144444444444444,0.05189610964099788,0.015434925899782844,-0.09879840811907789
1589552288.8553483,-0.14625391205386779,-4.31,8.828730439730661,0.4787547813991717,0.25222222222222224,-0.7069522685521801,0.015035622802849542,0.000557364079837204,0.06437608572241801
1589552288.8653483,-0.1356220242211115,-4.314377975778888,8.864377975778888,0.4711111111111111,0.25222222222222224,-0.6944444444444444,0.014629463784694749,-0.026185132493856532,-0.01162318699040251
1589552288.8753483,-0.14105349434457135,-4.308946505655429,8.833155018851429,0.4711111111111111,0.25222222222222224,-0.6944444444444444,0.052471815716735426,-0.057700901215759055,-0.03559251917709053
1589552288.8853483,-0.15634972953060472,-4.286349729530605,8.791901622816372,0.4711111111111111,0.25222222222222224,-0.6944444444444444,-0.01090830782496456,-0.05747310058812264,0.08827975910048597
1589552288.8953483,-0.15,-4.281664614493174,8.841652301452214,0.4711111111111111,0.25222222222222224,-0.6944444444444444,-0.01526625837730871,0.029607149512210287,0.15838965277849218
1589552288.9053483,-0.15,-4.289259406801144,8.894815847608012,0.4711111111111111,0.25222222222222224,-0.6944444444444444,-0.03514937814419337,0.1298512116702538,0.020036277733919722
1589552288.9153483,-0.1298375589360377,-4.277540610265991,8.930162441063962,0.4833333333333333,0.24444444444444444,-0.7066666666666667,0.06723670947950684,0.1006197413256072,-0.023922430462889357
1589552288.9253483,-0.15968757228004626,-4.270078106929988,8.900312427719953,0.4833333333333333,0.24444444444444444,-0.7066666666666667,0.03955959307796853,0.0021217682495443813,0.06236505008308304
1589552288.9353483,-0.16,-4.262833755736694,8.785667511473388,0.4833333333333333,0.24444444444444444,-0.7066666666666667,-0.04646330916257732,0.00676757424913018,0.01842868159006513
1589552288.9453483,-0.159912635644657,-4.269970878548219,8.800087364355344,0.4833333333333333,0.24444444444444444,-0.7066666666666667,0.05588773974012917,0.08108485409606228,-0.08900339210023747
1589552288.9553483,-0.1326339198299253,-4.26,8.845803518979553,0.4833333333333333,0.2482489953098921,-0.7066666666666667,-0.1712654981099898,-0.134371958803863,0.07016377137465932
1589552288.9653482,-0.1435066043669692,-4.267013208733938,8.886493395633032,0.4833333333333333,0.2588888888888889,-0.7066666666666667,-0.020315387842874063,-0.029650425392894728,0.10130597131984148
1589552288.9753482,-0.14664410008237233,-4.286711799835255,8.853152800658979,0.4833333333333333,0.2588888888888889,-0.7066666666666667,-0.025314866839347843,-0.009817477042468105,0.04968342786627515
1589552288.9853482,-0.14384076948716729,-4.296159230512832,8.819203847435837,0.4833333333333333,0.2588888888888889,-0.7066666666666667,0.038733556631371464,0.05093215194112221,-0.10898096057342122
1589552288.9953482,-0.15,-4.280775190832393,8.868449618335214,0.4833333333333333,0.2588888888888889,-0.7066666666666667,0.016652767012174843,0.11179182200310847,-0.08184329879096297
1589552289.0053482,-0.15187200625631334,-4.2581279937436864,8.91,0.4810453256867281,0.25535287707140814,-0.7041706583249155,-0.12128119599361857,0.03312810681634688,0.005759518285789557
1589552289.0153482,-0.16,-4.256565982348056,8.890302052955832,0.4711111111111111,0.24,-0.6933333333333334,-0.09946761314972868,0.009694319068106402,-0.05998353734944899
1589552289.0253482,-0.15591456111332916,-4.265914561113329,8.831615525009981,0.4711111111111111,0.24,-0.6933333333333334,-0.02488958171443975,-0.05708878111974494,0.0011709026023260845
1589552289.0353482,-0.14556370120863882,-4.247218149395681,8.771127402417278,0.4711111111111111,0.24,-0.6933333333333334,-0.05081710955399281,-0.02269347328507636,0.05065414414681977
1589552289.0453482,-0.1573565092304004,-4.24,8.807930472308799,0.4711111111111111,0.24,-0.6933333333333334,-0.10475767659255883,-0.07250894220631765,0.029427742940910027
1589552289.0553482,-0.1433780129335685,-4.243378012933569,8.863378012933568,0.4711111111111111,0.24,-0.6955853419557123,-0.06825150569321506,-0.06687991905147289,-0.002860144203371072
1589552289.0653481,-0.15760499710896572,-4.262395002891034,8.875209994217931,0.4711111111111111,0.24,-0.7066666666666667,-0.011118817352033676,-0.04527382565931276,-0.03410542943373475
1589552289.0753481,-0.15025598794526307,-4.269744012054736,8.860511975890526,0.4711111111111111,0.24,-0.7066666666666667,0.041790250397627696,-0.006794503659559033,-0.1856177598077651
1589552289.0853481,-0.17,-4.279185634622804,8.815140111528075,0.4711111111111111,0.24,-0.7066666666666667,0.020223351568006927,-0.02491144103308946,-0.0374378419364985
1589552289.0953481,-0.17,-4.242410304071827,8.86662557429944,0.4711111111111111,0.24,-0.7066666666666667,0.007386339535530837,-0.0168883085127919,0.005887073673108298
1589552289.105348,-0.15,-4.249086717757469,8.89908671775747,0.4711111111111111,0.2417250886803364,-0.7066666666666667,0.012472110603642013,0.051418001663087215,0.04597390622878459
1589552289.115348,-0.15,-4.240492192942912,8.890492192942913,0.4711111111111111,0.25795919110783255,-0.7066666666666667,-0.034403750539598876,-0.04983385840631314,-0.03465257493758977
1589552289.125348,-0.15,-4.24,8.860895162115169,0.4711111111111111,0.2588888888888889,-0.7066666666666667,-0.017029277657940683,0.03836004573443633,-0.041642088569292135
1589552289.135348,-0.15168563000421406,-4.238314369995786,8.813371260008429,0.4711111111111111,0.2588888888888889,-0.7066666666666667,0.08179989721183285,-0.02067613896582726,-0.011986727132059664
1589552289.145348,-0.16,-4.235735635572919,8.837647514097224,0.4711111111111111,0.2588888888888889,-0.7066666666666667,0.044240901195462624,0.0027592595398621337,0.012224838825385137
1589552289.155348,-0.16,-4.258923082593152,8.868564110124202,0.4711111111111111,0.2588888888888889,-0.7066666666666667,-0.08559948115404392,0.00950421446710923,0.08810558175691495
1589552289.165348,-0.14237850950449377,-4.232378509504494,8.867621490495505,0.4833333333333333,0.24444444444444444,-0.7144444444444444,-0.022134677023398615,0.1138342610004976,0.01826788014555844
1589552289.175348,-0.15,-4.238996054240302,8.852972379682116,0.4833333333333333,0.24444444444444444,-0.7144444444444444,-0.0037148504790819343,0.03445561859601691,0.07266052092022422
1589552289.185348,-0.15,-4.233733416575621,8.79373341657562,0.4833333333333333,0.24444444444444444,-0.7144444444444444,-0.01948955538222792,-0.006239715521728207,0.10530169044267723
1589552289.195348,-0.1499447094535993,-4.249889418907198,8.810331743278404,0.4833333333333333,0.24444444444444444,-0.7144444444444444,-0.028156537402925102,-0.03866760969033486,0.13525012668314984
1589552289.205348,-0.1408503902862099,-4.23170078057242,8.86489765828274,0.4833333333333333,0.24444444444444444,-0.7144444444444444,0.005572697795437013,-0.11902255236878578,-0.046292521590387437
1589552289.215348,-0.149546929767623,-4.239546929767624,8.910453070232377,0.4777777777777778,0.24444444444444444,-0.6933333333333334,-0.01397957071095484,0.08246895964639765,-0.09287950423619733
1589552289.225348,-0.13139685836687004,-4.2213968583668695,8.928603141633129,0.4777777777777778,0.24444444444444444,-0.6933333333333334,-0.04961715257016464,-0.06602096476697654,0.03185203227103697
1589552289.235348,-0.16278010970665396,-4.254813260195564,8.819253040782257,0.4777777777777778,0.24444444444444444,-0.6933333333333334,0.018105137406330876,0.038785603236723025,0.10680643401861659
1589552289.245348,-0.14,-4.264240656647223,8.885759343352778,0.4777777777777778,0.24444444444444444,-0.6933333333333334,-0.02611112841724108,0.027533285241214768,0.032499797523278154
1589552289.255348,-0.14,-4.24033288366172,8.90966711633828,0.4777777777777778,0.24444444444444444,-0.6933333333333334,0.010399940181692095,0.0014539505276910739,-0.031829228103413626
1589552289.265348,-0.16218584401044905,-4.244371688020898,8.886884935937307,0.4633333333333333,0.24,-0.7144444444444444,0.02230608508625469,0.0008996674031730295,-0.0066164131467645465
1589552289.275348,-0.16631607476962354,-4.261841962615188,8.827106261693682,0.4633333333333333,0.24,-0.7144444444444444,0.11198343419736394,-0.060971792889784986,0.01596001653504965
1589552289.285348,-0.1516478693455035,-4.2691760653272475,8.775767542709263,0.4633333333333333,0.24,-0.7144444444444444,0.058381658695315045,-0.0561716338896015,0.04476097053615054
1589552289.295348,-0.15198832188979972,-4.2480116781102,8.789941609448999,0.4633333333333333,0.24,-0.7144444444444444,-0.02068086696332811,-0.04968677470406356,-0.05035655978406686
1589552289.305348,-0.1599657644977842,-4.240034235502216,8.82982882248892,0.4633333333333333,0.24,-0.7144444444444444,0.09766687652515249,0.061699336814506414,0.07147199968936901
1589552289.315348,-0.15433176907126486,-4.26,8.862165884535631,0.4833333333333333,0.23222222222222225,-0.6933333333333334,-0.06625422602118014,0.02720043639354761,-0.061086523819801536
1589552289.325348,-0.16849806393963465,-4.258498063939634,8.859486447577442,0.4833333333333333,0.23222222222222225,-0.6933333333333334,-0.018867571091550718,0.002944820729891768,-0.055188434703044735
1589552289.335348,-0.16,-4.248067848456736,8.80966075771632,0.4833333333333333,0.23222222222222225,-0.6933333333333334,-0.0038677818688652764,-0.017878022636067643,-0.012964484054599205
1589552289.345348,-0.1634208452282957,-4.241710422614148,8.85684169045659,0.4833333333333333,0.23222222222222225,-0.6933333333333334,-0.01501302742986374,-0.0836503118443327,0.02101302659317717
1589552289.3553479,-0.17811268543005762,-4.249056342715029,8.886225370860116,0.4833333333333333,0.23222222222222225,-0.6933333333333334,-0.03264197012782466,-0.025955590287369698,0.0081919773582965
1589552289.3653479,-0.1567244672722642,-4.226724467272264,8.905517021818492,0.4833333333333333,0.2529115846468763,-0.7036780145456604,-0.07045211964967167,0.0017676107602945836,0.030242007768168787
1589552289.3753479,-0.16271994001175447,-4.239079910017631,8.897280059988246,0.4833333333333333,0.2588888888888889,-0.7066666666666667,0.0011428045816097854,0.031223829075236343,0.04125083723977853
1589552289.3853478,-0.17,-4.259000900765651,8.790990091577841,0.4833333333333333,0.2588888888888889,-0.7066666666666667,0.09316146870653601,-0.04364207454595562,-0.10167997115558541
1589552289.3953478,-0.16308567002869162,-4.26,8.814571649856541,0.4833333333333333,0.2588888888888889,-0.7066666666666667,-0.005909852403284913,-0.06702696349380016,-0.01070815609243489
1589552289.4053478,-0.15168749361571726,-4.251687493615718,8.854937519152848,0.4833333333333333,0.2588888888888889,-0.7066666666666667,0.012926394914622448,-0.045883048896240744,0.05522332229222737
1589552289.4153478,-0.15782512112044345,-4.226524636638669,8.875650242240887,0.47376929640834686,0.25367214147525996,-0.7031888350575807,-0.06430042096647938,-0.04889662194731173,0.026468506874025757
1589552289.4253478,-0.1486917791609409,-4.248691779160941,8.87560957077035,0.4711111111111111,0.25222222222222224,-0.7022222222222222,0.043492748590079455,-0.028715029165730932,-0.01458198535507477
1589552289.4353478,-0.14191092070164094,-4.241910920701641,8.80102012771805,0.4711111111111111,0.25222222222222224,-0.7022222222222222,-0.03639235811280433,-0.1492823661339722,0.1133821207523224
1589552289.4453478,-0.16,-4.25,8.832490191368404,0.4711111111111111,0.25222222222222224,-0.7022222222222222,-0.048222424267584135,0.05314186234609706,0.006419210307374051
1589552289.4553478,-0.16,-4.25,8.874470133717672,0.4711111111111111,0.25222222222222224,-0.7022222222222222,-0.015251454646938799,-0.025622120636555695,0.07785631115210562
1589552289.4653478,-0.16746316339768041,-4.25253683660232,8.881268418301161,0.4711111111111111,0.24,-0.7022222222222222,-0.04194072962648765,0.023428752323834123,0.01400399717362964
1589552289.4753478,-0.15122098088949987,-4.268779019110499,8.88938950955525,0.4711111111111111,0.24,-0.7022222222222222,-0.017136267909699295,0.012798268730924834,-0.06395288250770517
1589552289.4853477,-0.15355949947654418,-4.278220250261728,8.772669624607408,0.4711111111111111,0.24,-0.7022222222222222,-0.013043854204576495,0.0947445728441671,0.0535150412011774
1589552289.4953477,-0.18894277875759358,-4.262114442484813,8.805286106212034,0.4711111111111111,0.24,-0.7022222222222222,-0.03236943619460922,-0.02454102057309536,-0.013388382043762106
1589552289.5053477,-0.18072349598275522,-4.27855300803449,8.846382520086223,0.4711111111111111,0.24,-0.7022222222222222,-0.012644573540768835,-0.07116342320944537,0.06909740723593402
1589552289.5153477,-0.18,-4.271005478872246,8.885978084511017,0.48210441471169946,0.2509933036005884,-0.6892301361487996,0.028337694254911228,-0.10862642576014989,-0.11300380526064874
1589552289.5253477,-0.17,-4.24,8.825905115773256,0.4833333333333333,0.25222222222222224,-0.6877777777777778,-0.00819203092880659,-0.005071283132600203,0.17817271844613533
1589552289.5353477,-0.17,-4.2400994909764,8.760497454882,0.4833333333333333,0.25222222222222224,-0.6877777777777778,-0.06955270331264307,-0.0006347615497405337,0.0426130697952653
1589552289.5453477,-0.16867567046112292,-4.25,8.812648659077755,0.4833333333333333,0.25222222222222224,-0.6877777777777778,-0.04103291633094058,-0.16317793027186944,-0.0542820800878439
1589552289.5553477,-0.1524908354234999,-4.25,8.845018329153,0.4833333333333333,0.25222222222222224,-0.6877777777777778,-0.00925406704734115,-0.05106921196583808,0.002213651971888428
1589552289.5653477,-0.15,-4.22,8.927160586469638,0.4566666666666666,0.25222222222222224,-0.7066666666666667,0.08038972866768435,0.00984455261603503,-0.05015114042127004
1589552289.5753477,-0.15,-4.22,8.902949665204341,0.4566666666666666,0.25222222222222224,-0.7066666666666667,-0.034053683483711614,-0.027129472848262122,-0.08712516588556721
1589552289.5853477,-0.16428549266003453,-4.248570985320069,8.828572536699829,0.4566666666666666,0.25222222222222224,-0.7066666666666667,-0.02929688826581266,0.026023211313366254,-0.0651385919973245
1589552289.5953476,-0.17,-4.269351778656126,8.856110671936758,0.4566666666666666,0.25222222222222224,-0.7066666666666667,-0.04629951491999977,0.03684593557730518,0.07195344043720892
1589552289.6053476,-0.16192431756784,-4.237697270271361,8.86807568243216,0.4566666666666666,0.25222222222222224,-0.7066666666666667,0.05419020021548118,0.09589999613171162,0.064864912528739
1589552289.6153476,-0.15,-4.21,8.900983197979011,0.4633333333333333,0.24444444444444444,-0.7233333333333334,0.0010725026207926195,-0.034962475761046025,-0.06333877932346604
1589552289.6253476,-0.15,-4.21,8.922317017344568,0.4633333333333333,0.24444444444444444,-0.7233333333333334,0.02434408949296274,0.0821711781622102,-0.11220911175502327
1589552289.6353476,-0.10029986662374098,-4.139100400128776,8.790749666559352,0.4633333333333333,0.24444444444444444,-0.7233333333333334,-0.008863909426089951,-0.03621645492445634,-0.06551526769855134
1589552289.6453476,-0.1195902129420963,-4.081229361173711,8.83897553235524,0.4633333333333333,0.24444444444444444,-0.7233333333333334,0.1226517378806549,0.0900385664900187,-0.06972376841236719
1589552289.6553476,-0.13704074220128268,-4.062959257798717,8.814438886698076,0.4633333333333333,0.24444444444444444,-0.7233333333333334,-0.011180421213537323,0.01650749529824201,-0.04564803408510397
1589552289.6653476,-0.14,-4.020686578962226,8.908283552594433,0.47097760964623364,0.2520887207573448,-0.7145970175471615,0.007977704793360109,-0.11680351918560136,0.04646122442329041
1589552289.6753476,-0.2236989123062624,-3.9748215227712325,8.84408174030998,0.4711111111111111,0.25222222222222224,-0.7144444444444444,-0.08072147790473774,0.0019090977278331707,-0.1425122779628704
1589552289.6853476,-0.33746459830641146,-3.860606276239949,8.75554330036291,0.4711111111111111,0.25222222222222224,-0.7144444444444444,-0.08229845920248186,-0.08630790077426648,0.02407729704958946
1589552289.6953475,-0.8067124468451902,-3.4869589702333066,8.655589012757154,0.4711111111111111,0.25222222222222224,-0.7144444444444444,-0.08974700252184899,-0.029075761654239085,-0.009461744098515265
1589552289.7053475,-0.6058590966555568,-3.3744810941271117,8.703793816802667,0.4711111111111111,0.25222222222222224,-0.7144444444444444,-0.054691479777146175,-0.2139936441325463,-0.1663352083810603
1589552289.7153475,-0.828993023038022,-3.177916276456265,8.94826512455516,0.4833333333333333,0.24444444444444444,-0.7022222222222222,-0.07697155554582329,-0.038777256788659724,-0.012885502466267018
1589552289.7253475,-0.7985130426767444,-3.0686977601622267,9.268513042676744,0.4833333333333333,0.24444444444444444,-0.7022222222222222,-0.029112161099371817,0.033105492606772105,-0.028128372297799478
1589552289.7353475,-0.5433523827080837,-3.0532334777398837,9.013352382708085,0.4833333333333333,0.24444444444444444,-0.7022222222222222,-0.08984025616321029,0.024671034959016767,0.0005487837045686852
1589552289.7453475,-0.026902004760161136,-3.057591770413768,8.990367081655071,0.4833333333333333,0.24444444444444444,-0.7022222222222222,-0.01144338808384475,-0.025124307361280625,0.23842241680252596
1589552289.7553475,0.12,-2.9353718614890325,8.788132164531355,0.4833333333333333,0.24444444444444444,-0.7022222222222222,0.005217953633173719,-0.011811614883239858,0.3901478244594587
1589552289.7653475,0.05633815659068385,-2.9327563924677897,9.087443805748267,0.45908120251073664,0.24444444444444444,-0.6890856513599825,0.02758018063272903,-0.044148916417054276,0.6556766532310397
1589552289.7753475,0.01717676658997236,-2.992517173456044,8.801767665899725,0.4566666666666666,0.24444444444444444,-0.6877777777777778,-0.01815098509332423,-0.06770577377239714,0.6945921207549668
1589552289.7853475,0.020291441887189964,-3.094401953586363,8.717929581511157,0.4566666666666666,0.24444444444444444,-0.6877777777777778,-0.045108866595310555,-0.053838820830011264,0.8408199371872798
1589552289.7953475,0.01776989482993982,-3.1483451577550903,8.77223010517006,0.4566666666666666,0.24444444444444444,-0.6877777777777778,-0.0698286482116584,0.012155597772588081,0.9158190628894243
1589552289.8053474,0.030866852260727655,-3.125221912898787,8.793911234840486,0.4566666666666666,0.24444444444444444,-0.6877777777777778,-0.07901487976010824,-0.007723567824190362,0.8777450819685441
1589552289.8153474,-0.0002444775378505834,-3.190488955075701,8.89390378092165,0.47455310112793353,0.24966132116231396,-0.697466263110964,-0.00026496890687595365,0.004949169744081612,0.8299488811242574
1589552289.8253474,-0.07051895949268797,-3.280518959492688,9.007358612656917,0.4833333333333333,0.25222222222222224,-0.7022222222222222,0.004023664936290146,-0.08730782579620561,1.041882733376043
1589552289.8353474,-0.09360362675280817,-3.3376126936348287,8.965585492988767,0.4833333333333333,0.25222222222222224,-0.7022222222222222,-0.034828022159214905,-0.08424943976226043,0.8913754851992564
1589552289.8453474,-0.1693799299635669,-3.351327508754554,8.974689964981783,0.4833333333333333,0.25222222222222224,-0.7022222222222222,-0.06531456865317839,0.010164277193615151,1.0665019879145194
1589552289.8553474,-0.2260000401501616,-3.319333306566559,8.933999959849839,0.4833333333333333,0.25222222222222224,-0.7022222222222222,0.06617718426353753,0.027925272411612495,1.0879582446470197
1589552289.8653474,-0.2972886159659896,-3.3672886159659896,8.939096205321997,0.478028831855001,0.23312601690022572,-0.7064658234048882,0.11523370812229526,-0.08719964899959191,1.0466918976265032
1589552289.8753474,-0.3555944919712704,-3.3792657486618785,8.912202754014364,0.4777777777777778,0.23222222222222225,-0.7066666666666667,-0.04002534054946119,-0.08665619819424739,1.085445345084614
1589552289.8853474,-0.4320762948413109,-3.37199152279541,8.797881319135739,0.4777777777777778,0.23222222222222225,-0.7066666666666667,0.014032912703399257,-0.1184984376032658,1.1873647169807382
1589552289.8953474,-0.493041161582523,-3.37,8.795824696949515,0.4777777777777778,0.23222222222222225,-0.7066666666666667,-0.012651312141229581,-0.1471946453157817,1.217547074229797
1589552289.9053473,-0.5171814268334529,-3.37,8.85154428050036,0.4777777777777778,0.23222222222222225,-0.7066666666666667,-0.02088442270341228,-0.0961827630808019,1.2253300614501597
1589552289.9153473,-0.5692852963679733,-3.3503573518160135,8.929285296367974,0.4857803381490316,0.21985462892119356,-0.7066666666666667,-0.036101152509156305,-0.067059999394701,1.394729296537115
1589552289.9253473,-0.5952875833127622,-3.3452875833127624,8.955287583312762,0.49,0.21333333333333332,-0.7066666666666667,-0.0009510773447981916,-0.11057674360400446,1.521723213128217
1589552289.9353473,-0.6298135555223434,-3.3755544761620087,8.925927365117323,0.49,0.21333333333333332,-0.7066666666666667,0.04545092937330678,-0.09613653411464271,1.5005613584873527
1589552289.9453473,-0.6910273146225202,-3.41,8.91679780058941,0.49,0.21333333333333332,-0.7066666666666667,0.01887675128506891,-0.07292112840666645,1.5129894152054586
1589552289.9553473,-0.6818004270283848,-3.376160512434062,8.966919743782968,0.49,0.21333333333333332,-0.7066666666666667,0.0007240694154099156,-0.1064825935620589,1.5924733347372946
1589552289.9653473,-0.6653844972844339,-3.4092294701287735,8.958462010862265,0.5085466017574948,0.20256433876446542,-0.7299994882325471,-0.02802505831294646,-0.08365876802432427,1.6385107147513625
1589552289.9753473,-0.6956530465949821,-3.485653046594982,8.94,0.5244444444444445,0.19333333333333333,-0.75,-0.039482522427765454,-0.12460567848032518,1.65920038123861
1589552289.9853473,-0.7156315576010862,-3.5,8.878052866388051,0.5244444444444445,0.19333333333333333,-0.75,0.03770805562061952,-0.14233624935628938,1.5677710117130101
1589552289.9953473,-0.72,-3.4081024332002143,8.844138087199967,0.5244444444444445,0.19333333333333333,-0.75,-0.019147136391351613,-0.03605279045101405,1.5955667050766669
1589552290.0053473,-0.7622997813588145,-3.391149890679407,8.857049963559803,0.5244444444444445,0.19333333333333333,-0.75,0.04439625634635627,-0.05363585542469031,1.677577521542957
1589552290.0153472,-0.8163323820269462,-3.3545845224663173,8.96899714608084,0.5093059519332168,0.150945554301896,-0.75,0.06368701169904029,0.0077608479830417465,1.648682889922292
1589552290.0253472,-0.8642012635379062,-3.342633122743682,8.88423059566787,0.5077777777777778,0.14666666666666667,-0.75,0.03537127107719555,-0.057568889897545356,1.702544909541229
1589552290.0353472,-0.9245704714046422,-3.3697136476030947,8.857428411900774,0.5077777777777778,0.14666666666666667,-0.75,-0.027300787638503073,-0.05158140878651922,1.6708422239626248
1589552290.0453472,-1.0539593191609578,-3.4331810156084472,8.897986439720318,0.5077777777777778,0.14666666666666667,-0.75,0.08595406042584636,-0.08842740115903841,1.54735921996063
1589552290.0553472,-1.070295736754967,-3.4565680877483445,8.962544701986754,0.5077777777777778,0.14666666666666667,-0.75,0.01657478093259128,-0.10506185879676969,1.606497398749692
1589552290.0653472,-1.0841569822823396,-3.347267416015749,8.941686035435321,0.5194089173952006,0.12161498133683311,-0.75,0.021791261991048458,-0.09175662329639761,1.6899252035615202
1589552290.0753472,-1.1393418151754546,-3.32,8.98756545103803,0.5222222222222223,0.11555555555555555,-0.75,-0.09029420442486089,-0.07579846018209768,1.749555920661737
1589552290.0853472,-1.1167127259988712,-3.2534254519977424,8.840221084794582,0.5222222222222223,0.11555555555555555,-0.75,-0.058260040150463856,-0.14498101305599653,1.687253100994713
1589552290.0953472,-1.1888697524219591,-3.22,8.89965246809165,0.5222222222222223,0.11555555555555555,-0.75,0.06927270309819489,-0.13191453723866492,1.7134391839407006
1589552290.1053472,-1.2585229198252028,-3.207651386783198,8.912082627307589,0.5222222222222223,0.11555555555555555,-0.75,0.10321963174734274,-0.08072950372651211,1.7113023699829295
1589552290.1153471,-1.3041411000688774,-3.219509200039359,8.913895700088556,0.5281833666786929,0.091710977729673,-0.7570449889031017,0.07348719720609942,-0.0846297282853751,1.6295238525724012
1589552290.1253471,-1.3744192083062945,-3.2262323166774824,8.946232316677483,0.5344444444444445,0.06666666666666668,-0.7644444444444445,0.055221379412629154,-0.12089986902480869,1.650463924836571
1589552290.1353471,-1.3955550225462918,-3.1255646167130386,8.873339729444497,0.5344444444444445,0.06666666666666668,-0.7644444444444445,0.0509057853702486,-0.055396998284002116,1.6911509742765916
1589552290.145347,-1.335052611440597,-2.9634034819207957,8.836236847139851,0.5344444444444445,0.06666666666666668,-0.7644444444444445,0.06334665341123766,-0.07170683729239473,1.7430624442729834
1589552290.155347,-1.3288479170819216,-2.895427546342436,8.931413195136535,0.5344444444444445,0.06666666666666668,-0.7644444444444445,-0.001792902258813192,-0.16604979707308617,1.8692628052838973
1589552290.165347,-1.4921628247032515,-2.943116291071736,8.899395320832616,0.5400335932870769,0.0387209224535046,-0.7644444444444445,0.01702713103584738,-0.032859330415881655,1.9931076736342697
1589552290.175347,-1.5918947445576488,-3.037842116836473,8.851350875907059,0.5422222222222223,0.027777777777777776,-0.7644444444444445,-0.010204061139321464,-0.14320314255307998,2.009899732167573
1589552290.185347,-1.6880927036965356,-3.199757596284111,9.008566866653764,0.5422222222222223,0.027777777777777776,-0.7644444444444445,0.05147477826514894,-0.042364272305104894,1.9939352240935884
1589552290.195347,-1.750399828256066,-3.2161230901341487,9.045507639463406,0.5422222222222223,0.027777777777777776,-0.7644444444444445,0.08688374481787339,-0.0217058658993107,2.010464840378121
1589552290.205347,-1.8075003927071662,-3.2117307390225256,9.063077043909898,0.5422222222222223,0.027777777777777776,-0.7644444444444445,0.11611074679842841,-0.01787281645923791,2.0315466122985217
1589552290.215347,-1.8185433523405983,-3.158445085532692,9.006988437873291,0.5441316634987893,0.012502247565241998,-0.7682633269975784,0.025774500513689666,-0.03135917845475663,2.1004652933341665
1589552290.225347,-1.7799221560803298,-3.0598443121606596,8.922402695100413,0.5455555555555556,0.0011111111111111113,-0.7711111111111111,0.017081951943498506,-0.004811086795856512,1.9881769266807674
1589552290.235347,-1.8314981206371936,-3.0522996241274387,8.885400751745122,0.5455555555555556,0.0011111111111111113,-0.7711111111111111,0.0017028440581029342,-0.06078990844039066,2.0314839800717674
1589552290.245347,-1.9191567424515819,-3.010843257548418,8.89457837122579,0.5455555555555556,0.0011111111111111113,-0.7711111111111111,0.05459428951271689,-0.07681808042044543,2.093803694437378
1589552290.255347,-1.9559462604896176,-2.950268697551912,8.945677562937705,0.5455555555555556,0.0011111111111111113,-0.7711111111111111,0.08178172880965151,-0.0171856907507109,2.087702296396311
1589552290.265347,-2.0170016078766104,-2.9431542172022946,9.022616868809179,0.5392220435692655,-0.01691503838832977,-0.7896244538402666,0.06954471185396793,-0.016698911480353913,2.101527997177611
1589552290.275347,-2.0690286043386443,-2.9128143597619505,9.053300057592628,0.5311111111111111,-0.04,-0.8133333333333334,0.09258345119015321,-0.10206272671337929,2.1397549414491843
1589552290.285347,-2.05,-2.841507399611139,9.015251233268522,0.5311111111111111,-0.04,-0.8133333333333334,0.07293199293567212,-0.09903240639525564,2.1133583768935824
1589552290.295347,-2.0433864058260744,-2.7736252320434103,8.933943666999857,0.5311111111111111,-0.04,-0.8133333333333334,0.0002431510569008942,-0.052677173333633295,2.0465895952223447
1589552290.305347,-2.079802949969443,-2.7153239846059827,8.887267892241878,0.5311111111111111,-0.04,-0.8133333333333334,-0.0017451706983896836,-0.0718811595207093,2.0355948134476316
1589552290.315347,-2.1618024168236034,-2.7219758317639675,9.038370998116761,0.5285076201436841,-0.048411278510148564,-0.8147352130850248,0.07257722435067522,-0.1105367489322521,2.088604472036426
1589552290.325347,-2.17,-2.608007165345782,8.94,0.5166666666666667,-0.08666666666666667,-0.8211111111111111,-0.01203298503430256,-0.13304101923999717,2.0937012861710333
1589552290.335347,-2.1765119766234764,-2.556976046753047,8.95953592987043,0.5166666666666667,-0.08666666666666667,-0.8211111111111111,-0.027652889569306137,-0.026307312115546523,2.0339372668516673
1589552290.345347,-2.18,-2.470327902910268,9.015526912622704,0.5166666666666667,-0.08666666666666667,-0.8211111111111111,-0.028734583983596677,-0.12412986144752108,1.9297256586992098
1589552290.355347,-2.204869476447426,-2.365234942394633,9.064921685868455,0.5166666666666667,-0.08666666666666667,-0.8211111111111111,-0.04024114050081851,-0.1768057093941785,1.8698035596504758
1589552290.365347,-2.2006302183925124,-2.305315109196256,8.99923310057941,0.5011659485960481,-0.1348004754122716,-0.8317168655804817,-0.026425104254251687,-0.07516295688128713,1.7995212585338471
1589552290.375347,-2.2120642377422834,-2.3,9.023584577374118,0.4955555555555556,-0.15222222222222226,-0.8355555555555556,0.002382541145358689,-0.05091306629648115,1.739438302667775
1589552290.385347,-2.152815874500468,-2.1567447495961227,9.091347249383556,0.4955555555555556,-0.15222222222222226,-0.8355555555555556,0.06287840421283276,-0.12964045260833598,1.4755777486007071
1589552290.3953469,-1.942970717762497,-1.9395225218264698,8.954509001004404,0.4955555555555556,-0.15222222222222226,-0.8355555555555556,0.07462781043453445,-0.1417212780225236,1.3281314408527252
1589552290.4053469,-2.2319698130396075,-2.025343174806932,9.261283463425745,0.4955555555555556,-0.15222222222222226,-0.8355555555555556,0.010752200610144064,-0.18412879865512172,1.2313428142845326
1589552290.4153469,-2.4502839683680806,-2.0432386772106397,9.25647735442128,0.47771467369598214,-0.20128464733604925,-0.8541398074926112,-0.006328151688968484,-0.12132414446055748,1.1414212948851803
1589552290.4253469,-2.6580950365757814,-2.054902968381597,9.198871289523003,0.4688888888888889,-0.2255555555555556,-0.8633333333333333,0.10345568133700503,0.010386864200201885,1.1292945534626988
1589552290.4353468,-2.748311570608573,-2.011557853042865,9.024154274780974,0.4688888888888889,-0.2255555555555556,-0.8633333333333333,0.1138001863153664,0.004037036899150144,1.1443947811090331
1589552290.4453468,-2.75850540806293,-1.9353490658800392,8.832625368731563,0.4688888888888889,-0.2255555555555556,-0.8633333333333333,0.05789018583372539,-0.0713244587450018,1.1496959586755986
1589552290.4553468,-2.923674704582573,-1.9935374835879207,9.055374835879206,0.4688888888888889,-0.2255555555555556,-0.8633333333333333,0.05129094932642957,-0.015040169566894482,1.1861039716841784
1589552290.4653468,-3.041160164271047,-1.9965195071868582,9.116519507186858,0.46734200319415925,-0.2290360483686973,-0.8641712297513119,0.0142894352709161,0.10339765477188041,1.160777226563002
1589552290.4753468,-2.9201290877796904,-1.8869455160543653,9.069646269808297,0.44222222222222224,-0.2855555555555556,-0.8777777777777778,0.001844811154800674,-0.040497893977160776,0.9805374576308332
1589552290.4853468,-2.77,-1.8062903459956448,8.93181466247278,0.44222222222222224,-0.2855555555555556,-0.8777777777777778,-0.06305255297509216,-0.013960786492248495,0.9808460598918225
1589552290.4953468,-2.847431390687635,-1.8029052317812726,8.941845342104362,0.44222222222222224,-0.2855555555555556,-0.8777777777777778,-0.09740630785112771,-0.028342577051376806,0.9326113592809813
1589552290.5053468,-2.931570007279787,-1.8015700072797864,9.06630429507401,0.44222222222222224,-0.2855555555555556,-0.8777777777777778,-0.01996688851862962,0.011988550587247508,0.8816046208644386
1589552290.5153468,-2.8838985558450734,-1.742202888309853,8.984405776619706,0.4409227036071977,-0.30028343319250006,-0.861317208654134,0.04215348222441942,-0.03632939104307743,0.7276172523669047
1589552290.5253468,-2.8724634706693215,-1.6905428090059733,8.96,0.4388888888888889,-0.3233333333333333,-0.8355555555555556,0.022354061577503723,-0.026883624044077688,0.6442938469370717
1589552290.5353467,-2.890508345792789,-1.64,8.763245177577883,0.4388888888888889,-0.3233333333333333,-0.8355555555555556,-0.015371893594582773,-0.008798059996093809,0.5738142358216712
1589552290.5453467,-2.9792612099303346,-1.6577783629791003,8.98149338057504,0.4388888888888889,-0.3233333333333333,-0.8355555555555556,-0.04573430336987176,-0.012969659667543333,0.47455053609333814
1589552290.5553467,-3.0536584424853874,-1.6459582553675804,9.104982927911418,0.4388888888888889,-0.3233333333333333,-0.8355555555555556,0.024302133317455822,0.0061305914659484095,0.40269912491470905
1589552290.5653467,-3.0185612434051046,-1.5699928703835735,8.837838300299444,0.41864790785366857,-0.3396054945577261,-0.8530183627231966,0.029909264152955722,-0.0037472129446915886,0.3417400343153042
1589552290.5753467,-2.977289029535865,-1.5288818565400843,8.840917721518986,0.38222222222222224,-0.3688888888888889,-0.8844444444444445,-0.055206623715838565,-0.03167781797692766,0.26776328647602615
1589552290.5853467,-3.118773683772769,-1.6105660816767862,9.254622806287948,0.38222222222222224,-0.3688888888888889,-0.8844444444444445,0.023195655121078837,0.08051568713863458,0.1250855649215819
1589552290.5953467,-3.0559795392165015,-1.582657572985112,9.14996589869417,0.38222222222222224,-0.3688888888888889,-0.8844444444444445,-0.01790301638442624,0.06377178393268805,-0.0050602281791841675
1589552290.6053467,-3.177227868695569,-1.5484034835869462,9.073613934347785,0.38222222222222224,-0.3688888888888889,-0.8844444444444445,-0.08512280107346687,0.02226466116168319,-0.05669470066075824
1589552290.6153467,-3.1130027753852043,-1.5403753469231505,9.041501387692602,0.38222222222222224,-0.3688888888888889,-0.8844444444444445,0.002450584916099313,0.09582630539291878,-0.1223747401529329
1589552290.6253467,-3.2290741228235116,-1.607384265352939,9.151226918882328,0.2933333333333333,-0.4011111111111111,-0.8133333333333334,0.004868310792447987,-0.023245759450486132,-0.1021666548227608
1589552290.6353467,-3.150523429364804,-1.5972176327664007,9.070927455744533,0.2933333333333333,-0.4011111111111111,-0.8133333333333334,0.02980402622099202,-0.07194174782813784,-0.3892322768355884
1589552290.6453466,-3.049035413412542,-1.582141192738074,9.075952935753975,0.2933333333333333,-0.4011111111111111,-0.8133333333333334,-0.019378258443342927,0.009453019509115639,-0.1784829934853086
1589552290.6553466,-3.2111550880116653,-1.5922112279970837,8.980429121966463,0.2933333333333333,-0.4011111111111111,-0.8133333333333334,0.007992230034780824,0.0007020355593214886,-0.1899161274311682
1589552290.6653466,-3.2626142289545568,-1.5904569158182271,8.905355723863918,0.30204742984852245,-0.38920184587368595,-0.802295477747427,0.020532106196092966,0.008660416280751291,-0.2274214913561681
1589552290.6753466,-3.2566219686162623,-1.6222296718972897,9.083310984308131,0.32666666666666666,-0.3555555555555556,-0.7711111111111111,0.03719250575242196,0.0766096216141976,-0.1965479444510287
1589552290.6853466,-3.2256258479668176,-1.6378129239834087,9.013122456099547,0.32666666666666666,-0.3555555555555556,-0.7711111111111111,-0.05747046438669043,-0.018202036198109936,-0.2668439251752111
1589552290.6953466,-3.2834756835999745,-1.6700854101599847,8.976823251959972,0.32666666666666666,-0.3555555555555556,-0.7711111111111111,0.050308651239145935,0.02293539684192035,-0.24760461242194817
1589552290.7053466,-3.3119166114358016,-1.7015370247635115,9.05,0.32666666666666666,-0.3555555555555556,-0.7711111111111111,0.09464772679559806,-0.019392627574418377,-0.2664607061552508
1589552290.7153466,-3.2519231474127923,-1.6980768525872074,9.106537968110453,0.3360896613517421,-0.34388899070736695,-0.745085697218998,-0.005537387319980505,-0.07463817539322382,-0.34291907325112936
1589552290.7253466,-3.2295043759067723,-1.715247812046614,9.106035007254176,0.35,-0.32666666666666666,-0.7066666666666667,-0.038703842193538784,-0.07792601662532753,-0.34001165369660014
1589552290.7353466,-3.243755929374561,-1.7104976282501756,9.025248814125087,0.35,-0.32666666666666666,-0.7066666666666667,0.01935836562273698,-0.01366638300310817,-0.24463688926349822
1589552290.7453465,-3.2959107135529933,-1.714806122030282,8.968178572894013,0.35,-0.32666666666666666,-0.7066666666666667,0.015102440509017238,0.09619179573521648,-0.2536496003929308
1589552290.7553465,-3.3233926373319767,-1.74,8.926131562966733,0.35,-0.32666666666666666,-0.7066666666666667,0.0370882466048795,0.09534366628496904,-0.3182301379181026
1589552290.7653465,-3.2614374107567823,-1.74,9.098229414564495,0.35,-0.32666666666666666,-0.7066666666666667,0.0370882466048795,0.056295902387105294,-0.24388920280486207
1589552290.7753465,-3.124503697741108,-1.7072251848870554,9.200469638275393,0.3744444444444445,-0.3022222222222222,-0.7066666666666667,-0.02206807143527896,-0.0855935297842201,-0.2988992687616226
1589552290.7853465,-2.971927703486597,-1.6878915552298954,9.200120290651524,0.3744444444444445,-0.3022222222222222,-0.7066666666666667,-0.025535977614550367,-0.026390218610185524,-0.2207749052583592
1589552290.7953465,-2.929345781608016,-1.67,8.867009336206012,0.3744444444444445,-0.3022222222222222,-0.7066666666666667,-0.04069715398593657,0.015873134170879145,-0.19700202112709725
1589552290.8053465,-2.8626403264919853,-1.6769438694032057,8.928950138995683,0.3744444444444445,-0.3022222222222222,-0.7066666666666667,-0.019891225444022737,0.046969210811834305,-0.2515067893346488
1589552290.8153465,-2.842373017287471,-1.7174847620744964,9.275253965425058,0.3877506881324383,-0.29889566130022377,-0.7122109348699974,-0.06169731907063871,-0.11971701617916597,-0.1621951449701522
1589552290.8253465,-3.029251470326145,-1.7399101764391374,8.90149705934771,0.42761809144735535,-0.2889288104714945,-0.7288223529178796,0.03452118797283597,-0.12216324940908484,-0.2592290630902665
1589552290.8353465,-3.0121734761507706,-1.7535176276911895,9.172173476150771,0.42777777777777776,-0.2888888888888889,-0.7288888888888889,-0.08774064153777301,-0.06708346942047622,-0.25915600113993836
1589552290.8453465,-2.9228051683100986,-1.7209350561033663,9.071584495069704,0.42777777777777776,-0.2888888888888889,-0.7288888888888889,-0.07732139433345417,0.023678186441275506,-0.16811553172824842
1589552290.8553464,-2.953109144542773,-1.7206725663716813,9.008654867256638,0.42777777777777776,-0.2888888888888889,-0.7288888888888889,-0.12208294952187475,-0.0364929554698888,-0.1304762327462516
1589552290.8653464,-2.95009996933456,-1.70495001533272,9.0871251149954,0.4313527888514089,-0.28723888377798223,-0.7253138778152578,-0.002290711192436592,0.005410534061504806,-0.23230597943443881
1589552290.8753464,-2.9012950722768553,-1.7106475361384277,9.15012019273828,0.44222222222222224,-0.2822222222222222,-0.7144444444444444,0.008779090235471323,0.006301776735573188,-0.17953704571261994
1589552290.8853464,-2.850876988369456,-1.692280752907636,9.043421129361453,0.44222222222222224,-0.2822222222222222,-0.7144444444444444,-0.03777715888252184,-0.013510829978571533,-0.20426256100036894
1589552290.8953464,-2.8035790153871005,-1.7011578692298372,9.037578853842737,0.44222222222222224,-0.2822222222222222,-0.7144444444444444,-0.03453917141660722,0.02775298892936775,-0.09121637932192608
1589552290.9053464,-2.849698808446086,-1.6834337305179712,8.965150595776958,0.44222222222222224,-0.2822222222222222,-0.7144444444444444,-0.05117048207180239,-0.009134063056595376,-0.0978592993119334
1589552290.9153464,-2.8064679660169913,-1.7032339830084957,8.996467966016992,0.4441985451718585,-0.2822222222222222,-0.7124681214948081,-0.03314272093201776,-0.012481960700135408,-0.2893253932298091
1589552290.9253464,-2.840005279631934,-1.7200501565033752,9.03002639815967,0.4544444444444444,-0.2822222222222222,-0.7022222222222222,-0.024005188236962963,0.007601548326522235,-0.3076200398490347
1589552290.9353464,-2.4380747611017424,-1.748327712197864,8.940725126475549,0.4544444444444444,-0.2822222222222222,-0.7022222222222222,-0.06566323037435665,-0.04173700072376477,-0.3857791430838485
1589552290.9453464,-1.8939547807913362,-1.8349654047720831,8.904111686378823,0.4544444444444444,-0.2822222222222222,-0.7022222222222222,-0.045349261713374646,0.07614245494349116,-0.6109261536680175
1589552290.9553463,-2.1330256970503014,-2.60530502382875,9.488507259456291,0.4544444444444444,-0.2822222222222222,-0.7022222222222222,0.056067482874646676,0.06310315921074555,-0.9296644938017988
1589552290.9653463,-1.3012541082857638,-2.202486305714121,8.943707547713775,0.4579159058730067,-0.27770932236509127,-0.7147194833650464,-0.021545401769163117,0.011583952423106572,-1.54750504856577
1589552290.9753463,-1.2899626230128691,-2.2971962528387584,9.233028009084027,0.4655555555555556,-0.2677777777777778,-0.7422222222222222,0.003727177207150315,0.09876606718258518,-2.160397538536216
1589552290.9853463,-1.2846706100672698,-2.281208536302482,8.967582927395036,0.4655555555555556,-0.2677777777777778,-0.7422222222222222,0.0030687997518248702,0.10386285452932707,-2.6310045211345687
1589552290.9953463,-1.1855967589975505,-2.4306994535519126,8.821851893725269,0.4655555555555556,-0.2677777777777778,-0.7422222222222222,-0.018817951221874796,0.07650627097257874,-3.1267337583068335
1589552291.0053463,-1.0910988864971167,-2.6125528183050304,8.796348295197852,0.4655555555555556,-0.2677777777777778,-0.7422222222222222,-0.024037006650341926,0.12464517997024521,-3.5780117019706927
1589552291.0153463,-1.3104361110217733,-2.336914418036214,9.038323095230437,0.4739475837719816,-0.2618334244578094,-0.7380262081140092,-0.032968819387154166,0.20948462677314678,-4.047601099464065
1589552291.0253463,-2.131775002007272,-2.217987795785876,9.010059300551713,0.4922222222222222,-0.2488888888888889,-0.7288888888888889,-0.030194703544866454,0.19037254938932832,-4.16193243021691
1589552291.0353463,-2.3386443458013604,-2.7423775277290297,8.827244531617403,0.4922222222222222,-0.2488888888888889,-0.7288888888888889,-0.042789649488983686,0.20926496830550417,-4.304675150916905
1589552291.0453463,-2.4306185392306388,-3.125085955299478,8.791821348547327,0.4922222222222222,-0.2488888888888889,-0.7288888888888889,-0.07225724393038951,0.20752773732751167,-4.414408512810587
1589552291.0553463,-2.3930763478651014,-3.3153837333931553,8.972306887011142,0.4922222222222222,-0.2488888888888889,-0.7288888888888889,-0.0842465370444854,0.1830917011423196,-4.460658983863155
1589552291.0653462,-2.4966545826135618,-3.5255636115909588,9.138327291306782,0.5062727049085045,-0.24024243800502287,-0.7314828241540487,0.09526325200660297,0.1805860659961799,-4.3886383874467025
1589552291.0753462,-2.504206337509211,-3.6863908621960206,9.017055563743552,0.5644444444444444,-0.20444444444444448,-0.7422222222222222,0.049168767458781154,0.1200920286788611,-4.20318852803161
1589552291.0853462,-2.9026192427470905,-4.038937879036224,8.80605310604819,0.5644444444444444,-0.20444444444444448,-0.7422222222222222,-0.0020118059276594234,0.1437270128355923,-3.9317984467054097
1589552291.0953462,-3.06,-4.16,8.8,0.5644444444444444,-0.20444444444444448,-0.7422222222222222,0.02836160034490785,0.19853120241435496,-3.7568212149177937
1589552291.1053462,-2.8110676759688173,-3.8515760930968255,8.841576093096824,0.5644444444444444,-0.20444444444444448,-0.7422222222222222,-0.008393888027823818,0.11917230784836773,-3.499170952542159
1589552291.1153462,-3.0100967122359057,-4.14538086091967,9.135380860919671,0.5644444444444444,-0.20444444444444448,-0.7422222222222222,0.05363668322096007,0.1698306077015413,-3.0525508395509156
1589552291.1253462,-3.4274021352313166,-4.371245551601424,9.07455516014235,0.6533017002767892,-0.15414788453934364,-0.7480901542111507,0.00899061954541562,0.09581453869600544,-2.791665008053154
1589552291.1353462,-3.136858954240161,-4.262015567133262,8.880998054108343,0.6822222222222222,-0.13777777777777778,-0.75,-0.17615845547226364,0.013051556479971877,-2.127235264598046
1589552291.1453462,-2.367785604226282,-3.8081664098613253,8.914047985912392,0.6822222222222222,-0.13777777777777778,-0.75,0.024699885743747613,0.08149536027585508,-1.8859510983005257
1589552291.1553462,-2.2752874356721478,-3.7818978285427387,8.849762771432157,0.6822222222222222,-0.13777777777777778,-0.75,-0.029359874128663553,0.1208309026985435,-1.6890569243767821
1589552291.1653461,-1.881934042363035,-3.534809187594959,8.938829207257129,0.7458577372617948,-0.13662426390999097,-0.7632654094795484,0.03855373666855692,0.1834705427538297,-1.591513629914356
1589552291.1753461,-1.710122390722569,-3.563142551293488,9.192163425512936,1.05,-0.13111111111111112,-0.8266666666666667,0.06959955797150055,0.13574403350806513,-1.6902803841123593
1589552291.1853461,-1.739231192976416,-3.7193372353244967,9.107561025994146,1.05,-0.13111111111111112,-0.8266666666666667,0.017331834549532087,0.053161522698490116,-1.5663751665361436
1589552291.195346,-1.45218136884047,-3.4830882130428207,8.318700761587733,1.05,-0.13111111111111112,-0.8266666666666667,-0.025030294354079163,-0.0006658210586458907,-1.5450922888708145
1589552291.205346,-1.4592328642759873,-3.5253971856559234,8.73473899228325,1.05,-0.13111111111111112,-0.8266666666666667,-0.014261510756905548,0.17701910829471879,-1.5466306865275536
1589552291.215346,-1.618164733472777,-3.5855057995816697,8.874306268618875,1.1501239849851754,-0.17964371483101282,-0.9104771714098583,0.041353874108594965,0.012620228353240674,-1.4036279094738697
1589552291.225346,-1.61,-3.61,8.76,1.5955555555555556,-0.3955555555555556,-1.2833333333333334,0.08944812416470939,0.025089107997418484,-1.1791880758786688
1589552291.235346,-1.628468238967869,-3.551148820774098,9.05693647793574,1.5955555555555556,-0.3955555555555556,-1.2833333333333334,0.04380982236251894,0.05826026005603041,-1.1916476958510476
1589552291.245346,-1.5940011504642946,-3.576999137151779,8.98800230092859,1.5955555555555556,-0.3955555555555556,-1.2833333333333334,-0.0013074909847557992,-0.07897156804193023,-0.9811002335637655
1589552291.255346,-1.5239026564449991,-3.6460973435550006,8.87613274584214,1.5955555555555556,-0.3955555555555556,-1.2833333333333334,-0.020965188093186475,0.051359784961772556,-0.8464470417059469
1589552291.265346,-1.5017222988505747,-3.7596662068965516,8.952249655172414,1.5955555555555556,-0.3955555555555556,-1.2833333333333334,-0.03577313098287389,0.10385902694084581,-0.5947037902433844
1589552291.275346,-1.4468102111415961,-3.8228832160324466,8.983558391983777,0.8577777777777778,-0.2433333333333333,-0.8955555555555555,-0.04574800904972492,0.07726186702387966,-0.4700748073573031
1589552291.285346,-1.2967100083502325,-3.9062722175832043,8.941863891208397,0.8577777777777778,-0.2433333333333333,-0.8955555555555555,-0.03119388267961117,-0.022797751770652408,-0.3354491384337509
1589552291.295346,-1.195249809687888,-3.8681245242197204,8.83,0.8577777777777778,-0.2433333333333333,-0.8955555555555555,-0.07311332763361378,-0.052112551489148055,-0.23350653527349985
1589552291.305346,-1.1698663997562992,-3.8232442665041995,8.8266221332521,0.8577777777777778,-0.2433333333333333,-0.8955555555555555,-0.0868490521349229,0.09115930294605973,-0.2648824243107476
1589552291.315346,-1.060349884677314,-3.750233256451543,8.790116628225771,0.8577777777777778,-0.2433333333333333,-0.8955555555555555,0.10628439163957286,0.0035523799968039255,-0.109579242718885
1589552291.325346,-1.0547377941788318,-3.8531600369023713,8.834737794178832,0.6355555555555555,0.017777777777777778,-0.81,0.006372878074531673,0.012171245227908077,-0.04294283157087385
1589552291.335346,-1.115435683146108,-3.989730287078743,8.895435683146108,0.6355555555555555,0.017777777777777778,-0.81,0.014649268789288798,0.0038948545131509537,0.049752744434405916
1589552291.345346,-1.091061540300955,-3.941806411942542,8.918510256716825,0.6355555555555555,0.017777777777777778,-0.81,-0.03915215575650576,0.026015476667132113,0.19054604235608477
1589552291.355346,-1.0050936854151367,-3.863002544963875,8.904182280902523,0.6355555555555555,0.017777777777777778,-0.81,0.0249283722268308,-0.049005629264578986,0.14522079085567596
1589552291.365346,-0.8320640059772119,-3.692064005977212,8.9,0.6355555555555555,0.017777777777777778,-0.81,-0.01889885894635849,-0.002320418011580311,0.1259390320775986
1589552291.375346,-0.8920692956462275,-3.707025985867335,8.954051971734671,0.5654881847883899,0.1118682470936859,-0.792983638527974,-0.022032892060828462,0.01506480327205078,0.08122437401998714
1589552291.385346,-0.9366698284038976,-3.7666793136155903,8.94169354143313,0.5577777777777778,0.12222222222222222,-0.7911111111111111,-0.020743374360950553,-0.046920209112597616,0.12090679222924114
1589552291.395346,-0.9323692284478423,-3.7123692284478422,8.80659692183885,0.5577777777777778,0.12222222222222222,-0.7911111111111111,0.06353938428620676,0.030172043668558298,0.10201851969337315
1589552291.405346,-1.07,-3.845763326929421,8.878940831732356,0.5577777777777778,0.12222222222222222,-0.7911111111111111,-0.035395829980700046,0.027549642565625164,0.2588838588229363
1589552291.415346,-1.07,-3.813205837263007,8.870801459315752,0.5577777777777778,0.12222222222222222,-0.7911111111111111,-0.07268627750608189,-0.05413419487092553,0.20294818753486354
1589552291.425346,-1.1152235345408426,-3.840298046054457,8.849850976972771,0.5288888888888889,0.1511111111111111,-0.81,-0.06691512525347608,-0.12417505135050126,0.20317143772229213
1589552291.435346,-1.0404173437438073,-3.7405564583250763,8.899721770837463,0.5288888888888889,0.1511111111111111,-0.81,-0.06328841878046677,-0.001773707886437298,0.23218508950636657
1589552291.4453459,-0.9089714240449928,-3.505142879775036,8.726685743707547,0.5288888888888889,0.1511111111111111,-0.81,-0.06450863087706714,-0.09437864819486767,0.20382954187381735
1589552291.4553459,-0.892359348080084,-3.58820325959958,8.834664237479455,0.5288888888888889,0.1511111111111111,-0.81,-0.11977757053932786,0.019783423894392166,0.27178315621266247
1589552291.4653459,-0.6636900359721278,-3.292218448922094,8.90431439136669,0.5288888888888889,0.1511111111111111,-0.81,-0.010119044981985528,0.08537059085183674,0.014819196725035622
1589552291.4753458,-0.6225071395591429,-3.312128016143099,8.850203840826309,0.5344444444444445,0.16666666666666666,-0.8177777777777778,-0.03285210654302407,-0.12663508781220345,0.025267421718195605
1589552291.4853458,-0.7157504659951776,-3.4770969782991603,9.000827675838362,0.5344444444444445,0.16666666666666666,-0.8177777777777778,-0.05006502343728121,-0.046047340534545025,-0.11165350812248617
1589552291.4953458,-0.7451001177856301,-3.4321468394189245,8.848993325480958,0.5344444444444445,0.16666666666666666,-0.8177777777777778,0.12003567029247829,0.09544465267591704,-0.13838869477467858
1589552291.5053458,-0.8439057714958775,-3.5770617981939536,8.842406281900274,0.5344444444444445,0.16666666666666666,-0.8177777777777778,0.05608605615173,-0.01520973583728788,-0.20880512382853622
1589552291.5153458,-0.9084747031768103,-3.7438988127072412,8.915932541804828,0.5344444444444445,0.16666666666666666,-0.8177777777777778,0.08242265587123666,-0.04527867565808113,-0.2262456628373475
1589552291.5253458,-0.9505908753932156,-3.9042453264942196,9.009299925865074,0.5371505028039922,0.1233697329139033,-0.8421323030137071,0.06206035732367682,0.02257815799608963,-0.13104753055053558
1589552291.5353458,-0.7827428055549364,-3.6618285370366244,8.76,0.5377777777777778,0.11333333333333333,-0.8477777777777777,0.014523482640917015,0.006064966628567765,-0.24916425747211937
1589552291.5453458,-0.7967671251198146,-3.67117808341321,8.76,0.5377777777777778,0.11333333333333333,-0.8477777777777777,0.055318574600747475,0.020343248814508427,-0.3016879383704011
1589552291.5553458,-0.8103940534061398,-3.6819702670306986,8.77379186921489,0.5377777777777778,0.11333333333333333,-0.8477777777777777,0.0893410532069016,0.0351912601305574,-0.3588127942662788
1589552291.5653458,-0.8173766398082173,-3.716883199041087,9.018182393287606,0.5377777777777778,0.11333333333333333,-0.8477777777777777,0.010126123243095891,0.05956508473480531,-0.4928688295896423
1589552291.5753458,-0.7125322737109171,-3.544373927318857,9.18815834639206,0.5138960608246482,0.13395845252012703,-0.813040734936862,-0.011109201069588188,0.004779191682166589,-0.504867841114169
1589552291.5853457,-8.086392390460812,-15.501717389936449,12.76117939467668,0.5133333333333333,0.13444444444444445,-0.8122222222222222,-0.7143769960935576,0.2623456382958691,-6.899477541202561
1589552291.5953457,-17.885038058902026,-18.00620237938617,1.9220014283834832,0.5133333333333333,0.13444444444444445,-0.8122222222222222,-1.1738388493619207,-0.6793297898684927,-7.231018172740795
1589552291.6053457,-4.263239423384141,-7.088267709136016,12.59556355366775,0.5133333333333333,0.13444444444444445,-0.8122222222222222,-0.2210693117943876,1.6105847214513092,-6.092510169365871
1589552291.6153457,-1.9224379355670742,-3.5848944718632967,6.494231541876442,0.5133333333333333,0.13444444444444445,-0.8122222222222222,2.1008640121852604,0.9616185067759111,-4.965498136155489
1589552291.6253457,-3.8977195075192776,-3.1894853661653815,13.411517914199294,0.5048029651088485,0.16174162276279605,-0.8011327435303919,0.7285471189943173,1.15010439788291,-4.004160461010233
1589552291.6353457,-2.1546518231308505,-0.1634114675126307,4.846810402224572,0.5022222222222222,0.17,-0.7977777777777778,-0.7500980197013773,-0.5494113872694564,-2.6331695330974303
1589552291.6453457,0.3504621470254179,-2.6520984608154152,13.980209532761526,0.5022222222222222,0.17,-0.7977777777777778,0.28024747116899007,0.6009917521023276,-2.29001968700756
1589552291.6553457,0.05050194963269351,-1.5713552640082726,8.192019000840173,0.5022222222222222,0.17,-0.7977777777777778,0.19726212670014448,0.13815892730312532,-2.129787190437593
1589552291.6653457,0.14085934638833236,-1.8153202352484974,6.755336392425516,0.5022222222222222,0.17,-0.7977777777777778,-0.22755142776930248,-0.1259942805804287,-1.6280932247184545
1589552291.6753457,0.047050791916985246,-2.4371054068814857,8.373863098488986,0.4564670186297712,0.24854643283370756,-0.7878641503327467,-0.04143369702952679,0.021723280410938878,-1.4268590901076907
1589552291.6853456,0.3743812150403978,-2.4508130049720322,8.661626009944065,0.4355555555555555,0.28444444444444444,-0.7833333333333333,0.031853835095987444,0.12343730797433528,-1.2093897328410679
1589552291.6953456,0.3596492887479367,-2.6221042675123796,8.64,0.4355555555555555,0.28444444444444444,-0.7833333333333333,-0.005874977204952628,0.042413671196175826,-1.1096576935486264
1589552291.7053456,-2.68058167819042,-8.691241500833158,8.59818582291088,0.4355555555555555,0.28444444444444444,-0.7833333333333333,-0.08745963686213172,0.10950256265812203,2.124328567937412
1589552291.7153456,1.2316668901189405,0.07315929593380766,5.746341383999541,0.4355555555555555,0.28444444444444444,-0.7833333333333333,0.21749420423584764,-0.22612192337787249,1.7212286630377842
1589552291.7253456,2.39,-1.21,11.38,0.4044444444444445,0.3655555555555556,-0.7888888888888889,0.006544984694978735,-0.003272492347489368,1.4278974942878608
1589552291.7353456,1.8833991106666428,-1.4143196956979838,10.372396021215422,0.4044444444444445,0.3655555555555556,-0.7888888888888889,0.015704363333513098,0.054431593075277104,1.4053043603128095
1589552291.7453456,0.7611822650093427,-2.33261637825981,7.715879234706312,0.4044444444444445,0.3655555555555556,-0.7888888888888889,0.037619925805430936,0.1938196225399126,1.3240045249172707
1589552291.7553456,5.455022747583069,-12.504023884962224,6.054719717280039,0.4044444444444445,0.3655555555555556,-0.7888888888888889,-0.00512572602395097,-0.04128146252168782,0.7237068927046468
1589552291.7653456,2.068210548201539,-3.0044110240949955,8.159286390833275,0.4044444444444445,0.3655555555555556,-0.7888888888888889,0.0018873764013642574,0.15266676642296728,0.29884381166901014
1589552291.7753456,0.7072341481013801,-3.089309551727248,10.208668485613781,0.3904440636180512,0.3436799605143161,-0.7766385556657948,0.007799533563708988,0.059760176108866275,-0.009046826297307187
1589552291.7853456,0.16365361768711428,-4.292500362203356,8.745960418417317,0.38666666666666666,0.3377777777777778,-0.7733333333333333,-0.04677989138096533,-0.14258426764518287,0.008055414406443945
1589552291.7953455,0.28142006413192855,-4.388231791113148,9.287187356848374,0.38666666666666666,0.3377777777777778,-0.7733333333333333,0.08593827743257237,-0.0029881667793535682,-0.06676504008745601
1589552291.8053455,-0.066896655257311,-4.181551672371344,8.565948077423489,0.38666666666666666,0.3377777777777778,-0.7733333333333333,-0.01892969909034794,0.04605941765384168,0.07658383637302016
1589552291.8153455,0.13459496787365638,-4.282297483936828,8.952140355091174,0.38666666666666666,0.3377777777777778,-0.7733333333333333,0.026860564435992513,-0.008888898577766861,0.09123672070144911
1589552291.8253455,0.14738221771063473,-4.378036663282976,8.86,0.4155555555555556,0.3466666666666667,-0.7711111111111111,0.05740569456567395,0.07577564449303784,-0.13762035009514417
1589552291.8353455,0.08059533050695647,-4.327946497880218,8.86,0.4155555555555556,0.3466666666666667,-0.7711111111111111,0.019157768540506215,-0.022576165285964886,0.052708615125333314
1589552291.8453455,0.0765333061798793,-4.254666938201207,8.788133632021328,0.4155555555555556,0.3466666666666667,-0.7711111111111111,0.011664623091460139,0.018834774552517308,-0.14657761458833973
1589552291.8553455,0.08,-4.2539444444444445,8.843347222222222,0.4155555555555556,0.3466666666666667,-0.7711111111111111,-0.015011043601354008,-0.0897662831429375,-0.044327120880946286
1589552291.8653455,0.08,-4.26,8.837609137757418,0.4155555555555556,0.3466666666666667,-0.7711111111111111,-0.07988240381102049,-0.0021838799702409567,0.08030876837694347
1589552291.8753455,0.09564481006532785,-4.283467215097992,8.853467215097991,0.4225088044734791,0.34232088609296446,-0.7763260477995537,-0.008200893799595904,0.02917107966015504,-0.054748989643826476
1589552291.8853455,0.08761418533157664,-4.308578722002635,8.82284255599473,0.4244444444444445,0.3411111111111111,-0.7777777777777778,0.03636845158920057,-0.009208465785441922,-0.13616012594219665
1589552291.8953454,0.0642017937219731,-4.248908071748879,8.768403587443947,0.4244444444444445,0.3411111111111111,-0.7777777777777778,0.023870116827023346,-0.021294190862616913,0.06413742587829052
1589552291.9053454,0.09109341894060996,-4.253320064205457,8.837733547351524,0.4244444444444445,0.3411111111111111,-0.7777777777777778,-0.03342319525027021,-0.03889471841052515,-0.04038882390542063
1589552291.9153454,0.08598453539528063,-4.25299226769764,8.88102319690708,0.4244444444444445,0.3411111111111111,-0.7777777777777778,-0.0235349540749362,-0.01873361170526509,-0.07656451244444427
1589552291.9253454,0.08633489800004449,-4.269004694000134,8.864660407999821,0.42866770977780744,0.3361839682221876,-0.7637002266665678,0.0007306340948900654,-0.0048716947805056855,0.06137399198401265
1589552291.9353454,0.0813131864383655,-4.306060440684903,8.806565932191829,0.4311111111111111,0.3333333333333333,-0.7555555555555555,0.003041140079068501,0.004308182560381493,-0.017815910597786616
1589552291.9453454,0.08,-4.293189691313078,8.783189691313078,0.4311111111111111,0.3333333333333333,-0.7555555555555555,0.024186304179747656,-0.04405629197071589,0.0612367624673235
1589552291.9553454,0.08,-4.2302877432671515,8.822651611952034,0.4311111111111111,0.3333333333333333,-0.7555555555555555,0.08047037453412573,0.10566715569974963,0.023029620766675113
1589552291.9653454,0.08713036581738871,-4.262782194904332,8.87991256072172,0.4311111111111111,0.3333333333333333,-0.7555555555555555,-0.0684457330738734,0.0374116784185298,0.03642403696216182
1589552291.9753454,0.07222639189932387,-4.253339587848986,8.846679175697972,0.4311111111111111,0.3481446734172301,-0.7674046276226729,-0.06122432894437364,-0.01660122984829317,-0.08020709954474717
1589552291.9853454,0.10252407501267106,-4.3313101875316775,8.848131018753168,0.4311111111111111,0.35,-0.7688888888888888,0.013274907502854101,0.0736993584072783,0.058337331693109395
1589552291.9953454,0.0876257549806184,-4.320167673307491,8.767961101595601,0.4311111111111111,0.35,-0.7688888888888888,0.09019143885729847,-0.002723782731846147,0.12879411908460042
1589552292.0053453,0.07257709997579279,-4.258039699830549,8.836497700314693,0.4311111111111111,0.35,-0.7688888888888888,0.09992876083612001,0.023921330206928937,-0.08600240862832687
1589552292.0153453,0.07639941929415614,-4.227201161411688,8.876399419294156,0.4311111111111111,0.35,-0.7688888888888888,-0.011509417905287617,0.008424507590284958,-0.07745690370487412
1589552292.0253453,0.09502191493302056,-4.287598617198592,8.88,0.42777290779266214,0.3391508392150407,-0.7688888888888888,-0.06052437459007867,0.030605416167092215,-0.02016841673441685
1589552292.0353453,0.10565318960770245,-4.321306379215405,8.829121293530678,0.4266666666666667,0.33555555555555555,-0.7688888888888888,0.056126919663871656,0.09344078070498475,-0.017453292519943295
1589552292.0453453,0.08705561771393511,-4.324263904428484,8.749847330999387,0.4266666666666667,0.33555555555555555,-0.7688888888888888,0.11599326113780428,0.03892018247452769,-0.08690720931028492
1589552292.0553453,0.08139976162999679,-4.291500595925008,8.776998808149985,0.4266666666666667,0.33555555555555555,-0.7688888888888888,0.04127818090354927,-0.02572186785766757,-0.14226607264678665
1589552292.0653453,0.09,-4.245503620971032,8.839597103223173,0.4266666666666667,0.33555555555555555,-0.7688888888888888,-0.03206568516539842,0.023053368971312164,-0.10606724378746055
1589552292.0753453,0.0851099917534045,-4.2444500412329775,8.855109991753404,0.42286332691931466,0.33555555555555555,-0.7688888888888888,-0.024910143382223436,0.0869065154284133,0.017763228794159647
1589552292.0853453,0.08637286772344918,-4.295491470893796,8.85,0.4188888888888889,0.33555555555555555,-0.7688888888888888,-0.0006211802223995352,0.035502065539101874,0.1721514418891696
1589552292.0953453,0.08437393788191054,-4.30437393788191,8.776861192464837,0.4188888888888889,0.33555555555555555,-0.7688888888888888,-0.07534766612278103,0.0016371730466299816,0.07244600181220931
1589552292.1053452,0.09334210328497332,-4.253302638502594,8.806723671352326,0.4188888888888889,0.33555555555555555,-0.7688888888888888,-0.05485875169958697,0.012731142395730265,0.04950648136579008
1589552292.1153452,0.09358835726605043,-4.23641164273395,8.888469856403697,0.4188888888888889,0.33555555555555555,-0.7688888888888888,-0.04061700586662201,-0.011613607304800894,0.05805850287900503
1589552292.1253452,0.08224330320188074,-4.255513393596239,8.91,0.4188888888888889,0.34072668675430173,-0.7749218752874261,0.06271303591534075,0.01334319989941354,0.034193161987144303
1589552292.1353452,0.0716793640278238,-4.2683206359721755,8.860076184166942,0.4188888888888889,0.3422222222222222,-0.7766666666666666,0.05242636078738184,0.017827983318700773,-0.07074610319683375
1589552292.1453452,0.07609785975535062,-4.282195719510701,8.770727823180442,0.4188888888888889,0.3422222222222222,-0.7766666666666666,0.02899941841719618,0.020353501614536494,-0.14018743756762642
1589552292.1553452,0.09371857541899442,-4.285427141527002,8.756582867783985,0.4188888888888889,0.3422222222222222,-0.7766666666666666,0.03559724140124375,0.0288933041760409,-0.05004681354373318
1589552292.1653452,0.09984942330396876,-4.28,8.813534102261375,0.4188888888888889,0.3422222222222222,-0.7766666666666666,0.044207148372708886,0.017543146622179623,0.07018998271843484
1589552292.1753452,0.08239067308109045,-4.275218653837819,8.851953365405452,0.42181082265466613,0.3406284401681619,-0.7745416239279196,0.01982576555453945,-0.01854412330243975,0.04538239947438273
1589552292.1853452,0.0855804849758962,-4.277678060096415,8.85464387980717,0.4311111111111111,0.33555555555555555,-0.7677777777777778,-0.0011685241562180686,0.009417346283148657,0.0845207431876434
1589552292.1953452,0.08,-4.3039393082983,8.790303458508497,0.4311111111111111,0.33555555555555555,-0.7677777777777778,-0.0066111890714343445,0.007768840801994838,-0.016460226873109163
1589552292.2053452,0.08481403794985337,-4.300371924100293,8.76,0.4311111111111111,0.33555555555555555,-0.7677777777777778,-0.0063015609405674185,-0.05748946646643041,-0.12770605474737853
