time,acc_x,acc_y,acc_z,mag_x,mag_y,mag_z,gyr_x,gyr_y,gyr_z
1589552299.4121935,-0.51,-4.2,8.89,0.4977777777777778,0.1988888888888889,-0.68,-0.0370882466048795,0.09053895494720583,0.06544984694978735
1589552299.4221935,-0.5233641245578343,-4.1966358754421655,8.933317937721082,0.4711111111111111,0.19333333333333333,-0.6666666666666666,0.026109403947330356,-0.03309189253727748,-0.13687114323674338
1589552299.4321935,-0.513847907678277,-4.21,8.920760461608614,0.4711111111111111,0.19333333333333333,-0.6666666666666666,0.044970435487542336,-0.01652339457518861,-0.16040523362868742
1589552299.4421935,-0.5228324903866189,-4.206416245193309,8.854335019226763,0.4711111111111111,0.19333333333333333,-0.6666666666666666,0.003455216990129518,0.01328600113085164,0.09003508291160933
1589552299.4521935,-0.5168802568765629,-4.195413162082292,8.882293418958856,0.4711111111111111,0.19333333333333333,-0.6666666666666666,0.038467841298768804,-0.05891403723524789,0.03454603310586753
1589552299.4621935,-0.5302674662931186,-4.176755822097706,8.893244177902295,0.4772390027043327,0.19693797544699315,-0.678201521430378,0.08926552317923109,-0.102096680502951,0.06002864143688145
1589552299.4721935,-0.5064892875253549,-4.180532137423935,8.92106427484787,0.49,0.20444444444444448,-0.7022222222222222,0.01965756448464946,-0.0842487694049591,0.0506184619121896
1589552299.4821935,-0.5197875429177132,-4.1901062285411435,8.861062285411434,0.49,0.20444444444444448,-0.7022222222222222,-0.031645680428663114,-0.04036073895236887,-0.023882399852263123
1589552299.4921935,-0.5349099694811801,-4.18,8.79054018311292,0.49,0.20444444444444448,-0.7022222222222222,-0.04942129262073644,-0.06701207642648982,0.01728561751360025
1589552299.5021935,-0.5254514949365054,-4.189097010126989,8.851839535444462,0.49,0.20444444444444448,-0.7022222222222222,-0.06167752930965917,-0.06493538022163359,0.07160082798486102
1589552299.5121934,-0.52,-4.2092905977545,8.90393589663175,0.4776125363273328,0.196186135329333,-0.6944800574268052,-0.04947430411562205,0.02511893941065116,0.08041194278211251
1589552299.5221934,-0.5057720693403512,-4.2152573564467835,8.929485287106433,0.4633333333333333,0.18666666666666668,-0.6855555555555556,0.01948251195487282,0.04190879211159338,0.008518161676525249
1589552299.5321934,-0.49,-4.2010844419635935,8.89987998883617,0.4633333333333333,0.18666666666666668,-0.6855555555555556,0.051519200082650554,-0.03436747845072648,-0.023841182968824294
1589552299.5421934,-0.49,-4.200976288189695,8.839023711810306,0.4633333333333333,0.18666666666666668,-0.6855555555555556,-0.030359168671140198,-0.03823080853255591,0.01870235096861035
1589552299.5521934,-0.5082592928377153,-4.214564823209429,8.843694469628286,0.4633333333333333,0.18666666666666668,-0.6855555555555556,0.008815653304780964,-0.016552343433040056,0.05377805647379174
1589552299.5621934,-0.53,-4.22,8.884857764557921,0.46575006044313133,0.18873814704649353,-0.6855555555555556,0.05826516718630372,0.0034443494240362343,0.10628558823498907
1589552299.5721934,-0.5282800213402612,-4.22,8.94,0.4711111111111111,0.19333333333333333,-0.6855555555555556,-0.03848853113398197,0.018902209109632574,0.06908900276760115
1589552299.5821934,-0.4654562051037822,-4.254709687661229,9.044129062983687,0.4711111111111111,0.19333333333333333,-0.6855555555555556,-0.1147372849083245,-0.08300266798379817,-0.01665905584352626
1589552299.5921934,-0.4318474691132774,-4.270103998331856,9.042367460772558,0.4711111111111111,0.19333333333333333,-0.6855555555555556,0.024036092075494418,0.015853524892149272,-0.12585993968095904
1589552299.6021934,-0.5769377477767064,-4.186275938426372,8.697145255187685,0.4711111111111111,0.19333333333333333,-0.6855555555555556,-0.004029283231092126,0.06091950387035468,-0.06866238042109322
1589552299.6121933,-0.5424171539961014,-4.195484671274145,8.758472443735602,0.46519699923208696,0.19826175989918682,-0.679148601019946,-0.02445602793137633,-0.0024118900714528435,0.08081987111194856
1589552299.6221933,-0.48774280981779855,-4.2061285950911005,8.878869146212919,0.4577777777777778,0.20444444444444448,-0.6711111111111111,-0.010661593800674593,-0.02459567994883856,0.042558333447026336
1589552299.6321933,-0.5619323603137382,-4.1624541117490095,8.699816446996037,0.4577777777777778,0.20444444444444448,-0.6711111111111111,0.044670301157156055,0.020993486931383237,-0.03184172717626531
1589552299.6421933,-0.529997883373902,-4.185001587469573,8.77500582072177,0.4577777777777778,0.20444444444444448,-0.6711111111111111,0.0891755607741417,0.029998250572810515,0.00409075973941813
1589552299.6521933,-0.46363502845603083,-4.233839422311976,8.978992717703935,0.4577777777777778,0.20444444444444448,-0.6711111111111111,0.08213239519369467,-0.007986141647632547,-0.01925912780102121
1589552299.6621933,-0.4958562179742874,-4.196898223435918,8.915185787487342,0.4596939509544216,0.20061209809115677,-0.6787758038176865,0.0340730405089642,-0.0735297464634125,-0.043476389440241216
1589552299.6721933,-0.46101661970826346,-4.21,8.99429455401405,0.4633333333333333,0.19333333333333333,-0.6933333333333334,-0.026709539673032537,-0.03398778798613222,-0.02630221422302584
1589552299.6821933,-0.48464253621365155,-4.207678731893174,8.92214478271809,0.4633333333333333,0.19333333333333333,-0.6933333333333334,-0.03447912962164941,-0.06689112687264373,-0.06365909810904914
1589552299.6921933,-0.5143564701778863,-4.185643529822114,8.82042901988141,0.4633333333333333,0.19333333333333333,-0.6933333333333334,-0.03474830614015917,-0.05021055663540629,0.01252838367842459
1589552299.7021933,-0.5104260184126602,-4.17,8.82957398158734,0.4633333333333333,0.19333333333333333,-0.6933333333333334,-0.08138087293698754,-0.054508260876629425,0.05265629682776141
1589552299.7121933,-0.46535865245094943,-4.199282695098101,8.936867074632515,0.46862048661493494,0.19536685382625701,-0.6982137825163502,-0.02312608054989395,-0.05731234978633657,0.06107042045704183
1589552299.7221932,-0.48654606664962075,-4.231381573340152,8.916397980056251,0.4777777777777778,0.1988888888888889,-0.7066666666666667,0.0318996183648433,0.04321699935464076,0.0175645325294257
1589552299.7321932,-0.5198676635692616,-4.214026467286147,8.772211738289181,0.4777777777777778,0.1988888888888889,-0.7066666666666667,0.05395181353732406,0.02349717201992431,-0.03359721287782351
1589552299.7421932,-0.49767637393767705,-4.204647252124646,8.812323626062323,0.4777777777777778,0.1988888888888889,-0.7066666666666667,0.06170643708216712,-0.03617392645778304,-0.1139872309553521
1589552299.7521932,-0.5036477730178891,-4.186352226982111,8.83493724840161,0.4777777777777778,0.1988888888888889,-0.7066666666666667,-0.038755407439144636,-0.004507294101236032,-0.04974585691431851
1589552299.7621932,-0.4867578174452462,-4.203242182554754,8.929453095328522,0.4799392328142803,0.19708767635847013,-0.6980208465206567,0.01282993212404522,0.022208673960032604,0.04103396341934826
1589552299.7721932,-0.48,-4.214145644164368,8.945126135013792,0.4844444444444445,0.19333333333333333,-0.68,0.13931171248856355,0.010501769166751357,-0.028850145126494642
1589552299.7821932,-0.48228026019603326,-4.22,8.8826368776476,0.4844444444444445,0.19333333333333333,-0.68,0.09339177355065742,0.0407497482461144,-0.10783229349661451
1589552299.7921932,-0.48971445789538987,-4.22,8.79342650525532,0.4844444444444445,0.19333333333333333,-0.68,0.07068530880851438,-0.06467312377097825,0.09895872469075956
1589552299.8021932,-0.4996039001887188,-4.2,8.842409100440344,0.4844444444444445,0.19333333333333333,-0.68,-0.03950788266056423,-0.004330751458057221,0.030543261909900768
1589552299.8121932,-0.5310891089108911,-4.194455445544555,8.876138613861386,0.4844444444444445,0.19333333333333333,-0.68,0.04093315510556008,-0.06036290339972962,0.0677395115625522
1589552299.8221931,-0.5473668289803748,-4.186316585509813,8.858949756529437,0.4844444444444445,0.19333333333333333,-0.68,-0.07279842802688408,-0.034272359572757816,0.10718122677193648
1589552299.8321931,-0.5321898675092457,-4.179103084269864,8.847757710674662,0.4844444444444445,0.19333333333333333,-0.68,-0.08633954430958107,-0.02124356817663532,-0.00415620980630476
1589552299.8421931,-0.4828241035433906,-4.187175896456609,8.814351792913218,0.4844444444444445,0.19333333333333333,-0.68,-0.09018483419668186,-0.10728840354404884,-0.040956417888054215
1589552299.852193,-0.3785998567529375,-4.298550107435297,9.058550107435297,0.4844444444444445,0.19333333333333333,-0.68,-0.02199648162885447,0.00017443917021628744,-0.1089497307905104
1589552299.862193,-0.4549941785110169,-4.248464225302607,8.948862722699413,0.4844444444444445,0.19205158058917862,-0.6825635054883095,-0.05202736360060401,0.02752396518746044,0.007632005321845549
1589552299.872193,-0.5485223435458826,-4.205101180646275,8.683157674200784,0.4844444444444445,0.18666666666666668,-0.6933333333333334,0.006867359324199917,0.003873093220512114,0.060777485121864226
1589552299.882193,-0.4824499952451897,-4.2337750023774054,8.874725013471963,0.4844444444444445,0.18666666666666668,-0.6933333333333334,0.022640193409383284,0.03558289528412053,-0.023180162772538725
1589552299.892193,-0.521994140440412,-4.21,8.768020508458559,0.4844444444444445,0.18666666666666668,-0.6933333333333334,0.022693115348708524,0.0656545903515488,0.05104193211767559
1589552299.902193,-0.5002385209344362,-4.213253826355188,8.845792089907068,0.4844444444444445,0.18666666666666668,-0.6933333333333334,0.019895140062489047,0.03604945301789362,0.0014904327224859737
1589552299.912193,-0.48,-4.217470908970011,8.92,0.4844444444444445,0.1883527273533258,-0.6955814142488789,-0.02590743055132001,0.007908323706070128,-0.010574907752370313
1589552299.922193,-0.4753815137212115,-4.21,8.929236972557577,0.4844444444444445,0.19333333333333333,-0.7022222222222222,-0.0315068752412567,-0.03194943259365826,0.05490052674625347
1589552299.932193,-0.47,-4.21,8.94,0.4844444444444445,0.19333333333333333,-0.7022222222222222,0.04363323129985824,0.003272492347489368,-0.05017821599483697
1589552299.942193,-0.47,-4.202642306068399,8.86642306068399,0.4844444444444445,0.19333333333333333,-0.7022222222222222,0.04684363091136932,-0.003148306875532799,-0.03894181735454818
1589552299.952193,-0.4897985008163871,-4.2197985008163865,8.840201499183612,0.4844444444444445,0.19333333333333333,-0.7022222222222222,-0.025124891521677312,-0.018522143151226467,0.06479044241338884
1589552299.962193,-0.4742340804512394,-4.20423408045124,8.85576591954876,0.4844444444444445,0.19333333333333333,-0.7022222222222222,0.05637022293920828,-0.016824328266624684,0.013855995875335349
1589552299.972193,-0.4691802637242243,-4.211639472551552,8.870819736275775,0.4777777777777778,0.19333333333333333,-0.68,-0.06848925141907454,0.08149022827542067,0.06580752437504542
1589552299.982193,-0.4609744883984818,-4.228051023203037,8.879025511601519,0.4777777777777778,0.19333333333333333,-0.68,0.010280536993139314,0.05642711378062534,0.06938796930287332
1589552299.992193,-0.5482747527701656,-4.18267306088407,8.669744429882044,0.4777777777777778,0.19333333333333333,-0.68,0.009704793819731963,0.02617876905787962,0.09229893171846473
1589552300.002193,-0.45157811914574747,-4.238947920569502,8.938246534282502,0.4777777777777778,0.19333333333333333,-0.68,0.02227681627229368,-0.07744898555724837,0.21943142211804448
1589552300.012193,-0.5344861096440267,-4.17793229111651,8.85240625330094,0.4777777777777778,0.19333333333333333,-0.6809189817259956,-0.06861287597802336,-0.06993058389274073,-0.011512430122696569
1589552300.022193,-0.45806096995011025,-4.138365819700661,9.01612193990022,0.4777777777777778,0.19333333333333333,-0.6933333333333334,0.005698923228336572,0.03544136929228696,0.013042002703965352
1589552300.032193,-0.45457238861426125,-4.085427611385739,8.96799327970017,0.4777777777777778,0.19333333333333333,-0.6933333333333334,-0.005299891809965819,0.022340373727493004,-0.09399802795969912
1589552300.042193,-0.4681238086006914,-4.0718761913993085,8.87313333979516,0.4777777777777778,0.19333333333333333,-0.6933333333333334,-0.027473350911569414,-0.06339700146537423,-0.08808510553260483
1589552300.052193,-0.46001425767124704,-4.112517822089059,8.902489306746565,0.4777777777777778,0.19333333333333333,-0.6933333333333334,0.005449488100477387,0.07255502210736314,-0.061440494407844194
1589552300.062193,-0.49,-4.156671181649539,8.881667795412385,0.47666591416952125,0.1922214697250768,-0.6920361591237008,-0.019645296757765742,0.07597582920118061,-0.21997583516354235
1589552300.072193,-0.49,-4.184581157549886,8.881871736324829,0.4711111111111111,0.18666666666666668,-0.6855555555555556,-0.05934465992917322,-0.055084106422198326,-0.15994377550701103
1589552300.082193,-0.5127543621409721,-4.127168259499347,8.843938097312254,0.4711111111111111,0.18666666666666668,-0.6855555555555556,0.02204110392390518,-0.02928110230276869,-0.16763558446984064
1589552300.092193,-0.6142833449253652,-3.910955540099513,8.800955540099514,0.4711111111111111,0.18666666666666668,-0.6855555555555556,-0.07092530273138371,0.009431358779293495,-0.12122724465093809
1589552300.1021929,-0.46024856750867565,-4.138198854006941,8.972856589460092,0.4711111111111111,0.18666666666666668,-0.6855555555555556,-0.023591982143710857,-0.02373422767501243,0.07141165841939529
1589552300.1121929,-0.49409813574368494,-4.165278508594948,8.817148575579049,0.4711111111111111,0.18666666666666668,-0.6855555555555556,-0.08710152187224611,-0.07690500512215823,-0.06742314935926315
1589552300.1221929,-0.5329302048980916,-4.155093258366222,8.858790614694275,0.4977777777777778,0.18666666666666668,-0.68,0.039158330517253974,0.036651784550424386,-0.09065578123147494
1589552300.1321929,-0.5430295560983261,-3.993735630896094,8.891412149595537,0.4977777777777778,0.18666666666666668,-0.68,0.005993299599387613,0.08123554477427149,0.011549553141656515
1589552300.1421928,-0.5178495676749587,-3.909893947449422,8.836451296975124,0.4977777777777778,0.18666666666666668,-0.68,-0.018391595630275474,-0.048195356256701356,0.08276218033623962
1589552300.1521928,-0.4795372807017544,-3.564606259968102,8.876616028708133,0.4977777777777778,0.18666666666666668,-0.68,-0.040546067100862386,-0.07036610994173002,0.06977850532165317
1589552300.1621928,-0.39544330228075814,-2.956835046578863,8.921139174429811,0.4908161562622694,0.18805899096976836,-0.6789874005068351,-0.09118782931324755,-0.004294730092506324,-0.006600086892392025
1589552300.1721928,-0.3617595566977192,-3.007360664953421,8.92956011082557,0.43935487828818215,0.1983512465645858,-0.6715021237106042,-0.10404797260636278,0.0526573330627183,-0.023134556840683048
1589552300.1821928,-0.41322909395504676,-3.041226441435153,9.011789752896831,0.43666666666666665,0.1988888888888889,-0.6711111111111111,-0.05388350760015895,-0.07581068351088556,0.2564381288716347
1589552300.1921928,-0.5742555493508307,-2.785047989669133,9.055706058913863,0.43666666666666665,0.1988888888888889,-0.6711111111111111,-0.10019192410850798,-0.05345489623099292,0.4193160076251382
1589552300.2021928,-0.421685921080103,-2.868429605400515,8.941570394599484,0.43666666666666665,0.1988888888888889,-0.6711111111111111,0.019508934243684616,-0.0825479305316486,0.5492297689130992
1589552300.2121928,-0.42898340176769434,-2.904917008838472,8.905082991161528,0.43666666666666665,0.1988888888888889,-0.6711111111111111,-0.028252965168503626,-0.08573205715912784,0.7546059363855087
1589552300.2221928,-0.3862741898291857,-2.98,8.86287635028469,0.49,0.19333333333333333,-0.6944444444444444,-0.016469789873929934,0.07262879710210679,0.7735136861450979
1589552300.2321928,-0.34163577345371343,-2.98,8.937273710910477,0.49,0.19333333333333333,-0.6944444444444444,-0.07003204440461484,-0.006903035382849629,0.8554801665632672
1589552300.2421927,-0.3234887913103767,-2.9822107695863185,8.825699560896696,0.49,0.19333333333333333,-0.6944444444444444,-0.03399086196747149,-0.13734293158650734,1.0097815763695674
1589552300.2521927,-0.3437436062022346,-3.0424957374681565,8.907487212404469,0.49,0.19333333333333333,-0.6944444444444444,0.06326818538479445,-0.1319812252801784,1.0780353743965705
1589552300.2621927,-0.3689836118187471,-3.059322407879165,8.957967223637494,0.49,0.19333333333333333,-0.6944444444444444,0.06326818538479445,-0.16869132538267884,0.9917666391556946
1589552300.2721927,-0.46672579646649837,-3.102405114529263,8.974877613219677,0.4777777777777778,0.19333333333333333,-0.6933333333333334,0.07244214551057288,0.06371279801717632,0.9382185743274046
1589552300.2821927,-0.6038307633490506,-3.22,8.921915381674525,0.4777777777777778,0.19333333333333333,-0.6933333333333334,-0.05253948165961138,0.028378420852704714,1.1371826804986567
1589552300.2921927,-0.6186502192219361,-3.2179753288329045,8.928650219221936,0.4777777777777778,0.19333333333333333,-0.6933333333333334,0.04976341333664499,-0.08105632249196693,1.1878878100701322
1589552300.3021927,-0.6040552578467534,-3.1960828867701303,8.914055257846753,0.4777777777777778,0.19333333333333333,-0.6933333333333334,0.06886817310152028,-0.12006187367858731,1.1640068603640383
1589552300.3121927,-0.6366750416225215,-3.2083375208112606,8.827481156349327,0.4777777777777778,0.19333333333333333,-0.6933333333333334,0.03817085529369224,-0.08589264650449127,1.270389157020838
1589552300.3221927,-0.6702849085395299,-3.2402849085395298,8.888141044213942,0.487031499831523,0.18828584857674502,-0.7000633130087844,0.04151372713588838,-0.09337480735523733,1.3293630116088522
1589552300.3321927,-0.7139930209371884,-3.29,8.944675972083749,0.49,0.18666666666666668,-0.7022222222222222,0.012263417650478602,0.005506357180238841,1.5571370155159692
1589552300.3421926,-0.7811997934767128,-3.29,8.85506694203105,0.49,0.18666666666666668,-0.7022222222222222,0.03507135160374324,-0.03033468188917701,1.4373953622613298
1589552300.3521926,-0.7255036989125602,-3.136402959130048,8.920899260217487,0.49,0.18666666666666668,-0.7022222222222222,-0.03669587031419536,-0.011630354283007044,1.6334095154125885
1589552300.3621926,-0.6831147673525488,-3.102491813882039,8.92937704652949,0.49,0.18666666666666668,-0.7022222222222222,-0.0329967382035717,0.012414004436046804,1.5141125048449753
1589552300.3721926,-0.8014554941203956,-3.285821976481582,9.025633517638813,0.4977777777777778,0.14555555555555555,-0.6855555555555556,0.0364417843157433,-0.15476893350382687,1.6026600367760633
1589552300.3821926,-0.8096213301144771,-3.318485320457908,9.00113600965657,0.4977777777777778,0.14555555555555555,-0.6855555555555556,-0.06510423172989896,-0.0683657444123593,1.5305089201120543
1589552300.3921926,-0.8925100469665425,-3.4383266353556383,8.961633176778193,0.4977777777777778,0.14555555555555555,-0.6855555555555556,0.204141589196378,-0.05325940494358513,1.5053727827420096
1589552300.4021926,-0.918494279512931,-3.412471397564654,8.863224257808188,0.4977777777777778,0.14555555555555555,-0.6855555555555556,0.11733670211147587,-0.03490833065806849,1.5753703279813185
1589552300.4121926,-0.9030644152595373,-3.335322076297686,8.793789868667917,0.4977777777777778,0.14555555555555555,-0.6855555555555556,-0.055184849586295076,-0.11317420533071579,1.5551726829045065
1589552300.4221926,-0.9845315288518739,-3.3007552548086454,8.946978980765417,0.5044444444444445,0.11333333333333333,-0.7211111111111111,-0.02975904477685677,-0.07099260517701882,1.5173592186876386
1589552300.4321926,-1.0454307422559908,-3.3132584453535943,8.895880070134424,0.5044444444444445,0.11333333333333333,-0.7211111111111111,0.013416848851559799,-0.1704841387584316,1.4159556577673262
1589552300.4421926,-1.0981339304755813,-3.3375598208573254,8.787320537428023,0.5044444444444445,0.11333333333333333,-0.7211111111111111,0.07194262809868117,-0.09843053057871741,1.5693244845695395
1589552300.4521925,-1.187583706547238,-3.3107248880358284,8.867825335892514,0.5044444444444445,0.11333333333333333,-0.7211111111111111,0.09536052471301198,-0.06525517704174874,1.5771304501076497
1589552300.4621925,-1.2165407877907606,-3.3188469292635867,8.993857009690217,0.5044444444444445,0.11333333333333333,-0.7211111111111111,0.0014181817010530812,0.022495508774312722,1.6381394789489976
1589552300.4721925,-1.2825783853054251,-3.3512891926527124,9.080400683468604,0.5235656177322132,0.09247387156485833,-0.7167653899093455,-0.04162640087950123,0.0457616793341544,1.603399632655851
1589552300.4821925,-1.2946117260756238,-3.2729347347753968,8.911676991300228,0.5288888888888889,0.08666666666666667,-0.7155555555555555,-0.01907264505152989,-0.06153190669387759,1.6118160285694123
1589552300.4921925,-1.3727020073795742,-3.322628550150638,8.940073457228936,0.5288888888888889,0.08666666666666667,-0.7155555555555555,0.027390963672191907,-0.16142866544987947,1.549090156792388
1589552300.5021925,-1.3914889332119826,-3.2785110667880173,8.903474177494626,0.5288888888888889,0.08666666666666667,-0.7155555555555555,0.09025436008783877,-0.15028004827843575,1.5118109845865373
1589552300.5121925,-1.4158550376638717,-3.2541449623361283,8.960328421215701,0.5288888888888889,0.08666666666666667,-0.7155555555555555,-0.0036591552214383233,-0.11041110309996903,1.689006296490834
1589552300.5221925,-1.4720050778379101,-3.2070029620721145,8.956002538918954,0.5222222222222223,0.027777777777777776,-0.7022222222222222,0.14627629979519827,-0.08988417952461292,1.3855728906562048
1589552300.5321925,-1.5792649384254158,-3.2677948152762473,9.003384445828742,0.5222222222222223,0.027777777777777776,-0.7022222222222222,0.05914541059258469,-0.07982446573077531,1.3780400094100589
1589552300.5421925,-1.5604000092009018,-3.2091999815981964,8.831200027602705,0.5222222222222223,0.027777777777777776,-0.7022222222222222,0.06649706858888824,0.02412905446197479,1.3854859713838197
1589552300.5521924,-1.5703395987673219,-3.1897453009245087,8.860424498459151,0.5222222222222223,0.027777777777777776,-0.7022222222222222,0.09149086893379263,-0.10375394945348203,1.3635126761067144
1589552300.5621924,-1.6388193636604829,-3.1383854772546376,8.946024204575604,0.5222222222222223,0.027777777777777776,-0.7022222222222222,0.06347843061245004,-0.12896514394269035,1.5782747032370075
1589552300.5721924,-1.7175394223263076,-3.1920031225604997,9.120930523028884,0.5155555555555555,0.0033333333333333327,-0.7422222222222222,0.055649571142140815,-0.15832697766793682,1.4438384406175515
1589552300.5821924,-1.680119549459128,-3.0703885357421656,8.830926508308242,0.5155555555555555,0.0033333333333333327,-0.7422222222222222,0.03932207146189143,0.05495098690532094,1.5203735953687205
1589552300.5921924,-1.7824319568800393,-3.0793119960800035,8.93243195688004,0.5155555555555555,0.0033333333333333327,-0.7422222222222222,-0.041992587594561336,0.025158933995656604,1.5246812355882813
1589552300.6021924,-1.8665935636489084,-3.032129022719432,8.892129022719432,0.5155555555555555,0.0033333333333333327,-0.7422222222222222,-0.0521740852783106,-0.21834496006651719,1.6304640878538257
1589552300.6121924,-1.903003693065244,-3.063003693065244,8.989011079195732,0.5155555555555555,0.0033333333333333327,-0.7422222222222222,-0.08296110524171806,-0.15887164787757108,1.511850396126344
1589552300.6221924,-1.9365496146818144,-3.016900770636371,8.983450385318186,0.5263720652407393,-0.02616623853534952,-0.7491054556582483,-0.01994139546468575,-0.06965607842978468,1.719331363890808
1589552300.6321924,-1.9513725557816326,-3.0197254888436733,9.096294099389592,0.5277777777777778,-0.03,-0.75,-0.02564093738488755,-0.043994709831741134,1.7162639553836911
1589552300.6421924,-2.0236955547125564,-3.005260889057489,8.901022002276097,0.5277777777777778,-0.03,-0.75,0.002760237880984069,-0.12052009874256189,1.6791846432310256
1589552300.6521924,-2.040570944036179,-2.971712832108536,8.83,0.5277777777777778,-0.03,-0.75,0.05628908826987366,-0.009498675734073148,1.6307278895883468
1589552300.6621923,-2.0766869234548135,-3.0066869234548133,9.07947107949273,0.5277777777777778,-0.03,-0.75,0.030091019952695405,-0.10273966334828478,1.635013434334345
1589552300.6721923,-2.0209986734887244,-2.8906225127913587,8.928495357210537,0.5258610742635756,-0.06833407028404184,-0.7730004421704251,-0.11678969333731692,-0.15091665580828456,1.6787348285725538
1589552300.6821923,-2.063770093157151,-2.896885046578576,9.0580315411161,0.5255555555555556,-0.07444444444444444,-0.7766666666666666,-0.014628780600733277,-0.14391819863047545,1.6838672071371865
1589552300.6921923,-2.2109991325605236,-2.947230502326315,9.093461872092107,0.5255555555555556,-0.07444444444444444,-0.7766666666666666,-0.011042156314639236,-0.00865206615679176,1.576544930180487
1589552300.7021923,-2.2600714606218735,-2.9099285393781265,9.036571385837501,0.5255555555555556,-0.07444444444444444,-0.7766666666666666,0.05466626143854451,-0.058647785636947086,1.59994101286449
1589552300.7121923,-2.28,-2.822558282397027,8.989767484719108,0.5255555555555556,-0.07444444444444444,-0.7766666666666666,-0.013546378055349459,-0.09277134347735831,1.5559307125927888
1589552300.7221923,-2.28,-2.763644364716764,9.006355635283235,0.5148180745142373,-0.10275234900791982,-0.7639769163451088,-0.02876873947375061,-0.10448545749692606,1.591370397607259
1589552300.7321923,-2.361151042915368,-2.769016782546152,9.10016782546152,0.5133333333333333,-0.10666666666666667,-0.7622222222222222,-0.01219533646241878,-0.08023754760506585,1.5304146918033235
1589552300.7421923,-2.417489489866349,-2.746255255066826,8.91212712555688,0.5133333333333333,-0.10666666666666667,-0.7622222222222222,-0.031629506781471244,-0.06536161949928614,1.534887138423015
1589552300.7521923,-2.439253610395624,-2.6844783376262553,8.934028883164993,0.5133333333333333,-0.10666666666666667,-0.7622222222222222,-0.022956474308593114,-0.14393975145938354,1.316000695806931
1589552300.7621922,-2.44,-2.6722374285150856,8.963287714454744,0.5133333333333333,-0.10666666666666667,-0.7622222222222222,-0.03536485873324697,-0.11073668392726475,1.452199896243523
1589552300.7721922,-2.4977379700768294,-2.604013748483623,9.085475940153659,0.4968367704542392,-0.1286620838387923,-0.7915494451183898,0.020113455190011897,-0.0884686260508349,1.411143780264092
1589552300.7821922,-2.5275526778418795,-2.5461183053953005,8.995907594027782,0.4933333333333334,-0.13333333333333333,-0.7977777777777778,0.13707608058804815,-0.0517110294679213,1.408308510292107
1589552300.7921922,-2.496395720565263,-2.499674864678316,8.912791441130526,0.4933333333333334,-0.13333333333333333,-0.7977777777777778,0.07904544555358083,-0.07476472629492548,1.375253882634135
1589552300.8021922,-2.6330810579901036,-2.5225225161083618,9.033081057990104,0.4933333333333334,-0.13333333333333333,-0.7977777777777778,0.02507928349177712,-0.019707686492312804,1.1744002409080847
1589552300.8121922,-2.64396527551584,-2.4658611020633594,9.038620367354453,0.4933333333333334,-0.13333333333333333,-0.7977777777777778,0.029979162142809143,-0.04961462601228678,1.2103153963928581
1589552300.8221922,-2.65825068119891,-2.4135313351498637,9.058844686648502,0.4835240690281563,-0.14275022706630336,-0.8052328186497124,0.08909144924945168,-0.07230811111200078,1.1780473106080365
1589552300.8321922,-2.8501545897284535,-2.4573745572609207,9.101969082054309,0.4655555555555556,-0.16,-0.8188888888888889,-0.0001307596374089115,-0.08155964355837819,1.0121477704688377
1589552300.8421922,-2.771655632052438,-2.309814574489145,8.923311264104877,0.4655555555555556,-0.16,-0.8188888888888889,0.031239658378043586,-0.020390591280747328,0.9785619015506234
1589552300.8521922,-2.531319080087831,-2.146015717092338,8.840712354096846,0.4655555555555556,-0.16,-0.8188888888888889,-0.02204116063892516,-0.07112854585126567,0.9593295369583839
1589552300.8621922,-2.658747882736156,-2.1736925081433225,9.083121824104234,0.4655555555555556,-0.16,-0.8188888888888889,-0.08627412637517051,-0.07511865832469959,1.0687772398218465
1589552300.8721921,-2.6625803511360924,-2.156128822240066,9.119354586688079,0.4474909274169241,-0.19086040640349544,-0.8241577387626564,-0.007951921804406667,0.01854469145580201,0.9387820294745595
1589552300.8821921,-2.834940445026178,-2.1488609293193717,9.064556282722513,0.4388888888888889,-0.20555555555555555,-0.8266666666666667,-0.030572174636792848,-0.03448039002866251,0.7765732495607681
1589552300.8921921,-3.048562323814193,-2.215996813334968,9.078856232381419,0.4388888888888889,-0.20555555555555555,-0.8266666666666667,-0.04132680404222828,0.08062182043871582,0.7472511464613093
1589552300.902192,-2.9692200857149404,-2.229077991428506,8.94383012857241,0.4388888888888889,-0.20555555555555555,-0.8266666666666667,-0.06521769571915317,-0.03245384703791686,0.8431732696634178
1589552300.912192,-2.9738384059557696,-2.1608079702211516,8.867727173199036,0.4388888888888889,-0.20555555555555555,-0.8266666666666667,-0.014797751324454878,-0.0522717416809726,0.807743594320521
1589552300.922192,-2.795218582113136,-1.9540176972506056,9.051178763299273,0.4212906586139495,-0.25737256692065497,-0.8383988201832929,0.03944135234215565,-0.06907005381827476,0.8144551927843523
1589552300.932192,-2.718887021516552,-1.8874058512637932,9.097037659494482,0.4188888888888889,-0.2644444444444444,-0.84,-0.058585387610652524,0.027597577360586184,0.6424929143806463
1589552300.942192,-2.8969950228645054,-1.924522624491549,9.11780904979662,0.4188888888888889,-0.2644444444444444,-0.84,-0.13755213290902135,-0.054351902515986275,0.7683406797680892
1589552300.952192,-3.02974271679393,-1.893419094402023,8.991966830407081,0.4188888888888889,-0.2644444444444444,-0.84,-0.04631913882430047,0.09506881267308956,0.7855846460685477
1589552300.962192,-3.034634159964254,-1.89,9.028292560321717,0.4188888888888889,-0.2644444444444444,-0.84,-0.0019689056952164607,0.03057006963690581,0.7309631849874706
1589552300.972192,-3.0264799774847218,-1.875919909938887,9.059439932454165,0.4196711161145063,-0.2808712161824095,-0.8376533183231478,-0.014643587500248346,-0.024355981294290042,0.6267386417955612
1589552300.982192,-2.920276828942288,-1.8039739210502868,9.063013039474857,0.4211111111111111,-0.3111111111111111,-0.8333333333333334,-0.02184856263515328,0.04627682812686,0.4996608930897235
1589552300.992192,-2.918474689489615,-1.79,8.849321156455485,0.4211111111111111,-0.3111111111111111,-0.8333333333333334,0.01397748051778509,0.02582851843827487,0.5644959696681886
1589552301.002192,-2.912194381169324,-1.7603239686155403,8.860898506707162,0.4211111111111111,-0.3111111111111111,-0.8333333333333334,-0.014031435593023247,-0.006128917372978694,0.5662198617074126
1589552301.012192,-2.9,-1.7227092919791533,9.11443421888903,0.4211111111111111,-0.3111111111111111,-0.8333333333333334,-0.05091982008243123,-0.07009816990058712,0.49667171410041683
1589552301.022192,-2.923554789414834,-1.7288438315318673,9.306531494595601,0.4101188760508552,-0.3257674245247857,-0.8301926947446888,-0.031281148151851124,-0.02268720676232558,0.4469065005339251
1589552301.032192,-2.99618510670501,-1.75,9.23657635840775,0.3977777777777778,-0.3422222222222222,-0.8266666666666667,0.050322680492291855,-0.014239906789698331,0.40842953189759124
1589552301.042192,-2.956864266244782,-1.705660941997217,8.843965651983302,0.3977777777777778,-0.3422222222222222,-0.8266666666666667,0.0730190644249307,-0.035416767738362005,0.3179548732670891
1589552301.052192,-2.931952976132804,-1.7179462584374898,8.977610373671803,0.3977777777777778,-0.3422222222222222,-0.8266666666666667,0.006162878611364213,0.006335611981082264,0.33785657149955883
1589552301.062192,-3.0405870130960375,-1.7561990010073876,9.117014984889188,0.3977777777777778,-0.3422222222222222,-0.8266666666666667,0.000868305698424398,0.08561659477730689,0.33517705716543866
1589552301.072192,-3.1469615488034415,-1.76,9.074240387200861,0.35743001404200647,-0.3612094051567028,-0.8361602581339069,0.014346521977269872,0.05433856657803937,0.1479124304003436
1589552301.082192,-3.0728675841332254,-1.7002262056204462,8.70641378512779,0.3411111111111111,-0.3688888888888889,-0.84,0.07503290954099665,-0.02002614944246153,0.11116603899305585
1589552301.092192,-2.985795062267861,-1.6935512344330348,8.86457592309373,0.3411111111111111,-0.3688888888888889,-0.84,0.03538648385212929,-0.04120680608758023,0.09929644095007788
1589552301.102192,-3.16242909041677,-1.749073718888914,8.926389421666629,0.3411111111111111,-0.3688888888888889,-0.84,0.057399551711803616,-0.052753730558695464,0.042608391386054906
1589552301.112192,-3.3657765769998824,-1.7916579349230588,8.862513097615413,0.3411111111111111,-0.3688888888888889,-0.84,-0.007199816320829791,-0.05908571489975347,0.014361652817398776
1589552301.122192,-3.452451758602956,-1.805408626433826,8.990624287279475,0.3176737298978651,-0.38090805874183553,-0.805745365919102,-0.040958777544503354,-0.03285617049411452,0.05657090439024037
1589552301.132192,-3.394011446932423,-1.7670057234662115,9.124331425511263,0.2977777777777777,-0.3911111111111111,-0.7766666666666666,0.023484644405464584,-0.01450742507389026,0.0494202534469029
1589552301.142192,-3.2051892959996637,-1.707778898908999,8.785194341090161,0.2977777777777777,-0.3911111111111111,-0.7766666666666666,0.02327142358259198,-0.056277728246277456,0.03886573370702147
1589552301.1521919,-3.332673585673586,-1.7410018315018314,8.929010378510378,0.2977777777777777,-0.3911111111111111,-0.7766666666666666,-0.010982051004847612,0.029528838118722048,-0.035200225853701486
1589552301.1621919,-3.5257803724504875,-1.8156069563503794,9.226300620750813,0.2977777777777777,-0.3911111111111111,-0.7766666666666666,-0.0005422446839781839,0.053614617785947116,-0.11323202932369594
1589552301.1721919,-3.4469100201447436,-1.7925580094008804,9.176910020144744,0.30142488829200753,-0.3783462243113067,-0.756151670024124,0.01353568563112302,0.0543513986028794,-0.13378079586931094
1589552301.1821918,-3.293717085119412,-1.74952847519902,9.098821187997551,0.30666666666666664,-0.36,-0.7266666666666667,-0.0014221547678719866,0.10028529085168503,-0.1311795825081883
1589552301.1921918,-3.3953085186110417,-1.81,9.154549088183863,0.30666666666666664,-0.36,-0.7266666666666667,0.04925824479281148,0.041394616541374996,-0.14956807871508426
1589552301.2021918,-3.46,-1.8046235802593227,9.016988642074582,0.30666666666666664,-0.36,-0.7266666666666667,0.022918301015546212,0.037663100941257924,-0.10700601539472422
1589552301.2121918,-3.444912076914829,-1.815087923085171,9.11579130776654,0.30666666666666664,-0.36,-0.7266666666666667,0.01444295200709799,0.04801573627140338,-0.16978849942464558
1589552301.2221918,-3.4710629463544262,-1.8124015944195317,9.120945025743232,0.33795272103194374,-0.35283027920795734,-0.722755909871007,0.03586860321876987,0.07686489015070982,-0.2645651447706809
1589552301.2321918,-3.426495633904537,-1.7737484406801918,8.919743450856805,0.36,-0.3477777777777778,-0.72,0.0035987890479721903,0.030757617929335596,-0.28776360979639226
1589552301.2421918,-3.320973706912719,-1.7597565732718203,8.888296012902742,0.36,-0.3477777777777778,-0.72,-0.018358247144573153,-0.048556310475578804,-0.28196435283477983
1589552301.2521918,-3.241854712873957,-1.7536520198031247,8.954550673267708,0.36,-0.3477777777777778,-0.72,-0.020235645436450216,-0.050693403494489565,-0.19747794373486371
1589552301.2621918,-3.2577041923444146,-1.7781633538755317,9.058129502647338,0.36,-0.3477777777777778,-0.72,0.004155590924726105,-0.03034660749316219,-0.18691798744802368
1589552301.2721918,-3.3530437058361686,-1.8580124873817625,9.254224772871723,0.3622083473535973,-0.3459006825272201,-0.7173499831756832,0.03952757702558755,-0.0177041505654488,-0.22802449840301703
1589552301.2821918,-3.321239683882068,-1.8608264559213787,9.039338893587239,0.38222222222222224,-0.3288888888888889,-0.6933333333333334,0.006400753649869549,0.024908803285535196,-0.18952509657536168
1589552301.2921917,-3.3342865943814686,-1.8538109906357811,9.045719566288813,0.38222222222222224,-0.3288888888888889,-0.6933333333333334,0.051215822406970105,0.050436273548113614,-0.16606836864200789
1589552301.3021917,-3.4644349041533546,-1.9102416134185303,9.024193290734825,0.38222222222222224,-0.3288888888888889,-0.6933333333333334,-0.03070706078139386,0.04360404373499111,-0.17197574600883625
1589552301.3121917,-3.5741923551171393,-1.9694615700780929,9.053653925195231,0.38222222222222224,-0.3288888888888889,-0.6933333333333334,0.034625022470462896,0.047518167070648126,-0.1955860041364186
1589552301.3221917,-3.56,-1.9669964690440538,9.064982345220269,0.3931056185129725,-0.31761679987346897,-0.7007184951020567,0.09368807268564572,0.06752743261459976,-0.173773580494667
1589552301.3321917,-3.533381328379006,-1.965480724570367,9.100961449140735,0.4133333333333333,-0.2966666666666667,-0.7144444444444444,-0.03764759504142204,0.06677323292465068,-0.1602822064724112
1589552301.3421917,-3.4646895818568395,-1.934689581856839,9.032034372785258,0.4133333333333333,-0.2966666666666667,-0.7144444444444444,0.014470438551378306,0.09132714010207807,-0.1765114185648227
1589552301.3521917,-3.534132231404959,-1.9796143250688705,9.045482093663912,0.4133333333333333,-0.2966666666666667,-0.7144444444444444,0.007206094260128103,0.011434190433606103,-0.14948288276722782
1589552301.3621917,-3.6520129985579106,-2.0444967503605223,8.983490251081568,0.4133333333333333,-0.2966666666666667,-0.7144444444444444,0.001845195832630854,-0.02871933491791557,-0.07560551364280563
1589552301.3721917,-3.6556613467424572,-2.0448677306515086,8.989735461303017,0.409911820434339,-0.28925338871884565,-0.7098824272457854,0.04320610451117195,0.07217369545912383,-0.2395786591713147
1589552301.3821917,-3.8673705370799283,-2.1274395839706335,8.998737053707993,0.4066666666666667,-0.2822222222222222,-0.7055555555555556,0.03492918058203156,0.024881362485461148,-0.11250244162107725
1589552301.3921916,-3.9541750104297035,-2.1477187630371297,8.829225073007926,0.4066666666666667,-0.2822222222222222,-0.7055555555555556,0.08781116692584262,-0.06543892498951204,-0.07205751914592959
1589552301.4021916,-3.809148486731162,-2.1149017484689803,8.896080766841218,0.4066666666666667,-0.2822222222222222,-0.7055555555555556,0.04473002597480183,-0.07740611523946285,-0.1765371416008367
1589552301.4121916,-3.36807083205318,-1.9830265620199425,9.021008854006649,0.4066666666666667,-0.2822222222222222,-0.7055555555555556,-0.019224494841247348,-0.07685858478348036,-0.1923661789150446
1589552301.4221916,-3.0431444461145345,-1.8422967082519166,9.014381482038178,0.4187514404529285,-0.2862504801509762,-0.6981704160195067,-0.07366362402478246,-0.046628302080538045,-0.1588102382573117
1589552301.4321916,-3.1518879696188797,-1.8744052624440528,9.05188796961888,0.4266666666666667,-0.2888888888888889,-0.6933333333333334,-0.12563639468794968,-0.016881468164274122,-0.1858372935160214
1589552301.4421916,-3.1830561370530184,-1.9461122741060366,9.095280685265092,0.4266666666666667,-0.2888888888888889,-0.6933333333333334,-0.07199026457437327,-0.007644949618260823,-0.2960981796547186
1589552301.4521916,-3.274534296891331,-1.9797246692746437,9.08209723176158,0.4266666666666667,-0.2888888888888889,-0.6933333333333334,-0.005773028178013912,-0.0835223529658478,-0.24507394557944506
1589552301.4621916,-3.486135470214696,-2.0493226489265193,9.025697006350168,0.4266666666666667,-0.2888888888888889,-0.6933333333333334,0.0071360850161863686,-0.019143799855986337,-0.21671446424837892
1589552301.4721916,-3.4882878746135244,-2.08,9.10928031346619,0.43173147893048713,-0.2888888888888889,-0.6924124583762751,-0.026867489084858833,-0.04674871240238179,-0.32443702377120687
1589552301.4821916,-3.472578331597083,-2.08,9.070859443865695,0.4388888888888889,-0.2888888888888889,-0.6911111111111111,0.0287190333980073,0.020461141050299232,-0.3039843552634117
1589552301.4921916,-3.3952998584294707,-2.1694002831410586,8.992949787644207,0.4388888888888889,-0.2888888888888889,-0.6911111111111111,0.0630171553182782,-0.021866065944445748,-0.2672482188227867
1589552301.5021915,-2.952749770314913,-2.109425494067283,8.845458295052484,0.4388888888888889,-0.2888888888888889,-0.6911111111111111,0.019790144311787064,-0.049469432930736607,-0.43921529450876967
1589552301.5121915,-2.5856082898561192,-2.1097526763309444,8.982723629339446,0.4388888888888889,-0.2888888888888889,-0.6911111111111111,0.021971596211701316,0.08965361618022308,-0.6357865063824751
1589552301.5221915,-2.8251569143551327,-2.679627454950395,9.55982385098198,0.4398823423545027,-0.2884335560504826,-0.6919803828935233,-0.005881961004139626,0.09715461505226736,-0.8110303677492217
1589552301.5321915,-2.6367813025575595,-2.698097198863307,8.969656092327321,0.4655555555555556,-0.2766666666666667,-0.7144444444444444,0.03544975462165976,-0.07098453369217847,-1.2965661621334017
1589552301.5421915,-2.416613217681932,-2.6199327577288822,9.15324712529344,0.4655555555555556,-0.2766666666666667,-0.7144444444444444,-0.03709501736849982,0.04473083284597501,-1.530146267904752
1589552301.5521915,-2.1552072946294127,-2.3895037644303163,8.887437175840724,0.4655555555555556,-0.2766666666666667,-0.7144444444444444,-0.0320041027858276,0.10078878569951737,-1.9810007513630987
1589552301.5621915,-2.1225120494097953,-2.478888856821265,8.941739155531184,0.4655555555555556,-0.2766666666666667,-0.7144444444444444,0.022037936334536185,0.14876401954302154,-2.282871639992987
1589552301.5721915,-2.334951047409041,-2.7957614112458655,8.903437265711135,0.46735134141859613,-0.2680468945240721,-0.7144444444444444,0.035060047011051476,0.14526698163667462,-2.6669297736279107
1589552301.5821915,-2.45,-3.119820221538026,9.092125844923382,0.4711111111111111,-0.25,-0.7144444444444444,-0.06222294582408828,0.1157030703484673,-2.972931576646425
1589552301.5921915,-2.454442504676227,-3.184442504676227,8.96114990647546,0.4711111111111111,-0.25,-0.7144444444444444,-0.0802540150864651,0.15684018818137047,-3.3316706801566123
1589552301.6021914,-2.471062004598017,-3.274808701918128,8.875811344062038,0.4711111111111111,-0.25,-0.7144444444444444,-0.02169429348003589,0.17248653668278585,-3.6663470143628514
1589552301.6121914,-2.597608584837672,-3.146839746181294,8.928277583449052,0.4711111111111111,-0.25,-0.7144444444444444,-0.0692996123697947,0.1654953142239434,-3.798084898153254
1589552301.6221914,-2.914895158540743,-2.7966433685646095,9.046265768837367,0.48576845853695494,-0.24022843504943744,-0.7189230783801189,-0.08821996325386763,0.1746290655871845,-3.842932784136213
1589552301.6321914,-3.415886782423813,-3.5376446226080795,8.852198130758328,0.5111111111111111,-0.22333333333333333,-0.7266666666666667,0.07459086975080656,0.1595576778385574,-3.817524237500855
1589552301.6421914,-3.6329410658454595,-3.9002263804978963,8.661719363407697,0.5111111111111111,-0.22333333333333333,-0.7266666666666667,0.05112598405993181,0.132829514821513,-3.717225588404772
1589552301.6521914,-3.722638025337759,-3.9714314431302884,9.02006124070871,0.5111111111111111,-0.22333333333333333,-0.7266666666666667,0.038203605909015004,0.10257827749448298,-3.571509406816307
1589552301.6621914,-3.731873787976729,-4.099063106011635,9.125927197802197,0.5111111111111111,-0.22333333333333333,-0.7266666666666667,0.021541263729719123,0.08432147950239366,-3.3281662978283
1589552301.6721914,-3.6357089845143795,-4.11,9.017828682889697,0.5295855964435141,-0.2025004030648789,-0.7223428509505724,-0.02695173808043528,0.1069279875051117,-3.010289285614163
1589552301.6821914,-3.410169010659425,-4.068078871641066,9.094123941150245,0.5633333333333334,-0.16444444444444445,-0.7144444444444444,-0.012683135001738264,0.08508511051534925,-2.666137922045235
1589552301.6921914,-3.1666769613197245,-3.97,8.898346201649655,0.5633333333333334,-0.16444444444444445,-0.7144444444444444,0.01127584848935435,0.16309688879922954,-2.350054104252442
1589552301.7021914,-2.942299512195122,-3.9344643902439027,8.856629268292682,0.5633333333333334,-0.16444444444444445,-0.7144444444444444,-0.025692949349602378,0.04712963661967664,-1.888656967238288
1589552301.7121913,-2.757165744802594,-3.857914362006485,8.936791436200648,0.5633333333333334,-0.16444444444444445,-0.7144444444444444,-0.0025432606304094454,0.07855729293439097,-1.7403475903013874
1589552301.7221913,-2.693389784397742,-3.7854237230497176,8.98949160035367,0.6080791524027598,-0.14410543577652332,-0.7144444444444444,-0.013164012042540717,0.0777818065386997,-1.6979797546732076
1589552301.7321913,-2.5710628606134223,-3.7292546961086286,8.952871025118215,0.6611111111111111,-0.12,-0.7144444444444444,-0.06278038512858111,0.1303546334270228,-1.494877182786238
1589552301.7421913,-2.4621823725615712,-3.704713116134901,8.866321720966274,0.6611111111111111,-0.12,-0.7144444444444444,-0.02826101061236202,0.1454940255556259,-1.3751866735946439
1589552301.7521913,-2.387045028516731,-3.7564188569377417,8.881135085550193,0.6611111111111111,-0.12,-0.7144444444444444,-0.004636542023380222,0.12097758446242292,-1.359219922863403
1589552301.7621913,-2.355311971737355,-3.7829679576060324,8.943612984102263,0.6611111111111111,-0.12,-0.7144444444444444,0.044609092756972016,0.050246277669712104,-1.2707967075840036
1589552301.7721913,-2.2353289583263933,-3.6963909523968153,8.911146607148806,0.7030127215726336,-0.11530075396693205,-0.7230597288384023,0.061980511591245555,0.03329699279795047,-1.2369601006090984
1589552301.7821913,-2.135045177045177,-3.741119832548404,8.918597244025815,0.78,-0.10666666666666667,-0.7388888888888889,0.024812642424949044,0.054062776101114866,-1.0916760098646758
1589552301.7921913,-2.080188759278897,-3.6676101095793565,8.887610109579356,0.78,-0.10666666666666667,-0.7388888888888889,-0.0266326971768069,0.040689954690119136,-0.9942749838662138
1589552301.8021913,-2.212089691369283,-3.816806290149351,8.961044845684642,0.78,-0.10666666666666667,-0.7388888888888889,0.016535037900515512,0.028270725411338578,-0.7589671746003729
1589552301.8121912,-2.1697635728523217,-3.891968384282923,8.9477951885694,0.78,-0.10666666666666667,-0.7388888888888889,0.0020356175550373962,0.1345887259800578,-0.6244705595269948
1589552301.8221912,-1.8881228371951835,-3.733754325609633,8.836570069816858,0.8058631319774697,-0.11229815508111572,-0.7422260672085624,-0.03306368476576063,0.0805129364011003,-0.6044353740642168
1589552301.8321912,-1.8711470201355864,-3.7677059597288274,8.895985429525448,1.03975216702081,-0.16322560625990756,-0.7724052975367354,-0.01639771533978716,0.04903277192981707,-0.43777567980448195
1589552301.8421912,-1.7291850696111377,-3.7465308449351897,8.806123379740757,1.0555555555555556,-0.16666666666666666,-0.7744444444444445,-0.05793975892807998,-0.007709480158258279,-0.3590991937585695
1589552301.8521912,-1.655922634605332,-3.7005096706743337,8.85019341348667,1.0555555555555556,-0.16666666666666666,-0.7744444444444445,0.007948296015273444,-0.10782346235914131,-0.17099784656060035
1589552301.8621912,-1.5884603321404158,-3.708942458482448,9.01884916964896,1.0555555555555556,-0.16666666666666666,-0.7744444444444445,-0.0049299463174195465,0.03935645001449284,-0.2749436596744794
1589552301.8721912,-1.4663160614324673,-3.6626321228649346,8.842237691976461,1.2174724335358755,-0.21418177758639936,-0.8252490630432355,-0.013634962039263288,-0.04076231248343632,-0.1931909383125786
1589552301.8821912,-1.5160263242375602,-3.76602632423756,8.934500160513643,1.5477777777777777,-0.3111111111111111,-0.9288888888888888,0.07241393478457082,0.08097683386191157,-0.07071153839098229
1589552301.8921912,-1.531150516187011,-3.799279530061592,8.829064506937291,1.5477777777777777,-0.3111111111111111,-0.9288888888888888,0.08163167114560474,0.11664974696730711,-0.132085565612313
1589552301.9021912,-1.5746105229472787,-3.887305261473639,8.839221045894558,1.5477777777777777,-0.3111111111111111,-0.9288888888888888,0.08087763085922829,0.0021104793221392686,-0.03555877379541528
1589552301.9121912,-1.510049210345617,-3.813398947127489,8.821100175478753,1.5477777777777777,-0.3111111111111111,-0.9288888888888888,0.037944424347683525,0.03672821502136843,0.0072865199259273435
1589552301.9221911,-1.3749283998377686,-3.6514111003650207,8.855071600162232,1.5218562658374843,-0.3340741896234362,-0.9332561001396991,0.013857325097183943,0.03141996274251835,-0.028606971759184193
1589552301.9321911,-1.3220945153248278,-3.681399398738818,8.854189030649655,1.3433333333333333,-0.4922222222222222,-0.9633333333333334,-0.025975737944916154,0.0493926866565984,-0.02978100810749636
1589552301.9421911,-1.2740989435188947,-3.5472870107002574,8.76639577407558,1.3433333333333333,-0.4922222222222222,-0.9633333333333334,-0.06772658498891497,0.016854982990792623,-0.06802038385265519
1589552301.952191,-1.3501541251133273,-3.6573345421577517,9.021387126019945,1.3433333333333333,-0.4922222222222222,-0.9633333333333334,-0.032590423940515145,-0.02856829448229839,0.06789852964920824
1589552301.962191,-1.3222839390999328,-3.5339917157996865,8.899156466900514,1.3433333333333333,-0.4922222222222222,-0.9633333333333334,-0.051300471561425046,-0.04347610737940013,0.12820845829358316
1589552301.972191,-1.2977313839409224,-3.422286705399136,9.066370214305476,1.3213025507151792,-0.4837527222683323,-0.9578382411013453,-0.051670914696969855,-0.03177468030266342,-0.012488154130951362
1589552301.982191,-1.25310072570176,-3.270542467385984,8.994961161122816,0.887889269592647,-0.31713159817545955,-0.8497328689220408,0.004803100489444698,-0.12038046275031385,-0.08648858782349457
1589552301.992191,-1.3230580699066983,-3.3384464559253586,8.910801281158612,0.8577777777777778,-0.3055555555555556,-0.8422222222222222,-0.0038549270204106755,-0.08869087706113819,0.06193385066909343
1589552302.002191,-1.411110679973304,-3.4288877679305902,8.819998447903894,0.8577777777777778,-0.3055555555555556,-0.8422222222222222,-0.038057328420964376,-0.08060091409027287,0.07223553600514343
1589552302.012191,-1.4436604634558972,-3.5135172049853325,8.937177668441231,0.8577777777777778,-0.3055555555555556,-0.8422222222222222,-0.07924464313319696,-0.032312338220758796,0.20076836295193823
1589552302.022191,-1.536440527283875,-3.579321581851625,9.133975168608217,0.8288782955242182,-0.28364125621636355,-0.8360588255330744,0.06688518229148914,0.07846738410568943,-0.011960080043575183
1589552302.032191,-1.3928607942148246,-3.228996321925067,8.961769216383018,0.6233333333333333,-0.12777777777777774,-0.7922222222222223,0.030543261909900768,-0.03077181887392861,0.23738915042710726
1589552302.042191,-1.263031297876997,-3.0612891223462464,8.825679579776757,0.6233333333333333,-0.12777777777777774,-0.7922222222222223,0.03282376434684674,-0.058490637827662346,0.21507606614738672
1589552302.052191,-1.2392607409984344,-3.0338911114976517,8.909260740998434,0.6233333333333333,-0.12777777777777774,-0.7922222222222223,0.05070456224473177,-0.054838486450376284,0.23036281725748778
1589552302.062191,-1.278358152379921,-3.1273628634862187,8.970646558726376,0.6233333333333333,-0.12777777777777774,-0.7922222222222223,0.05351054543458112,0.04476765514660348,0.3231791310917571
1589552302.072191,-1.3053851601656135,-3.2553851601656136,9.046768903900633,0.6204612479116728,-0.12352948475823826,-0.7927009031258323,-0.002819663269115921,-0.021615100767414113,0.25357536993089463
1589552302.082191,-1.3773287501965805,-3.3224706252387053,8.96732875019658,0.57,-0.048888888888888885,-0.8011111111111111,-0.06083890515865385,-0.015867224415151485,0.09848429375111563
1589552302.092191,-1.2663118946566547,-3.1913614103819787,8.872722820763956,0.57,-0.048888888888888885,-0.8011111111111111,-0.09370342073989363,-0.08958309800296149,0.07861009295561575
1589552302.102191,-1.2935799323280004,-3.235107356197001,8.984844813902,0.57,-0.048888888888888885,-0.8011111111111111,-0.005810807596203392,-0.0044544573279470135,0.2962998105022725
1589552302.112191,-1.2334678784638688,-3.1130045442395082,8.827339392319345,0.57,-0.048888888888888885,-0.8011111111111111,0.03435217901802437,-0.05448448506892639,0.21419258935592309
1589552302.122191,-1.2686623300301945,-3.2484712343202222,9.00828013861025,0.5689595900234844,-0.04795464319569128,-0.8004316596978764,-0.017119767587398124,-0.08623107193723747,0.34163826695112137
1589552302.132191,-1.2091650961557947,-3.1804743956066224,8.931783695057451,0.5226839636767292,-0.006401019537380405,-0.7702108424918322,-0.00228515863114989,0.00833956015884503,0.20534529716559066
1589552302.142191,-1.174509841069361,-3.2967647616040416,8.856764761604042,0.5155555555555555,0.0,-0.7655555555555555,-0.013672802079596985,0.0950519472707568,0.2575590515057292
1589552302.152191,-1.2451432480791496,-3.4027148721187244,8.962714872118726,0.5155555555555555,0.0,-0.7655555555555555,0.011368153678038423,-0.005111875759784834,0.2594852788717012
1589552302.162191,-1.0381884291527337,-3.066876032391926,8.873123967608073,0.5155555555555555,0.0,-0.7655555555555555,0.0028632055710746587,0.031634092692397225,0.08820006977621878
1589552302.172191,-0.9621465694371701,-2.9823850771524114,8.95761492284759,0.5155555555555555,0.0,-0.7655555555555555,0.02129627253463328,0.031634092692397225,0.12230124365880223
1589552302.182191,-1.06,-3.04,8.98,0.5255555555555556,0.022222222222222227,-0.7955555555555556,-0.01090830782496456,-0.0272707695624114,0.11562806294462433
1589552302.192191,-1.047756258457375,-3.0338781292286874,8.95551251691475,0.5255555555555556,0.022222222222222227,-0.7955555555555556,-0.014915062875252412,-0.04864012983061328,0.07021817237469533
1589552302.2021909,-1.1638376325053201,-3.160355402637179,8.94,0.5255555555555556,0.022222222222222227,-0.7955555555555556,0.023783456379849546,0.04020353921787733,-0.06590617309045742
1589552302.2121909,-1.3213079222720479,-3.312177130044843,8.830430493273543,0.5255555555555556,0.022222222222222227,-0.7955555555555556,-0.003985853285220602,-0.00669124406895473,-0.21091319164622585
1589552302.2221909,-1.4024193400968832,-3.348967736038753,8.921387076135638,0.5255555555555556,0.022222222222222227,-0.7955555555555556,0.03393186626993884,0.04683533460316129,-0.14262965921880028
1589552302.2321908,-1.497732579087699,-3.3890282481804426,8.979352165453628,0.5341565179793905,0.029748064343077675,-0.7955555555555556,0.06284417866570632,0.09201393864705189,-0.07967050092397981
1589552302.2421908,-1.4066916737709576,-3.3122430614757983,8.95667291844274,0.5344444444444445,0.03,-0.7955555555555556,0.012376388127864027,0.023168493594393852,0.07413557543104643
1589552302.2521908,-1.3294216818744788,-3.282602431564846,8.816650658443496,0.5344444444444445,0.03,-0.7955555555555556,0.01841004069759987,-0.0056434080765005714,-0.14409220353370233
1589552302.2621908,-1.3011277091244782,-3.3566915636867174,9.017079915238234,0.5344444444444445,0.03,-0.7955555555555556,-0.09389617246006042,-0.018128645006372766,-0.25122590687026614
1589552302.2721908,-1.1955288169019993,-3.198293225352999,8.744282776996831,0.5344444444444445,0.03,-0.7955555555555556,-0.06893822597606927,-0.09108264242111612,-0.17731198843690776
1589552302.2821908,-1.240905481557377,-3.2663582223360654,8.950590420081967,0.5363298326502732,0.007375341530054643,-0.8078105788934427,0.034172146332972664,-0.04307496288197198,-0.2891280658348375
1589552302.2921908,-1.2009591457033217,-3.2147957285166093,8.83,0.5366666666666666,0.0033333333333333327,-0.81,-0.061970025297209755,0.06232462246599175,-0.25990061329761993
1589552302.3021908,-1.2090879491453157,-3.2554397457265782,8.83,0.5366666666666666,0.0033333333333333327,-0.81,-0.12492678333487922,-0.010385999493006781,-0.22531873212199865
1589552302.3121908,-1.2546679236570726,-3.3417442665845773,8.951744266584578,0.5366666666666666,0.0033333333333333327,-0.81,0.01860574172589307,0.0787355010060523,-0.3294579698037985
1589552302.3221908,-1.149762005541019,-3.285256464522087,8.895256464522088,0.5366666666666666,0.0033333333333333327,-0.81,0.011563612202998062,0.08753816290967105,-0.4042805959845579
1589552302.3321908,-1.0924262979389512,-3.297601597463325,9.033099600634168,0.51,0.004444444444444445,-0.7955555555555556,-0.010209050026202756,0.012681452397198908,-0.3305782290179904
1589552302.3421907,-1.1987404009427984,-3.428380515497884,8.99730085916314,0.51,0.004444444444444445,-0.7955555555555556,-0.14174073884865376,0.05828512041809465,-0.49205444967861034
1589552302.3521907,-1.122013793448112,-3.335208276068867,8.846006896724056,0.51,0.004444444444444445,-0.7955555555555556,-0.07592633635709259,0.08312281025800969,-0.44953226770070087
1589552302.3621907,-1.0357325999636116,-3.2842994499727083,8.817914374886286,0.51,0.004444444444444445,-0.7955555555555556,-0.04128125289941823,0.08113678167622101,-0.5868599687716703
1589552302.3721907,-1.082694014079579,-3.319520510559684,8.964668793998685,0.51,0.004444444444444445,-0.7955555555555556,-0.00414170972165398,0.14709148766431956,-0.568930534134129
1589552302.3821907,-1.1376576470124857,-3.429887352790579,9.056914411753121,0.5023173202743095,0.009822320252427779,-0.7955555555555556,0.11173395730944508,0.14471198583533273,-0.6346841377881028
1589552302.3921907,-1.199795199065674,-3.6051583974639723,8.995977601201277,0.4988888888888889,0.012222222222222223,-0.7955555555555556,0.011804013461546164,0.10092924953065453,-0.5367637966212717
1589552302.4021907,-2.1455241180075286,-4.546075111616913,9.11670034141644,0.4988888888888889,0.012222222222222223,-0.7955555555555556,0.2728664834578823,-0.5917417703983989,-1.1175947067939476
1589552302.4121907,-21.987944848113457,-24.931922612273482,12.259763284601243,0.4988888888888889,0.012222222222222223,-0.7955555555555556,-1.0825321796488507,-1.7068215216067752,-4.717572007031333
1589552302.4221907,-12.25078382697997,-13.874964124188118,-3.332031489101235,0.4988888888888889,0.012222222222222223,-0.7955555555555556,-0.5695348924913474,-0.07662348998702107,-3.696342591763261
1589552302.4321907,0.3491577882268899,-4.641788782413746,16.142635954209076,0.47684522746661906,0.03977679900005952,-0.7900446401999881,1.3527658234778506,1.1838563589625495,-3.628308501941852
1589552302.4421906,-1.8831416479960168,-0.39747821757530494,7.372790639780931,0.4722222222222222,0.045555555555555564,-0.7888888888888889,-0.5384577808689068,-0.49525645555848363,-2.461329722309072
1589552302.4521906,-1.8085604039972971,0.06492549521675733,3.270822219851346,0.4722222222222222,0.045555555555555564,-0.7888888888888889,-0.46279715029077206,-0.5310528829287839,-1.9439086357747306
1589552302.4621906,0.7733707935318723,-1.8812168321158769,12.237972778922394,0.4722222222222222,0.045555555555555564,-0.7888888888888889,0.38560951021801126,0.3926670952557253,-1.4226447482691227
1589552302.4721906,-0.45739714053817837,-1.5146051070737343,6.607864144346632,0.4722222222222222,0.045555555555555564,-0.7888888888888889,-0.10761449415877389,0.0032296091744412614,-1.244588978349318
1589552302.4821906,-0.33,-2.52,8.01,0.4477777777777778,0.12555555555555556,-0.7466666666666667,-0.02181661564992912,-0.06654067773228381,-0.6708609312353204
1589552302.4921906,-0.3136751660284066,-2.533813321052887,8.05143996315866,0.4477777777777778,0.12555555555555556,-0.7466666666666667,-0.02674795973418209,-0.06023951584684946,-0.5997673873540068
1589552302.5021906,-0.2,-2.63,8.34,0.4477777777777778,0.12555555555555556,-0.7466666666666667,-0.061086523819801536,-0.016362461737446838,-0.10471975511965977
1589552302.5121906,-0.1975310399367339,-2.694192961644919,8.527640964808224,0.4477777777777778,0.12555555555555556,-0.7466666666666667,-0.06270245440246058,-0.01690110526499985,-0.0729397869940319
1589552302.5221906,-0.24215825550332373,-2.8615500424527327,8.967233531446086,0.4477777777777778,0.12555555555555556,-0.7466666666666667,-0.005563329608226766,0.023869132283705144,0.033308504050905054
1589552302.5321906,-0.2936893277919701,-2.8489320166240897,9.078737560529227,0.4365588049635024,0.16061484560016606,-0.7634951258880797,-0.008324119843949956,0.026847197644580774,0.01196740398714436
1589552302.5421906,-0.019222145715884154,-3.5057010371390454,8.910620992382837,0.43,0.1811111111111111,-0.7733333333333333,-0.013824638312196554,-0.20491277608579925,-0.4170374660281268
1589552302.5521905,-0.6073985200086213,-23.86616926503341,7.5644335081543215,0.43,0.1811111111111111,-0.7733333333333333,-0.19453527742420276,0.0521717114050218,-1.6335279917732701
1589552302.5621905,-1.0569745976046991,-4.059412807994508,8.021596994431306,0.43,0.1811111111111111,-0.7733333333333333,0.45314432949248945,0.15719885518338939,-1.1812598971329675
1589552302.5721905,-1.376930353192463,-2.323652833930887,7.4296788465939425,0.43,0.1811111111111111,-0.7733333333333333,-0.19428329482295514,0.06383665059881721,-0.9160065308366125
1589552302.5821905,-1.0951978603245307,-2.5591586461979,8.309970768374164,0.43641584473433026,0.18351705288648495,-0.7637095662318379,-0.11136833923830225,-0.06683234394890503,-0.5574899734895882
1589552302.5921905,-0.06093933463796477,-7.52068493150685,10.167495107632094,0.4388888888888889,0.18444444444444444,-0.76,-0.02560783966111054,0.1996241678950559,-0.62622439177935
1589552302.6021905,-0.7133719704952581,-7.324253600280998,8.427674745345978,0.4388888888888889,0.18444444444444444,-0.76,0.07846778395930601,0.17666630974349345,-0.46704990859518347
1589552302.6121905,-0.6861964735516373,-4.712753988245172,8.582283795130143,0.4388888888888889,0.18444444444444444,-0.76,-0.13805374867881887,-0.07991091095048974,-0.1898439396335163
1589552302.6221905,-0.66,-4.939664983372336,8.676195344254218,0.4388888888888889,0.18444444444444444,-0.76,0.006180142843781655,-0.05239642220484023,-0.20264489337364514
1589552302.6321905,-0.3701609956611098,-4.684296643069194,9.194576387303037,0.4266666666666667,0.21333333333333332,-0.7622222222222222,0.11610970745660354,0.093981586007745,-0.17066332817378785
1589552302.6421905,-0.47,-4.53,8.65,0.4266666666666667,0.21333333333333332,-0.7622222222222222,0.04581489286485115,-0.10799224746714917,0.19962203319685146
1589552302.6521904,-0.4401030012431184,-4.374535606464216,8.709793997513763,0.4266666666666667,0.21333333333333332,-0.7622222222222222,0.006679813006933544,-0.09625172350977387,0.12852663812163445
1589552302.6621904,-0.42,-4.2580537567293435,8.797784973082624,0.4266666666666667,0.21333333333333332,-0.7622222222222222,0.0337934984838376,-0.03362570782395684,0.0090491634832119
1589552302.6721904,-0.42679839121552604,-4.229604826353421,8.857193564862104,0.4266666666666667,0.21333333333333332,-0.7622222222222222,-0.017694383950548676,0.02552017557553729,0.020057247104922064
1589552302.6821904,-0.4049392386673734,-4.251325951665783,8.913856332332095,0.43084346022210446,0.2230791849626881,-0.7768409996662544,0.017638877449584096,-0.044646881366173584,0.09310268675564692
1589552302.6921904,-0.3993696087649728,-4.25594558685254,8.883782347410163,0.43333333333333335,0.2288888888888889,-0.7855555555555556,0.04589306736146684,-0.04161732820829402,0.06479983470639306
1589552302.7021904,-0.40455247599193467,-4.267237620040327,8.814552475991935,0.43333333333333335,0.2288888888888889,-0.7855555555555556,-0.009474022478401952,0.009231669485783462,0.0259509690705375
1589552302.7121904,-0.39491399530883503,-4.25948397185301,8.86086004691165,0.43333333333333335,0.2288888888888889,-0.7855555555555556,0.013990608409751262,0.04987544435466008,-0.056822560960465306
1589552302.7221904,-0.4069857748543805,-4.23,8.90433807504854,0.43333333333333335,0.2288888888888889,-0.7855555555555556,0.04568600046902738,0.017082132559199256,-0.09484440184714202
1589552302.7321904,-0.42,-4.20742424978149,8.892474749927164,0.4149382775997324,0.2238720555069977,-0.7654882220279908,0.08472117311776532,-0.03597538097701456,0.19662492344808985
1589552302.7421904,-0.39145981902079463,-4.238053574638941,8.937566968298675,0.4088888888888889,0.2222222222222222,-0.7588888888888888,0.06933008507452068,-0.008909747897280485,-0.061235567637389576
1589552302.7521904,-0.3968842522239487,-4.267537008895795,8.816083459968924,0.4088888888888889,0.2222222222222222,-0.7588888888888888,-0.04501180509051267,0.08473170167886503,0.02509203217712465
1589552302.7621903,-0.3919154525913542,-4.247661810365417,8.81659183186052,0.4088888888888889,0.2222222222222222,-0.7588888888888888,0.004542045345603832,0.0551034980447762,-0.14230378652967196
1589552302.7721903,-0.4212319463548831,-4.233753610729024,8.83,0.4088888888888889,0.2222222222222222,-0.7588888888888888,0.02972435108415523,-0.0013406940507979942,-0.06020885142525337
1589552302.7821903,-0.39497145415873725,-4.2224952423597895,8.920057091682525,0.4230645422092864,0.2180529124221053,-0.77639999004938,-0.02184983024444822,-0.03491281277635892,0.029458658863876643
1589552302.7921903,-0.3946466702671264,-4.24197000540069,8.876766648664367,0.42777777777777776,0.21666666666666667,-0.7822222222222223,-0.10557461914196933,-0.02539744635661029,0.08544915147680206
1589552302.8021903,-0.4,-4.266929530690127,8.773817111894427,0.42777777777777776,0.21666666666666667,-0.7822222222222223,0.018852525223496897,0.04760305200960187,-0.05779207312842237
1589552302.8121903,-0.4169265208160251,-4.2446102187759625,8.76,0.42777777777777776,0.21666666666666667,-0.7822222222222223,0.001501364992801825,-0.045248935658812064,0.06783088495245614
1589552302.8221903,-0.4264240327719618,-4.220727901684115,8.824240327719616,0.42777777777777776,0.21666666666666667,-0.7822222222222223,-0.014954023929485055,-0.011101767682084235,-0.020331933884315936
1589552302.8321903,-0.41498282943909504,-4.215005723520301,8.895040064642112,0.42165967125296466,0.21666666666666667,-0.7738793496883861,-0.015266636241246946,-0.009849942681540456,-0.08180856265195663
1589552302.8421903,-0.41596044739828175,-4.22,8.898079105203436,0.4155555555555556,0.21666666666666667,-0.7655555555555555,0.03958111941597287,-0.04514313631716044,-0.024568359633915154
1589552302.8521903,-0.42,-4.236589909327588,8.798755498698267,0.4155555555555556,0.21666666666666667,-0.7655555555555555,-0.01097886564692243,-0.061383150666033844,-0.021766378088979244
1589552302.8621902,-0.42,-4.24,8.78,0.4155555555555556,0.21666666666666667,-0.7655555555555555,-0.07704576738240826,-0.007775026655305585,-0.05936327065991286
1589552302.8721902,-0.3996460938281484,-4.233215364609383,8.861415624687407,0.4155555555555556,0.21666666666666667,-0.7655555555555555,0.04968859151877235,-0.022669224789498062,-0.02618652937501976
1589552302.8821902,-0.40472997978762776,-4.2152700202123725,8.877905030318558,0.4368321930265734,0.22730498540217559,-0.7549172368200466,0.04010886066851803,0.05558970183161822,0.08664892449681205
1589552302.8921902,-0.41,-4.236190981751167,8.856904509124416,0.4444444444444444,0.2311111111111111,-0.7511111111111111,-0.07904805201551424,-0.040207387648677845,-2.3162208878935164e-06
1589552302.9021902,-0.40526747237172245,-4.25,8.788477140832391,0.4444444444444444,0.2311111111111111,-0.7511111111111111,-0.06412984371602194,-0.026426535775295343,-0.02506652294683761
1589552302.9121902,-0.3944363538295577,-4.255563646170442,8.786763754045309,0.4444444444444444,0.2311111111111111,-0.7511111111111111,0.0356761679220362,0.0886350021898388,-0.008036492803731976
1589552302.9221902,-0.3957842410417261,-4.254215758958273,8.84,0.4444444444444444,0.2311111111111111,-0.7511111111111111,-0.015548750289182546,0.05372944510457931,-0.0031230876181311887
1589552302.9321902,-0.40694030898876404,-4.229179073033707,8.90940308988764,0.43441955368289636,0.22571309300873907,-0.7665340199750312,0.01800698106600257,0.04143532983838433,0.0001302255849890445
1589552302.9421902,-0.41606866952789695,-4.22,8.909656652360516,0.43,0.22333333333333333,-0.7733333333333333,-0.00020786646670748615,-0.014072185261922103,0.05568199568540707
1589552302.9521902,-0.40605777110079216,-4.2409133433488115,8.827259969953566,0.43,0.22333333333333333,-0.7733333333333333,0.01766275825064393,-0.007625610354749027,0.09599310885968812
1589552302.9621902,-0.41510240427426537,-4.280204808548531,8.822653606411398,0.43,0.22333333333333333,-0.7733333333333333,-0.017855433164603605,-0.0566581199574673,0.10587760934293294
1589552302.9721901,-0.40729451985104087,-4.277294519851041,8.861763700372398,0.43,0.22333333333333333,-0.7733333333333333,-0.07589492739294984,-0.03805206056359449,0.06334663303513413
1589552302.9821901,-0.40759693845278006,-4.232015307736099,8.86480612309444,0.4350646256351867,0.21826870769814663,-0.7741774376058644,-0.041823345068921304,-0.05561567175757138,-0.02589275820449903
1589552302.9921901,-0.4016832138705928,-4.228316786129407,8.926534289035256,0.43666666666666665,0.21666666666666667,-0.7744444444444445,-0.036699366064877746,-0.1512794168219888,0.163753073159418
1589552303.00219,-0.4159525871894233,-4.245952587189423,8.804403008889901,0.43666666666666665,0.21666666666666667,-0.7744444444444445,-0.056671481336553975,-0.022684804562663252,0.1235095453500928
1589552303.01219,-0.4123263477917798,-4.25767365220822,8.808368261041101,0.43666666666666665,0.21666666666666667,-0.7744444444444445,0.022620036609183394,0.059382342804105794,-0.04980784642608571
1589552303.02219,-0.41,-4.26,8.826068827835346,0.43666666666666665,0.21666666666666667,-0.7744444444444445,0.05991267001948337,0.021449161538825597,-0.07216087768040952
1589552303.03219,-0.4021040320784139,-4.252104032078414,8.869479839607932,0.43666666666666665,0.2105253582832108,-0.7630391574465979,-0.08051492718851544,-0.020612303473931698,0.0001236874288907744
1589552303.04219,-0.4,-4.242539179795155,8.88,0.43666666666666665,0.2088888888888889,-0.76,-0.019074081032358955,-0.029418240306119205,-0.030303926160905
1589552303.05219,-0.405341358214073,-4.245341358214073,8.831927776073343,0.43666666666666665,0.2088888888888889,-0.76,0.018767541731101067,0.016143354581662148,-0.010855785103344291
1589552303.06219,-0.3973854215548256,-4.243692710777413,8.802614578445175,0.43666666666666665,0.2088888888888889,-0.76,0.030072837935656634,0.033045364615129615,-0.009261823915110098
1589552303.07219,-0.40798386985211726,-4.2489919349260585,8.827983869852117,0.43666666666666665,0.2088888888888889,-0.76,0.000576207099462489,0.025410198890524573,-0.035988618191464684
1589552303.08219,-0.4291344841429145,-4.258268968285829,8.852596547571256,0.43608965609527633,0.21081225746019003,-0.76,-0.030877298730811367,0.02739566114778594,-0.026187120483982758
1589552303.09219,-0.42398616506366976,-4.232027669872661,8.89195849519101,0.43,0.2311111111111111,-0.76,0.062458905371373344,-0.005574886507865251,0.08788757379330646
1589552303.10219,-0.43,-4.22456952943659,8.85059611732433,0.43,0.2311111111111111,-0.76,-0.021917665389012464,0.04889955699573003,-0.03941446223853833
1589552303.11219,-0.4178420038535645,-4.242157996146435,8.80431599229287,0.43,0.2311111111111111,-0.76,-0.06690218619970076,-0.020347462052694,0.0346943039049499
1589552303.12219,-0.41557002600197257,-4.244429973998027,8.831140052003946,0.43,0.2311111111111111,-0.76,-0.0705877450266019,-0.039806472114351524,0.03730855471369088
1589552303.13219,-0.41517951838650785,-4.249640963226985,8.864102408067462,0.442854617635979,0.22039892974779526,-0.7610712181363316,0.016400962763065685,0.0035408615654729317,0.03895658947862941
1589552303.14219,-0.4156874136415023,-4.248625172716995,8.861562931792488,0.4566666666666666,0.2088888888888889,-0.7622222222222222,0.04541386422615358,-0.0062308621514699895,0.08397978849290184
1589552303.15219,-0.42606979946639123,-4.233930200533609,8.803581203201652,0.4566666666666666,0.2088888888888889,-0.7622222222222222,0.04431848595873092,-0.001176921825404565,0.0026783045497081326
1589552303.16219,-0.40408242570193204,-4.23,8.812396967872585,0.4566666666666666,0.2088888888888889,-0.7622222222222222,0.07018087993634348,0.09134371952126642,-0.040773405055407316
1589552303.17219,-0.39562252257478203,-4.246867567724346,8.841245045149563,0.4566666666666666,0.2088888888888889,-0.7622222222222222,0.0669481178047065,0.08244725037073267,-0.06420590711900617
1589552303.18219,-0.40553440366972476,-4.243396788990826,8.877672018348624,0.44559785932721707,0.21319342507645261,-0.7652968909276249,-0.015913619897126058,0.04713890123663354,-0.14271194016884195
1589552303.19219,-0.41,-4.249542691965609,8.88045730803439,0.43666666666666665,0.21666666666666667,-0.7677777777777778,0.00018627884100740066,0.04198146188936294,-0.05355152853101394
1589552303.20219,-0.4053955334987593,-4.241582133995037,8.837768734491315,0.43666666666666665,0.21666666666666667,-0.7677777777777778,0.014674191326383094,-0.011043321818589677,0.07102353209640125
1589552303.21219,-0.4,-4.227122021991447,8.796438989004276,0.43666666666666665,0.21666666666666667,-0.7677777777777778,-0.019485939403362736,-0.07726815220135345,0.06138376188083837
1589552303.22219,-0.4,-4.235701479234158,8.832985207658421,0.43666666666666665,0.21666666666666667,-0.7677777777777778,0.025991206226161676,-0.05614673810166761,-0.09199453653796649
1589552303.23219,-0.4031364046973803,-4.2331364046973805,8.8743179765131,0.43666666666666665,0.21666666666666667,-0.7677777777777778,0.05403544094064016,0.003312302251385355,-0.06020321694226781
1589552303.24219,-0.4163501023853008,-4.252700204770601,8.871750511926503,0.43666666666666665,0.21666666666666667,-0.7677777777777778,-0.043153891191771356,0.038353789008635834,0.036149730065796554
1589552303.2521899,-0.42632684944769617,-4.2410194516569115,8.833058354970735,0.43666666666666665,0.21666666666666667,-0.7677777777777778,-0.04750588940199138,-0.014629028268047357,-0.005789472885141599
1589552303.2621899,-0.42564527533932356,-4.234354724660677,8.830483072624736,0.43666666666666665,0.21666666666666667,-0.7677777777777778,-0.026637657644722534,-0.031986421459356394,-0.05791865023956226
1589552303.2721899,-0.4145754925346762,-4.245424507465324,8.861863238802014,0.43666666666666665,0.21666666666666667,-0.7677777777777778,-0.03202507250373993,-0.0009416474578825759,-0.07039988072592906
1589552303.2821898,-0.40709435207723094,-4.256452823961385,8.850641528115846,0.4272075305636921,0.2190314506924103,-0.7658071244229914,-0.05117431519611494,-0.0034042615017923356,-0.00449509228428879
1589552303.2921898,-0.411150493898896,-4.241150493898896,8.861150493898895,0.41,0.22333333333333333,-0.7622222222222222,0.0007529964959940667,-0.01844778031642031,-0.0484985520938401
1589552303.3021898,-0.41841770925299854,-4.23,8.807025345076337,0.41,0.22333333333333333,-0.7622222222222222,-0.04136869863512917,-0.003880025829228601,0.09365256404111941
1589552303.3121898,-0.412797994269341,-4.23,8.808670009551099,0.41,0.22333333333333333,-0.7622222222222222,-0.045754673171223365,0.03306571693139282,0.051763150405412656
1589552303.3221898,-0.4,-4.244899748339453,8.859799496678907,0.41,0.22333333333333333,-0.7622222222222222,-0.05114510816703617,0.05899963883915359,-0.053385093783933676
1589552303.3321898,-0.4107110364829797,-4.26,8.87928896351702,0.4207110364829797,0.22749873641004764,-0.7735283162875897,-0.004383171554542931,-0.021874329273683255,-0.031721578952987
1589552303.3421898,-0.42,-4.26,8.882703466958155,0.43,0.2311111111111111,-0.7833333333333333,0.01771654555387704,-0.0810163804024794,-0.0417781216964149
1589552303.3521898,-0.42597232828713893,-4.248055343425722,8.83624904541575,0.43,0.2311111111111111,-0.7833333333333333,-0.0047875813805071075,-0.05314719071657804,0.026636048250445327
1589552303.3621898,-0.41899890039402543,-4.223498350591038,8.827502749014936,0.43,0.2311111111111111,-0.7833333333333333,-0.054546337061005326,-0.03501578806654079,0.006864197386621945
1589552303.3721898,-0.41,-4.216482856852172,8.856482856852171,0.43,0.2311111111111111,-0.7833333333333333,-0.08603257750054102,-0.030340055972089077,-0.04122561272264
1589552303.3821898,-0.41,-4.228675057773644,8.868675057773643,0.43,0.2311111111111111,-0.7833333333333333,-0.07140298662186603,-0.019700353514870914,-0.007976542543833218
1589552303.3921897,-0.3974772600705402,-4.248784109894189,8.86382958975311,0.43,0.22333333333333333,-0.76,-0.042956499078751285,-0.024471908772423265,0.11123132843926967
1589552303.4021897,-0.41447138560421903,-4.2434141568126575,8.802114457583123,0.43,0.22333333333333333,-0.76,0.08514509313207097,0.09885719696670346,-0.05422726965728513
1589552303.4121897,-0.4172582401626252,-4.257258240162625,8.793708799186874,0.43,0.22333333333333333,-0.76,0.12184038939204415,0.08941454552003257,-0.08403586436315644
1589552303.4221897,-0.410684206838565,-4.249315793161435,8.833421034192826,0.43,0.22333333333333333,-0.76,0.0545415391248228,0.026489945061711862,0.17344794142890824
1589552303.4321897,-0.4140830956602174,-4.2429584521698915,8.877041547830109,0.43,0.22563435168769325,-0.7642733198009541,0.02678787114385924,0.04299561703764668,-0.07251212070465342
1589552303.4421897,-0.4043896494292562,-4.245610350570744,8.87,0.43,0.2311111111111111,-0.7744444444444445,-0.03400270697589169,-0.021844842452888466,-0.03139334509353045
1589552303.4521897,-0.42,-4.23,8.832344960883571,0.43,0.2311111111111111,-0.7744444444444445,-0.007056575798088625,0.029853623930612395,-0.009770028664390987
1589552303.4621897,-0.4167279109480741,-4.233272089051926,8.796360445259628,0.43,0.2311111111111111,-0.7744444444444445,0.03934241864690762,0.046825555070454244,0.0604929175929595
1589552303.4721897,-0.41,-4.24,8.855061740870234,0.43,0.2311111111111111,-0.7744444444444445,0.07025756220833895,-0.0008664081280267827,0.05583886961305771
1589552303.4821897,-0.40594615455864647,-4.24,8.885946154558647,0.43270256362756904,0.22795812021228057,-0.7861555534972436,0.028124971332656158,-0.03452564129414521,0.007019926672031593
1589552303.4921896,-0.4,-4.24,8.88,0.43666666666666665,0.22333333333333333,-0.8033333333333333,0.05901156020551064,0.0548216212454156,-0.05085559221836311
1589552303.5021896,-0.4088914326756896,-4.24,8.831097120283708,0.43666666666666665,0.22333333333333333,-0.8033333333333333,0.03562464858642793,0.015375075393171095,0.03589147402731062
1589552303.5121896,-0.41561826381634265,-4.244381736183658,8.800672153285602,0.43666666666666665,0.22333333333333333,-0.8033333333333333,0.008063981915785327,-0.004820562083354213,0.028930209822022365
1589552303.5221896,-0.4069980533297116,-4.246998053329712,8.852007786681154,0.43666666666666665,0.22333333333333333,-0.8033333333333333,0.014174429708832122,0.049074644285096905,-0.03401353493029965
1589552303.5321896,-0.4006686586083571,-4.2406686586083575,8.877325365566572,0.43666666666666665,0.22333333333333333,-0.8033333333333333,-0.0065384660810401465,0.007648852705352371,0.03226773159729161
1589552303.5421896,-0.4075601279788173,-4.237560127978818,8.877319616063549,0.43,0.22333333333333333,-0.76,0.01910265658372462,0.011549339396342246,0.014281952342874084
1589552303.5521896,-0.42,-4.2461628114055046,8.820814057027524,0.43,0.22333333333333333,-0.76,0.03521093064871181,-0.02760054205969024,0.004985310581326785
1589552303.5621896,-0.4169017559967864,-4.243098244003214,8.802392976012854,0.43,0.22333333333333333,-0.76,0.06753811246706508,-0.07455577380835571,-0.08922270917287137
1589552303.5721896,-0.41726766743179833,-4.242732332568202,8.848169168579496,0.43,0.22333333333333333,-0.76,0.044063013620386816,-0.11982810158708825,-0.023973991721866796
1589552303.5821896,-0.4276045996746792,-4.232395400325321,8.88,0.42520919934935836,0.2251964224752495,-0.7655892674257485,-0.023592049702300683,-0.031634092692397225,-0.0537290840995801
1589552303.5921896,-0.41420535245758267,-4.24,8.877102676228791,0.41,0.2311111111111111,-0.7833333333333333,0.0185947628843314,-0.017095838892528768,0.048343284830045664
1589552303.6021895,-0.4061450213684315,-4.246145021368432,8.842347403842057,0.41,0.2311111111111111,-0.7833333333333333,-0.012736039088788825,0.029939526697671852,0.030410096640801867
1589552303.6121895,-0.41805540174071076,-4.258055401740711,8.7887506921668,0.41,0.2311111111111111,-0.7833333333333333,-0.03742123721730406,0.05202628291792232,-0.01636185770796384
1589552303.6221895,-0.4,-4.242297856067306,8.839191424269222,0.41,0.2311111111111111,-0.7833333333333333,0.012495942559765563,-0.01995535417781841,0.075383423073841
1589552303.6321895,-0.40308429605179635,-4.246915703948203,8.885421480258982,0.4123988969291749,0.22871221418193616,-0.7785355394749834,-0.0035858794315047973,-0.007230475665317378,0.033355990616678155
1589552303.6421895,-0.4135041382667965,-4.24,8.912991723466407,0.4177777777777778,0.22333333333333333,-0.7677777777777778,0.02795399926138009,-0.07862452301443235,-0.033413729475330826
1589552303.6521895,-0.42,-4.244748126920554,8.877842074370749,0.4177777777777778,0.22333333333333333,-0.7677777777777778,-0.08298185494586978,-0.01653548513332395,-0.08415882079723236
1589552303.6621895,-0.42392904279354854,-4.2621419144129025,8.787503299554839,0.4177777777777778,0.22333333333333333,-0.7677777777777778,0.0012470750949659729,0.06217159579271766,-0.12034833466164813
1589552303.6721895,-0.42566779819735456,-4.2456677981973545,8.834332201802646,0.4177777777777778,0.22333333333333333,-0.7677777777777778,0.017414092584296985,-0.0034928802592989056,-0.1363527624718192
1589552303.6821895,-0.41339371415193726,-4.233393714151938,8.846606285848063,0.4177777777777778,0.22333333333333333,-0.7677777777777778,0.04820867460278356,0.020607227407342773,0.04908417707428475
1589552303.6921895,-0.4081507357487325,-4.248150735748733,8.898904414492396,0.4511111111111111,0.22333333333333333,-0.76,0.019380692180026374,0.07230082269584724,0.05108175624419428
1589552303.7021894,-0.40374879668848673,-4.236251203311514,8.812512033115132,0.4511111111111111,0.22333333333333333,-0.76,0.03954812882430294,0.08523441223585582,0.06778847032765441
1589552303.7121894,-0.406454392041922,-4.2370912159161565,8.76772803979039,0.4511111111111111,0.22333333333333333,-0.76,0.011681839485631732,0.03956841155746204,-0.024572806617196123
1589552303.7221894,-0.4027044910305424,-4.244591017938915,8.818931437213797,0.4511111111111111,0.22333333333333333,-0.76,0.01604011145705865,0.05467100166990335,-0.055346108743480074
1589552303.7321894,-0.40871798062394454,-4.233846058128167,8.873846058128166,0.4484046257616607,0.22247865374929635,-0.7609971261813765,0.031549994690376296,-0.01770504358294483,-0.20297862354636176
1589552303.7421894,-0.4012621100346636,-4.256213669896009,8.89621366989601,0.43266445451762314,0.2175080733564424,-0.7667961366397061,0.07546869769550363,-0.012825187693486239,-0.1590599205412344
1589552303.7521894,-0.4277262223526391,-4.234547555294722,8.876357334115836,0.43,0.21666666666666667,-0.7677777777777778,0.05225864871928716,-0.017253355557021576,-0.002632149911107706
1589552303.7621894,-0.4123416351832153,-4.265316729633569,8.784049811099292,0.43,0.21666666666666667,-0.7677777777777778,0.022051082450553754,0.0062414182075488656,-0.0647254805746153
1589552303.7721894,-0.41170189811537033,-4.2417018981153705,8.84680759246148,0.43,0.21666666666666667,-0.7677777777777778,0.030312672617353223,-0.06626161687871909,-0.06312983180926592
1589552303.7821894,-0.41877229358416773,-4.248772293584167,8.875089174336672,0.43,0.21666666666666667,-0.7677777777777778,-0.015962957513372844,-0.08322934792665199,-0.03536445373083028
1589552303.7921894,-0.410403766393902,-4.220807532787804,8.878788700818294,0.4177777777777778,0.22333333333333333,-0.7677777777777778,-0.07375659489038976,0.10618939923745205,0.06995122051732934
1589552303.8021894,-0.419806972312521,-4.2396139446250425,8.850579083062437,0.4177777777777778,0.22333333333333333,-0.7677777777777778,-0.11478582077111961,-0.03741289134510234,-0.1300662556512286
1589552303.8121893,-0.41497297662478044,-4.254972976624781,8.757594581813269,0.4177777777777778,0.22333333333333333,-0.7677777777777778,0.026109191749027462,0.003962349593466218,-0.10132054452257558
1589552303.8221893,-0.4008049587893528,-4.240804958789353,8.807182644237265,0.4177777777777778,0.22333333333333333,-0.7677777777777778,-0.010982592207396419,0.0796914085044983,0.10809348573140093
1589552303.8321893,-0.4089552863348344,-4.231044713665166,8.873134140995496,0.4218405531423106,0.22333333333333333,-0.7677777777777778,0.038130302345015105,0.017436425571248096,-0.007098377109643379
1589552303.8421893,-0.40059777627226717,-4.239402223727733,8.898206671183198,0.4543419811634054,0.22333333333333333,-0.7677777777777778,0.02901367310374286,0.09583943704618933,-0.02897828728869675
1589552303.8521893,-0.41679369587484866,-4.236793695874849,8.874730654623336,0.4566666666666666,0.22333333333333333,-0.7677777777777778,-0.019032960544339762,0.019742472884011774,-0.10670793871343004
1589552303.8621893,-0.41,-4.232950698362779,8.811802793451115,0.4566666666666666,0.22333333333333333,-0.7677777777777778,0.026181553181221007,-0.0241226870155712,-0.06856019286609814
1589552303.8721893,-0.4076548717843767,-4.237654871784377,8.842345128215623,0.4566666666666666,0.22333333333333333,-0.7677777777777778,-0.05995709437527172,-0.06514094603217273,-0.11934947402827853
1589552303.8821893,-0.4,-4.23,8.852594257844501,0.4538802415744251,0.2240059187004261,-0.7691229485119634,-0.03075607044526558,-0.051564110799316776,-0.047101553220466996
1589552303.8921893,-0.4,-4.23,8.876566709215265,0.4281320530650867,0.23022099868543885,-0.7815531084819888,0.007597098455855593,-0.03413085220789808,0.04180806559576845
1589552303.9021893,-0.41,-4.2227146058328975,8.893712365002612,0.4244444444444445,0.2311111111111111,-0.7833333333333333,0.029824544598554985,0.0006378326673721572,-0.018528924120307013
1589552303.9121892,-0.41,-4.236848011052516,8.808911933684902,0.4244444444444445,0.2311111111111111,-0.7833333333333333,-0.05342808416674542,-0.047155343105300306,-0.03548779294286821
1589552303.9221892,-0.4264972685811657,-4.238832422860389,8.805837885698057,0.4244444444444445,0.2311111111111111,-0.7833333333333333,-0.11308080477496973,0.019341284994909138,0.029845052942150407
1589552303.9321892,-0.4054763694682504,-4.2318254564894175,8.840872717552916,0.4244444444444445,0.2311111111111111,-0.7833333333333333,-0.09779397555622274,-0.002060275911336673,-0.026716215167213515
1589552303.9421892,-0.39404616645419777,-4.237976916772902,8.905838417410308,0.4177777777777778,0.22333333333333333,-0.7744444444444445,0.1597789223555083,0.0854572846838186,-0.052259157981114586
1589552303.9521892,-0.41,-4.233706766917294,8.835172932330826,0.4177777777777778,0.22333333333333333,-0.7744444444444445,0.042344738698879336,-0.008764374241922652,0.003977021401748354
1589552303.9621892,-0.41199858781386695,-4.25,8.771998587813867,0.4177777777777778,0.22333333333333333,-0.7744444444444445,0.05018899918756857,0.0071982507995929975,0.09861079464645871
1589552303.9721892,-0.4192219198842696,-4.25,8.77922191988427,0.4177777777777778,0.22333333333333333,-0.7744444444444445,-0.004967031634554864,0.013501797179264245,0.10018668124137652
1589552303.9821892,-0.42,-4.240180258186398,8.87819741813602,0.4177777777777778,0.22333333333333333,-0.7744444444444445,-0.006623637166386698,-0.052231595035502905,0.008236012830249925
1589552303.9921892,-0.42,-4.231048234860157,8.88,0.43468666748637236,0.23029581733098992,-0.7744444444444445,0.07938579186056391,-0.17160552610619745,0.045604428583861746
