time,acc_x,acc_y,acc_z,mag_x,mag_y,mag_z,gyr_x,gyr_y,gyr_z
1589552480.5435612,0.51,-4.33,8.8,0.4922222222222222,0.4533333333333333,-0.59,0.008726646259971648,0.08835729338221293,-0.02836160034490785
1589552480.5535612,0.52,-4.328069189897714,8.828415139386278,0.4866666666666667,0.4388888888888889,-0.6044444444444445,-0.0396437314848674,0.034991736378969185,0.02843707481517117
1589552480.5635612,0.5231835134155958,-4.318408243292202,8.768857703045414,0.4866666666666667,0.4388888888888889,-0.6044444444444445,-0.1098940818657437,-0.03946195371457764,0.006786058693113731
1589552480.5735612,0.5393632153913066,-4.307452861565226,8.713820707652161,0.4866666666666667,0.4388888888888889,-0.6044444444444445,-0.04038130697464482,0.024852394340777278,-0.04893059939260339
1589552480.5835612,0.5277812370278124,-4.265562474055624,8.767781237027812,0.4866666666666667,0.4388888888888889,-0.6044444444444445,-0.054544935235602665,0.04425358753564907,0.11976463907820704
1589552480.5935612,0.5103702781237028,-4.230740556247406,8.750370278123702,0.4866666666666667,0.4388888888888889,-0.6044444444444445,-0.037451766302757525,-0.027917570180808225,0.04094613788786551
1589552480.6035612,0.5123491784773611,-4.245301643045278,8.802349178477362,0.48,0.4533333333333333,-0.5966666666666667,-0.007583962364899478,0.0001834697202217168,-0.11675378170523902
1589552480.6135612,0.5212766720030585,-4.2338300160091755,8.799786623975534,0.48,0.4533333333333333,-0.5966666666666667,0.027480250984573927,0.025785815526895208,-0.04302962662467598
1589552480.6235611,0.5310818934628554,-4.264327573851421,8.737573254239988,0.48,0.4533333333333333,-0.5966666666666667,0.08844006762663678,0.06960254306746697,-0.01455697567360785
1589552480.6335611,0.5394310852774903,-4.29772434110996,8.796017596942432,0.48,0.4533333333333333,-0.5966666666666667,0.030151712808260983,0.02588627695368511,0.058303467849361905
1589552480.6435611,0.54,-4.275182025991618,8.816545316005588,0.48,0.4533333333333333,-0.5966666666666667,0.015351054776899072,0.06261335444348376,-0.1000674816606949
1589552480.653561,0.5486968386365977,-4.2873936772731955,8.846090515909793,0.4906294694447305,0.4340070252520052,-0.6150266593439284,0.020679392826121672,0.08608284773459804,-0.1455563214013104
1589552480.663561,0.55,-4.311144129338022,8.814759784436632,0.4922222222222222,0.4311111111111111,-0.6177777777777778,0.018741326696462387,0.011475069545544628,-0.08806284328278696
1589552480.673561,0.55,-4.2697944471022975,8.730822211590809,0.4922222222222222,0.4311111111111111,-0.6177777777777778,0.00966838465859917,0.04158493408692961,-0.07426618258105687
1589552480.683561,0.55,-4.262875101044261,8.758499595822954,0.4922222222222222,0.4311111111111111,-0.6177777777777778,0.041369294492976515,-0.0640847653609949,-0.07728531685099757
1589552480.693561,0.5853841157579475,-4.251153971060513,8.814230144697435,0.4922222222222222,0.4311111111111111,-0.6177777777777778,-0.007215393163476538,0.06569912459369273,0.010235773824685462
1589552480.703561,0.6169556754221388,-4.322029549718574,8.841881801125703,0.48,0.4388888888888889,-0.6044444444444445,0.03133211880504759,0.0572745511828824,0.01751351333753233
1589552480.713561,0.5887062743910044,-4.343234314022489,8.764825097564017,0.48,0.4388888888888889,-0.6044444444444445,-0.022457425521728722,-0.0055952774843219056,-0.07952768134262221
1589552480.723561,0.5737578630361566,-4.380605342409608,8.705031452144626,0.48,0.4388888888888889,-0.6044444444444445,-0.05506980003230402,-0.007225896209850671,-0.09094201242132356
1589552480.733561,0.5565319996874268,-4.411734000156287,8.73520200046886,0.48,0.4388888888888889,-0.6044444444444445,0.055979471802007505,-0.003996914118611205,-0.110622021669759
1589552480.743561,0.5237563491443307,-4.4281218254278345,8.784365476283503,0.48,0.4388888888888889,-0.6044444444444445,0.007713342288187118,-0.11393643134453543,-0.04269191346512288
1589552480.753561,0.5411400247831475,-4.386579925650557,8.8,0.4866666666666667,0.4577777777777778,-0.64,-0.06897510925555038,0.060855381237636855,-0.09720153849977714
1589552480.763561,0.5507442556327178,-4.358511488734565,8.793301699305541,0.4866666666666667,0.4577777777777778,-0.64,0.032287938363624084,0.095114778529294,-0.02798672850196253
1589552480.773561,0.56,-4.34,8.710472294604537,0.4866666666666667,0.4577777777777778,-0.64,-0.05367601405652223,0.016115168860789533,-0.1039984842294093
1589552480.783561,0.56,-4.34,8.750653740036787,0.4866666666666667,0.4577777777777778,-0.64,0.019960330648813897,-0.00492378676930651,-0.04263486364162919
1589552480.793561,0.5448517507530121,-4.30212937688253,8.790296498493976,0.4866666666666667,0.4577777777777778,-0.64,-0.015789118449658794,-0.04947550083337183,0.054259282552808236
1589552480.803561,0.5533903363034138,-4.236438654786345,8.820085504455122,0.4866666666666667,0.4577777777777778,-0.6161949576828198,-0.026882287063796237,-0.098693832171657,-0.039052568522759845
1589552480.813561,0.565519959745052,-4.149280442804428,8.824480040254949,0.4866666666666667,0.4577777777777778,-0.6044444444444445,0.04103221647195323,-0.04205425282737511,-0.1553775195010991
1589552480.823561,0.57,-4.1,8.739210037838225,0.4866666666666667,0.4577777777777778,-0.6044444444444445,0.026513566185655993,0.05700005536474788,-0.06640676729246783
1589552480.833561,0.5760622672007871,-4.112124534401574,8.740311336003936,0.4866666666666667,0.4577777777777778,-0.6044444444444445,-0.03881836601589784,0.0576781855135952,-0.07829204312384572
1589552480.843561,0.5867511234013135,-4.228017974421016,8.773502246802627,0.4866666666666667,0.4577777777777778,-0.6044444444444445,0.08551898411320429,0.07854471810268035,-0.07951519175217547
1589552480.853561,0.5801172183419374,-4.339296689948375,8.720703310051626,0.4921571009211459,0.44569882241792347,-0.6044444444444445,0.012634490396355086,0.012945342387334358,-0.09127176267785833
1589552480.863561,0.5609375931744686,-4.387656017063828,8.748593610238297,0.4922222222222222,0.4455555555555555,-0.6044444444444445,0.012987693840340592,-0.04414428380769189,-0.0354863633145494
1589552480.873561,0.5672379138321996,-4.404475827664399,8.692096689342403,0.4922222222222222,0.4455555555555555,-0.6044444444444445,0.024143444282865682,0.036784871970386025,-0.03272492347489368
1589552480.883561,0.6001791269443051,-4.329104365278475,8.79071650777722,0.4922222222222222,0.4455555555555555,-0.6044444444444445,-0.07736743323080986,-0.0024127447342703855,-0.08523433187756252
1589552480.893561,0.6071941796287005,-4.2940291018564976,8.818776718514801,0.4922222222222222,0.4455555555555555,-0.6044444444444445,-0.031454020776972576,0.03125709106521029,-0.00565108362424456
1589552480.9035609,0.5585785123966943,-4.248578512396694,8.858933884297521,0.4922222222222222,0.4455555555555555,-0.6177777777777778,0.12091002786582,0.14430429134167375,-0.16858564365221881
1589552480.9135609,0.5211043109224928,-4.211104310922493,8.83082823319187,0.4922222222222222,0.4455555555555555,-0.6177777777777778,0.001341841252035833,-0.077458926565943,-0.09807107205947431
1589552480.9235609,0.43,-4.139946761313221,8.73002661934339,0.4922222222222222,0.4455555555555555,-0.6177777777777778,-0.030510353084164405,-0.042500780531871674,-0.12762381387884777
1589552480.9335608,0.42202444705460773,-4.012024447054607,8.790725050267762,0.4922222222222222,0.4455555555555555,-0.6177777777777778,0.04236777985836526,0.04035452809445655,-0.12449955683492887
1589552480.9435608,0.33017419521809244,-3.9201741952180926,8.799075073161992,0.4922222222222222,0.4455555555555555,-0.6177777777777778,0.027794240646245624,-0.08534224761007533,-0.17641779027810509
1589552480.9535608,-0.27857688336014985,-2.947115583199251,8.843519608078577,0.4655555555555556,0.4533333333333333,-0.6088888888888889,0.07841789980407714,-0.14070467541399953,-0.07870338463555684
1589552480.9635608,-0.2630925882074355,-3.040773147051859,8.993713000236799,0.4655555555555556,0.4533333333333333,-0.6088888888888889,-0.04813642771156838,-0.1717053667905773,-0.039540613985656524
1589552480.9735608,-0.3,-3.05,8.68,0.4655555555555556,0.4533333333333333,-0.6088888888888889,-0.17998707911191522,-0.03381575425739013,0.1134464013796314
1589552480.9835608,-0.25926561275937565,-3.0997864732940963,8.756942731454512,0.4655555555555556,0.4533333333333333,-0.6088888888888889,-0.13407161148677124,-0.03677804249127039,0.004335451431708576
1589552480.9935608,-0.07005397682171774,-2.9908985553262424,8.925804095888237,0.4655555555555556,0.4533333333333333,-0.6088888888888889,-0.07217909009096013,-0.011101398207959252,0.09563428978025765
1589552481.0035608,0.07917568666708377,-2.50609991866358,8.930824313332916,0.4863186232594354,0.46535405674084274,-0.6176312331852594,0.02463333824421124,-0.007348075842925671,0.5706714373732812
1589552481.0135608,0.15949785976159853,-2.5715480737854386,8.763054494500643,0.4866666666666667,0.4655555555555556,-0.6177777777777778,-0.015445043253943334,0.03572354080779386,0.7233804645280435
1589552481.0235608,0.2574978825376495,-2.7062468238064743,8.610211333071664,0.4866666666666667,0.4655555555555556,-0.6177777777777778,0.0062259402960574105,-0.08060436576028274,0.897363683175193
1589552481.0335608,0.38866984505363533,-2.809408820023838,8.589408820023838,0.4866666666666667,0.4655555555555556,-0.6177777777777778,0.00035468252379622714,-0.03983963647605829,0.961183138708376
1589552481.0435607,0.4217821100917431,-2.968910550458715,8.828365825688074,0.4866666666666667,0.4655555555555556,-0.6177777777777778,-0.10140654426073661,-0.0763148718102171,1.0416271212276556
1589552481.0535607,0.46,-3.0332714421196134,8.831090480706537,0.48,0.4577777777777778,-0.6044444444444445,-0.01947806350976416,-0.06840684473245003,1.2226027983391312
1589552481.0635607,0.46,-3.0892087013217946,8.849736233773932,0.48,0.4577777777777778,-0.6044444444444445,0.05781150984345095,0.011594643475263872,1.2375183300388746
1589552481.0735607,0.3848940793047257,-3.147311243889191,8.798549701249321,0.48,0.4577777777777778,-0.6044444444444445,0.037793346350219414,-0.06353541226307031,1.2397703645024332
1589552481.0835607,0.3573764588196065,-3.1968822940980326,8.829011670556852,0.48,0.4577777777777778,-0.6044444444444445,0.08436344871466787,0.011452231917043657,1.220104523823868
1589552481.0935607,0.36,-3.2252458270106223,8.895737481031867,0.48,0.4577777777777778,-0.6044444444444445,0.07966656673981362,0.021226673175146517,1.2332198709375286
1589552481.1035607,0.34561781863178365,-3.23,8.902808909315892,0.48878911083613225,0.4441946064855734,-0.6196256358886728,-0.03216224993355997,-0.007439901729019047,1.2360460636847945
1589552481.1135607,0.3162639058059277,-3.23,8.876263905805928,0.4922222222222222,0.4388888888888889,-0.6255555555555555,-0.03919821952080214,-0.07459561197975594,1.2831522952318297
1589552481.1235607,0.2961932517193393,-3.2783236189823124,8.773352762035374,0.4922222222222222,0.4388888888888889,-0.6255555555555555,-0.004939857657668741,-0.04686255945810415,1.2627731523381953
1589552481.1335607,0.2732187825428382,-3.2328751301713528,8.763562434914324,0.4922222222222222,0.4388888888888889,-0.6255555555555555,-0.0465408741581343,-0.08950936270054394,1.0181767846219565
1589552481.1435606,0.24836878877429203,-3.277683229935221,8.791631211225708,0.4922222222222222,0.4388888888888889,-0.6255555555555555,-0.03941947390684661,-0.09987419670099139,1.1314184958872362
1589552481.1535606,0.24,-3.3436452767137967,8.8,0.5014362250840239,0.43258457114134047,-0.6255555555555555,0.04202216634458372,-0.03927749090619561,1.1222919165841474
1589552481.1635606,0.23746944614755774,-3.4126527692622113,8.827836092376865,0.5133333333333333,0.4244444444444445,-0.6255555555555555,0.132738656695131,0.006710448542673171,1.010118712533476
1589552481.1735606,0.1784539695109879,-3.473430013858642,8.82565195010889,0.5133333333333333,0.4244444444444445,-0.6255555555555555,0.024640940893906976,-0.08106399574695501,1.0224248294784024
1589552481.1835606,0.09553143227478937,-3.5061171419313024,8.815639987038237,0.5133333333333333,0.4244444444444445,-0.6255555555555555,0.012209811046335894,-0.028557956955302145,1.1107094591428086
1589552481.1935606,0.08,-3.4943544903616788,8.833493810843917,0.5133333333333333,0.4244444444444445,-0.6255555555555555,0.010648944539177259,-0.013700225602652527,1.107005473091535
1589552481.2035606,0.06567108339828527,-3.518210444271239,8.82865783320343,0.5218245431713865,0.40852342599809477,-0.6255555555555555,-0.020708610446694996,-0.047069305753779656,1.0825103708022497
1589552481.2135606,0.03953695556533216,-3.5338423889133304,8.823379344478662,0.5311111111111111,0.3911111111111111,-0.6255555555555555,-0.0070500878179780855,-0.09040782009840814,1.056863497302166
1589552481.2235606,0.017764507085525558,-3.5283532393717114,8.759411267713814,0.5311111111111111,0.3911111111111111,-0.6255555555555555,-0.016118607288930695,-0.05545181456062545,1.1578479839105593
1589552481.2335606,0.03415692821368948,-3.4514245965498054,8.764156928213689,0.5311111111111111,0.3911111111111111,-0.6255555555555555,0.023376679707255717,-0.05937409552963875,0.9999276102596018
1589552481.2435606,0.059452934158950185,-3.365156886136833,8.802421556931584,0.5311111111111111,0.3911111111111111,-0.6255555555555555,0.039798209938380236,-0.00647741841859506,0.9733361056320249
1589552481.2535605,0.05417514723469549,-3.3247250490782316,8.82,0.5346277450589566,0.3911111111111111,-0.6443109366107312,-0.0012485836647994075,-0.01761104540224624,1.0159122673815784
1589552481.2635605,0.03267064489112228,-3.3273293551088776,8.863976130653267,0.5377777777777778,0.3911111111111111,-0.6611111111111111,0.012915016211692762,-0.032229755732755425,1.0054741873597284
1589552481.2735605,-0.03481905442019702,-3.4956486946293923,9.016840225998195,0.5377777777777778,0.3911111111111111,-0.6611111111111111,0.14664114435056325,-0.08104400053449143,0.8402439648312239
1589552481.2835605,-0.07538858571466975,-3.621554342858679,8.81608833570795,0.5377777777777778,0.3911111111111111,-0.6611111111111111,0.07423030311018325,-0.024733112252922476,0.7810348402674625
1589552481.2935605,-0.08658028635664418,-3.5083942728671165,8.64787599100698,0.5377777777777778,0.3911111111111111,-0.6611111111111111,0.0708530153979357,0.04341263849341089,0.8391764694827608
1589552481.3035605,-0.11364839319470699,-3.581890359168242,9.072967863894139,0.5421571098508716,0.3543247216971224,-0.6541041797941609,0.002998238105387241,-0.04180418233185379,0.7524484751677492
1589552481.3135605,-0.12721770569490973,-3.591129177220361,8.846332420949425,0.5433333333333333,0.34444444444444444,-0.6522222222222223,-0.010186999423727219,-0.1315283766050273,0.7052925561281423
1589552481.3235605,-0.19952665759110894,-3.611603026177777,8.80480907853333,0.5433333333333333,0.34444444444444444,-0.6522222222222223,-0.007923926845969145,-0.08801927679146189,0.7550696886953397
1589552481.3335605,-0.27651595134266693,-3.593484048657333,8.808877668120266,0.5433333333333333,0.34444444444444444,-0.6522222222222223,-0.029439662623868088,-0.13751603199666765,0.6848113976184934
1589552481.3435605,-0.33751323137569805,-3.585939153921962,8.837513231375697,0.5433333333333333,0.34444444444444444,-0.6522222222222223,-0.0383839689888917,-0.08659550830066043,0.663707045012557
1589552481.3535604,-0.41421194431971264,-3.6026319840913463,8.838420039771634,0.5601759787884619,0.3388302292927349,-0.6599417680558228,-0.04891545813346479,-0.07492430952719692,0.6862477400379833
1589552481.3635604,-0.42955968806238753,-3.5995596880623872,8.86176124775045,0.57,0.33555555555555555,-0.6644444444444444,-0.032903173208038275,-0.054753946846477476,0.6009992070799256
1589552481.3735604,-0.44241269335034283,-3.5956031733375857,8.804746053261043,0.57,0.33555555555555555,-0.6644444444444444,-0.08704654826121049,-0.009554293024940255,0.6362400130512071
1589552481.3835604,-0.5186227984924267,-3.6293113992462134,8.8399177471733,0.57,0.33555555555555555,-0.6644444444444444,-0.0003991550664753929,-0.050800413854822576,0.712180216373432
1589552481.3935604,-0.5584355527059248,-3.615419263058767,8.76938668376445,0.57,0.33555555555555555,-0.6644444444444444,0.06174457613901056,-0.05447463670190866,0.753361344783909
1589552481.4035604,-0.5630780487804878,-3.6207658536585368,8.85920487804878,0.5738455284552846,0.340170189701897,-0.6805956639566396,-0.027507027546522816,-0.04992599463342072,0.7560340629577974
1589552481.4135604,-0.5736882145620218,-3.623155892718989,8.964220536405055,0.5755555555555556,0.3422222222222222,-0.6877777777777778,0.04217327343274928,-0.031858063235162874,0.6879533719063218
1589552481.4235604,-0.5868307229670467,-3.6883072296704675,8.775078310988597,0.5755555555555556,0.3422222222222222,-0.6877777777777778,0.05059470259556661,-0.03035860931158568,0.6770366107336689
1589552481.4335604,-0.6120890720820348,-3.8157193123554842,8.893527696793003,0.5755555555555556,0.3422222222222222,-0.6877777777777778,0.0915850426956962,-0.008113951821265734,0.690376351234309
1589552481.4435604,-0.6320078649969456,-3.8019685400122176,8.84391741753207,0.5755555555555556,0.3422222222222222,-0.6877777777777778,0.12850973246597092,0.025978073446883472,0.6913676920081765
1589552481.4535604,-0.6183929244797916,-3.5971433958383323,8.803214151040416,0.5651521488236033,0.33341933960287806,-0.696580660397122,-0.020952544247126836,-0.06902067147590471,0.7077803049248472
1589552481.4635603,-0.6639808706371129,-3.5145768941036817,8.82771155294816,0.5611111111111111,0.33,-0.7,-0.12748673595425708,0.013824419453411563,0.7843137570298143
1589552481.4735603,-0.6446713744936134,-3.446408474088504,8.773474199189781,0.5611111111111111,0.33,-0.7,-0.05670530713371294,0.07439157810072697,0.8158236320999681
1589552481.4835603,-0.6230116196925776,-3.399034859077733,8.819883803074225,0.5611111111111111,0.33,-0.7,0.0025774334992820225,0.044353640384759,0.7189169816609261
1589552481.4935603,-0.5810678482900827,-3.318624388531818,8.791601772435124,0.5611111111111111,0.33,-0.7,0.08103939261235721,-0.002457103097388478,0.6922116101709062
1589552481.5035603,-0.5982785288387744,-3.3565570576775485,8.821245646142039,0.5696174508530609,0.3087341506451253,-0.6889417583354652,-0.06257359297556093,-0.04025693003676675,0.7147659203663455
1589552481.5135603,-0.6185749050910153,-3.3971498101820305,8.874299620364061,0.5722222222222222,0.3022222222222222,-0.6855555555555556,-0.11032670816540521,-0.047841100690374116,0.6910300186351259
1589552481.5235603,-0.6539422135161607,-3.4205778648383935,8.858080313418217,0.5722222222222222,0.3022222222222222,-0.6855555555555556,-0.0682821607640852,-0.08782149354144703,0.6969858476985864
1589552481.5335603,-0.7080809066512896,-3.3780303399942335,8.856364079930804,0.5722222222222222,0.3022222222222222,-0.6855555555555556,-0.06941655272635558,-0.008280119085881804,0.7887641610560856
1589552481.5435603,-0.7703170551629575,-3.4001056850543194,8.919154519565447,0.5722222222222222,0.3022222222222222,-0.6855555555555556,-0.03217155782448814,-0.05653377512286052,0.8172995964976304
1589552481.5535603,-0.8036855952641965,-3.3952576189432144,8.862113571585178,0.5746792857316865,0.2948510316938293,-0.6986598942726985,0.03812861360857597,-0.10876474986299732,0.7852427062589649
1589552481.5635602,-0.7898424794751935,-3.333716463055348,8.851621950740464,0.5788888888888889,0.2822222222222222,-0.7211111111111111,0.06453594354683004,-0.013679284539098134,0.5964387793510887
1589552481.5735602,-0.7461121110380395,-3.2568535183967326,8.867956630092417,0.5788888888888889,0.2822222222222222,-0.7211111111111111,-0.001854234873434675,-0.00521741897751106,0.587190460970786
1589552481.5835602,-0.7215531124187055,-3.179318674512233,8.822179467327347,0.5788888888888889,0.2822222222222222,-0.7211111111111111,-0.05322774509783961,0.012462631897515258,0.6142923690684802
1589552481.5935602,-0.7628466096888384,-3.215693219377677,8.841955760693121,0.5788888888888889,0.2822222222222222,-0.7211111111111111,-0.009790446814203001,-0.04915753153478381,0.6998530591227501
1589552481.6035602,-0.8398200729072607,-3.31,8.968431825022574,0.583527566896685,0.2623421736173818,-0.7383404865686395,0.03214727675371215,-0.025891115419324175,0.6189973103603605
1589552481.6135602,-0.8738908262426187,-3.316945413121309,8.82276421630167,0.5866666666666667,0.2488888888888889,-0.75,-0.03837292847077678,-0.10275981516928923,0.6699398849901563
1589552481.6235602,-0.9044262121308487,-3.3627458712289853,8.773893446967287,0.5866666666666667,0.2488888888888889,-0.75,-0.0723614251609342,-0.031164750312216036,0.6796233765593236
1589552481.6335602,-0.9257921242046823,-3.3610393789765887,8.845297614660868,0.5866666666666667,0.2488888888888889,-0.75,0.009796494889455235,0.003488262840541212,0.7918362543397215
1589552481.6435602,-0.9254166974510528,-3.2987502770594754,8.826667159216845,0.5866666666666667,0.2488888888888889,-0.75,0.007636218444147712,-0.01654428030008533,0.8260775280977742
1589552481.6535602,-0.9462325871508768,-3.3112093700187124,8.849302446461987,0.5949250737326834,0.21925578118141706,-0.7563152524622481,-0.006991402033023078,-0.007503893673091219,0.7849618764443824
1589552481.6635602,-1.1230815557073812,-3.5851112123282474,8.99,0.6055555555555555,0.1811111111111111,-0.7644444444444445,0.028558738770692656,-0.013098056978693812,0.7696513797035649
1589552481.6735601,-1.1025869937250428,-3.5524757558471194,8.766523103251568,0.6055555555555555,0.1811111111111111,-0.7644444444444445,-0.05753027857053328,-0.02072578486743266,0.7730424668673572
1589552481.6835601,-1.0452540524823726,-3.4347459475176274,8.772879261466889,0.6055555555555555,0.1811111111111111,-0.7644444444444445,-0.07140362467273051,-0.06398871888196281,0.8172724339222349
1589552481.6935601,-1.0554286980749747,-3.438285207700101,8.889715678824722,0.6055555555555555,0.1811111111111111,-0.7644444444444445,-0.0370882466048795,-0.10182137241743387,0.7953101348997983
1589552481.70356,-1.063190243902439,-3.4665951219512197,8.82340487804878,0.612150677506775,0.17121842818428185,-0.7571165311653116,-0.045721241051329506,-0.05535779981767624,0.7620256505728755
1589552481.71356,-1.1228622037625213,-3.4617432201319325,8.795394576105545,0.6255555555555555,0.1511111111111111,-0.7422222222222222,-0.026624479641191294,-0.029894440131257315,0.8220598586543225
1589552481.72356,-1.2665333464683282,-3.503553344498079,8.899800019702493,0.6255555555555555,0.1511111111111111,-0.7422222222222222,0.02859285518127199,-0.06559019026590797,0.8848950194409899
1589552481.73356,-1.3311765391791044,-3.528200792910448,8.94650536380597,0.6255555555555555,0.1511111111111111,-0.7422222222222222,0.04502220892869001,0.012255819638137072,0.8280161181924224
1589552481.74356,-1.2135240896400363,-3.364096358560146,8.74924677884113,0.6255555555555555,0.1511111111111111,-0.7422222222222222,0.07269803550756833,0.0011959416660604436,0.7068057916159214
1589552481.75356,-1.2197862016452918,-3.3891448065811676,8.943372251004046,0.6255555555555555,0.1511111111111111,-0.7422222222222222,0.0002904473965726767,0.028519559821153145,0.6931439825383751
1589552481.76356,-1.3043973607038124,-3.423674193548387,8.807888856304984,0.6077777777777778,0.08444444444444445,-0.7855555555555556,-0.04879813911453017,-0.08420433105063464,0.9366092864129695
1589552481.77356,-1.4886484875191166,-3.5434593950076465,8.786357085461002,0.6077777777777778,0.08444444444444445,-0.7855555555555556,-0.07908462381316668,-0.0711139163014789,0.9365425388241883
1589552481.78356,-1.5861476984214593,-3.5492615078927034,8.802874047908157,0.6077777777777778,0.08444444444444445,-0.7855555555555556,-0.04116421367135396,-0.09286429454395446,1.0236759931634731
1589552481.79356,-1.5855739867367775,-3.4813138541045516,8.921147973473555,0.6077777777777778,0.08444444444444445,-0.7855555555555556,-0.03794528428802482,-0.10606103486264486,1.0418353100420847
1589552481.80356,-1.5365811392475823,-3.3703784448543797,8.829364972888367,0.5998521127197968,0.058255290339811555,-0.7617785603816125,-0.053049779704900296,-0.10227570634145862,1.0365876684289053
1589552481.81356,-1.5583949699914261,-3.4129268362389253,8.822659331237496,0.5822222222222222,0.0,-0.7088888888888889,-0.036738083376842916,-0.075588306951289,1.268370148317233
1589552481.82356,-1.7044102584781644,-3.5846461550868987,8.834010242348482,0.5822222222222222,0.0,-0.7088888888888889,-0.06433328383906152,-0.0001443209725138575,1.307800935569154
1589552481.83356,-1.7214321933047032,-3.6,8.775665390386505,0.5822222222222222,0.0,-0.7088888888888889,-0.0976936410716831,-0.051692098576898916,1.282487950520486
1589552481.84356,-1.6850444258172674,-3.550088851634535,8.776107292539816,0.5822222222222222,0.0,-0.7088888888888889,-0.028198295753328745,-0.1261989721453297,1.2534230880910093
1589552481.85356,-1.6877630916837196,-3.4988815458418596,8.805460095944179,0.5622917016113702,0.0057693612294571735,-0.675321696281138,0.07780252026789611,0.011496702878530947,1.0917871302997961
1589552481.86356,-1.7190431292204127,-3.4433019045428885,8.762250747391969,0.54,0.012222222222222223,-0.6377777777777778,0.008878071351347404,-0.008339987762339733,1.201797050685202
1589552481.87356,-1.7031429632254906,-3.38,8.619998143553913,0.54,0.012222222222222223,-0.6377777777777778,-0.021691613692000393,-0.05681685090483536,1.3520688765260487
1589552481.88356,-1.7097391808346214,-3.3916112828438947,8.810521638330757,0.54,0.012222222222222223,-0.6377777777777778,-0.05262879179446387,-0.04793185484517899,1.3883742672229806
1589552481.89356,-1.8981466810707,-3.5181466810706996,8.60918137078382,0.54,0.012222222222222223,-0.6377777777777778,-0.011585510658606583,-0.05434618208155252,1.3510760866853004
1589552481.90356,-1.9631490103110452,-3.5705529690668647,8.877066350575532,0.5427991202764846,0.022369033224478658,-0.6283307468446425,-0.042007780957884565,-0.03539612070737923,1.2889162557064353
1589552481.91356,-1.874050227090569,-3.358100454181138,8.822150681271706,0.5488888888888889,0.04444444444444445,-0.6077777777777778,0.01993253875828624,-0.10842130045103249,1.2889201736721614
1589552481.92356,-1.6164336366354821,-3.050027126318937,8.603593489683456,0.5488888888888889,0.04444444444444445,-0.6077777777777778,-0.016924722586761302,-0.07525252888039921,1.241289171581588
1589552481.93356,-1.5252515684368648,-2.947541928072811,8.735586993019352,0.5488888888888889,0.04444444444444445,-0.6077777777777778,-0.05189678774703268,-0.1142842504115102,1.2558755329672249
1589552481.94356,-1.6348067514677105,-2.9784271037181997,8.918189823874755,0.5488888888888889,0.04444444444444445,-0.6077777777777778,-0.05447056040952337,-0.05908310955488387,1.3179861531348718
1589552481.9535599,-1.7969440321641272,-3.05,8.866174122156048,0.5585355176883913,0.04577501393403098,-0.6061145659157946,-0.00015440132104622972,-0.023361284666374212,1.176575508795184
1589552481.9635599,-1.8755337536008017,-3.05,8.6641748423997,0.5811111111111111,0.048888888888888885,-0.6022222222222222,-0.04742502158133527,-0.12081753566861794,1.1780865430866585
1589552481.9735599,-1.9271265304575262,-3.0671646260566314,8.850266669193738,0.5811111111111111,0.048888888888888885,-0.6022222222222222,0.016157949055962913,-0.10972243881119942,1.211603708035831
1589552481.9835598,-1.913202492211838,-3.0707850467289717,9.059545171339565,0.5811111111111111,0.048888888888888885,-0.6022222222222222,-0.04678406713017198,-0.11151484930246325,1.1501658602561369
1589552481.9935598,-1.9352505939585924,-2.9994988120828148,8.959564430365425,0.5811111111111111,0.048888888888888885,-0.6022222222222222,-0.042882151297338314,-0.06798557498327018,1.0523191121733602
1589552482.0035598,-2.0719254616974463,-3.0181285419027937,9.093529568637909,0.5838146246786823,0.04456326718077501,-0.6092513574979073,-0.021116691958299953,-0.02891570660078094,1.1811541021833045
1589552482.0135598,-2.2375457334139406,-3.042454266586059,8.799350216072188,0.5866666666666667,0.04,-0.6166666666666667,0.01813049129013422,-0.028381555311193865,1.2243966504043722
1589552482.0235598,-2.266266153846154,-3.003065714285714,8.573868571428571,0.5866666666666667,0.04,-0.6166666666666667,0.06012616119375224,-0.04324062811537116,1.2009459065378578
1589552482.0335598,-2.201738461538462,-2.8832285714285715,8.813542857142858,0.5866666666666667,0.04,-0.6166666666666667,0.005826235093676677,-0.055307278359832394,1.1245237883229366
1589552482.0435598,-2.16428558710941,-2.8052550520786967,9.077704086174665,0.5866666666666667,0.04,-0.6166666666666667,0.026213344440840683,-0.05374009459104346,1.0227149890077318
1589552482.0535598,-2.338534674619425,-2.8737100507433455,9.071480904477879,0.5866666666666667,0.04,-0.6166666666666667,0.00856340522504095,-0.07817847196676617,1.1455857197023376
1589552482.0635598,-2.187057707406438,-2.6241154148128762,8.629479848207275,0.59,0.013333333333333334,-0.6255555555555555,-0.059534352408015814,-0.09835947796623433,1.1617347833587257
1589552482.0735598,-2.2462808859578716,-2.6144187257305247,8.923019502353732,0.59,0.013333333333333334,-0.6255555555555555,0.029021489430980617,-0.035591155482796975,1.173302980269763
1589552482.0835598,-2.350752353962885,-2.617035378005302,8.830044793856842,0.59,0.013333333333333334,-0.6255555555555555,0.0326379681368978,-0.0017278384649708455,1.2057011772551942
1589552482.0935597,-2.404320514020149,-2.6121602570100744,9.004878200929477,0.59,0.013333333333333334,-0.6255555555555555,0.011964876837772797,0.022626343412401696,1.2792515306103636
1589552482.1035597,-2.490254189418189,-2.6702033515345507,8.97297025042365,0.5891624301763635,0.0066327747442415114,-0.6303017845561623,0.05178950718080659,-0.08059393018944301,1.546842414002686
1589552482.1135597,-2.6653296438883545,-2.8965591915303177,9.239518768046198,0.5866666666666667,-0.013333333333333334,-0.6444444444444445,0.022510852276421685,-0.01907877736979906,1.5784087823253934
1589552482.1235597,-2.4607626960418223,-4.05298356982823,8.739565907393578,0.5866666666666667,-0.013333333333333334,-0.6444444444444445,-0.09972252407135426,-0.16535027256866042,1.5831880300650278
1589552482.1335597,-1.4334883013356863,-3.9803301183557975,8.293287492013265,0.5866666666666667,-0.013333333333333334,-0.6444444444444445,-0.043303131109311194,-0.15652716457453833,1.342885610015517
1589552482.1435597,-0.8614996493254673,-2.738405049713272,9.143433309955032,0.5866666666666667,-0.013333333333333334,-0.6444444444444445,0.0107843692146673,0.00011201278178278595,0.7171457917498935
1589552482.1535597,-1.277932677336987,-1.4112876004234913,9.225548358971166,0.5922628414052715,-0.025924726495194207,-0.6472425318137469,0.14556079385606363,0.19509743260048668,0.4748131232700873
1589552482.1635597,-2.2059850421119442,-2.119590888038836,9.663605845926892,0.6044444444444445,-0.05333333333333334,-0.6533333333333333,0.14201079816381912,0.06376295780105552,0.46106053015595755
1589552482.1735597,-2.5084352974344517,-2.901702847476741,9.830033831406823,0.6044444444444445,-0.05333333333333334,-0.6533333333333333,-0.07801023906107021,-0.18114618292336973,0.326301100747686
1589552482.1835597,-1.5745222504631025,-1.962229138844613,9.109553482962134,0.6044444444444445,-0.05333333333333334,-0.6533333333333333,-0.10221156800035776,-0.10962506320763991,-0.08286143385996605
1589552482.1935596,-1.712329053992534,-2.5077635133084466,11.232255607150446,0.6044444444444445,-0.05333333333333334,-0.6533333333333333,0.0037019848280297925,0.08844198017518466,-0.2332865232020571
1589552482.2035596,-1.5213839570244925,-1.871279856748308,8.259876931014599,0.6044444444444445,-0.05333333333333334,-0.6533333333333333,-0.08516789870882797,0.08149902052386766,-0.46032130380012337
1589552482.2135596,-2.2380892992280916,-2.3283441804147116,9.312485545633418,0.6144444444444445,-0.08444444444444445,-0.6322222222222222,0.07228666643985324,0.12120743042838636,-0.742598632584845
1589552482.2235596,-2.1461576779857463,-2.0915020591354097,8.398597568493996,0.6144444444444445,-0.08444444444444445,-0.6322222222222222,0.027168468029383008,0.00545415391248228,-0.770620797067232
1589552482.2335596,-2.253209955103051,-2.043398380881677,9.022456251988546,0.6144444444444445,-0.08444444444444445,-0.6322222222222222,-0.03712935473278778,0.01455150602009201,-0.7646936652904334
1589552482.2435596,-2.534935482730583,-2.295468589811574,9.422803054406618,0.6144444444444445,-0.08444444444444445,-0.6322222222222222,-0.03065956783276319,0.042048100345196494,-0.8471834482657468
1589552482.2535596,-2.3715953122022486,-2.333579686209744,9.135835927078702,0.635923091038698,-0.10810208417144834,-0.6356463542879728,-0.003938922536529003,0.0945329283035718,-0.8300501293463348
1589552482.2635596,-2.2860265477548483,-2.29997511147983,8.747847350409625,0.6911111111111111,-0.1688888888888889,-0.6444444444444445,-0.0353526910519008,0.04383366000258844,-0.954454310381122
1589552482.2735596,-2.1471215062822813,-2.3566500604417744,9.080843254331661,0.6911111111111111,-0.1688888888888889,-0.6444444444444445,0.0062364241139157795,0.1155279266047974,-1.0583765787750847
1589552482.2835596,-2.0174385419610057,-2.2540911980785534,8.388926250353208,0.6911111111111111,-0.1688888888888889,-0.6444444444444445,0.026423364496353647,0.13858501903922524,-1.130565079738857
1589552482.2935596,-2.5668208021082104,-2.5512138680721406,8.981976859095775,0.6911111111111111,-0.1688888888888889,-0.6444444444444445,0.02509036564634832,0.0829510648771639,-1.2563394477998793
1589552482.3035595,-2.4179988575780653,-2.5010005712109673,8.839337395277989,0.7665576076838453,-0.22929793940932552,-0.660000423119235,0.004364153922660988,0.14009874964446414,-1.2564187706605165
1589552482.3135595,-2.4771574017511706,-2.7027794746487475,8.927637955609855,1.0144444444444445,-0.42777777777777776,-0.7111111111111111,0.03712778394539759,0.06367533114417462,-1.1702621880768729
1589552482.3235595,-2.759625175385849,-2.948415848199372,8.655077837910069,1.0144444444444445,-0.42777777777777776,-0.7111111111111111,-0.03535247952290345,-0.00041812629111927344,-1.075968021768659
1589552482.3335595,-2.7518136321984916,-3.010465919503771,9.030773947980546,1.0144444444444445,-0.42777777777777776,-0.7111111111111111,0.007788287278538874,-0.005205493395770253,-1.1273372834397883
1589552482.3435595,-2.8315672527235463,-3.0147725164491423,8.627593571351527,1.0144444444444445,-0.42777777777777776,-0.7111111111111111,0.003291247436123808,0.008182889882209903,-1.1496032766539386
1589552482.3535595,-2.9886674138575167,-3.2018309049630713,9.01249159410294,1.0580222752280688,-0.5113220169043947,-0.7638378787443362,0.03214102790473593,0.049595543012848256,-0.9105444200704479
1589552482.3635595,-2.9986912362159024,-3.1426175275681953,8.94056538982395,1.2155555555555555,-0.8133333333333334,-0.9544444444444444,-0.008685072713027972,0.005025861965669249,-0.5193775305925761
1589552482.3735595,-2.9150071524739145,-3.1750071524739147,9.286097484012117,1.2155555555555555,-0.8133333333333334,-0.9544444444444444,0.07012617352712364,-0.023060827300614026,-0.4157285857071363
1589552482.3835595,-2.663470754365086,-2.992274818380433,8.876356240785803,1.2155555555555555,-0.8133333333333334,-0.9544444444444444,0.055737289154325735,-0.060886121276535025,-0.3560782537300005
1589552482.3935595,-1.9855167942592231,-2.6123225989804437,8.60070463063287,1.2155555555555555,-0.8133333333333334,-0.9544444444444444,0.07036541539430297,-0.08364098431649965,-0.39589926404993864
1589552482.4035594,-2.053208331113834,-2.7187118024112644,9.716065981285178,1.1637006259975418,-0.745457187331688,-0.9303514700979144,0.1312701219738524,0.1235551462590139,-0.31143597500083076
1589552482.4135594,-2.142577105417355,-2.8453175660079193,9.351143486212468,0.8128454379911259,-0.2862009860497049,-0.7673362058590845,0.12639581147363946,0.08862258767415444,-0.352055229169272
1589552482.4235594,-1.6761638055211916,-2.8188793234930265,8.324159534986189,0.7444444444444445,-0.19666666666666666,-0.7355555555555555,-0.05074713612841171,-0.07303393905405803,-0.4099501946144009
1589552482.4335594,-1.9178323645545594,-3.0747636801165923,9.340589062685353,0.7444444444444445,-0.19666666666666666,-0.7355555555555555,0.037642932643612376,-0.01565792950028802,-0.414602303497139
1589552482.4435594,-1.5966420474830418,-2.6929438147090328,8.51917172438415,0.7444444444444445,-0.19666666666666666,-0.7355555555555555,0.010701708135527087,0.04010579960892305,-0.49052050531714175
1589552482.4535594,-1.7060647105471847,-2.7912168120539254,8.792021570182394,0.7240268569918055,-0.16174686756542425,-0.7309759097717861,-0.061148669167473656,0.0703302290609895,-0.6151664159803291
1589552482.4635594,-1.777338883427113,-2.937013617252704,8.936102871964357,0.6255555555555555,0.006666666666666667,-0.7088888888888889,0.07511186914001314,0.032384967237764906,-0.8384869651771127
1589552482.4735594,-1.5288619773530399,-2.8120021150919547,9.017439449044339,0.6255555555555555,0.006666666666666667,-0.7088888888888889,-0.005919675212913136,-0.002957530399044339,-1.0146208798662777
1589552482.4835594,-1.4060567099242367,-2.744226839696947,8.651417748105919,0.6255555555555555,0.006666666666666667,-0.7088888888888889,-0.04894963826618085,-0.058615343278390575,-1.2244476605129047
1589552482.4935594,-1.3934716075313178,-2.693886430125272,8.336790188282949,0.6255555555555555,0.006666666666666667,-0.7088888888888889,-0.03110295604779558,0.022381137558896397,-1.299266443659212
1589552482.5035594,-1.6602830130510737,-3.044447436029185,9.072803206248073,0.6270208154922984,0.011216684364973339,-0.7078863426163806,0.03520943042494387,0.06821220131300122,-1.5407073329625816
1589552482.5135593,-1.5395961360600143,-2.9754835063200082,8.48660980372007,0.6452196302766644,0.06772879343221548,-0.6954345219744459,0.03897082929537848,-0.046510464235254026,-1.546349431268234
1589552482.5235593,-1.6051568907740257,-3.211494621892063,9.134843109225974,0.6466666666666666,0.07222222222222223,-0.6944444444444444,0.0719263751304473,0.09509144096216517,-1.6454277056179127
1589552482.5335593,-1.5808386249178892,-3.3454806218524196,8.954090212393256,0.6466666666666666,0.07222222222222223,-0.6944444444444444,0.04509213088809742,0.041476171348746906,-1.7125730390881884
1589552482.5435593,-1.2862927186242226,-3.2805429930479324,8.557083790706184,0.6466666666666666,0.07222222222222223,-0.6944444444444444,0.04121464432231871,-0.06516781949610569,-1.8129788013255634
1589552482.5535593,-1.5233650096762081,-3.5778154877097714,8.739009560671269,0.6476556617852363,0.07654907586596446,-0.6997602932067564,-0.05863843248395306,-0.012475725257645625,-1.7995274193543955
1589552482.5635593,-1.6599036090562653,-3.811385543396303,9.292879501131013,0.6555555555555556,0.1111111111111111,-0.7422222222222222,0.0466376119302909,0.03649420387086851,-1.9053580691021577
1589552482.5735593,-1.4954534732869442,-3.840456421747848,8.757954947517396,0.6555555555555556,0.1111111111111111,-0.7422222222222222,-0.06698876873540154,0.042343248960420576,-1.8699051120557608
1589552482.5835593,-1.551987094165417,-3.7415225852105203,8.736754839687968,0.6555555555555556,0.1111111111111111,-0.7422222222222222,0.03013929815744895,0.08551127869057634,-1.9739708980123871
1589552482.5935593,-1.2268891073183807,-3.4705393619873113,8.865259941024037,0.6555555555555556,0.1111111111111111,-0.7422222222222222,0.005196686266258873,0.15420744627941843,-2.942426720419522
1589552482.6035593,1.269227236171924,-1.6865282816549012,8.70035135376642,0.6555555555555556,0.1111111111111111,-0.7422222222222222,-0.08311165570687803,0.07325813280404292,-3.3136488246399307
1589552482.6135592,-1.5456351236146633,-4.384690537084399,9.563420289855072,0.6377777777777778,0.13333333333333333,-0.7355555555555555,0.07382125249457261,0.14204253499252362,-3.1456113374290773
1589552482.6235592,-1.6171491901108268,-4.406144757033248,9.441846376811593,0.6377777777777778,0.13333333333333333,-0.7355555555555555,-0.027591416155595364,0.1131789292997835,-3.1190880240898022
1589552482.6335592,-3.966455527787267,-6.573971124975278,9.072001294521655,0.6377777777777778,0.13333333333333333,-0.7355555555555555,0.011324211699065497,0.159164212089583,-3.4649560721229538
1589552482.6435592,-25.466211546413998,-27.824869918553016,20.655173951347564,0.6377777777777778,0.13333333333333333,-0.7355555555555555,0.23178354675986657,0.785170010527156,-5.866975692934666
1589552482.6535592,-9.383231151855174,-7.6241678475375245,-7.7101911564822565,0.6377777777777778,0.13333333333333333,-0.7355555555555555,-0.7405737533374448,-0.5198250480993277,-6.933779416995072
1589552482.6635592,0.6600933125972013,1.3316796267496116,0.36524105754276803,0.6031726283048211,0.21620355970278216,-0.7018610679108346,-1.2780482205430521,-0.08496774454328926,-6.342432856554245
1589552482.6735592,-0.5543356298108212,-2.7135528825654722,3.939593366396625,0.5955555555555555,0.2344444444444445,-0.6944444444444444,1.1883022815055417,2.734697251718703,-5.518170974582097
1589552482.6835592,-2.7421683821855796,-2.3166561290812067,6.990945347866772,0.5955555555555555,0.2344444444444445,-0.6944444444444444,0.8863793381579275,0.5141001805521099,-4.522537663698799
1589552482.6935592,-2.384984595585368,-0.20943432649559318,1.920508930660635,0.5955555555555555,0.2344444444444445,-0.6944444444444444,-1.061797378091132,-0.8248818390067578,-3.329077418253641
1589552482.7035592,1.1236237422977928,-1.4443990328367522,11.65301224553467,0.5955555555555555,0.2344444444444445,-0.6944444444444444,0.21575290290637894,0.8719761459494335,-3.141727167548699
1589552482.7135592,-0.5686024111106586,-1.4445971978984238,6.732397263063576,0.57,0.3955555555555556,-0.6944444444444444,0.11020041009359116,0.009384485684743551,-2.4955417139754386
1589552482.7235591,-0.25323388833447136,-1.8191932349388098,7.262657702610431,0.57,0.3955555555555556,-0.6944444444444444,-0.4097411712917291,-0.33879649130473816,-1.95246655295258
1589552482.7335591,0.06388119086266282,-2.2494243635931745,9.382042836216794,0.57,0.3955555555555556,-0.6944444444444444,0.0024166572379393687,0.17824602093812625,-1.845384829926192
1589552482.7435591,0.4208923552001267,-2.5815277722791876,10.511194425749236,0.57,0.3955555555555556,-0.6944444444444444,0.15004112036337117,0.33311585648689207,-1.484021880312405
1589552482.753559,0.02425966562173454,-2.668300766283525,8.81026489028213,0.57,0.3955555555555556,-0.6944444444444444,-0.09621967186756089,0.018709590667740084,-1.223999924952419
1589552482.763559,-0.04031763285024155,-2.7920144927536232,8.56240458937198,0.5376245303274289,0.4432667740203972,-0.6970004025764895,-0.042699833220874256,-0.034894728183555115,-0.9183746515549063
1589552482.773559,0.23571582443227718,-2.750892424378422,9.137681312269994,0.5277777777777778,0.4577777777777778,-0.6977777777777778,0.17104720632500867,0.07511203652963636,-0.6561139829350421
1589552482.783559,0.30673881359623406,-2.6679026016450837,9.041380228837554,0.5277777777777778,0.4577777777777778,-0.6977777777777778,-0.004652637336818851,-0.009972440690392817,-0.30759798024254437
1589552482.793559,0.16620977334025766,-2.857616805990652,8.950036352671168,0.5277777777777778,0.4577777777777778,-0.6977777777777778,-0.0077185053957369056,0.15021916538807548,0.08559959831369612
1589552482.803559,-10.496422875816993,-27.46472810457516,11.045124509803923,0.5277777777777778,0.4577777777777778,-0.6977777777777778,0.021379213894986912,-0.09314643264608502,2.932449307472728
1589552482.813559,2.8513006468421525,-3.2570496810708836,5.002305947354236,0.4866666666666667,0.5066666666666667,-0.6766666666666666,0.045535668212346586,-0.3769537463780481,2.549722409211024
1589552482.823559,14.41795654889984,-13.013892552231555,10.292712570278336,0.4866666666666667,0.5066666666666667,-0.6766666666666666,-0.11469699151182368,0.4309173039125421,0.30284678909388385
1589552482.833559,-1.440986383000967,0.40820339248843474,9.375906536682262,0.4866666666666667,0.5066666666666667,-0.6766666666666666,0.2974311026088281,0.1295320570726137,0.25033746788525574
1589552482.843559,-0.12561344833656046,-3.0809646189051225,7.090633691251541,0.4866666666666667,0.5066666666666667,-0.6766666666666666,-0.1383264062751068,-0.05422106797960424,-0.11434617836375013
1589552482.853559,-0.6498086604471043,-4.446825382855131,8.294067769758845,0.4866666666666667,0.5066666666666667,-0.6766666666666666,-0.08436703399581313,-0.04294597526452796,-0.06924580750344497
1589552482.863559,0.3,-4.51,9.16,0.5277777777777778,0.4955555555555556,-0.6766666666666666,-0.04145156973486533,0.02072578486743266,-0.07417649320975901
1589552482.873559,0.21377037305324156,-4.472274538210793,9.057602318000724,0.5277777777777778,0.4955555555555556,-0.6766666666666666,-0.05438508530741295,-0.0016139238487859545,-0.06535818713756746
1589552482.883559,-0.02511070183776933,-4.431328422053232,8.662453857731306,0.5277777777777778,0.4955555555555556,-0.6766666666666666,-0.028124104431909477,-0.11179406147701791,-0.018036944018705363
1589552482.893559,0.039315949015740856,-4.483698550089478,8.676028998210437,0.5277777777777778,0.4955555555555556,-0.6766666666666666,-0.0038258157738833357,-0.029346180599778643,0.0167361910961481
1589552482.903559,0.07149895794367553,-4.326981242986159,8.741498957943676,0.5277777777777778,0.4955555555555556,-0.6766666666666666,0.018658435233422255,-0.04953553927934381,0.025852916886589174
1589552482.913559,0.1262587470384043,-4.318129373519202,8.985034988153616,0.5166666666666667,0.49,-0.6855555555555556,-0.07323950909611097,0.10841053249804086,-0.014601629613678205
1589552482.923559,0.08003801862361562,-4.295019009311808,8.800152074494463,0.5166666666666667,0.49,-0.6855555555555556,0.019195312035032594,0.05967217226525606,0.04758179551090928
1589552482.933559,0.060798419415407895,-4.382015805845921,8.575968388308159,0.5166666666666667,0.49,-0.6855555555555556,0.08343432450676953,0.012952862754879238,-0.08947398641962048
1589552482.943559,0.11416275565869458,-4.396770344457337,8.6886365446894,0.5166666666666667,0.49,-0.6855555555555556,0.01489052120647727,0.02458807732680264,-0.09072161332719925
1589552482.953559,0.11132869715059389,-4.3641608714382425,8.785839128561758,0.5166666666666667,0.49,-0.6855555555555556,-0.06811204065467255,-0.010587885932857005,0.07989367100099204
1589552482.963559,0.09,-4.29,8.8,0.49,0.4833333333333333,-0.6855555555555556,0.006544984694978735,-0.01854412330243975,-0.1712604328519436
1589552482.973559,0.08574797371668723,-4.311260131416564,8.795747973716688,0.49,0.4833333333333333,-0.6855555555555556,0.02045970816844342,0.003719434255103741,-0.11884830776855995
1589552482.983559,0.08362157408764473,-4.379837314964092,8.750162685035907,0.49,0.4833333333333333,-0.6855555555555556,0.015566761194506076,0.029865229761495745,-0.10448905472113384
1589552482.993559,0.08976886999853437,-4.447457569983878,8.682542430016122,0.49,0.4833333333333333,-0.6855555555555556,-0.02466719645777197,0.023159570152782735,-0.20037998712572985
1589552483.0035589,0.11392437323428888,-4.378226880297134,8.823546239405733,0.49,0.4833333333333333,-0.6855555555555556,-0.024440109261521833,0.022907446432425576,-0.00651470598921966
1589552483.0135589,0.08088252538031906,-4.281765050760638,8.8111031567254,0.5182515094475473,0.4920261054710402,-0.6931617311760491,-0.06453529539116024,-0.05176600810275006,-0.03317375050775102
1589552483.0235589,0.1363288170329045,-4.326940680860754,8.894493225549358,0.5188888888888888,0.4922222222222222,-0.6933333333333334,-0.07364254129126775,-0.05345070834232633,0.06135757347250793
1589552483.0335588,0.09537265244872903,-4.374627347551271,8.766117957346188,0.5188888888888888,0.4922222222222222,-0.6933333333333334,-0.10143778850181176,-0.051503472964322575,0.009214447174667219
1589552483.0435588,0.1190564859273139,-4.394528242963657,8.757264121481828,0.5188888888888888,0.4922222222222222,-0.6933333333333334,0.00780001282678644,-0.07504082873785023,-0.021590120395523896
1589552483.0535588,0.11219317402878959,-4.386644880521592,8.74219317402879,0.5188888888888888,0.4922222222222222,-0.6933333333333334,0.047264580908643924,0.00875674665825163,-0.027629626823707717
1589552483.0635588,0.10127957966262395,-4.361540315253032,8.751018844072217,0.5148157073440525,0.4922222222222222,-0.6911400817322676,0.010412126983908018,0.09144120770638602,0.026140982076743584
1589552483.0735588,0.10429374864806404,-4.329717499459226,8.794011248107289,0.5044444444444445,0.4922222222222222,-0.6855555555555556,-0.0595950846655719,-0.03050017609962954,0.08146092101661041
1589552483.0835588,0.08726604751780985,-4.341798142553429,8.730935809928761,0.5044444444444445,0.4922222222222222,-0.6855555555555556,-0.018866396646520702,-0.02215491925503367,0.035282848628582546
1589552483.0935588,0.08366282795364251,-4.3626743440927145,8.694651311814571,0.5044444444444445,0.4922222222222222,-0.6855555555555556,0.023072152513885294,0.015284193113946156,0.00768676312071561
1589552483.1035588,0.09158267113704163,-4.387374006705563,8.714748013411125,0.5044444444444445,0.4922222222222222,-0.6855555555555556,0.0452419900008108,-0.04095679522460709,-0.05478459231535766
1589552483.1135588,0.10491753981162764,-4.3754123009418615,8.774422778681394,0.5175578839421182,0.49550058209664066,-0.6839163756183463,0.0383409875886286,-0.03582407618031822,-0.0067674255448648135
1589552483.1235588,0.10463510145959416,-4.333905304378782,8.836824492702029,0.5311111111111111,0.4988888888888889,-0.6822222222222222,0.050599946941718835,0.05583896370450264,0.03204067860527504
1589552483.1335588,0.0914241238213841,-4.337151752357232,8.714210104963529,0.5311111111111111,0.4988888888888889,-0.6822222222222222,-0.010638365533832614,0.09178852965072741,-0.07920196091008426
1589552483.1435587,0.09873204335457175,-4.383660216772858,8.74239226012743,0.5311111111111111,0.4988888888888889,-0.6822222222222222,0.029342740222536627,-0.07873265382248976,0.01124217647111081
1589552483.1535587,0.11447668085949103,-4.39,8.728284978710764,0.5311111111111111,0.4988888888888889,-0.6822222222222222,0.029192442049924463,-0.07362486702833416,-0.05119894585864443
