time,acc_x,acc_y,acc_z,mag_x,mag_y,mag_z,gyr_x,gyr_y,gyr_z
1590505105.0433106,-0.06,-4.47,8.49,0.4977777777777778,0.26222222222222225,-0.6,0.014180800172453925,-0.0272707695624114,0.1407171709420428
1590505105.0533106,-0.3059604652473741,-4.379064243973017,8.61258648227137,0.49877942505913725,0.26305692829002175,-0.6021702357762787,0.002560487445263107,-0.021545255633215715,0.1435033715457052
1590505105.0633106,-0.1798611398184859,-4.5839756477949605,8.888428756647063,0.5040335636186742,0.26743537708963594,-0.6135542026552756,-0.00689628308054041,-0.02584378769039913,0.15811838054012878
1590505105.0733106,-0.052529081728071816,-4.510465307649149,8.650348980736862,0.5044444444444445,0.2677777777777778,-0.6144444444444445,0.0032471137521382252,-0.010645117102597124,0.18897691609425427
1590505105.0833106,-0.06483962590924836,-4.629308624870108,8.74829650155871,0.5044444444444445,0.2677777777777778,-0.6144444444444445,-0.003724996311852983,-0.013617890681715022,0.1874370717356212
1590505105.0933106,-0.10578645027818508,-4.577626287986824,8.775252575973647,0.5044444444444445,0.2677777777777778,-0.6144444444444445,-0.006185705301334273,-0.017424174193674632,0.2072157377464949
1590505105.1033106,-0.04528886280646844,-4.52475580333855,8.615333528951487,0.5010419564713383,0.2648987494928418,-0.6178469324175506,0.0003829928500490459,-0.012387003778102198,0.22291247247932605
1590505105.1133106,-0.026435261920363873,-4.659305785761092,8.690787881124002,0.49,0.25555555555555554,-0.6288888888888889,-0.004287596103840963,-0.02072578486743266,0.21318679968799034
1590505105.1233106,-0.0610861733073577,-4.612609217795095,8.58804408742761,0.49,0.25555555555555554,-0.6288888888888889,-0.003177618511185134,-0.01972982792124044,0.20193420087051323
1590505105.1333106,-0.1488199611974754,-4.545590019401262,8.540776296077999,0.49,0.25555555555555554,-0.6288888888888889,-0.007242844217168197,-0.016711391498541568,0.18727396482829572
1590505105.1433105,-0.01298050667475728,-4.6,8.63217270934466,0.49,0.25555555555555554,-0.6288888888888889,-0.007547698458106356,-0.010969079609684193,0.18623732685642766
1590505105.1533105,0.06253267215477441,-4.60590956836114,8.542663360773872,0.4916884481031829,0.25508654219356025,-0.6271066381133069,-0.005284228712785675,0.008202614744018469,0.1835073313005178
1590505105.1633105,0.08067753104106973,-4.671331781279847,8.683995343839541,0.51,0.25,-0.6077777777777778,-0.015852730161194317,0.028213786001768708,0.1591924661560693
1590505105.1733105,0.0005223824262097082,-4.68,8.690522382426211,0.51,0.25,-0.6077777777777778,-0.020343180245575687,0.04286802205614429,0.12575894694400203
1590505105.1833105,-0.05895422844541657,-4.682707746920774,8.663538734603868,0.51,0.25,-0.6077777777777778,-0.019749030065256083,0.042861199172461104,0.09376765917195627
1590505105.1933105,-0.11065142065142065,-4.687068607068608,8.69967428967429,0.51,0.25,-0.6077777777777778,-0.013896564292884508,0.03408940688612452,0.07216189581866195
1590505105.2033105,-0.1324230506155951,-4.597576949384405,8.690807683538532,0.51,0.25,-0.6083162334701322,-0.0053660493058476765,0.008760221762852866,0.043050074556297224
1590505105.2133105,-0.15633036935704514,-4.573669630642955,8.698776789785681,0.51,0.25,-0.6136289709682322,-0.004496754665510071,-0.0016713139211983977,0.026533476389882727
1590505105.2233105,-0.1754850679701716,-4.55,8.674415385164306,0.51,0.25,-0.6144444444444445,-0.002944157224888301,-0.003272492347489368,0.020619959452739412
1590505105.2333105,-0.15303724979484068,-4.55,8.547211082170763,0.51,0.25,-0.6144444444444445,-0.0013117058205193402,-0.003272492347489368,0.025517313665846288
1590505105.2433105,-0.14770393610952653,-4.562296063890474,8.639629920136908,0.51,0.25,-0.6144444444444445,0.0008807385161300179,-0.003943138597252947,0.029662523393770752
1590505105.2533104,-0.17761195094124357,-4.532388049058756,8.677014938676555,0.51,0.25,-0.6144444444444445,6.512393558507973e-05,-0.0023119094361630714,0.03047813797431569
1590505105.2633104,-0.1994925690491484,-4.54316418968305,8.717343241267802,0.5244444444444445,0.25,-0.6144444444444445,0.002181661564992912,-0.0071799516664463065,0.026925610011618594
1590505105.2733104,-0.22261858057807293,-4.55,8.674288516531563,0.5244444444444445,0.25,-0.6144444444444445,0.0038955185455985036,-0.012050879145368287,0.026751224440116805
1590505105.2833104,-0.22169606512890097,-4.547924016282225,8.63415196743555,0.5244444444444445,0.25,-0.6144444444444445,0.009632465037295706,-0.01753617789826053,0.02881450973356988
1590505105.2933104,-0.18806102772566188,-4.540276996039191,8.650276996039192,0.5244444444444445,0.25,-0.6144444444444445,0.01308996938995747,-0.026240369941150803,0.030664124232372494
1590505105.3033104,-0.11800258843830888,-4.552996117342537,8.659001294219154,0.5236676732815646,0.2507767711628799,-0.6137786405905474,0.012654201786596073,-0.027381123237344707,0.03523341074240764
1590505105.3133104,-0.10006240295315384,-4.5801248059063076,8.650124805906309,0.5166666666666667,0.2577777777777778,-0.6077777777777778,0.008699417835084091,-0.018469245133998967,0.03813823475004463
1590505105.3233104,-0.11404793138244199,-4.602023965691221,8.653808274470231,0.5166666666666667,0.2577777777777778,-0.6077777777777778,0.004142542722115766,-0.005661863063498506,0.029647069021566712
1590505105.3333104,-0.13934733411786004,-4.60065266588214,8.606357834706255,0.5166666666666667,0.2577777777777778,-0.6077777777777778,0.003272492347489368,-0.002181661564992912,0.019522434697169872
1590505105.3433104,-0.16839388639344915,-4.566787772786898,8.668030568032755,0.5166666666666667,0.2577777777777778,-0.6077777777777778,0.003272492347489368,-0.002532061197435328,0.010947939710133766
1590505105.3533103,-0.16005763803315182,-4.550115276066303,8.709711809834241,0.5166666666666667,0.2577777777777778,-0.6077777777777778,0.003272492347489368,-0.004350748461824916,0.005491877916965006
1590505105.3633103,-0.13275207152202356,-4.559082642825992,8.700917357174008,0.49951056355090373,0.23961249212579344,-0.6138328729951059,0.0052540176236919355,0.00158125269862188,0.002481865998178428
1590505105.3733103,-0.1853972710060717,-4.5084109159757135,8.582301364496963,0.4977777777777778,0.23777777777777775,-0.6144444444444445,0.0055408250009655454,0.013254338224977503,0.002181661564992912
1590505105.3833103,-0.16865697282041844,-4.57,8.595372108718326,0.4977777777777778,0.23777777777777775,-0.6144444444444445,0.0015956554093061234,0.0171602894420999,0.002181661564992912
1590505105.3933103,-0.16007914595987485,-4.57,8.629683416160502,0.4977777777777778,0.23777777777777775,-0.6144444444444445,-0.0021471276252562304,0.015288897924818724,0.002181661564992912
1590505105.4033103,-0.19611492534719205,-4.548331044791685,8.658891940277753,0.4977777777777778,0.23777777777777775,-0.6144444444444445,-0.00139375611946734,0.014483725509424809,0.002181661564992912
1590505105.4133103,-0.21,-4.559169465874275,8.698754198811413,0.5158822733257048,0.25162239202031017,-0.6218992367288849,0.0010002335634710592,0.002679946269632593,9.059721902539676e-05
1590505105.4233103,-0.1740994744827283,-4.542049737241364,8.664099474482729,0.5166666666666667,0.25222222222222224,-0.6222222222222222,0.001090830782496456,0.001202626606441925,0.000979034958550987
1590505105.4333103,-0.14,-4.557461620713358,8.59,0.5166666666666667,0.25222222222222224,-0.6222222222222222,-0.0008139365561444379,-0.0008139365561444379,0.000276894226352018
1590505105.4433103,-0.14,-4.541444283204766,8.59,0.5166666666666667,0.25222222222222224,-0.6222222222222222,0.0009332839246563279,0.0009332839246563279,0.002024114707152784
1590505105.4533103,-0.14,-4.530702869950787,8.64578278029528,0.5166666666666667,0.25222222222222224,-0.6222222222222222,-0.0009374883468144274,0.006161628605773664,0.002181661564992912
1590505105.4633102,-0.17258499144871314,-4.53,8.69073123931089,0.5067101415017822,0.25222222222222224,-0.6276530541303411,-0.005533919747451464,0.01809701600386176,0.005736132736956919
1590505105.4733102,-0.2218038493498327,-4.576392301300334,8.745726862353179,0.5044444444444445,0.25222222222222224,-0.6288888888888889,-0.011712583311508873,0.01716673722399115,0.004166553690207453
1590505105.4833102,-0.22408635998523763,-4.5588172719970474,8.59473091201181,0.5044444444444445,0.25222222222222224,-0.6288888888888889,-0.004680060244717606,0.010263229768493998,0.003143476736195256
1590505105.4933102,-0.18,-4.550264752791068,8.631323763955344,0.5044444444444445,0.25222222222222224,-0.6288888888888889,0.001119710831921402,0.005396393813632387,0.0021239014661430197
1590505105.5033102,-0.18,-4.558626594896332,8.673132974481659,0.5044444444444445,0.25222222222222224,-0.6288888888888889,0.0020318463086010045,0.003572122860273183,0.00029963051278381514
1590505105.5133102,-0.16,-4.566469880243125,8.69764658682875,0.49,0.23777777777777775,-0.6355555555555555,0.00038507632966986886,0.003272492347489368,-0.0009624720059398331
1590505105.5233102,-0.16,-4.541228862008786,8.68081924133919,0.49,0.23777777777777775,-0.6355555555555555,0.0031384442968269283,0.003272492347489368,-4.468268355414676e-05
1590505105.5333102,-0.18905623763137164,-4.557168712894114,8.573775049474513,0.49,0.23777777777777775,-0.6355555555555555,0.004466271634291982,0.0023875585736052272,-0.001769867547768281
1590505105.5433102,-0.18099755989778468,-4.532992679693354,8.606009760408861,0.49,0.23777777777777775,-0.6355555555555555,0.005345337008093524,0.004145689321208311,0.0017463939474378861
1590505105.5533102,-0.18,-4.544229682115615,8.681148410578079,0.49,0.23777777777777775,-0.6355555555555555,0.0015736100932691255,0.004363323129985824,0.0006294440373076503
1590505105.5633101,-0.21808157534130704,-4.559616315068261,8.738465260273045,0.4977777777777778,0.24444444444444444,-0.6288888888888889,-0.003272492347489368,0.01178987094030076,0.002139808031560861
1590505105.5733101,-0.18260340714926157,-4.5525206814298524,8.710082725719408,0.4977777777777778,0.24444444444444444,-0.6288888888888889,-0.003272492347489368,0.007919803143253776,0.0013657944721514642
1590505105.5833101,-0.1796287959400835,-4.530371204059917,8.619628795940082,0.4977777777777778,0.24444444444444444,-0.6288888888888889,0.002181661564992912,0.005413661830967821,0.0031915081844604504
1590505105.59331,-0.17104587869362364,-4.538954121306376,8.611045878693623,0.4977777777777778,0.24444444444444444,-0.6288888888888889,0.002181661564992912,0.004477410797362008,0.001319006117248825
1590505105.60331,-0.19447200566973777,-4.54,8.658944011339475,0.4977777777777778,0.24444444444444444,-0.6288888888888889,0.0012918343285269864,0.0008040141841221221,0.0019806580189623813
1590505105.61331,-0.20722950890169434,-4.561688526705083,8.662770491098305,0.5114335168143116,0.24444444444444444,-0.6184462649197748,0.0003022136972664237,0.0007886170852300323,0.0013930444797628796
1590505105.62331,-0.18467859528858163,-4.553119063525721,8.66,0.5166666666666667,0.24444444444444444,-0.6144444444444445,0.0018414245143510628,-0.0016713059890301385,0.0020115430396719872
1590505105.63331,-0.2043637171089153,-4.558121239036304,8.61127256578217,0.5166666666666667,0.24444444444444444,-0.6144444444444445,0.0004098820584302217,-0.0004098820584302217,-0.0013618974481324686
1590505105.64331,-0.16195570061241704,-4.540977850306208,8.670977850306208,0.5166666666666667,0.24444444444444444,-0.6144444444444445,-0.0009841638610278726,-0.002952491583083618,-0.00010666692146858336
1590505105.65331,-0.17733690271003705,-4.548668451355018,8.678668451355017,0.5166666666666667,0.24444444444444444,-0.6144444444444445,-0.00014524942503372454,-0.00043574827510117374,-0.0009455813574627314
1590505105.66331,-0.18,-4.550784213333333,8.69764736,0.51,0.25222222222222224,-0.6077777777777778,-0.001090830782496456,0.0,0.0
1590505105.67331,-0.18,-4.559732053333333,8.67080384,0.51,0.25222222222222224,-0.6077777777777778,-0.001090830782496456,0.0,0.0
1590505105.68331,-0.20959984206889742,-4.550400157931103,8.589199684137794,0.51,0.25222222222222224,-0.6077777777777778,-0.0011344812414071325,4.3650458910676465e-05,0.0012217821592284855
1590505105.69331,-0.20131971177573785,-4.558680288224262,8.572639423551475,0.51,0.25222222222222224,-0.6077777777777778,-0.002037703342093123,0.000946872559596667,0.0039314484612864575
1590505105.70331,-0.1940931479309767,-4.56,8.617254816552187,0.51,0.25222222222222224,-0.6077777777777778,-0.0015373239585385638,0.003668181208313849,0.0030746479170771276
1590505105.71331,-0.1960409838893297,-4.56,8.66812295166799,0.5187258656179207,0.247523679197188,-0.6205309659885849,-0.001749799900801056,0.004795184794177679,0.002181661564992912
1590505105.72331,-0.1850340169470711,-4.552517008473536,8.687482991526464,0.5244444444444445,0.24444444444444444,-0.6288888888888889,-0.0005491260645473994,0.0027307876295403115,0.0029979293152156685
1590505105.73331,-0.18,-4.559465492748871,8.613207043506767,0.5244444444444445,0.24444444444444444,-0.6288888888888889,0.003214186651189584,0.003272492347489368,0.003214186651189584
1590505105.74331,-0.18,-4.5529179350286455,8.652492389828128,0.5244444444444445,0.24444444444444444,-0.6288888888888889,0.0024999589000500276,0.003272492347489368,0.0024999589000500276
1590505105.75331,-0.17268491426773636,-4.55,8.706575428661319,0.5244444444444445,0.24444444444444444,-0.6288888888888889,0.005373469842334437,0.0040704444168247495,0.0005857574263221491
1590505105.76331,-0.14901884027632406,-4.543006280092108,8.706012560184215,0.5244444444444445,0.2498840043728049,-0.6187868490219338,0.006544984694978735,0.00665201261789188,0.0015257929919373708
1590505105.77331,-0.1818678609168218,-4.55,8.693773796943926,0.5244444444444445,0.25222222222222224,-0.6144444444444445,0.003068740328940239,0.019019544679054385,0.002249578904509288
1590505105.78331,-0.20297338096915413,-4.55,8.623422063436152,0.5244444444444445,0.25222222222222224,-0.6144444444444445,0.0007664852335722092,0.02439147323491312,0.0030169972696319648
1590505105.79331,-0.2090163995250816,-4.569508199762541,8.622459001187295,0.5244444444444445,0.25222222222222224,-0.6144444444444445,5.364708378595475e-05,0.02138743897964148,0.001090830782496456
1590505105.80331,-0.19345428910655982,-4.56172714455328,8.6613642772336,0.5244444444444445,0.25222222222222224,-0.6144444444444445,0.0009024285380425748,0.01459718734558852,0.001090830782496456
1590505105.81331,-0.19989731768650462,-4.550102682313495,8.640308046940486,0.5244444444444445,0.23777777777777775,-0.6355555555555555,-3.360270851361673e-05,0.006533783792140863,0.0010796298796585837
1590505105.82331,-0.19190695725062867,-4.558093042749371,8.664279128248115,0.5244444444444445,0.23777777777777775,-0.6355555555555555,-0.0026484420465222,0.005662170679471335,0.00020801676698905592
1590505105.83331,-0.17,-4.540823000063373,8.583703500285177,0.5244444444444445,0.23777777777777775,-0.6355555555555555,-0.0021367738748367384,0.0024061000157737794,0.0010459430923402825
1590505105.8433099,-0.17,-4.5585432729884445,8.663444728448003,0.5244444444444445,0.23777777777777775,-0.6355555555555555,-0.0011702829157913667,0.007238554811000638,7.945213329491074e-05
1590505105.8533099,-0.2013005651095662,-4.5443497174452165,8.685650282554782,0.5244444444444445,0.23777777777777775,-0.6355555555555555,-0.00023724028422022158,0.011903767968856362,0.0025607714948287035
1590505105.8633099,-0.21626270320110647,-4.546262703201107,8.702525406402213,0.5195734530658062,0.2503031841799907,-0.6313804200881513,0.0,0.011040504559935667,0.003272492347489368
1590505105.8733099,-0.22,-4.55,8.681640834212448,0.5166666666666667,0.2577777777777778,-0.6288888888888889,-0.0010311683668993927,0.0062083877583202305,0.0022413239805899755
1590505105.8833098,-0.20232471370520871,-4.561783524196527,8.614649427410418,0.5166666666666667,0.2577777777777778,-0.6288888888888889,-0.0034670446569793154,0.00153897001899971,-0.00019455230948994774
1590505105.8933098,-0.19,-4.557690648774936,8.602309351225063,0.5166666666666667,0.2577777777777778,-0.6288888888888889,-0.004363323129985824,0.001090830782496456,-0.00041945982105342063
1590505105.9033098,-0.1760928735632184,-4.55695356321839,8.61695356321839,0.5166666666666667,0.2577777777777778,-0.6288888888888889,-0.002087774887989079,0.00033231470183087434,0.0007585160806655816
1590505105.9133098,-0.17,-4.550784646836937,8.675292118978374,0.5105230978912916,0.24549064022702768,-0.6094342544335346,0.0019248864880569646,0.0020104781803689468,8.559169231198258e-05
1590505105.9233098,-0.18599787880642069,-4.565997878806421,8.69599787880642,0.51,0.24444444444444444,-0.6077777777777778,0.005671857296331182,0.004799308363496613,0.0008725489328345675
1590505105.9333098,-0.2027300820094291,-4.563634958995285,8.661809753971713,0.51,0.24444444444444444,-0.6077777777777778,0.007239302960958216,0.007537108710420721,-0.0002978057494625046
1590505105.9433098,-0.20031008707080664,-4.56,8.66906973878758,0.51,0.24444444444444444,-0.6077777777777778,0.006578809947187739,0.009783651790259102,0.0010231802780784483
1590505105.9533098,-0.2,-4.56,8.676485073686862,0.51,0.24444444444444444,-0.6077777777777778,0.008667220096294899,0.011939712443784266,0.001090830782496456
1590505105.9633098,-0.2,-4.552402803593556,8.710388785625774,0.51,0.2503533749827895,-0.6238163035247143,0.007331300332222058,0.012261243819875456,0.0019195563525784714
1590505105.9733098,-0.19271129058573994,-4.54271129058574,8.72,0.51,0.25222222222222224,-0.6288888888888889,0.005749909835604075,0.008818839169962374,0.002181661564992912
1590505105.9833097,-0.1900042528056704,-4.54000425280567,8.560008505611341,0.51,0.25222222222222224,-0.6288888888888889,0.003273884074890545,0.01199867469832729,0.0
1590505105.9933097,-0.19991399881866512,-4.549913998818665,8.57982799763733,0.51,0.25222222222222224,-0.6288888888888889,0.006516840874199382,0.010917689098557677,0.0
1590505106.0033097,-0.20749022716218407,-4.527529318513447,8.587490227162183,0.51,0.25222222222222224,-0.6288888888888889,0.006544984694978735,0.006005965611123683,0.0016341140712802919
1590505106.0133097,-0.221537843682422,-4.548844609206055,8.64768921841211,0.5067950434215495,0.24773528301239145,-0.6372217759928603,0.0015106506740114652,0.0018461561195021888,0.0009230780597510944
1590505106.0233097,-0.2160342633382281,-4.542068526676457,8.676034263338227,0.5044444444444445,0.24444444444444444,-0.6433333333333333,-0.0006582360199029031,0.0007617127725450044,-0.0015234255450900088
1590505106.0333097,-0.21,-4.556710325672585,8.643289674327416,0.5044444444444445,0.24444444444444444,-0.6433333333333333,0.0,-0.0008515989144475926,0.000731982980423161
1590505106.0433097,-0.19239903444434128,-4.565866988518553,8.669334942592764,0.5044444444444445,0.24444444444444444,-0.6433333333333333,-0.002559956670636315,-0.003650787453132771,-0.00018914755282170158
1590505106.0533097,-0.18516740730689643,-4.559665185386208,8.721004443841379,0.5044444444444445,0.24444444444444444,-0.6433333333333333,-0.006054353216803747,-0.0026357704344524085,-0.0005271540868904818
1590505106.0633097,-0.18144784783548445,-4.532895695670969,8.732895695670969,0.5044444444444445,0.23304157489175706,-0.6252787898749117,-0.00017265480735740354,0.002798685251294171,0.0
1590505106.0733097,-0.19438767234387672,-4.551581508515815,8.694030819140307,0.5044444444444445,0.2311111111111111,-0.6222222222222222,0.0003061049884377727,0.0056266697296654174,0.0007847257940586833
1590505106.0833097,-0.21824723738516844,-4.56,8.588763813074157,0.5044444444444445,0.2311111111111111,-0.6222222222222222,-0.0009952324117630926,0.007540217106741829,-0.0008996340410297292
1590505106.0933096,-0.25305027745081554,-4.543474861274592,8.58,0.5044444444444445,0.2311111111111111,-0.6222222222222222,0.0007117822181734483,0.005833202476805287,0.0016130887185084005
1590505106.1033096,-0.2532525896095049,-4.533252589609505,8.600242231171485,0.5044444444444445,0.2311111111111111,-0.6222222222222222,-0.00038122580872123756,0.0032460690256557395,-0.0014984799130513217
1590505106.1133096,-0.2415336231311335,-4.5384663768688664,8.626932753737734,0.5147922383952813,0.23675536235702208,-0.6156372624353261,-0.002937907683451563,-0.006130184489305069,0.0013451999048983993
1590505106.1233096,-0.22748917894171727,-4.533744589470859,8.63,0.5166666666666667,0.23777777777777775,-0.6144444444444445,-0.006684289528659289,-0.013094690967347064,0.00013458325629095956
1590505106.1333096,-0.18248279290302846,-4.560013765677578,8.61499311716121,0.5166666666666667,0.23777777777777775,-0.6144444444444445,-0.01036364323495849,-0.022091951149900788,-0.002727827757483299
1590505106.1433096,-0.1953071627641076,-4.553128558157262,8.652178604606846,0.5166666666666667,0.23777777777777775,-0.6144444444444445,-0.01366889104103822,-0.030439638052427248,-0.0005119091314157043
1590505106.1533096,-0.18494830447176955,-4.55,8.697629238820577,0.5166666666666667,0.23777777777777775,-0.6144444444444445,-0.013359857531906025,-0.030813150051849324,-0.0008209426405479008
1590505106.1633096,-0.19286848361351672,-4.562868483613517,8.729302725420276,0.5123771721288278,0.2470716826097621,-0.6194488547385899,-0.013791836292441233,-0.028437661202449477,-0.002494564587463983
1590505106.1733096,-0.22970436220798016,-4.547721728344015,8.732573909448005,0.51,0.25222222222222224,-0.6222222222222222,-0.01175061772213724,-0.019170161394689113,0.000777811736371775
1590505106.1833096,-0.3922718419906972,-4.471477671104187,8.684318447402791,0.51,0.25222222222222224,-0.6222222222222222,-0.00924727969945567,-0.012209891423674615,0.003012175627747357
1590505106.1933095,-0.5973914871255912,-4.425148712559118,8.678283762480294,0.51,0.25222222222222224,-0.6222222222222222,-0.0024013180840957195,-0.007293834581606886,0.015019530388401807
1590505106.2033095,-0.41650776491133246,-4.471532608469679,8.687361801209954,0.51,0.25222222222222224,-0.6222222222222222,0.006136600654497328,-0.016181559944303783,0.0399386347683684
1590505106.2133095,-0.24197537069615482,-4.539012314651923,8.673662561782692,0.5054618227174146,0.2449611385700855,-0.6104229612875001,0.011399853337157609,-0.02498136823930813,0.07294648715024638
1590505106.2233095,-0.17130345030964317,-4.563913299911531,8.635216750221174,0.5044444444444445,0.2433333333333333,-0.6077777777777778,0.009722580233020608,-0.02617993877991494,0.0823340802971455
1590505106.2333095,-0.06498969348146165,-4.598336768839513,8.563326462320974,0.5044444444444445,0.2433333333333333,-0.6077777777777778,0.007953880766805975,-0.02077058032775523,0.08322120475906143
1590505106.2433095,-0.023114008826203625,-4.630657973521389,8.588201938216574,0.5044444444444445,0.2433333333333333,-0.6077777777777778,0.0038800899072871965,-0.01103267216206376,0.07689397855742987
1590505106.2533095,-0.014404917079431288,-4.628809834158862,8.637975414602844,0.5044444444444445,0.2433333333333333,-0.6077777777777778,0.0015713326969552595,-0.006415157741399887,0.06624221792526952
1590505106.2633095,-0.042517294701717265,-4.603741352649141,8.692517294701716,0.5089607353752386,0.23701052603022163,-0.6303592324317481,-0.0006827125187106491,-0.00013352400886096436,0.04580734662764824
1590505106.2733095,-0.08051007344518563,-4.590846977966444,8.69694899265548,0.51,0.23555555555555555,-0.6355555555555555,-0.0014236440553988179,0.0034205236928129892,0.03721738815092399
1590505106.2833095,-0.18487106357694594,-4.5656411170528814,8.650770053475936,0.51,0.23555555555555555,-0.6355555555555555,-0.0017061811953913671,0.008726646259971648,0.020334304301403035
1590505106.2933095,-0.22440838076783337,-4.56,8.633549715393,0.51,0.23555555555555555,-0.6355555555555555,-0.0017007818207411135,0.0038470379540143877,0.011740996019475296
1590505106.3033094,-0.23047686053783614,-4.539046278924327,8.670476860537836,0.51,0.23555555555555555,-0.6355555555555555,-0.0010388133671335074,-0.0028571204946485113,0.01153174933925721
1590505106.3133094,-0.19798935091277892,-4.538004563894523,8.68,0.534672920892495,0.24555809105251297,-0.6228856772594095,0.0013093288347713547,-0.00545415391248228,0.014399298224728825
1590505106.3233094,-0.12320679380214541,-4.588994338498212,8.664402264600715,0.5511111111111111,0.25222222222222224,-0.6144444444444445,0.00048021257391545405,-0.0012005314347886351,0.01697307994602784
1590505106.3333094,-0.07813720292293862,-4.5920343007307345,8.588308706576612,0.5511111111111111,0.25222222222222224,-0.6144444444444445,0.00260676899010725,0.0008689229967024165,0.009632985549621546
1590505106.3433094,-0.10798719919249386,-4.567207680484503,8.63837695854649,0.5511111111111111,0.25222222222222224,-0.6144444444444445,0.004101244471889304,-0.0030529298395032267,0.0018345506066756367
1590505106.3533094,-0.1535758791396381,-4.566715175827928,8.707006230795495,0.5511111111111111,0.25222222222222224,-0.6144444444444445,0.005095835180283781,0.002229285322695792,-0.008790144603575486
1590505106.3633094,-0.1786659485572529,-4.57,8.747331897114506,0.5212617327472401,0.24548204001102553,-0.6144444444444445,0.004508845567904058,0.009235387290795169,-0.02254305283573969
1590505106.3733094,-0.1154130944764342,-4.545779910428663,8.685413094476434,0.5166666666666667,0.24444444444444444,-0.6144444444444445,0.007885992364550622,0.008056142425185705,-0.035446952227257626
1590505106.3833094,-0.09314923912817204,-4.560552282615484,8.622044673897204,0.5166666666666667,0.24444444444444444,-0.6144444444444445,0.0072320420914692065,0.014361534235736176,-0.050883212819646695
1590505106.3933094,-0.09739744544677095,-4.577397445446771,8.629589781787084,0.5166666666666667,0.24444444444444444,-0.6144444444444445,0.004931112453943537,0.02390878148408409,-0.0785104759437909
1590505106.4033093,-0.12093101117084636,-4.569534494414577,8.650465505585423,0.5166666666666667,0.24444444444444444,-0.6144444444444445,0.008358956606424689,0.027321548344611757,-0.09987494659358186
1590505106.4133093,-0.18539963167587478,-4.550920073664825,8.673619889502762,0.5136400245549417,0.24444444444444444,-0.6144444444444445,0.012494371764921469,0.027866367187447397,-0.12176500058888358
1590505106.4233093,-0.262215577691854,-4.54,8.681113768923257,0.51,0.24444444444444444,-0.6144444444444445,0.0111512945101802,0.02678610084246708,-0.13453536162440058
1590505106.4333093,-0.2995331987171873,-4.546355465811458,8.638222670942708,0.51,0.24444444444444444,-0.6144444444444445,0.00941992003439589,0.024793391231066456,-0.13288747893993577
1590505106.4433093,-0.32,-4.544829025722881,8.600341948554238,0.51,0.24444444444444444,-0.6144444444444445,0.01090830782496456,0.014369581066054363,-0.10393188452256537
1590505106.4533093,-0.28375686886233914,-4.521878434431169,8.66436469670649,0.51,0.24444444444444444,-0.6144444444444445,0.009590470388330684,0.008704545015876326,-0.07599854065604257
1590505106.4633093,-0.2387675980073641,-4.520616200996318,8.7,0.5070510552788006,0.2409057107790051,-0.6032384545038867,0.006989574433978672,0.006544984694978735,-0.03380518144441272
1590505106.4733093,-0.19143420861743798,-4.537141447845641,8.721424343536922,0.5044444444444445,0.23777777777777775,-0.5933333333333334,0.00545415391248228,0.006544984694978735,-0.008726646259971648
1590505106.4833093,-0.18543463902860335,-4.529130721942793,8.63217649748514,0.5044444444444445,0.23777777777777775,-0.5933333333333334,0.0013043638315722497,0.006544984694978735,-0.004576856179061618
1590505106.4933093,-0.20068411108338383,-4.530684111083383,8.582052333250152,0.5044444444444445,0.23777777777777775,-0.5933333333333334,-0.0027643894276612444,0.0036313453816370733,-0.0016735586451647882
1590505106.5033092,-0.20413510165119728,-4.551729796697606,8.65105428844162,0.5044444444444445,0.23777777777777775,-0.5933333333333334,-0.006471298175032695,-0.003387497376064202,-0.004100945061518908
1590505106.5133092,-0.21397681647454994,-4.539034775288175,8.66602318352545,0.5184212609189944,0.2478721452316194,-0.6135220682410166,-0.007964329177384516,-0.008831935942740135,-0.003929519747308014
1590505106.5233092,-0.1775747335586171,-4.565354388701152,8.674141755480461,0.5244444444444445,0.25222222222222224,-0.6222222222222222,-0.009178441697137671,-0.009046163932636865,-0.000958553017995651
1590505106.5333092,-0.14538014403292182,-4.558070216049383,8.628830504115227,0.5244444444444445,0.25222222222222224,-0.6222222222222222,-0.010614866488695774,-0.005537088475060971,-0.0007973894462276691
1590505106.5433092,-0.14,-4.55,8.61603338251921,0.5244444444444445,0.25222222222222224,-0.6222222222222222,-0.01090830782496456,0.0002436564321863198,0.0008835890298630339
1590505106.5533092,-0.16307207761647904,-4.553845346269413,8.666144155232958,0.5244444444444445,0.25222222222222224,-0.6222222222222222,-0.01048884561696118,0.006208727803513025,0.000923274940982773
1590505106.5633092,-0.20285884004752133,-4.554282319904957,8.748576520142564,0.520315008820247,0.24999867996303898,-0.6180927865980247,-0.008570072752040145,0.00934905246192961,-0.0007789797098894662
1590505106.5733092,-0.20440541566493736,-4.534405415664938,8.74762166265975,0.51,0.24444444444444444,-0.6077777777777778,-0.004843879431686401,0.007895251835665796,0.0006102744807958789
1590505106.5833092,-0.20513520867344803,-4.545405626020344,8.683783121938967,0.51,0.24444444444444444,-0.6077777777777778,-0.006603980608201785,0.0064564908251441636,0.0005306664129424658
1590505106.5933092,-0.17438482886216466,-4.570175763182238,8.64,0.51,0.24444444444444444,-0.6077777777777778,-0.006506639117055641,0.00382749413321837,0.0011100035714580033
1590505106.6033092,-0.14,-4.5750293383270915,8.654911985018726,0.51,0.24444444444444444,-0.6077777777777778,-0.0011100326726752323,0.008158828663514847,0.002181661564992912
1590505106.6133091,-0.14681768485662225,-4.566591157571689,8.66659115757169,0.5058336370320642,0.24709576633313088,-0.6127016612853383,0.003669049666385605,0.013486526708853707,0.002181661564992912
1590505106.6233091,-0.16616912183608692,-4.56,8.666169121836086,0.4977777777777778,0.25222222222222224,-0.6222222222222222,0.0058720378950012685,0.01669893513743557,0.001508714765015445
1590505106.6333091,-0.19732268703350112,-4.56,8.654015969449748,0.4977777777777778,0.25222222222222224,-0.6222222222222222,0.004835726136278205,0.01556368049477377,0.0
1590505106.643309,-0.2602180899079256,-4.533187940061382,8.60659397003069,0.4977777777777778,0.25222222222222224,-0.6222222222222222,0.003260597388243514,0.011993191127838088,0.00036559275403979434
1590505106.653309,-0.2749807559459193,-4.475355768281852,8.570711536563703,0.4977777777777778,0.25222222222222224,-0.6222222222222222,-0.018822078999706688,-0.0043675215313000795,0.0061569017016993785
1590505106.663309,-0.23622056048640716,-4.501046194702635,8.62209238940527,0.5041020026246108,0.24474813831232867,-0.6256717994114039,-0.017256914010214397,-0.002099405193875876,0.010870267112093938
1590505106.673309,-0.20270641703090003,-4.474941613934373,8.56376562941701,0.51,0.23777777777777775,-0.6288888888888889,0.011947736465428054,0.003259754483958358,0.008482824101246768
1590505106.683309,-0.15381111425121394,-4.50188885748786,8.533322200241503,0.51,0.23777777777777775,-0.6288888888888889,-0.0007744806072062689,-0.005713528546811717,0.008310918185888139
1590505106.693309,-0.1979603706406599,-4.557985138990247,8.577985138990247,0.51,0.23777777777777775,-0.6288888888888889,-0.014614971039199568,-0.0071989428029133745,0.01199643679964484
1590505106.703309,-0.2566936718312488,-4.5477552734739595,8.630040507746873,0.51,0.23777777777777775,-0.6288888888888889,-0.0187889849817289,-0.013459471263752144,0.017577932714448817
1590505106.713309,-0.3262076466710613,-4.511953856295319,8.71620764667106,0.51,0.24582392148245805,-0.631570936790449,-0.023572011896620185,-0.022920030175796496,0.03103244594505722
1590505106.723309,-0.6093018724242968,-4.286695932628561,8.738004389894284,0.51,0.2577777777777778,-0.6355555555555555,-0.03025181502752305,-0.027925028600318418,0.0796258584904242
1590505106.733309,-0.8902271964936604,-3.8781953979292916,8.676965272032023,0.51,0.2577777777777778,-0.6355555555555555,-0.03330096428369204,-0.02790806120631002,0.17812618556029086
1590505106.743309,-1.0541024258760108,-3.5608377358490566,8.674581132075472,0.51,0.2577777777777778,-0.6355555555555555,-0.03811380395510798,-0.020252170251679212,0.3398467719570816
1590505106.753309,-1.059714867617108,-3.484979633401222,8.735101832993891,0.51,0.2577777777777778,-0.6355555555555555,-0.053490698065513584,-0.009799703832162662,0.5294661566503825
1590505106.763309,-0.9332350779782804,-3.4645186576304403,8.74967910508696,0.5071330847463779,0.2537640964227067,-0.6286749589468623,-0.06664569034701096,-0.013897916318023555,0.7245074137313111
1590505106.773309,-0.7769442206530496,-3.3927467892516945,8.73427467892517,0.5044444444444445,0.25,-0.6222222222222222,-0.06856409878615301,-0.03555639987975107,0.898854852219652
1590505106.783309,-0.6538138734212791,-3.3374037836603487,8.696410089760931,0.5044444444444445,0.25,-0.6222222222222222,-0.06259338365514563,-0.056349153934996316,1.0122107954880895
1590505106.793309,-0.5665606458880961,-3.313303041682313,8.643303041682314,0.5044444444444445,0.25,-0.6222222222222222,-0.05344079542271071,-0.07784398673019668,1.109873992627808
1590505106.803309,-0.4333766311148186,-3.166455639635345,8.66970237740571,0.5044444444444445,0.25,-0.6222222222222222,-0.04869367089040926,-0.0943857859832211,1.1937808867959387
1590505106.813309,-0.2834284692843949,-2.9352855568134424,8.738428618244653,0.5044444444444445,0.25,-0.6222222222222222,-0.04801213726247848,-0.09915652137873651,1.2360359717276468
1590505106.823309,-0.29288317639145783,-3.0890139986547838,8.91153270556583,0.51,0.23555555555555555,-0.6,-0.048565929762401115,-0.09958010696309441,1.2828766363951092
1590505106.833309,-0.28724267171657397,-3.2291359924251393,8.898538683078865,0.51,0.23555555555555555,-0.6,-0.02929302617934865,-0.0993127255101259,1.3085728202692113
1590505106.843309,-0.20162823306809927,-3.3200329430844864,8.78081411653405,0.51,0.23555555555555555,-0.6,-0.01918014179780745,-0.09799356421644209,1.359559128605439
1590505106.853309,-0.12912059314543847,-3.395472355887263,8.745472355887264,0.51,0.23555555555555555,-0.6,-0.02132984995458748,-0.10105642548355817,1.4175329414517945
1590505106.863309,-0.19315035870568276,-3.417427737921591,8.775144524156818,0.5185742069280307,0.22869619001313105,-0.6074309793376266,-0.03465752505412325,-0.11132780037426725,1.502610002254464
1590505106.873309,-0.2943198599546648,-3.4328799066364435,8.744240186727113,0.5433333333333333,0.2088888888888889,-0.6288888888888889,-0.036672278163884874,-0.1207215035965796,1.5851602745105842
1590505106.883309,-0.3777555917151604,-3.47,8.650174577346313,0.5433333333333333,0.2088888888888889,-0.6288888888888889,-0.0377275103269145,-0.13020329987455395,1.6521924176086142
1590505106.8933089,-0.4422573558780455,-3.4744514711756094,8.6689661829317,0.5433333333333333,0.2088888888888889,-0.6288888888888889,-0.038418418238068824,-0.13890141913027848,1.7121601392039965
1590505106.9033089,-0.4805642411642411,-3.455350103950104,8.722957172557173,0.5433333333333333,0.2088888888888889,-0.6288888888888889,-0.031387896040114854,-0.13764415775386402,1.7630606269894282
1590505106.9133089,-0.5413635666052793,-3.3934545733578885,8.701727286678944,0.546550499624855,0.1937222478002865,-0.6316464599959075,-0.030577957225995364,-0.14236827457925383,1.8166398032794495
1590505106.9233088,-0.6534328025832312,-3.4531176929072487,8.779054670972052,0.5511111111111111,0.17222222222222222,-0.6355555555555555,-0.061527908861956325,-0.17521310027815248,1.8700565999741956
1590505106.9333088,-0.7100118223273095,-3.5433530372121824,8.873353037212182,0.5511111111111111,0.17222222222222222,-0.6355555555555555,-0.07199289722098359,-0.18143786624365468,1.9064193443417647
1590505106.9433088,-0.7454306704948488,-3.602384450824748,8.932384450824747,0.5511111111111111,0.17222222222222222,-0.6355555555555555,-0.06619750174172558,-0.17049100811616733,1.9386159858931982
1590505106.9533088,-0.8065501632130426,-3.524912622409782,8.682925571245649,0.5511111111111111,0.17222222222222222,-0.6355555555555555,-0.025172421823887358,-0.15267818388345977,2.0108226391175728
1590505106.9633088,-0.8368071561254485,-3.547605367094086,8.78882504643907,0.5511111111111111,0.17222222222222222,-0.6355555555555555,-0.05075149774622525,-0.16257976165984864,2.043002766890837
1590505106.9733088,-0.9041692359715952,-3.55833847194319,8.767069202156227,0.57,0.11888888888888888,-0.6355555555555555,-0.046813419743686795,-0.16448805161009947,2.1099008563195847
1590505106.9833088,-0.9208839006742312,-3.586464397303075,8.677348297977305,0.57,0.11888888888888888,-0.6355555555555555,-0.038564751813024274,-0.16516731507706164,2.1563551339412275
1590505106.9933088,-0.9552164801924269,-3.5608070629396114,8.657204708626407,0.57,0.11888888888888888,-0.6355555555555555,-0.042935356414791945,-0.181863821689272,2.2144401375126312
1590505107.0033088,-1.0053240885010908,-3.58,8.691296354004363,0.57,0.11888888888888888,-0.6355555555555555,-0.045375535187575776,-0.18480828602626465,2.246690580372512
1590505107.0133088,-1.03,-3.5632253848981095,8.798387307550945,0.57,0.10910369674611925,-0.6371864209126838,-0.05253579501644271,-0.19084257606202173,2.2739072400101303
1590505107.0233088,-1.0355032462014344,-3.497798701519426,8.821194806077704,0.57,0.07222222222222223,-0.6433333333333333,-0.04908738521234052,-0.18689225042850488,2.289043230506379
1590505107.0333087,-1.106865519004602,-3.48,8.74328362024885,0.57,0.07222222222222223,-0.6433333333333333,-0.049820028590289604,-0.1890719127764342,2.2870651577839576
1590505107.0433087,-1.1629186654741577,-3.450813345258422,8.73,0.57,0.07222222222222223,-0.6433333333333333,-0.04967716170582297,-0.18571263250357786,2.266876832901451
1590505107.0533087,-1.1959214489131103,-3.360558913315167,8.73,0.57,0.07222222222222223,-0.6433333333333333,-0.04581489286485115,-0.17860376738429531,2.2283481346593716
1590505107.0633087,-1.2644241773002014,-3.3151919408999326,8.742020147750168,0.5713355719722408,0.06127053204984703,-0.6484085068278487,-0.046863848638934245,-0.17317985547341572,2.1746957496500503
1590505107.0733087,-1.3167784252944823,-3.2898323620582763,8.793556850588965,0.5755555555555556,0.02666666666666667,-0.6644444444444444,-0.0468508642592037,-0.16791479465359568,2.0965258810641556
1590505107.0833087,-1.3168599773047696,-3.248975963687631,8.741159863828617,0.5755555555555556,0.02666666666666667,-0.6644444444444444,-0.03520066410645144,-0.1541012193985651,2.0282824334860443
1590505107.0933087,-1.2808029297479455,-3.1912846875967125,8.524817578487673,0.5755555555555556,0.02666666666666667,-0.6644444444444444,-0.021041094642119406,-0.1399416499342331,1.9755773693688077
1590505107.1033087,-1.4593450546965543,-3.297663736325861,8.91130989060689,0.5755555555555556,0.02666666666666667,-0.6644444444444444,-0.053338748408718495,-0.16383894772382343,1.8691550884968486
1590505107.1133087,-1.4830570709783193,-3.2917357322554204,8.86388585804336,0.5755555555555556,0.02666666666666667,-0.6644444444444444,-0.04751894402179706,-0.1560792085412615,1.8290631027202788
1590505107.1233087,-1.5,-3.2457479135459018,8.786832869676866,0.5755555555555556,-0.024444444444444446,-0.6877777777777778,-0.019353434306701514,-0.12722733141931916,1.7538544458756804
1590505107.1333086,-1.5164366992205,-3.16178165038975,8.757672475584625,0.5755555555555556,-0.024444444444444446,-0.6877777777777778,-0.033934845495493526,-0.134933866830855,1.6741589451402485
1590505107.1433086,-1.568014644434717,-3.15,8.75556369135262,0.5755555555555556,-0.024444444444444446,-0.6877777777777778,-0.03866300359069764,-0.1369821531463661,1.6145151611152924
1590505107.1533086,-1.63,-3.141427067493274,8.788285413498654,0.5755555555555556,-0.024444444444444446,-0.6877777777777778,-0.03378439079893445,-0.1264736438526775,1.552779640399993
1590505107.1633086,-1.6351167074963253,-3.0884874081332683,8.78,0.5747027709728347,-0.029419021176982963,-0.6866407316674833,-0.028222063793857298,-0.11493038018937157,1.4735463841928669
1590505107.1733086,-1.6679970602645762,-3.0145066144047035,8.78,0.5692227121781261,-0.061386030812782405,-0.6793339866078719,-0.02732539127038354,-0.11044701757200275,1.3883624944628594
1590505107.1833086,-1.7223872934090456,-3.0250450826363817,8.740090165272763,0.5688888888888889,-0.06333333333333334,-0.6788888888888889,-0.031634092692397225,-0.10336851102341953,1.243812650694575
1590505107.1933086,-1.760759019308943,-3.0092409806910565,8.709848196138212,0.5688888888888889,-0.06333333333333334,-0.6788888888888889,-0.03146850036705636,-0.09903377195170027,1.1534841977127361
1590505107.2033086,-1.8145520974289582,-2.957723951285521,8.72503653585927,0.5688888888888889,-0.06333333333333334,-0.6788888888888889,-0.02022922806738962,-0.08175946465203342,1.0197443368646106
1590505107.2133086,-1.8267045609258,-2.9450568413886997,8.824829475833901,0.5652272899175554,-0.06662877240753347,-0.6873105665229559,-0.01692647842964914,-0.07183989506017258,0.9271876380777239
1590505107.2233086,-1.8285243528610355,-2.908885388283379,8.833312329700274,0.5466666666666666,-0.08333333333333333,-0.73,-0.007918368886905898,-0.05757086091810783,0.830558873598716
1590505107.2333086,-1.9057925128939122,-2.9205283419292747,8.747475507736349,0.5466666666666666,-0.08333333333333333,-0.73,-0.011540172962233254,-0.05611480875152874,0.7716870156362723
1590505107.2433085,-2.01,-2.9757760221131235,8.778707248648871,0.5466666666666666,-0.08333333333333333,-0.73,-0.016701065261004056,-0.05752256872373185,0.7187636091433489
1590505107.2533085,-2.0131595218915326,-2.94,8.711058326620364,0.5466666666666666,-0.08333333333333333,-0.73,-0.0016078063430847917,-0.04598721805171393,0.6720035830704264
1590505107.2633085,-2.0331100114198706,-2.9384449942900646,8.773887514274838,0.5480488939643869,-0.0859250095165588,-0.7304319460305375,-0.0052114471776634076,-0.04699053605211537,0.6074375505688517
1590505107.2733085,-2.06701661087997,-2.9080664435198798,8.79215503487972,0.5644444444444444,-0.11666666666666667,-0.7355555555555555,-0.013861402790023084,-0.045393056279209046,0.5185244179322328
1590505107.2833085,-2.0585853210577127,-2.827877981586569,8.580268195625044,0.5644444444444444,-0.11666666666666667,-0.7355555555555555,-0.005145518844962973,-0.024519741024906797,0.39893286279199985
1590505107.2933085,-2.0980387924340778,-2.882155169736311,8.720991396713979,0.5644444444444444,-0.11666666666666667,-0.7355555555555555,-0.018031622223245294,-0.031612934701787256,0.30085065210608924
1590505107.3033085,-2.0915252973879555,-2.8561011895518216,8.890342267913159,0.5644444444444444,-0.11666666666666667,-0.7355555555555555,-0.03082083983955239,-0.03516549515076144,0.22766790685722088
1590505107.3133085,-2.1257795646205135,-2.9274677387723083,8.800973131986662,0.5626624828397725,-0.11760454119544136,-0.7361182802728203,0.00046037808274806296,-0.001260905399496786,0.11953862391181834
1590505107.3233085,-2.0846509119435184,-2.902790547166111,8.907907628946852,0.5452970517094855,-0.12674424179032923,-0.7416021006297531,0.004946818121015257,0.007711974677037603,0.05134473533015699
1590505107.3333085,-2.0816688005267583,-2.8833357720305814,8.713333943007646,0.5433333333333333,-0.12777777777777774,-0.7422222222222222,0.015816348042116464,0.019452916186492746,-0.050726324844687753
1590505107.3433084,-2.1353690968284744,-2.9447075392325424,8.728676884808136,0.5433333333333333,-0.12777777777777774,-0.7422222222222222,-0.001757032828411137,0.01359512256298355,-0.11850936534529419
1590505107.3533084,-1.9500598483295757,-2.7211842590694815,8.259114982578398,0.5433333333333333,-0.12777777777777774,-0.7422222222222222,0.03089816758404196,0.0462859242837,-0.2268673820870001
1590505107.3633084,-2.093989594172737,-2.8939895941727367,8.857919726475398,0.5404465916786416,-0.12622337842525144,-0.7479957055316057,-0.0028251333519859877,0.012656393747585088,-0.3259233734719926
1590505107.3733084,-2.165555248904681,-2.955185082968227,9.095559388691482,0.5288888888888889,-0.12,-0.7711111111111111,-0.0378563477226749,0.013372470741742784,-0.43225149122038187
1590505107.3833084,-2.208964018353055,-2.969654672784352,8.552949770586814,0.5288888888888889,-0.12,-0.7711111111111111,0.030014310397886053,0.05677812419093874,-0.47565714466957776
1590505107.3933084,-2.2186442817470335,-3.0286442817470336,8.700509972229236,0.5288888888888889,-0.12,-0.7711111111111111,0.012946489754087576,0.05988002807172857,-0.5762734271001619
1590505107.4033084,-2.2485780794761663,-3.0578671192142495,8.917630132460276,0.5288888888888889,-0.12,-0.7711111111111111,-0.01472875481776888,0.0440209999692736,-0.6462320671330669
1590505107.4133084,-2.2107836482143393,-3.0011754723215094,8.854639413690565,0.5288888888888889,-0.12,-0.7711111111111111,-0.0002991896581974098,0.05432783222611036,-0.687459396160414
1590505107.4233084,-2.204990272759757,-3.0374562274189065,8.752543772581094,0.5255577171644985,-0.12582955051768324,-0.7727766969733063,0.01581174095965572,0.07716513654988419,-0.7534632444607496
1590505107.4333084,-2.22,-3.133572594186789,8.814290376747156,0.5244444444444445,-0.12777777777777774,-0.7733333333333333,0.004363323129985824,0.07472161192021357,-0.8488976824063149
1590505107.4433084,-2.209825741958069,-3.1133914193473102,8.714912870979035,0.5244444444444445,-0.12777777777777774,-0.7733333333333333,0.00658300190222588,0.0825712102149378,-0.9068174223145634
1590505107.4533083,-2.160882181337275,-3.1297059395542415,8.690441090668637,0.5244444444444445,-0.12777777777777774,-0.7733333333333333,0.01726083040825463,0.09146940063662842,-0.9504185553808475
1590505107.4633083,-2.1703606522882692,-3.201081956864808,8.75036065228827,0.5247850604944766,-0.12869944473668826,-0.773413478286282,0.015232289893168187,0.09942296545430628,-1.0101790351317967
1590505107.4733083,-2.188011572856391,-3.254034718569174,8.768011572856391,0.5414553743643696,-0.1738073528552224,-0.7773359050791981,0.01330687314365745,0.10712463245234924,-1.0669788292423634
1590505107.4833083,-2.163850430914651,-3.316149569085349,8.740013900472617,0.5433333333333333,-0.17888888888888888,-0.7777777777777778,0.014013096691019246,0.11336179148574303,-1.1429322814555942
1590505107.4933083,-2.1393019036331444,-3.3406980963668556,8.66023118680772,0.5433333333333333,-0.17888888888888888,-0.7777777777777778,0.013343639460428713,0.11737853486928622,-1.1810913435992547
1590505107.5033083,-2.120440717771825,-3.3882371289127007,8.725592822281751,0.5433333333333333,-0.17888888888888888,-0.7777777777777778,0.006833433802118638,0.13037087053648488,-1.2476883341814393
1590505107.5133083,-2.09046325608371,-3.4096911626108604,8.74969116261086,0.5433333333333333,-0.17888888888888888,-0.7777777777777778,0.004397012063071793,0.1308996938995747,-1.3070133514864726
1590505107.5233083,-2.042562075605554,-3.4187686226816663,8.771871896219722,0.5511111111111111,-0.16666666666666666,-0.7644444444444445,0.0036110069776712013,0.13498895505430883,-1.3685679962738986
1590505107.5333083,-1.9008675382588425,-3.3762602614776527,8.778956623087057,0.5511111111111111,-0.16666666666666666,-0.7644444444444445,0.009020773684399724,0.13808025031529655,-1.4041178917752575
1590505107.5433083,-1.8791134271792096,-3.423434527032253,8.29941700827597,0.5511111111111111,-0.16666666666666666,-0.7644444444444445,0.03311785963869456,0.1583699794410184,-1.4574283481248584
1590505107.5533082,-1.935885219274499,-3.5694191352772835,8.79414262510635,0.5511111111111111,-0.16666666666666666,-0.7644444444444445,-0.012001416620542264,0.12563638686078776,-1.5122792329890287
1590505107.5633082,-1.8478586485398263,-3.515501053977878,8.572004215911514,0.5511111111111111,-0.16666666666666666,-0.7644444444444445,-0.00723078115386379,0.13130472822318612,-1.5544488242252352
1590505107.5733082,-1.84744693157499,-3.577022384174909,8.684044768349818,0.5610403532110976,-0.13770637720837267,-0.7478957076111337,0.013763370797880696,0.14092620109892928,-1.584513386655514
1590505107.5833082,-1.7692558692421991,-3.618883803863299,8.84181456166419,0.5644444444444444,-0.12777777777777774,-0.7422222222222222,0.006306460686134488,0.12948916703455285,-1.6429584947992242
1590505107.5933082,-1.7526365527488856,-3.5939548291233283,8.659002080237743,0.5644444444444444,-0.12777777777777774,-0.7422222222222222,0.0253417658018398,0.14671158594876244,-1.6710582309224085
1590505107.6033082,-1.6806997209701653,-3.662798883880661,8.82,0.5644444444444444,-0.12777777777777774,-0.7422222222222222,0.018948004628863105,0.13608670080136187,-1.719317889768052
1590505107.6133082,-1.698704872290191,-3.7348194891607642,8.82,0.5644444444444444,-0.12777777777777774,-0.7422222222222222,0.0012714886558113855,0.1292125001451751,-1.751724835718647
1590505107.6233082,-1.6862636742183639,-3.760604488672454,8.68950490507446,0.5903908375875346,-0.1140414519961418,-0.7719842614157668,0.02547281190171394,0.14445123968564041,-1.7682907049052592
1590505107.6333082,-1.5808652893973023,-3.8030449035342326,8.613477548232883,0.6022222222222222,-0.10777777777777778,-0.7855555555555556,0.030780126958420317,0.1480208389690307,-1.7937060420611113
1590505107.6433082,-1.5397232309893254,-3.8302767690106747,8.643794615017791,0.6022222222222222,-0.10777777777777778,-0.7855555555555556,0.029452431127404314,0.14357573500261922,-1.81464666447241
1590505107.6533082,-1.5213413242009133,-3.883293378995434,8.625365296803652,0.6022222222222222,-0.10777777777777778,-0.7855555555555556,0.029452431127404314,0.14369703174399942,-1.8369459626975293
1590505107.6633081,-1.4727855502561384,-3.9102347641759407,8.680704292527823,0.6022222222222222,-0.10777777777777778,-0.7855555555555556,0.030188187915393398,0.142518149713554,-1.849441294320872
1590505107.6733081,-1.3538950809927182,-3.867579135086937,8.692526378362311,0.5449475735209127,-0.12525139941546537,-0.7234271230659995,0.039120605873739375,0.1484792692519693,-1.8629896742078136
1590505107.6833081,-1.2712487294165482,-3.827076133360439,8.558324862776988,0.5366666666666666,-0.12777777777777774,-0.7144444444444444,0.04608843215539992,0.15762560246735433,-1.866956329846068
1590505107.693308,-1.2978507902627434,-3.986417983771239,8.735671935084955,0.5366666666666666,-0.12777777777777774,-0.7144444444444444,0.027348917033726088,0.14484605165808456,-1.879970323069282
1590505107.703308,-1.276535040910708,-3.95089173485118,8.59356693940472,0.5366666666666666,-0.12777777777777774,-0.7144444444444444,0.02812397955189872,0.14252086410356665,-1.8846206981783178
1590505107.713308,-1.2033298948393936,-3.94,8.716675262901516,0.5366666666666666,-0.12777777777777774,-0.7144444444444444,0.02927067288217617,0.14362614679907587,-1.8905917856227137
1590505107.723308,-1.1457601880877741,-3.9930877742946707,8.590736677115988,0.5052072448624172,-0.03831504702194358,-0.6564411354928597,0.049720853558602174,0.15364129301867402,-1.889570250903026
1590505107.733308,-1.1067677479427236,-4.02925409567909,8.8750819135818,0.5011111111111111,-0.02666666666666667,-0.6488888888888888,0.03632287798000133,0.14540595622964692,-1.8912022365377044
1590505107.743308,-0.98,-4.003925681627302,8.32271401356085,0.5011111111111111,-0.02666666666666667,-0.6488888888888888,0.04944423974245233,0.15795635074391903,-1.87878772918117
1590505107.753308,-0.98,-4.05547698547637,8.75230821230309,0.5011111111111111,-0.02666666666666667,-0.6488888888888888,0.054130385502151705,0.1551446632880994,-1.8694154376617709
1590505107.763308,-0.941056461667642,-4.040528230833821,8.702377038752195,0.5011111111111111,-0.02666666666666667,-0.6488888888888888,0.01843285029139606,0.13684362669778335,-1.8654070696370093
1590505107.773308,-0.8553780358369233,-4.096654804270463,9.84562777049385,0.5222222222222223,0.054444444444444434,-0.6622222222222223,0.08186754148767152,0.11173391214782313,-1.8372010132356889
1590505107.783308,-0.7602343022791948,-3.596083880747852,8.01,0.5222222222222223,0.054444444444444434,-0.6622222222222223,0.24859752419552508,-0.002576845121791048,-1.8179344684603433
1590505107.793308,-0.3992222222222222,-3.115142857142857,8.222904761904761,0.5222222222222223,0.054444444444444434,-0.6622222222222223,0.008989397960358685,0.15280115194369798,-1.751503700518746
1590505107.803308,-0.6322388888888889,-3.714328571428571,9.92059761904762,0.5222222222222223,0.054444444444444434,-0.6622222222222223,-0.12808719017550596,0.12738297666022644,-1.7224543573376354
1590505107.813308,-0.5514112370986467,-3.6614112370986467,8.940876417359775,0.5222222222222223,0.054444444444444434,-0.6622222222222223,-0.0733371670897939,0.22761201449908125,-1.6637797238718646
1590505107.823308,-0.567270324642026,-3.7123931994793105,8.783867697526725,0.5261247638708094,0.10049443589777304,-0.6427095139792864,0.05156392521812267,0.12267412154052104,-1.6270778337455174
1590505107.833308,-0.6,-3.8991200698154573,9.053932653625933,0.5277777777777778,0.12,-0.6344444444444445,0.01857669893062651,0.13353701954380165,-1.5785056057702924
1590505107.843308,-0.5052773459411812,-3.731109383764725,8.064752464139755,0.5277777777777778,0.12,-0.6344444444444445,0.04626954700908711,0.09911023277759105,-1.5110623142632797
1590505107.853308,-0.5590547319496755,-3.946218927798702,8.622692843977882,0.5277777777777778,0.12,-0.6344444444444445,0.028670938591009183,0.10864281233738327,-1.4692656192703444
1590505107.863308,-0.5127812048825305,-3.8535506628166427,8.571124819530121,0.5277777777777778,0.12,-0.6344444444444445,0.03923114423308793,0.1105224623252235,-1.3943271375841126
1590505107.873308,-0.5,-3.9270966375226286,8.691354620036206,0.532537628334339,0.1787048235309222,-0.6288912854617896,0.030081140900129994,0.1008279643192182,-1.3348860511887328
1590505107.883308,-0.47933411537399945,-3.9103329423130004,8.6594007038366,0.5344444444444445,0.20222222222222225,-0.6266666666666667,0.02520532678903969,0.09264797976743551,-1.2441367292895897
1590505107.893308,-0.40697867789125036,-3.9465106610543748,8.594280810102125,0.5344444444444445,0.20222222222222225,-0.6266666666666667,0.03783373294698859,0.08475522591871745,-1.1896767277334352
1590505107.903308,-0.40974668275030157,-4.039324487334137,8.629493365500604,0.5344444444444445,0.20222222222222225,-0.6266666666666667,0.038215920887870417,0.08073068877986135,-1.0882491057832377
1590505107.913308,-0.3720943121933491,-3.9717697619480283,8.59967544975468,0.5344444444444445,0.20222222222222225,-0.6266666666666667,0.03817907738737596,0.06831687057737912,-1.0338049917304126
1590505107.923308,-0.3512550013744235,-3.9762349958767294,8.694939983506918,0.506266115539809,0.23525888369662232,-0.620836667582949,0.04294873423420998,0.06817474164475812,-0.947971230692287
1590505107.933308,-0.3581185356851637,-3.947525857259345,8.628814643148363,0.5022222222222222,0.24,-0.62,0.04274763643644098,0.06429436498019045,-0.8725804530540752
1590505107.9433079,-0.36,-4.12708447109106,8.698618959990501,0.5022222222222222,0.24,-0.62,0.029653295254633567,0.06004590906911239,-0.7703915345187989
1590505107.9533079,-0.30345896620976076,-4.008840641878058,8.52229960808782,0.5022222222222222,0.24,-0.62,0.030333526843583817,0.052065831591689544,-0.7011913315141797
1590505107.9633079,-0.2973223170676039,-4.089834756014059,8.575190121878851,0.5022222222222222,0.24,-0.62,0.026549557481629973,0.0477819933378745,-0.6267336467550207
1590505107.9733078,-0.3,-4.144319706126319,8.652959118378954,0.4894935945543838,0.26545725533567693,-0.6152267646245605,0.020402995125751163,0.039876554339846625,-0.5491777298255252
1590505107.9833078,-0.3,-4.111952684192384,8.740659300785573,0.4844444444444445,0.27555555555555555,-0.6133333333333333,0.017951220684235297,0.03293792827744832,-0.483589376816863
1590505107.9933078,-0.22791652024520714,-4.014469563859279,8.734469563859278,0.4844444444444445,0.27555555555555555,-0.6133333333333333,0.019597771027924787,0.024448647942114158,-0.3943434842933367
1590505108.0033078,-0.2189775809867166,-4.03215964577609,8.653635870421253,0.4844444444444445,0.27555555555555555,-0.6133333333333333,0.019461399373728882,0.018655651915669667,-0.31784030141121367
1590505108.0133078,-0.2151865955826352,-3.908712871287129,8.775083777608529,0.4844444444444445,0.27555555555555555,-0.6133333333333333,0.01854412330243975,0.010272336032122947,-0.23312748639006609
1590505108.0233078,-0.20365360618916897,-3.9254804092837534,8.490047417020214,0.52,0.3144444444444445,-0.6411111111111111,0.0300399062530912,0.0007919208251265761,-0.11278324595508402
1590505108.0333078,-0.279780384327427,-4.03967057649114,8.699396056900424,0.52,0.3144444444444445,-0.6411111111111111,-0.003176666933104852,-0.005436186647285183,-0.030779830901662544
1590505108.0433078,-0.24648139614097658,-4.048379650964756,8.574305235528662,0.52,0.3144444444444445,-0.6411111111111111,0.014094991968481074,-0.009110466400055006,0.03984075347587418
1590505108.0533078,-0.16841148173600465,-4.103691388697997,8.648434212612994,0.52,0.3144444444444445,-0.6411111111111111,0.015501018535051399,-0.010793614034914053,0.13642235270023195
1590505108.0633078,-0.19826114123314453,-4.0870433152601136,8.66,0.52,0.3144444444444445,-0.6411111111111111,-0.0014229412972730053,-0.024263965626743267,0.21044542802558514
1590505108.0733078,-0.25010827723913626,-4.040324831717409,8.682165544782725,0.5222222222222223,0.3288888888888889,-0.6488888888888888,0.011833781603770039,-0.033803943042840776,0.3014826884782493
1590505108.0833077,-0.25874225488379754,-4.066226764651393,8.854845097675952,0.5222222222222223,0.3288888888888889,-0.6488888888888888,-0.0013517104224858318,-0.032862122183822506,0.33444641854388896
1590505108.0933077,-0.26837630613151314,-4.0364947754739475,8.595205591528552,0.5222222222222223,0.3288888888888889,-0.6488888888888888,-0.003272492347489368,-0.037293489760827844,0.3593500650145081
1590505108.1033077,-0.27702299727083,-4.00893100818751,8.6102299727083,0.5222222222222223,0.3288888888888889,-0.6488888888888888,-0.007102943151694343,-0.03741298722653496,0.3808667242706627
1590505108.1133077,-0.29280309828555234,-4.08322013885609,8.646401549142777,0.5222222222222223,0.3288888888888889,-0.6488888888888888,-0.0003470380272467821,-0.03569164523275869,0.41417288395297336
1590505108.1233077,-0.2783642550433444,-4.081319573847525,8.796041278457425,0.5799175421066372,0.3421107330290673,-0.6446819384806503,-0.003897004680351008,-0.04021679577510312,0.4475772468018771
1590505108.1333077,-0.2801005234728566,-3.9837185342760018,8.747135498133433,0.6288888888888889,0.3533333333333333,-0.6411111111111111,-0.008277155455146417,-0.043847011292415305,0.48158262375475114
1590505108.1433077,-0.34025650769523086,-3.975641269238077,8.671539046171386,0.6288888888888889,0.3533333333333333,-0.6411111111111111,-0.00931403262470563,-0.049143346510321526,0.5248295096257478
1590505108.1533077,-0.3531867812190912,-3.993955937396971,8.575384093245155,0.6288888888888889,0.3533333333333333,-0.6411111111111111,-0.011735416625912215,-0.054409678134048386,0.563671865923753
1590505108.1633077,-0.36295546558704456,-3.9672165991902837,8.566599190283402,0.6288888888888889,0.3533333333333333,-0.6411111111111111,-0.0016793052835800699,-0.05032064228121555,0.6089573884083859
1590505108.1733077,-0.4155565973562775,-3.9901590278160795,8.71492048609196,0.7733728400509052,0.41541628109826223,-0.6964213736653205,-0.010597080223737149,-0.05963242370496193,0.6532351890637917
1590505108.1833076,-0.4667680524358361,-4.033536104871672,8.754714806495564,0.9133333333333332,0.4755555555555556,-0.75,-0.01777266489360862,-0.07029429727028548,0.7147264114428045
1590505108.1933076,-0.4621086675291074,-4.006326002587322,8.605122897800776,0.9133333333333332,0.4755555555555556,-0.75,-0.01655296905392423,-0.07176481169968599,0.7801669736035098
1590505108.2033076,-0.49727848101265826,-4.103955696202531,8.621835443037975,0.9133333333333332,0.4755555555555556,-0.75,-0.015337218881746054,-0.07652385058981467,0.8555151091381699
1590505108.2133076,-0.46864110073131227,-4.145908414181241,8.66590841418124,0.9133333333333332,0.4755555555555556,-0.75,-0.017403340204772123,-0.07873800157017564,0.9074181060310302
1590505108.2233076,-0.4326174906269073,-4.164765018746185,8.714295056238557,1.4104222977882408,0.3434906656591198,-1.2134575328663741,-0.01963495408493621,-0.08204656766511273,0.9748217990457808
1590505108.2333076,-0.37445899105861574,-4.209672149243846,8.714131140302463,1.586666666666667,0.2966666666666667,-1.3777777777777778,-0.022231490181115046,-0.08723069963002872,1.019676440846372
1590505108.2433076,-0.27041038714353555,-4.065254305066107,8.5959768563645,1.586666666666667,0.2966666666666667,-1.3777777777777778,-0.01668844868269465,-0.08480358038236668,1.0479964468607774
1590505108.2533076,-0.2789037282033032,-4.203422369219819,8.48328881539009,1.586666666666667,0.2966666666666667,-1.3777777777777778,-0.008177588753008693,-0.07689992805028542,1.0558046127543874
1590505108.2633076,-0.2576224975737468,-4.257048999029498,8.85795653057079,1.586666666666667,0.2966666666666667,-1.3777777777777778,-0.010398726595449773,-0.08689110868024685,1.0365303699810575
1590505108.2733076,-0.25111805570218965,-4.255559027851095,8.590805549103655,1.1876520009103047,0.12495447304395974,-1.044236106712088,-0.017334740480468024,-0.09259865555454934,0.9483686600474055
1590505108.2833076,-0.29145078811214054,-4.253709842377572,8.558538984478401,0.8688888888888889,-0.012222222222222223,-0.7777777777777778,-0.02072578486743266,-0.0916297857297023,0.8868454261696187
1590505108.2933075,-0.33336770663439785,-4.187686115641606,8.551901404745621,0.8688888888888889,-0.012222222222222223,-0.7777777777777778,-0.008830351801297006,-0.06698924580699273,0.7322047963098551
1590505108.3033075,-0.3655507983910288,-4.195550798391029,8.587093033885909,0.8688888888888889,-0.012222222222222223,-0.7777777777777778,-0.00824131365271179,-0.056093669400983766,0.6292264372623981
1590505108.3133075,-0.40148464827050134,-4.212343567819666,8.68,0.8688888888888889,-0.012222222222222223,-0.7777777777777778,-0.007567559062402541,-0.050689503178548874,0.5305092076832939
1590505108.3233075,-0.44175784728406053,-4.2362630788067674,8.730768310329475,0.7101371883348175,0.12154824626496488,-0.7318445446225388,-0.0013905239123825732,-0.03929404025113033,0.38577189947529444
1590505108.3333075,-0.4434899110876538,-4.2890605334740775,8.710939466525922,0.65,0.17222222222222222,-0.7144444444444444,-0.0032212523972092984,-0.031026432054719742,0.29562957958790625
1590505108.3433075,-0.45537759000963,-4.286933614985555,8.666933614985554,0.65,0.17222222222222222,-0.7144444444444444,0.0006689814329484964,-0.02249057835481781,0.19579282440918827
1590505108.3533075,-0.44490814451928967,-4.264908144519289,8.667545927740354,0.65,0.17222222222222222,-0.7144444444444444,0.0005353955126582422,-0.01990265184126533,0.10154178362686928
1590505108.3633075,-0.40954176828663774,-4.223450121943965,8.706549878056036,0.65,0.17222222222222222,-0.7144444444444444,0.005315964277335256,-0.01498348534226786,0.020302369575894375
1590505108.3733075,-0.37515689678194686,-4.125784483909734,8.618676725864601,0.6145414756457619,0.20603151288556548,-0.7251644634352606,0.006297949175267961,-0.006332178743152414,-0.07869902024484145
1590505108.3833075,-0.37,-4.032755588307541,8.75371473020552,0.6022222222222222,0.21777777777777774,-0.7288888888888889,0.010955574479357185,-0.0006957094187358872,-0.14864667918779811
1590505108.3933074,-0.4171762821764775,-4.062558493808836,8.819235576735284,0.6022222222222222,0.21777777777777774,-0.7288888888888889,0.002406295754490249,0.015046996765453046,-0.23413380404859646
1590505108.4033074,-0.4356245999085505,-4.12,8.63343369913123,0.6022222222222222,0.21777777777777774,-0.7288888888888889,0.006783974895908399,0.023214220768399258,-0.32370560586127134
1590505108.4133074,-0.43,-4.1015819560084505,8.622975435980283,0.6022222222222222,0.21777777777777774,-0.7288888888888889,0.008650643717568306,0.024246844388382656,-0.402048072201574
1590505108.4233074,-0.4234211343553259,-4.09,8.663157731289349,0.5729828193570042,0.2353214194969086,-0.7376607097484543,0.007980270526802507,0.03154789424062546,-0.49124636247447023
1590505108.4333074,-0.41239546149923506,-4.120418154003059,8.723231769505354,0.5577777777777778,0.24444444444444444,-0.7422222222222222,0.012874278601628555,0.03739516444488074,-0.5822794640614981
1590505108.4433074,-0.3880343283917846,-4.108034328391784,8.65945920410321,0.5577777777777778,0.24444444444444444,-0.7422222222222222,0.01977166068042555,0.044568632253629246,-0.660443280092605
1590505108.4533074,-0.3515704043726191,-4.135536994534227,8.65842959562738,0.5577777777777778,0.24444444444444444,-0.7422222222222222,0.021041318698822274,0.052332802305095516,-0.7391412134421914
1590505108.4633074,-0.28008709326236847,-4.138017418652474,8.640043546631183,0.5577777777777778,0.24444444444444444,-0.7422222222222222,0.023339978584962572,0.061077023418647576,-0.8069320101630312
1590505108.4733074,-0.21215300132550655,-4.234426245029351,8.72442624502935,0.5662865829283175,0.20731511287845317,-0.7422222222222222,0.02129206257813405,0.06696866511750114,-0.8966605277994757
1590505108.4833074,-0.16395475940839227,-4.18628237446182,8.748372855645036,0.57,0.19111111111111112,-0.7422222222222222,0.025139650204910515,0.07470897495474724,-0.9857536547917081
1590505108.4933074,-0.18602888970498227,-4.085147998531032,8.689559554413025,0.57,0.19111111111111112,-0.7422222222222222,0.025698712684436825,0.07980707087421023,-1.0690614375157648
1590505108.5033073,-0.19286948804185353,-3.9815643684603885,8.655738976083708,0.57,0.19111111111111112,-0.7422222222222222,0.030533835354652178,0.08616620526197143,-1.1494801596268516
1590505108.5133073,-0.15360083458989374,-3.9707995230914896,8.696798926955852,0.57,0.19111111111111112,-0.7422222222222222,0.03329214247612974,0.09346226439333746,-1.2112139832677422
1590505108.5233073,-0.08175564502012952,-3.964503763346753,8.695381585856818,0.506967637162806,0.21306620378474048,-0.6643170546706343,0.03659696223530776,0.10095597840259866,-1.3010531399628429
1590505108.5333073,1.2981018488058422,-5.999065947321096,7.473184200714959,0.4711111111111111,0.2255555555555556,-0.62,-0.00900370201565933,0.11553335059363845,-1.3890835163996478
1590505108.5433073,5.953523166359174,-15.495081282417239,0.5503411424792006,0.4711111111111111,0.2255555555555556,-0.62,-0.5378505080609921,0.44685391073586134,-3.3715017874385396
1590505108.5533073,-0.7974238640025781,-12.108601152110861,-5.018289357073799,0.4711111111111111,0.2255555555555556,-0.62,-2.5404986428613094,1.3198782221296375,-9.554827761091598
1590505108.5633073,-0.10889460713250217,-1.866041606262685,-0.3704370832125254,0.4711111111111111,0.2255555555555556,-0.62,-2.930274472765368,-0.10519060879534592,-3.256237260947821
1590505108.5733073,-0.1535183785504018,-0.3479485241467102,-0.027849272018458104,0.4645964056187622,0.28038766011615884,-0.6303149503628858,-2.481217332166377,-0.8222473975132677,-0.40523762567024835
1590505108.5833073,0.713762048078022,-1.1696948455179246,4.373043544515981,0.4577777777777778,0.3377777777777778,-0.6411111111111111,-2.3760662362997835,-0.5768548307582101,-0.19563833364102484
1590505108.5933073,1.0880577934616154,-1.0407447233504228,5.484804913775884,0.4577777777777778,0.3377777777777778,-0.6411111111111111,-1.3986224983826179,0.5207031969165506,-0.07726214474308152
1590505108.6033072,1.7060127481803695,-0.8032581075843059,5.945879667513674,0.4577777777777778,0.3377777777777778,-0.6411111111111111,0.615857014033865,0.5341052626866815,-0.08824745392446381
1590505108.6133072,2.25,-0.99,7.18,0.4577777777777778,0.3377777777777778,-0.6411111111111111,1.44971410993779,-0.07744898555724837,-0.12544553998709246
1590505108.6233072,1.4555297247903676,-2.14009030316061,10.37301386798538,0.39892812776224945,0.45211424066508993,-0.6200933789627081,3.3917965699778967,0.18996908373854182,-0.17249131143727778
1590505108.6333072,1.2,-2.51,11.4,0.38,0.4888888888888889,-0.6133333333333333,4.016438941151951,0.2759801879716033,-0.18762289458939044
1590505108.6433072,0.5866805059380129,-1.0519281645264074,3.0143545428212803,0.38,0.4888888888888889,-0.6133333333333333,3.8587010394379346,-0.23123348143446087,-0.12297813699959176
1590505108.6533072,0.8102988384371701,0.1496378035902851,-1.2174192185850052,0.38,0.4888888888888889,-0.6133333333333333,1.180866250500653,-0.2811900280414589,0.19924306453007073
1590505108.6633072,0.7438111475598527,0.22331822628913442,-0.4955599677716391,0.38,0.4888888888888889,-0.6133333333333333,0.2305167578217503,0.030000828474348235,0.3413274399509548
1590505108.6733072,0.4419538135435648,-0.015729798073704962,0.4624822431296717,0.38064788301744906,0.48765386188687665,-0.6146898384011172,-0.3221204924811381,0.4074864894172512,0.43447107359531423
1590505108.6833072,2.1279476696647586,-3.7791590666079626,16.3292993270017,0.4155555555555556,0.4211111111111111,-0.6877777777777778,-1.6222242743894046,0.06485287112498694,0.45879146152970396
1590505108.6933072,0.4793102383598864,-1.5076999711827426,5.380110123090857,0.4155555555555556,0.4211111111111111,-0.6877777777777778,-0.48516994911056244,-0.016638391495095745,0.38681865010303207
1590505108.7033072,0.782641863960917,-4.073587623700363,14.073927095077039,0.4155555555555556,0.4211111111111111,-0.6877777777777778,0.774783640638545,0.14751563065913492,0.3799922626925973
1590505108.7133071,0.5925517799976858,-3.4643028503104873,10.347883287692367,0.4155555555555556,0.4211111111111111,-0.6877777777777778,0.6960911105334568,0.04320202349757468,0.340917752142524
1590505108.7233071,0.42260300071445583,-2.629017226323728,7.124476462649838,0.4180889629806039,0.4164665308318559,-0.6903111852028261,-0.04992735175915458,-0.09946208410354046,0.30999242512535646
1590505108.7333071,0.4471588946459413,-3.3799395509499135,11.079110535405873,0.4222222222222222,0.4088888888888889,-0.6944444444444444,-0.4968046557560457,-0.0564905278027029,0.34034579810735494
1590505108.743307,0.20357856788942233,-3.0017992789899024,9.104166310717764,0.4222222222222222,0.4088888888888889,-0.6944444444444444,0.03676811128134855,0.05714496597895263,0.4160282934202867
1590505108.753307,0.1422521137586472,-2.6753112990007684,6.816387394312068,0.4222222222222222,0.4088888888888889,-0.6944444444444444,0.25789553835771706,0.06995989981608133,0.4875820752962867
1590505108.763307,0.20695392005210456,-2.9869339737849057,8.55947936171945,0.4222222222222222,0.4088888888888889,-0.6944444444444444,-0.0828703692540878,-0.09035534405061611,0.5348765254207546
1590505108.773307,0.28633197441484504,-3.4553686652140296,10.064527658677163,0.4271470912115461,0.4053711253250861,-0.6993693134337683,-0.07136879429753312,-0.07216458629103355,0.6115426083075229
1590505108.783307,0.29,-3.36,9.54,0.43,0.4033333333333333,-0.7022222222222222,0.00545415391248228,-0.006544984694978735,0.6479534848028948
1590505108.793307,0.47761649915154614,-26.85777183135361,8.888945307401123,0.43,0.4033333333333333,-0.7022222222222222,-0.2135167056500224,-0.16279869857093482,1.510115465016517
1590505108.803307,7.63721350531838,-10.839047023150602,6.966139240506329,0.43,0.4033333333333333,-0.7022222222222222,-0.2928678256399984,-0.33317892410024386,1.8089314278504554
1590505108.813307,-1.2738267556259188,1.0664288137509894,3.7506445776320256,0.43,0.4033333333333333,-0.7022222222222222,0.3643104665464696,0.08380005574469751,0.25635978981026036
1590505108.823307,-0.8573477347734774,0.30139513951395136,2.2514131413141314,0.4365313197986465,0.39843484348434843,-0.7003172539476169,0.767237069085642,0.3318806018065748,0.07192555696260935
1590505108.833307,-1.113361041768536,-1.8217703373909462,9.71031911882029,0.4566666666666666,0.38333333333333336,-0.6944444444444444,-0.15739270226505725,-0.07016781571055467,-0.01624073740790764
1590505108.843307,-0.9737027733953334,-3.1075585402308397,11.435120194303746,0.4566666666666666,0.38333333333333336,-0.6944444444444444,-0.40326477826114676,0.018433097326217465,-0.018106156056648337
1590505108.853307,1.0022155688622754,-7.184970059880239,8.811736526946108,0.4566666666666666,0.38333333333333336,-0.6944444444444444,0.014037097913681962,0.0016003206090516586,0.03942014234949767
1590505108.863307,1.2865780196042471,-7.66835503657965,8.337098286156793,0.4566666666666666,0.38333333333333336,-0.6944444444444444,0.05959304752440828,0.01868770456273898,-0.3743879028190551
1590505108.873307,-2.1628219496950236,-5.996410974847512,9.01693234476367,0.46449751300970127,0.37550248699029876,-0.697668910585694,-0.04478152248782103,0.05130506532936879,-0.9218621593271852
1590505108.883307,-3.6376259154567645,-6.465559552871643,8.551254657587048,0.4755555555555556,0.3644444444444445,-0.7022222222222222,0.032463288069108594,0.07631386561539577,-0.5528834405113066
1590505108.893307,0.5208256801991245,-5.657923611707149,8.996241524332676,0.4755555555555556,0.3644444444444445,-0.7022222222222222,0.04947183026933878,-0.0760617551445719,0.31003723388573107
1590505108.903307,2.0306702515844055,-5.689193393508738,8.689502592663722,0.4755555555555556,0.3644444444444445,-0.7022222222222222,-0.013101491512684058,-0.04889255659169106,0.3520743813893463
1590505108.913307,-0.5434664701547532,-4.521871775976419,8.25488725128961,0.4755555555555556,0.3644444444444445,-0.7022222222222222,-0.03503134328413379,0.0202059052594249,-0.1307182371061808
1590505108.923307,-1.1195789247926795,-4.603495138690306,8.108640977981127,0.4729054268738284,0.36974470180789887,-0.6971628856480158,0.015522269368944061,0.048946157406571225,-0.17566251369560548
1590505108.933307,0.07442462834238164,-4.620657567608707,8.79,0.4633333333333333,0.3888888888888889,-0.6788888888888889,-0.0010549660330389644,-0.010228399623250737,0.045867167951058864
1590505108.943307,0.05075778530211264,-4.7137889265105635,8.596359864561972,0.4633333333333333,0.3888888888888889,-0.6788888888888889,-0.007710361736777851,-0.0033551539008961524,0.006387776882269294
1590505108.953307,0.07269819532510412,-4.611854387873786,8.459629122425243,0.4633333333333333,0.3888888888888889,-0.6788888888888889,-0.010654436840691662,-0.0020547260728564637,-0.0012582227421411678
1590505108.963307,0.07645838371137012,-4.445208202350438,8.52708323257726,0.4633333333333333,0.3888888888888889,-0.6788888888888889,-0.001999865227202962,0.001090830782496456,0.0002954322378478577
1590505108.973307,0.061724201474201476,-4.590689803439803,8.632586302211301,0.45649423286923285,0.3844635885885886,-0.6845210892710892,0.005548194514646517,0.0014857879107166869,0.0006958736542762251
1590505108.983307,0.08504520625353175,-4.630150687511772,8.69,0.4444444444444444,0.37666666666666665,-0.6944444444444444,0.008179587122959627,0.0032692048559617836,0.0
1590505108.9933069,0.07902209304866589,-4.620599418718997,8.631356395183671,0.4444444444444444,0.37666666666666665,-0.6944444444444444,0.0008533848039460057,0.0014108500839762079,0.0004920788410016026
1590505109.0033069,0.08588580511064922,-4.657657415331948,8.568228389778701,0.4444444444444444,0.37666666666666665,-0.6944444444444444,-0.004687544872527563,-0.002630450608042255,0.0015396198255457987
1590505109.0133069,0.08,-4.647077434811016,8.590616152216525,0.4444444444444444,0.37666666666666665,-0.6944444444444444,0.001090830782496456,-0.001728435596895656,0.0014096331896960557
1590505109.0233068,0.07406370564040429,-4.624382233842426,8.633745177438382,0.4444444444444444,0.37666666666666665,-0.6898273266092033,0.0030334785689185794,0.0004432815203557482,0.0
1590505109.0333068,0.06467921421009293,-4.535320785789907,8.675962357369722,0.4444444444444444,0.37666666666666665,-0.6788888888888889,0.00661496929782235,-0.0005804076926700353,0.0
1590505109.0433068,0.07,-4.556064733648011,8.633935266351989,0.4444444444444444,0.37666666666666665,-0.6788888888888889,0.0036771405499309478,-0.0007108053450205329,0.00035540267251026644
1590505109.0533068,0.070758902510216,-4.61379451255108,8.583035610040865,0.4444444444444444,0.37666666666666665,-0.6788888888888889,-0.0009106176409631828,-0.0018505278773699365,0.0008424805167792243
1590505109.0633068,0.08266407062026966,-4.665328141240539,8.61467185875946,0.4444444444444444,0.37666666666666665,-0.6788888888888889,-0.010255508463860273,0.0016004515171259982,-0.0016004515171259982
1590505109.0733068,0.08880425712570818,-4.677608514251416,8.602391485748583,0.4444444444444444,0.37666666666666665,-0.6788888888888889,-0.006236765793619264,0.00026087062704566156,-0.00026087062704566156
1590505109.0833068,0.05359981953530341,-4.588999548838259,8.68899954883826,0.4444444444444444,0.3711111111111111,-0.7022222222222222,0.006348644996951683,-0.001090830782496456,0.0017889821689388075
1590505109.0933068,0.07179202050953373,-4.624623938471399,8.704911712866528,0.4444444444444444,0.3711111111111111,-0.7022222222222222,0.005063195685549405,-0.0006998725555635811,0.00019547911346643748
1590505109.1033068,0.08,-4.607906650204566,8.593953325102282,0.4444444444444444,0.3711111111111111,-0.7022222222222222,0.0011162879900962958,0.00022834903953922712,0.00022834903953922712
1590505109.1133068,0.08307299402282195,-4.632291976091288,8.6,0.4444444444444444,0.3711111111111111,-0.7022222222222222,-0.002516873212445092,-0.0007556191350442758,-0.0014260424299486361
1590505109.1233068,0.08807258421697105,-4.657108876325457,8.604818539457572,0.4470143321551497,0.3716465043841747,-0.7014726716399332,-0.002431498560770375,-0.00010512422333987417,-0.0018662888949732893
1590505109.1333067,0.07430622293409267,-4.625693777065908,8.65645933440114,0.4711111111111111,0.37666666666666665,-0.6944444444444444,0.0063936260190423765,-0.001090830782496456,0.0008559627558564317
1590505109.1433067,0.08350716860903831,-4.587275090131635,8.657275090131634,0.4711111111111111,0.37666666666666665,-0.6944444444444444,0.008400960973104048,-0.001090830782496456,0.0003541290173410143
1590505109.1533067,0.07266077390400089,-4.561286191232007,8.61,0.4711111111111111,0.37666666666666665,-0.6944444444444444,0.003422436056659082,-0.0008005853745217135,0.0008005853745217135
1590505109.1633067,0.0770484572900607,-4.62295154270994,8.618854628129817,0.4711111111111111,0.37666666666666665,-0.6944444444444444,-0.003791478386920314,0.0003219633643854804,0.0
1590505109.1733067,0.07194491737606411,-4.635834752128193,8.641944917376065,0.46441195126022367,0.37515395315195016,-0.6944444444444444,-0.006787185180186011,0.0008786732081741608,-0.0002121575743222952
1590505109.1833067,0.06724169213139802,-4.625977845683728,8.658505538579067,0.43666666666666665,0.3688888888888889,-0.6944444444444444,-2.5156191173882417e-05,0.0,0.0007647898782552503
1590505109.1933067,0.05944184162322108,-4.5862945610821475,8.64482175567141,0.43666666666666665,0.3688888888888889,-0.6944444444444444,0.004020008080450295,-0.0003433150495355286,0.0025858622484183106
1590505109.2033067,0.078918841921584,-4.601081158078416,8.593243474235248,0.43666666666666665,0.3688888888888889,-0.6944444444444444,0.0031545562962212777,-0.0009728947312283658,0.0012087668337645461
1590505109.2133067,0.0748662347012239,-4.612433117350612,8.622433117350612,0.43666666666666665,0.3688888888888889,-0.6944444444444444,0.0005891899829086687,-0.00026541193034737386,0.0016508377042981641
1590505109.2233067,0.08694485241180705,-4.618472426205904,8.628472426205905,0.43666666666666665,0.3688888888888889,-0.6944444444444444,-0.0033635284197046232,-0.0009241983307829225,0.0003332649034270669
1590505109.2333066,0.07851233772668714,-4.652561688633436,8.641487662273313,0.43666666666666665,0.38333333333333336,-0.7022222222222222,0.0004868363405064948,0.0031102135673205366,-0.0012531095626652875
1590505109.2433066,0.07019938559112081,-4.610996927955604,8.64980061440888,0.43666666666666665,0.38333333333333336,-0.7022222222222222,0.0032072435653751215,0.002203411159030994,-0.00215991197095483
1590505109.2533066,0.06264547579782896,-4.601481669415198,8.627936427393486,0.43666666666666665,0.38333333333333336,-0.7022222222222222,0.009176847964191838,0.003272492347489368,-0.0005136774955722152
1590505109.2633066,0.07068815463239388,-4.552752618529575,8.650688154632395,0.43666666666666665,0.38333333333333336,-0.7022222222222222,0.004063059027532718,0.0031223602962628153,0.0010532977696898179
1590505109.2733066,0.08769420957846219,-4.628847104789231,8.667694209578462,0.4375633629417091,0.3825647365261541,-0.7013255259471797,-0.004363323129985824,-0.0009650694240065102,0.0001257613584899458
1590505109.2833066,0.07,-4.632985945837613,8.637014054162387,0.4444444444444444,0.37666666666666665,-0.6944444444444444,-0.0029467761840358203,-0.0003541367364875009,0.001090830782496456
1590505109.2933066,0.06263509694542059,-4.637905290836262,8.59895264541813,0.4444444444444444,0.37666666666666665,-0.6944444444444444,0.0016067725924074796,-0.0014925239305983258,0.001090830782496456
1590505109.3033066,0.06083272169213318,-4.603610907230711,8.601665443384267,0.4444444444444444,0.37666666666666665,-0.6944444444444444,0.0035755453779860924,-0.0017877726889930462,0.001090830782496456
1590505109.3133066,0.08,-4.61,8.645165513737446,0.4444444444444444,0.37666666666666665,-0.6944444444444444,0.001054721286550292,-0.001372565852107111,0.001090830782496456
1590505109.3233066,0.07884544085274013,-4.61346367744178,8.66,0.4449575818432266,0.37576867621879784,-0.6936747383462711,-0.002559490162406092,-0.0020557186991885185,0.0009648879166920627
1590505109.3333066,0.06710613788028723,-4.6428938621197124,8.651318413640862,0.4488888888888889,0.3688888888888889,-0.6877777777777778,-0.004507139748337339,-0.0007751593944481425,0.0
1590505109.3433065,0.062326089859136125,-4.645347820281728,8.61836955070432,0.4488888888888889,0.3688888888888889,-0.6877777777777778,-0.0011667133965135002,0.00025373704211985293,0.0
1590505109.3533065,0.06932639027972495,-4.63134721944055,8.583368048601375,0.4488888888888889,0.3688888888888889,-0.6877777777777778,0.0018877438776869703,0.0010173513606699706,0.0
1590505109.3633065,0.0782101696081467,-4.608210169608147,8.657159321567413,0.4488888888888889,0.3688888888888889,-0.6877777777777778,0.0057640238602262245,0.0015959409389285284,0.00019524020868812782
1590505109.3733065,0.07099528675129874,-4.600995286751298,8.686018852994804,0.4488888888888889,0.3688888888888889,-0.6877777777777778,0.0026159373352839296,-0.0007651239547781935,0.0009822618399237017
1590505109.3833065,0.07263630963142806,-4.625272619262856,8.662636309631429,0.4444444444444444,0.3888888888888889,-0.7022222222222222,-0.00034705306658034817,0.002181661564992912,-0.001090830782496456
1590505109.3933065,0.07711800042909248,-4.64,8.63541600514911,0.4444444444444444,0.3888888888888889,-0.7022222222222222,-0.002791436206442068,0.002181661564992912,-0.001090830782496456
1590505109.4033065,0.07,-4.628788847678731,8.563079677708147,0.4444444444444444,0.3888888888888889,-0.7022222222222222,0.001090830782496456,0.001774012563016362,-0.000683181780519906
1590505109.4133065,0.07,-4.582572648800109,8.62428774800018,0.4444444444444444,0.3888888888888889,-0.7022222222222222,0.0008101983321253674,0.00018708830024739235,0.001184374932620152
1590505109.4233065,0.07,-4.610302745930067,8.669697254069934,0.4444444444444444,0.38828339702875586,-0.7028613525190293,-0.0021486371070137053,0.002181661564992912,0.002115612649034499
1590505109.4333065,0.07,-4.618859398588274,8.661140601411727,0.4444444444444444,0.3711700917123415,-0.7209253970196889,-0.0012152510955434526,0.002181661564992912,0.00024884062609399345
1590505109.4433064,0.07,-4.628345077739784,8.635105699658059,0.4444444444444444,0.3688888888888889,-0.7233333333333334,-0.0054618406085295695,0.00018052401440819439,-0.00018052401440819439
1590505109.4533064,0.07,-4.620421287287703,8.56379158558933,0.4444444444444444,0.3688888888888889,-0.7233333333333334,-0.00027573188502073506,0.0010448754683263335,-0.0010448754683263335
1590505109.4633064,0.07562226655413182,-4.61,8.619699800506407,0.4444444444444444,0.3688888888888889,-0.7233333333333334,0.003988797307536962,0.002181661564992912,0.0
1590505109.4733064,0.06,-4.609641379310345,8.69,0.4446038314176245,0.3687295019157088,-0.7222973180076628,0.006466745797475542,0.002259900462496106,7.823889750319408e-05
1590505109.4833064,0.06212279021975199,-4.608491160879008,8.683631629340743,0.4488888888888889,0.3644444444444445,-0.6944444444444444,0.003437081163390669,0.0039002021466882464,0.0017185405816953344
1590505109.4933064,0.07,-4.635666948079358,8.63400168847615,0.4488888888888889,0.3644444444444445,-0.6944444444444444,-0.00023633132085956355,0.0017089989232737849,0.0004726626417191271
1590505109.5033064,0.0727783825463782,-4.62,8.565005442917403,0.4488888888888889,0.3644444444444445,-0.6944444444444444,0.00012146730035963158,-0.0009092235621420658,0.0018785870442788902
1590505109.5133064,0.08137961179636384,-4.618620388203636,8.636898058981819,0.4488888888888889,0.3644444444444445,-0.6944444444444444,0.003573476950563149,-0.002821015442878697,0.0009403384809595656
1590505109.5233064,0.08710882541763991,-4.61289117458236,8.6655441270882,0.4488888888888889,0.3644444444444445,-0.6944444444444444,0.004823397466080335,-0.0009461346696029173,0.0003153782232009724
1590505109.5333064,0.07436879325910323,-4.602184396629552,8.687815603370447,0.4549676915103487,0.3679180459424215,-0.6944444444444444,0.0020439536163750173,0.0017051001480536312,0.0008525500740268156
1590505109.5433064,0.06,-4.624374782651896,8.61250086939242,0.4566666666666666,0.3688888888888889,-0.6944444444444444,-0.002181661564992912,0.0026588763233347966,-0.0008522234033255138
1590505109.5533063,0.061957750947058056,-4.634126747158826,8.557831003788232,0.4566666666666666,0.3688888888888889,-0.6944444444444444,-0.002181661564992912,0.0032955356312295656,0.00021355749975125157
1590505109.5633063,0.06978483587437252,-4.610645492376883,8.58913934349749,0.4566666666666666,0.3688888888888889,-0.6944444444444444,-0.002181661564992912,-0.0009734769567347583,0.0010673600173441164
1590505109.5733063,0.050540050570106396,-4.61,8.677569772434522,0.4566666666666666,0.3688888888888889,-0.6944444444444444,-0.002181661564992912,0.002093295997096391,0.001090830782496456
1590505109.5833063,0.06754519464327939,-4.60122740267836,8.68877259732164,0.44594460327355145,0.3864340835321683,-0.6944444444444444,0.0016461061153633027,0.0031386034850819657,-0.0008230530576816514
1590505109.5933063,0.07,-4.6225824890470975,8.645796310240964,0.4444444444444444,0.3888888888888889,-0.6944444444444444,-0.0001408529274016936,-0.0001408529274016936,0.001090830782496456
1590505109.6033063,0.07,-4.636938663745893,8.566837349397591,0.4444444444444444,0.3888888888888889,-0.6944444444444444,-0.0009238607914188222,-0.0009238607914188222,0.001090830782496456
1590505109.6133063,0.06126063253600412,-4.618739367463996,8.625042530144016,0.4444444444444444,0.3888888888888889,-0.6944444444444444,0.001090830782496456,-0.0008158034273584827,0.0017691205322859522
1590505109.6233063,0.06870882389501537,-4.611291176104985,8.654835295580062,0.4444444444444444,0.3888888888888889,-0.6944444444444444,0.001090830782496456,0.000809139854308232,-0.00066829439021412
1590505109.6333063,0.061579653296216626,-4.596318613184867,8.693159306592433,0.4444444444444444,0.3688888888888889,-0.7088888888888889,0.0018370346767558941,-0.0007462038942594382,0.0009185173383779471
1590505109.6433063,0.07,-4.628196267709655,8.67933655106414,0.4444444444444444,0.3688888888888889,-0.7088888888888889,-0.0005902700117072591,0.0008940741119273696,0.0003935133411381727
1590505109.6533062,0.07,-4.621211688558919,8.544240909956216,0.4444444444444444,0.3688888888888889,-0.7088888888888889,-0.0034046670653760983,-0.00019826207683009545,0.0021155742060495466
1590505109.6633062,0.07,-4.6392689364731,8.610731063526899,0.4444444444444444,0.3688888888888889,-0.7088888888888889,-0.005214913932751534,-0.003232619017534244,0.001090830782496456
1590505109.6733062,0.07,-4.626829586570971,8.62317041342903,0.4444444444444444,0.3688888888888889,-0.7088888888888889,-0.0011441461965054174,-0.002554157728159891,0.001090830782496456
1590505109.6833062,0.062685049114394,-4.612685049114394,8.66657475442803,0.4387550382000842,0.37945492905698647,-0.693446214797054,0.0018887681423433297,-0.0005857868452991642,0.001090830782496456
1590505109.6933062,0.08128407564327787,-4.6025681512865555,8.665875167923943,0.43666666666666665,0.38333333333333336,-0.6877777777777778,0.0017614487933704786,-0.0017614487933704786,0.0017614487933704786
1590505109.7033062,0.08995267128242224,-4.619905342564844,8.570520615893356,0.43666666666666665,0.38333333333333336,-0.6877777777777778,-0.0010753424958874847,0.0010753424958874847,-0.0010753424958874847
1590505109.7133062,0.07229719693593906,-4.637702803064061,8.56114859846797,0.43666666666666665,0.38333333333333336,-0.6877777777777778,-0.003021907034371482,-0.0018057835953160823,-0.00012529265655894322
1590505109.7233062,0.05212774285085252,-4.622127742850853,8.640425157171164,0.43666666666666665,0.38333333333333336,-0.6877777777777778,-0.00034815110984200365,-0.0002321007398946688,0.0
1590505109.7333062,0.07137277568269249,-4.605751482878205,8.664248517121795,0.4509151837884616,0.38333333333333336,-0.6925272834850428,0.0015542721081381783,-0.0023314081622072677,0.0007771360540690892
1590505109.7433062,0.08,-4.609614251849724,8.698842755549169,0.4566666666666666,0.38333333333333336,-0.6944444444444444,0.005327918125498457,-0.001174987973819004,4.2078595661274075e-05
1590505109.7533062,0.08705867113421648,-4.61,8.594119932986754,0.4566666666666666,0.38333333333333336,-0.6944444444444444,0.003144209185465527,-0.000320849206824205,-0.000769981575672251
1590505109.7633061,0.08110948540432518,-4.61,8.603343087574048,0.4566666666666666,0.38333333333333336,-0.6944444444444444,0.0012118568656732985,0.0,-0.00012102608317684246
1590505109.7733061,0.0724401876618194,-4.617559812338181,8.625119624676362,0.4566666666666666,0.38333333333333336,-0.6944444444444444,0.0002661831816580637,0.0,0.0
1590505109.7833061,0.07,-4.6122119002276,8.6588940498862,0.4566666666666666,0.3644444444444445,-0.7155555555555555,0.0020610211221890632,-0.0029105710190778216,0.0016990997937775167
1590505109.793306,0.07,-4.625452618453865,8.641814713216958,0.4566666666666666,0.3644444444444445,-0.7155555555555555,0.0011900392579020564,0.0,-0.001983244614181711
1590505109.803306,0.07095657931419014,-4.5847828965709505,8.56286973794257,0.4566666666666666,0.3644444444444445,-0.7155555555555555,0.0018686217164475287,0.0,0.00010434661618179437
1590505109.813306,0.0782647407304154,-4.6213237036520765,8.584794222191245,0.4566666666666666,0.3644444444444445,-0.7155555555555555,-0.0005229685144338934,0.0,0.0009015433598089349
1590505109.823306,0.08800240192153723,-4.638002401921537,8.614007205764612,0.4566666666666666,0.3644444444444445,-0.7155555555555555,-0.0019637574174886157,-0.00174585326998432,-0.000655022487487864
1590505109.833306,0.06985984017746856,-4.619719680354938,8.670140159822532,0.4566666666666666,0.3644444444444445,-0.7022222222222222,-0.0010143854580531842,0.001090830782496456,0.0
1590505109.843306,0.061415389232038806,-4.6,8.672923053839806,0.4566666666666666,0.3644444444444445,-0.7022222222222222,0.0042861256228097265,0.0010136332753203582,7.71975071760977e-05
1590505109.853306,0.07798576902025178,-4.602014230979748,8.584028461959496,0.4566666666666666,0.3644444444444445,-0.7022222222222222,0.0028330553163358973,0.00010985925778836775,0.0009809715247080881
1590505109.863306,0.060326302050439984,-4.61967369794956,8.61934739589912,0.4566666666666666,0.3644444444444445,-0.7022222222222222,-0.0010196427182941267,0.0010730337664458737,1.7797016050582256e-05
1590505109.873306,0.06841210486524041,-4.61158789513476,8.63682420973048,0.4566666666666666,0.3644444444444445,-0.7022222222222222,-0.00017321248923721276,0.0020084490757556993,0.0
1590505109.883306,0.09959814905017049,-4.61,8.66080370189966,0.4177777777777778,0.3688888888888889,-0.7022222222222222,-0.0009154902280766651,0.003140986931674525,0.0010469956438915083
1590505109.893306,0.09108560642961519,-4.61,8.67782878714077,0.4177777777777778,0.3688888888888889,-0.7022222222222222,0.002798807183049236,0.00035526387333009897,0.00011842129111003295
1590505109.903306,0.0710567183752351,-4.61,8.61685572791745,0.4177777777777778,0.3688888888888889,-0.7022222222222222,0.003272492347489368,0.0006887971572597676,0.0
1590505109.913306,0.06732996225340077,-4.61,8.623979773520405,0.4177777777777778,0.3688888888888889,-0.7022222222222222,7.419296327071563e-05,0.00029125593644179285,0.0
1590505109.923306,0.07576881207188196,-4.61,8.651537624143764,0.4177777777777778,0.3688888888888889,-0.7022222222222222,-0.001090830782496456,0.0006292797786446001,0.0
1590505109.933306,0.07358820589705148,-4.616411794102949,8.666411794102949,0.4427125326225776,0.37815036925981454,-0.6972352712532622,-0.0017902490203490062,0.00039141254464390577,0.0006994182378525502
1590505109.943306,0.07,-4.613277326516307,8.663277326516308,0.4566666666666666,0.38333333333333336,-0.6944444444444444,0.0007516581056809788,0.0007333299176684727,-0.0003758290528404894
1590505109.953306,0.05123304973247961,-4.63876695026752,8.57123304973248,0.4566666666666666,0.38333333333333336,-0.6944444444444444,0.002181661564992912,8.966990696918503e-05,0.002181661564992912
1590505109.963306,0.07330637663362863,-4.616693623366372,8.59330637663363,0.4566666666666666,0.38333333333333336,-0.6944444444444444,0.002181661564992912,0.0016948875373612156,0.002181661564992912
1590505109.973306,0.08766933473297467,-4.602330665267025,8.653685343130823,0.4566666666666666,0.38333333333333336,-0.6944444444444444,0.0005084722833933093,0.003018256205792713,0.0005084722833933093
1590505109.983306,0.07646525432402006,-4.61353474567598,8.66323262716201,0.4514031544593411,0.37882175144134,-0.6944444444444444,0.0007382058608309862,0.003272492347489368,0.0014764117216619723
1590505109.993306,0.08830399328036957,-4.610848003359815,8.669151996640185,0.4488888888888889,0.37666666666666665,-0.6944444444444444,0.002089158748138227,0.002274164381847597,0.00018500563370936994
1590505110.003306,0.07017643889736913,-4.61,8.57023525186316,0.4488888888888889,0.37666666666666665,-0.6944444444444444,0.001090830782496456,-0.002168830566294247,-0.0010779997837977906
1590505110.013306,0.09842215138726768,-4.61,8.60789620184969,0.4488888888888889,0.37666666666666665,-0.6944444444444444,0.001090830782496456,-0.00011474438912585042,0.0009760863933706055
1590505110.023306,0.09225033757999178,-4.602250337579991,8.633248987260025,0.4488888888888889,0.37666666666666665,-0.6944444444444444,0.001090830782496456,0.0,0.001090830782496456
1590505110.033306,0.07801488101096392,-4.605992559494518,8.651985118989037,0.43756960984368815,0.37666666666666665,-0.6904494047814325,-0.0008702297262720485,0.001307373672512336,0.0004371439462402879
1590505110.0433059,0.078367513083931,-4.618367513083931,8.626529947664276,0.43,0.37666666666666665,-0.6877777777777778,-0.0012689074805035338,-0.0014693547729646003,0.0
1590505110.0533059,0.08,-4.62,8.561465987537813,0.43,0.37666666666666665,-0.6877777777777778,-2.665240555004651e-05,-0.0011174831880465025,-0.0010641783769464095
1590505110.0633059,0.07227545925577014,-4.612275459255771,8.606347244465379,0.43,0.37666666666666665,-0.6877777777777778,0.0008426166824454019,0.003122252629730553,-0.0002482141000510541
1590505110.0733058,0.07502473165315118,-4.61,8.645123658265755,0.43,0.37666666666666665,-0.6877777777777778,0.0005427175863922944,0.0027189835416733393,0.0005481131961041616
1590505110.0833058,0.08,-4.61,8.674677126654064,0.43883457256878805,0.37666666666666665,-0.6908958622138206,-0.0010203907455775922,0.0005806354097076599,7.044003691886376e-05
1590505110.0933058,0.08,-4.621135132975003,8.663297300537495,0.4488888888888889,0.37666666666666665,-0.6944444444444444,-0.002181661564992912,0.0,0.0001238237991360593
1590505110.1033058,0.07185926749886706,-4.638140732501133,8.584874139990937,0.4488888888888889,0.37666666666666665,-0.6944444444444444,0.0004823869162986429,0.0008880161604305182,-0.0006852015383645804
1590505110.1133058,0.07,-4.6265743646765545,8.603564088308614,0.4488888888888889,0.37666666666666665,-0.6944444444444444,0.0018230855967657639,0.001090830782496456,0.0011059336603114684
1590505110.1233058,0.07,-4.613416782826875,8.6463328686925,0.4488888888888889,0.37666666666666665,-0.6944444444444444,0.0007454263769320637,-0.0010635219995948164,0.0014635439709624878
1590505110.1333058,0.07,-4.61,8.675767892710132,0.45195486802697,0.37666666666666665,-0.6975104235825256,-0.00043000256858282147,-0.0008916538592444474,0.0006608282139136344
1590505110.1433058,0.07,-4.61,8.698045412295842,0.456286607946414,0.37666666666666665,-0.7018421635019696,-0.0010375276716268907,0.0009309214498877606,5.330311086956525e-05
1590505110.1533058,0.08852660630416889,-4.61,8.570313755870819,0.4566666666666666,0.37666666666666665,-0.7022222222222222,0.0009301084626815762,0.0031117700276744884,-0.002020939245178032
1590505110.1633058,0.07197363238258533,-4.61,8.587039551426122,0.4566666666666666,0.37666666666666665,-0.7022222222222222,0.001090830782496456,0.0022893065128057064,0.000767895939058072
1590505110.1733057,0.07694956201014293,-4.61,8.631697372060858,0.4566666666666666,0.37666666666666665,-0.7022222222222222,-0.00042532845060991374,0.0006655023318865422,-0.00042532845060991374
1590505110.1833057,0.07128755659212513,-4.61,8.6848497736315,0.43343348424566697,0.37666666666666665,-0.6818931876038475,-0.0001404506364896316,-0.0009503801460068244,0.0008099295095171928
1590505110.1933057,0.09506881687490427,-4.601643727708365,8.67328745541673,0.43,0.37666666666666665,-0.6788888888888889,-0.001823055808527479,0.0025552808345585022,0.001090830782496456
1590505110.2033057,0.0748299137384863,-4.616780057507676,8.569319654953945,0.43,0.37666666666666665,-0.6788888888888889,0.0005639689242221187,0.003272492347489368,0.001090830782496456
