time,acc_x,acc_y,acc_z,mag_x,mag_y,mag_z,gyr_x,gyr_y,gyr_z
1590505117.6509485,-0.03,-4.58,8.62,0.5188888888888888,0.2766666666666667,-0.6288888888888889,-0.004363323129985824,0.003272492347489368,0.0
1590505117.6609485,-0.03,-4.58,8.651615128045679,0.5188888888888888,0.2766666666666667,-0.6288888888888889,-0.0017768165151263713,0.0015481546042497327,-0.0017243377432396348
1590505117.6709485,-0.03,-4.58,8.708145660188716,0.5188888888888888,0.2702472453081714,-0.6224694675303937,-0.004241956873144298,0.001090830782496456,-8.09108378943507e-05
1590505117.6809485,-0.03757518307869596,-4.572424816921305,8.71,0.5188888888888888,0.27,-0.6222222222222222,-0.0035369988414570416,0.001090830782496456,0.0008263242885287826
1590505117.6909485,-0.06828233067989038,-4.560572556440036,8.625153007960328,0.5188888888888888,0.27,-0.6222222222222222,-0.00532924147458059,-0.001994292908140379,0.0031475799095876797
1590505117.7009485,-0.054033373063170444,-4.57596662693683,8.659916567342073,0.5188888888888888,0.27,-0.6222222222222222,-0.003712465096949202,0.00043087165830670536,0.0015308035319562898
1590505117.7109485,-0.043432018676528315,-4.586567981323472,8.67,0.5188888888888888,0.27,-0.6222222222222222,-0.003272492347489368,0.0032401976444478738,0.001090830782496456
1590505117.7209485,-0.020916111048329376,-4.561374166572493,8.698625833427505,0.5051060802015712,0.28802367289880004,-0.6349448148566693,-0.003272492347489368,0.0012407291022518735,0.001090830782496456
1590505117.7309484,-0.034370093326041316,-4.574370093326041,8.678444860010938,0.5044444444444445,0.2888888888888889,-0.6355555555555555,-0.0024887253401197308,0.0026583647972357313,0.0003070637751268185
1590505117.7409484,-0.04,-4.579639533300041,8.57054070004994,0.5044444444444445,0.2888888888888889,-0.6355555555555555,-0.0043436627213668064,0.004402643947223859,3.9320817238034504e-05
1590505117.7509484,-0.04,-4.566945112816089,8.589582330775865,0.5044444444444445,0.2888888888888889,-0.6355555555555555,-0.0036512894898744134,0.005787390410208645,0.0014240672802228215
1590505117.7609484,-0.05927940728712068,-4.566426469095707,8.625705876382828,0.5044444444444445,0.2888888888888889,-0.6355555555555555,-0.002571473316253444,0.0030398895387991156,0.002181661564992912
1590505117.7709484,-0.042049523470205755,-4.57,8.677267302039725,0.4992684302722603,0.28267767188226794,-0.6293443385489347,-0.002181661564992912,-0.001958093235917973,0.00014904555271662637
1590505117.7809484,-0.030504910179640715,-4.56050491017964,8.689495089820358,0.4988888888888889,0.2822222222222222,-0.6288888888888889,-0.001145907939131247,0.0009255993125920825,0.001035753625861665
1590505117.7909484,-0.03,-4.575609631850154,8.627561472599384,0.4988888888888889,0.2822222222222222,-0.6288888888888889,-0.0019422041287756996,0.001090830782496456,0.001090830782496456
1590505117.8009484,-0.03,-4.5601164332611015,8.649767133477797,0.4988888888888889,0.2822222222222222,-0.6288888888888889,-0.001097181231762259,0.001090830782496456,6.350449265802964e-06
1590505117.8109484,-0.03759548232213007,-4.56,8.68797741161065,0.4988888888888889,0.2822222222222222,-0.6288888888888889,-0.0019193693749851707,-0.0013947849949696885,0.0008285385924887146
1590505117.8209484,-0.04871446342425438,-4.5687144634242545,8.7,0.4863013306094104,0.29480978050170076,-0.6163013306094104,-0.001231061069381297,0.0016207404174535473,0.00014023028688484116
1590505117.8309484,-0.04072445942289243,-4.588551081154215,8.681448918845785,0.4844444444444445,0.2966666666666667,-0.6144444444444445,-0.0031144398196572337,0.0042052706021536886,0.0010118045185803883
1590505117.8409483,-0.04,-4.59,8.621695405162962,0.4844444444444445,0.2966666666666667,-0.6144444444444445,-0.0022124849006689555,0.004363323129985824,0.0021508382293168684
1590505117.8509483,-0.04,-4.570618825987842,8.62,0.4844444444444445,0.2966666666666667,-0.6144444444444445,-0.0032387406256620295,0.004363323129985824,6.750344365467724e-05
1590505117.8609483,-0.02893908878123129,-4.5755304556093845,8.636591366828153,0.4844444444444445,0.2966666666666667,-0.6144444444444445,-0.004479050591478698,0.0037600440079911587,0.0018098373659839954
1590505117.8709483,-0.023404040404040403,-4.576595959595959,8.656808080808082,0.49125252525252533,0.29401907968574637,-0.6144444444444445,-0.004711507500964491,0.002529845935971579,0.0029011691417304736
1590505117.8809483,-0.03970248428614187,-4.5602975157138586,8.67485124214307,0.5044444444444445,0.2888888888888889,-0.6144444444444445,-0.0027433039211887827,-0.0004967344964053005,0.003240038417594083
1590505117.8909483,-0.05633214327749225,-4.562664286554985,8.616678567225078,0.5044444444444445,0.2888888888888889,-0.6144444444444445,-0.002181661564992912,-0.0035631209262462216,0.004363323129985824
1590505117.9009483,-0.05117435217026346,-4.57,8.650605182637893,0.5044444444444445,0.2888888888888889,-0.6144444444444445,-0.0012189327321779466,-0.0005124077987259624,0.003400594297170859
1590505117.9109483,-0.03559350278698259,-4.562796751393491,8.681609745819525,0.5044444444444445,0.2888888888888889,-0.6144444444444445,-0.002662335845287336,0.0015715050627908794,0.0017009872846984885
1590505117.9209483,-0.03,-4.5750582403965305,8.712587360594796,0.5002615998898526,0.28386947542337876,-0.6253198402863831,-0.0016298931320126722,0.002181661564992912,0.001090830782496456
1590505117.9309483,-0.03925785527756718,-4.589257855277567,8.692226434167297,0.4988888888888889,0.2822222222222222,-0.6288888888888889,-0.0021007061341632113,0.0031915369166596675,0.003110581485829967
1590505117.9409482,-0.03353735343934486,-4.5770747068786894,8.638298827514758,0.4988888888888889,0.2822222222222222,-0.6288888888888889,-0.002181661564992912,0.003272492347489368,0.0018625615865378716
1590505117.9509482,-0.03845975488572375,-4.561540245114276,8.635379264657171,0.4988888888888889,0.2822222222222222,-0.6288888888888889,-0.0031044776691651374,0.005118124555833819,0.002013646886668681
1590505117.9609482,-0.04,-4.567066033201464,8.661198099604393,0.4988888888888889,0.2822222222222222,-0.6288888888888889,-0.0017309230422295594,0.00545415391248228,0.002181661564992912
1590505117.9709482,-0.04,-4.552151023481892,8.687848976518108,0.4929392300495196,0.2881718810615915,-0.6288888888888889,-0.001090830782496456,0.001560111308080609,0.0012081509138924943
1590505117.9809482,-0.04,-4.564391261613783,8.661217476772435,0.4922222222222222,0.2888888888888889,-0.6288888888888889,-0.004230517015951196,0.000305909224132771,0.001875752340860141
1590505117.9909482,-0.03168444223972221,-4.561684442239722,8.583475537917778,0.4922222222222222,0.2888888888888889,-0.6288888888888889,-0.00636124055033611,0.0009070866378538304,0.002181661564992912
1590505118.0009482,-0.0214773920959873,-4.568522607904013,8.587045215808025,0.4922222222222222,0.2888888888888889,-0.6288888888888889,-0.002826295475440875,-0.0007685138272724747,0.0012519892601084467
1590505118.0109482,-0.02,-4.57,8.661976556184316,0.4922222222222222,0.2888888888888889,-0.6288888888888889,-0.0028954274113923532,-0.0003770649360970149,0.00394589416809422
1590505118.0209482,-0.024841336291706786,-4.57,8.690317327416587,0.4922222222222222,0.2888888888888889,-0.6186682900508412,-0.0027443844819482676,0.002640539327705502,0.003341722450317878
1590505118.0309482,-0.049801579730606324,-4.563399473423131,8.686600526576868,0.4922222222222222,0.2888888888888889,-0.6077777777777778,-0.00146165580791947,0.004014142398335396,-0.0003491807316504281
1590505118.0409482,-0.046686012534510206,-4.57331398746549,8.616773068939805,0.4922222222222222,0.2888888888888889,-0.6077777777777778,-0.001090830782496456,0.003272492347489368,0.002539996058785603
1590505118.0509481,-0.03209490849000717,-4.58,8.63533564056995,0.4922222222222222,0.2888888888888889,-0.6077777777777778,-0.00281545421400677,0.005859427494754838,0.00263869969847551
1590505118.0609481,-0.043726399470023186,-4.566273600529977,8.684315998675057,0.4922222222222222,0.2888888888888889,-0.6077777777777778,-0.0017751744400149347,0.004299007833767085,0.0014330026112556954
1590505118.0709481,-0.04242400257966172,-4.56,8.707575997420339,0.4922222222222222,0.2947813313269298,-0.6237715501096031,-0.0027436570213402057,0.003272492347489368,0.0027436570213402057
1590505118.080948,-0.04658505583041633,-4.56,8.65731955335667,0.4922222222222222,0.2966666666666667,-0.6288888888888889,-0.002554174187061778,0.0011175378662065987,0.002554174187061778
1590505118.090948,-0.05,-4.578867536738259,8.604843284348988,0.4922222222222222,0.2966666666666667,-0.6288888888888889,-0.0035537475559246374,-0.0013720859909317254,0.002181661564992912
1590505118.100948,-0.04252338227297445,-4.567570146818923,8.604953235454051,0.4922222222222222,0.2966666666666667,-0.6288888888888889,-0.001916605700306375,-0.0005505166118732793,0.0013660890884330955
1590505118.110948,-0.03366020303189115,-4.56,8.635359187872435,0.4922222222222222,0.2966666666666667,-0.6288888888888889,-0.0017823953512555398,-0.001383129137518168,0.0017823953512555398
1590505118.120948,-0.03,-4.56,8.679318347779153,0.48163504107975014,0.29096587682072017,-0.6134153164498911,0.0010164740599508202,0.00021694015371488727,-0.0010164740599508202
1590505118.130948,-0.03,-4.56,8.677250190114068,0.4777777777777778,0.2888888888888889,-0.6077777777777778,0.0007908730555377349,0.0017862250372240444,0.0012953097086450317
1590505118.140948,-0.03770824909017388,-4.56,8.608334007278609,0.4777777777777778,0.2888888888888889,-0.6077777777777778,-0.004204197693355983,0.003022501103664109,0.0024316528088181716
1590505118.150948,-0.04,-4.576721943327544,8.648526801646405,0.4777777777777778,0.2888888888888889,-0.6077777777777778,-0.002718032333755355,0.003272492347489368,0.0003575805125082955
1590505118.160948,-0.027625670714487432,-4.573812835357244,8.672374329285512,0.4777777777777778,0.2888888888888889,-0.6077777777777778,-0.004206406459600584,0.003947407312358592,0.0006749149648692242
1590505118.170948,-0.02852353914810702,-4.565738230425946,8.675738230425946,0.4891424966419205,0.2860477091728532,-0.6077777777777778,-0.004989266968553842,0.004363323129985824,0.0015557177264248938
1590505118.180948,-0.03420142623799849,-4.554201426237999,8.681597147524002,0.5044444444444445,0.2822222222222222,-0.6077777777777778,-0.002465744303735565,-6.43607979314469e-05,-0.0009809698120908533
1590505118.190948,-0.03742123052922684,-4.564842461058454,8.600945233649277,0.5044444444444445,0.2822222222222222,-0.6077777777777778,-0.002709892123553077,-0.0024629616769610576,-0.0024629616769610576
1590505118.200948,-0.018649466804265567,-4.555766311202843,8.577116844398578,0.5044444444444445,0.2822222222222222,-0.6077777777777778,-0.0017198377586480644,-0.002181661564992912,-0.0029579888594135637
1590505118.210948,-0.03421401925019065,-4.5621070096250955,8.592107009625096,0.5044444444444445,0.2822222222222222,-0.6077777777777778,-0.0004304958433447132,-0.00020065674753768324,-0.0026121574083376254
1590505118.220948,-0.05725862947395236,-4.57,8.650810406317666,0.500411872514471,0.2822222222222222,-0.6231015511116772,-0.001583587293784659,-0.000492756511288203,-0.002973455211885242
1590505118.230948,-0.03892076473936047,-4.577026411753547,8.684052823507093,0.4988888888888889,0.2822222222222222,-0.6288888888888889,-0.0006487363187402248,-0.0003243681593701124,-0.0017395671012366807
1590505118.240948,-0.048652252574210984,-4.573782582475263,8.658912912376316,0.4988888888888889,0.2822222222222222,-0.6288888888888889,0.0,0.0006782150423616035,-0.00041261574013485246
1590505118.250948,-0.045393376555107764,-4.57,8.632696688277555,0.4988888888888889,0.2822222222222222,-0.6288888888888889,-0.0015933354482022878,0.0034808339547998876,-0.002390003172303432
1590505118.260948,-0.04920433920054029,-4.57460216960027,8.643806508800811,0.4988888888888889,0.2822222222222222,-0.6288888888888889,-0.002181661564992912,0.0018532289968637822,-0.0027704735208649595
1590505118.270948,-0.05708134556574923,-4.577081345565749,8.66291865443425,0.5006725110431532,0.28319510703363915,-0.6288888888888889,-0.0032959769001155914,-0.0014092065925315072,-0.0018632857549578607
1590505118.280948,-0.0518801629512278,-4.56,8.683960054317076,0.5111111111111111,0.2888888888888889,-0.6288888888888889,-0.009817477042468105,-0.00456841709231669,-0.0008639498298848812
1590505118.290948,-0.06626496949612111,-4.56,8.65638472546509,0.5111111111111111,0.2888888888888889,-0.6288888888888889,-0.01144719154134584,-0.008582127818575905,-0.001366804315554044
1590505118.300948,-0.17384165542060281,-4.477206068785016,8.631047724205619,0.5111111111111111,0.2888888888888889,-0.6288888888888889,-0.0158741908369514,-0.014256992826790979,-0.0016933906644974737
1590505118.310948,-0.39320461958917396,-4.373046519145435,8.686953480854566,0.5111111111111111,0.2888888888888889,-0.6288888888888889,-0.018629359984406842,-0.015186394272983293,0.004371946171523674
1590505118.320948,-0.4079581714151809,-4.3653828428596535,8.689489542853796,0.5076927015867436,0.2854704793645214,-0.6180639253950586,-0.011804250778582107,-0.01082478446973074,0.03943444129811164
1590505118.3309479,-0.11946609596756028,-4.533115566569047,8.68913944582113,0.5044444444444445,0.2822222222222222,-0.6077777777777778,-0.0008836736863837027,-0.006243955700034344,0.09924938250214377
1590505118.3409479,0.0906101267006405,-4.6577542194586,8.66979662443312,0.5044444444444445,0.2822222222222222,-0.6077777777777778,0.00026716148740510003,-0.009572500387939059,0.1318121025261703
1590505118.3509479,0.16489904635068608,-4.677483174391781,8.652516825608219,0.5044444444444445,0.2822222222222222,-0.6077777777777778,0.003265150790937571,-0.010092020127230168,0.12982354623018186
1590505118.3609478,0.19963517969695704,-4.693090119797971,8.656545059898987,0.5044444444444445,0.2822222222222222,-0.6077777777777778,0.0022214572866568055,-0.002677924231371377,0.10977831952434353
1590505118.3709478,0.15623090188485161,-4.684637400538529,8.667681299730736,0.5044444444444445,0.27795483348292477,-0.6077777777777778,0.0019287306020832565,0.001090830782496456,0.07605733722165672
1590505118.3809478,0.10962697146907674,-4.6648134857345385,8.662406742867269,0.5044444444444445,0.2766666666666667,-0.6077777777777778,0.0013533657030135567,-0.0013940568034416102,0.046358351023834135
1590505118.3909478,0.010981047405356381,-4.645163507900892,8.585817539504465,0.5044444444444445,0.2766666666666667,-0.6077777777777778,0.0027092410110936232,0.0010551588922014222,0.023895010998199327
1590505118.4009478,-0.05812325215864786,-4.589168997121803,8.617184878237973,0.5044444444444445,0.2766666666666667,-0.6077777777777778,0.005351793196665745,0.004260962414169289,0.007454518773499072
1590505118.4109478,-0.07514525331129165,-4.56,8.659709493377417,0.5044444444444445,0.2766666666666667,-0.6077777777777778,0.006015413982052156,0.0049245831995557,3.1689356643295735e-05
1590505118.4209478,-0.07595179412830737,-4.56,8.675951794128308,0.49717002939873545,0.27997321896017074,-0.6117456405299827,0.00545415391248228,0.001766363031490093,-0.001090830782496456
1590505118.4309478,-0.07277656503063165,-4.581670304908105,8.694446869938735,0.4922222222222222,0.2822222222222222,-0.6144444444444445,0.006242108434477114,0.002363863565984504,-0.0018787853044912905
1590505118.4409478,-0.05754229925950441,-4.596228850370247,8.650169197038016,0.4922222222222222,0.2822222222222222,-0.6144444444444445,0.007903909039664885,0.003951954519832442,-0.0015021993926498376
1590505118.4509478,-0.05,-4.588760694901998,8.642478610196004,0.4922222222222222,0.2822222222222222,-0.6144444444444445,0.011178682254925642,0.0025242961337703282,-0.001090830782496456
1590505118.4609478,-0.05949165570951755,-4.570508344290483,8.66,0.4922222222222222,0.2822222222222222,-0.6144444444444445,0.012054590367477473,0.002643899316216453,-0.0016085202937364549
1590505118.4709477,-0.07,-4.563407883224141,8.673631532896563,0.4963874128295051,0.2844941443716492,-0.6095219464540192,0.011280050217369133,0.003619838345176677,-0.002181661564992912
1590505118.4809477,-0.05248682907506437,-4.565621707268766,8.686865121806298,0.5044444444444445,0.2888888888888889,-0.6,0.011521540958859973,0.0012264662677908262,-0.002181661564992912
1590505118.4909477,-0.05332369602124691,-4.555335260795751,8.614023129549008,0.5044444444444445,0.2888888888888889,-0.6,0.00785524315517661,-0.0010176882232626498,-0.0011639733417302621
1590505118.5009477,-0.0757568826416036,-4.554243117358396,8.583944938867171,0.5044444444444445,0.2888888888888889,-0.6,0.003437618524329054,-0.002181661564992912,-0.0009257046056567696
1590505118.5109477,-0.049153142793553053,-4.570423428603223,8.656058571508058,0.5044444444444445,0.2888888888888889,-0.6,0.003887191081925442,-0.004455700920902952,-0.0027501714039704223
1590505118.5209477,-0.0352573924950282,-4.5642278225149155,8.674742607504971,0.4904247311243693,0.2760374850121533,-0.6151880227634148,0.011189079481724887,-0.008838954922675779,-0.003272492347489368
1590505118.5309477,-0.04603981569258582,-4.556039815692586,8.67,0.4777777777777778,0.2644444444444444,-0.6288888888888889,0.017021303425254614,-0.01090830782496456,-0.006566700786528248
1590505118.5409477,-0.05462496865899053,-4.5507500626820185,8.637625219387067,0.4777777777777778,0.2644444444444444,-0.6288888888888889,0.01846230415620494,-0.01090830782496456,-0.007717634623710003
1590505118.5509477,-0.06,-4.544449713870183,8.626698283221094,0.4777777777777778,0.2644444444444444,-0.6288888888888889,0.016237234680908708,-0.008481365393516344,-0.005088819236109807
1590505118.5609477,-0.052733340285744085,-4.553633329857128,8.663633329857127,0.4777777777777778,0.2644444444444444,-0.6288888888888889,0.010810134192125427,-0.0022834754715873773,-0.004065161957713094
1590505118.5709476,-0.040235984684832325,-4.559882007657584,8.669882007657584,0.4777777777777778,0.2644444444444444,-0.6288888888888889,0.008765259163733571,0.0031695246041242376,-0.005428411976640997
1590505118.5809476,-0.07491783619097007,-4.564972612063657,8.684863060318284,0.4988888888888889,0.2577777777777778,-0.6077777777777778,0.00545415391248228,0.000542427830844995,-0.0048997758400243525
1590505118.5909476,-0.06614668299558657,-4.56,8.604679853039721,0.4988888888888889,0.2577777777777778,-0.6077777777777778,0.004113155708115608,-0.0006704991021833359,-0.002601993245306032
1590505118.6009476,-0.06180866238734358,-4.56,8.582287006418985,0.4988888888888889,0.2577777777777778,-0.6077777777777778,0.003272492347489368,-0.0024311352651524547,-0.0030751978867635775
1590505118.6109476,-0.04835303247373448,-4.56,8.604940902578797,0.4988888888888889,0.2577777777777778,-0.6077777777777778,0.002913179772404874,-0.004542979417528071,-0.0038243542673590827
1590505118.6209476,-0.03707774125332384,-4.551233223759971,8.65337806997341,0.5024605384681597,0.2649210769363195,-0.6097259502755619,0.0014095997620258427,-0.0057729228920116666,-0.0014095997620258427
1590505118.6309476,-0.0357623278700131,-4.535762327870013,8.707118836064994,0.5111111111111111,0.2822222222222222,-0.6144444444444445,0.0018673753340205357,-0.004973553540116854,-0.0015530891030481595
1590505118.6409476,-0.057300053497392006,-4.55,8.659849705764344,0.5111111111111111,0.2822222222222222,-0.6144444444444445,0.0002945184756138452,-0.0002945184756138452,-0.0007963123068826108
1590505118.6509476,-0.06838248509108734,-4.55,8.60132260436239,0.5111111111111111,0.2822222222222222,-0.6144444444444445,-0.0012672742878753452,0.0012672742878753452,-0.002181661564992912
1590505118.6609476,-0.05256460542529374,-4.557435394574706,8.678588486436766,0.5111111111111111,0.2822222222222222,-0.6144444444444445,-0.0017761237008880753,0.0033982751573074215,-0.0025871994290977487
1590505118.6709476,-0.04430691955918734,-4.5678465402204065,8.705693080440813,0.5053685516988613,0.28365786207528465,-0.6189906373124755,-0.00038611271756181236,0.005689059934127161,-0.003272492347489368
1590505118.6809475,-0.045180918345755064,-4.564939693884749,8.68506030611525,0.4844444444444445,0.2888888888888889,-0.6355555555555555,0.0011039875358743198,0.006006147680419439,-0.003272492347489368
1590505118.6909475,-0.004335771560716885,-4.580265691375713,8.623538697433577,0.4844444444444445,0.2888888888888889,-0.6355555555555555,-0.0022396264312472794,0.00545415391248228,-0.004392305563113008
1590505118.7009475,0.04826976045405225,-4.580576746515316,8.579423253484684,0.4844444444444445,0.2888888888888889,-0.6355555555555555,-0.004363323129985824,0.002884360169392181,-0.00545415391248228
1590505118.7109475,0.061629332861127095,-4.57,8.612044800566647,0.4844444444444445,0.2888888888888889,-0.6355555555555555,-0.0031609657773811043,-0.00040078578420157316,-0.008259654401893291
1590505118.7209475,0.010537999043002472,-4.561659142447001,8.666681715105998,0.4918585400471102,0.29105133343966644,-0.6296860632034452,-0.0016973950605784099,-0.0020006771996193867,-0.01612279078036724
1590505118.7309475,-0.056929449492250137,-4.542418492784607,8.707581507215393,0.5111111111111111,0.2966666666666667,-0.6144444444444445,-0.002481042434480849,-0.004363323129985824,-0.02399827721492203
1590505118.7409475,-0.11386952151186168,-4.542260956976277,8.669043827905107,0.5111111111111111,0.2966666666666667,-0.6144444444444445,-0.0004220993178670946,-0.0026749258585174454,-0.02399827721492203
1590505118.7509475,-0.12332539498141264,-4.5333253949814125,8.62,0.5111111111111111,0.2966666666666667,-0.6144444444444445,-0.0014535751034648698,0.0007254886419368275,-0.02218455561007996
1590505118.7609475,-0.11875941112538288,-4.543746862958206,8.649974903665646,0.5111111111111111,0.2966666666666667,-0.6144444444444445,-0.002590380910253564,0.0034078196007748685,-0.016909245921397142
1590505118.7709475,-0.086771987284462,-4.556614006357769,8.703307003178884,0.5070692183369189,0.29188988429716684,-0.6173840028256751,-0.0018295400013530294,0.00545415391248228,-0.011294895480181248
1590505118.7809474,-0.06,-4.562136188293174,8.702136188293174,0.4988888888888889,0.2822222222222222,-0.6233333333333333,0.001090830782496456,0.00545415391248228,-0.00545415391248228
1590505118.7909474,-0.06358415955069058,-4.548207920224654,8.673871282021892,0.4988888888888889,0.2822222222222222,-0.6233333333333333,0.0012863163608600537,0.004281240442300693,-0.00545415391248228
1590505118.8009474,-0.07960914665596883,-4.540195426672016,8.60175884004814,0.4988888888888889,0.2822222222222222,-0.6233333333333333,0.0021603438220373673,-0.0009629243247631907,-0.00545415391248228
1590505118.8109474,0.02778331419658138,-4.644352997248641,8.874062046404818,0.4988888888888889,0.2822222222222222,-0.6233333333333333,0.0034048789685934893,-0.00295301096035859,-0.004628096372194066
1590505118.8209474,-0.05280785947120609,-4.535270735240855,8.60650217312568,0.5023207171314741,0.2840941285363596,-0.6248932552617812,0.003234860463377529,-0.005244561109108731,0.00030628995441158184
1590505118.8309474,-0.046819791414018916,-4.586819791414019,8.695606597138006,0.5111111111111111,0.2888888888888889,-0.6288888888888889,0.008247400351794573,-0.010214493940895021,-0.0008261528502118442
1590505118.8409474,-0.04412554708015506,-4.57,8.657040390146305,0.5111111111111111,0.2888888888888889,-0.6288888888888889,0.006094957320011585,-0.005517745923336331,-0.0027588729616681656
1590505118.8509474,-0.039048083061725074,-4.538572124592588,8.560636235341553,0.5111111111111111,0.2888888888888889,-0.6288888888888889,0.000935073737698946,-0.003220573332556865,-0.0018007449658499256
1590505118.8609474,-0.007918656347768812,-4.489238432405731,8.475735633130247,0.5111111111111111,0.2888888888888889,-0.6288888888888889,-0.004590362502466561,-0.0008029003124912166,-0.0010188481649951462
1590505118.8709474,-0.11151572534167627,-4.610101679565289,8.812426107360448,0.5111111111111111,0.2888888888888889,-0.6288888888888889,0.0067103246810297805,0.0029639954153408967,-7.712423303711784e-05
1590505118.8809474,-0.04730488625656212,-4.553173778435859,8.69317377843586,0.5044444444444445,0.2822222222222222,-0.6222222222222222,0.007635815477475192,5.221421809876699e-05,-0.00396490339042116
1590505118.8909473,-0.052549058084772365,-4.543725470957614,8.626764619309261,0.5044444444444445,0.2822222222222222,-0.6222222222222222,0.008967272271230248,-0.006619850877509768,-0.00545415391248228
1590505118.9009473,-0.08715071135760792,-4.5242830962141305,8.549981673498914,0.5044444444444445,0.2822222222222222,-0.6222222222222222,0.009506667866534221,-0.009819476153620013,-0.0049869405930055
1590505118.9109473,-0.05632263871439555,-4.5505160419284065,8.644709445142418,0.5044444444444445,0.2822222222222222,-0.6222222222222222,0.011365737155890851,-0.008811083423056374,-0.005482299633510522
1590505118.9209473,-0.03,-4.581578960310825,8.74663158412433,0.5023859680759795,0.2812865511456472,-0.6233450275141122,0.018727841888711284,-0.015087912368678848,-0.008186971236289796
1590505118.9309473,-0.03252399440906973,-4.54,8.737571983227209,0.4922222222222222,0.2766666666666667,-0.6288888888888889,0.01798300360717888,-0.01335482493357526,-0.010357657665712117
1590505118.9409473,-0.02368416248288453,-4.531842081241442,8.702894568690096,0.4922222222222222,0.2766666666666667,-0.6288888888888889,0.010716927015840124,-0.010018416934670555,-0.007540125072912974
1590505118.9509473,0.014602464628023726,-4.512698767685988,8.568891373801918,0.4922222222222222,0.2766666666666667,-0.6288888888888889,0.005148362827767847,-0.00793020536414345,-0.004755842978876835
1590505118.9609473,-0.0762076063359331,-4.57965570475195,8.676207606335932,0.4922222222222222,0.2766666666666667,-0.6288888888888889,3.755678548403806e-05,0.0034230001566687455,-0.0018055323756660806
1590505118.9709473,-0.02224861300956822,-4.539186459757176,8.622248613009567,0.4922222222222222,0.2766666666666667,-0.6288888888888889,0.004452066603953011,-0.00025575802538873194,-0.0003340291028430893
1590505118.9809473,-0.022516940948693127,-4.566224588576961,8.678741529525654,0.5044444444444445,0.2888888888888889,-0.6222222222222222,-0.0008162751160404264,0.0029979366810333383,-0.0017698280653088675
1590505118.9909472,-0.04115987685258109,-4.538840123147419,8.667100307868548,0.5044444444444445,0.2888888888888889,-0.6222222222222222,0.0010117539465776715,0.0010275693137614284,0.001090830782496456
1590505119.0009472,-0.08942353585886263,-4.495672541497994,8.543893121674415,0.5044444444444445,0.2888888888888889,-0.6222222222222222,-0.0071428021554068,-0.0010489091271525877,0.0002569870748701632
1590505119.0109472,-0.00044971627569871664,-4.599475331011685,8.758913185667062,0.5044444444444445,0.2888888888888889,-0.6222222222222222,-0.015230750591873569,0.005421449622020825,-0.0021693974560698668
1590505119.0209472,-0.04703357627857722,-4.5570335762785765,8.703955231628562,0.5038951067182551,0.28822968361746165,-0.6214531494055571,-0.005130567281556713,-0.004579047550602868,-0.0009829685721879336
1590505119.0309472,-0.020905749704105154,-4.530905749704106,8.73879233372786,0.499056620315575,0.2824234999342456,-0.6146792684418051,-0.002280463530840407,-0.006479116717747072,-3.293398861583196e-05
1590505119.0409472,-0.03,-4.56,8.70479535155679,0.4988888888888889,0.2822222222222222,-0.6144444444444445,-0.003980950345827587,-0.007281586478306083,-0.001062686997507328
1590505119.0509472,-0.04093046484825202,-4.556356511717249,8.611860929696505,0.4988888888888889,0.2822222222222222,-0.6144444444444445,-0.007838811417176031,-0.006544984694978735,-0.003272492347489368
1590505119.0609472,-0.08926401336776546,-4.50447820142792,8.588220416223606,0.4988888888888889,0.2822222222222222,-0.6144444444444445,-0.014836657416434022,-0.009027813652830117,-0.0018537329430028642
1590505119.0709472,-0.11849581781120405,-4.425752091094398,8.489253883461025,0.4988888888888889,0.27947185711050193,-0.6129442452925971,-0.030544565355694143,-0.01835378187996506,0.0018272393191160674
1590505119.0809472,-0.24598678078128972,-4.303009914414033,8.606856198627236,0.4988888888888889,0.27,-0.6077777777777778,-0.07309296482806055,-0.03410396800027836,0.007581093689216747
1590505119.0909472,-0.5734575574250874,-3.918240145571415,8.633457557425087,0.4988888888888889,0.27,-0.6077777777777778,-0.09187369916348578,-0.0397690258939176,0.03425163802951492
1590505119.1009471,-0.45226095455285875,-3.321942906010751,8.631290519628605,0.4988888888888889,0.27,-0.6077777777777778,-0.11802055212379416,-0.024104357354545813,0.11467711757237715
1590505119.1109471,-0.16708992525335903,-2.5405883431925527,8.662012656486448,0.4988888888888889,0.27,-0.6077777777777778,-0.15278048783601475,0.03766239966222322,0.2233603458326643
1590505119.1209471,-0.3273710276516715,-2.6624019810152704,8.96975237309121,0.4988888888888889,0.27,-0.6077777777777778,-0.1660682944225042,0.07332966997332654,0.3121788424897255
1590505119.130947,-0.44660427511352313,-2.8420766419315537,8.693770074205338,0.4852619337689667,0.281530500486088,-0.6339834607007051,-0.022041692374681676,-0.052690425020336065,0.42612448550110865
1590505119.140947,-0.4940901246404602,-3.071477468839885,8.487963566634708,0.4844444444444445,0.2822222222222222,-0.6355555555555555,0.0017217974278273384,-0.04460023239429373,0.5311736175047103
1590505119.150947,-0.45063524064367144,-3.0764882152413766,8.85658810160918,0.4844444444444445,0.2822222222222222,-0.6355555555555555,-0.04807674434716002,-0.05094436857807859,0.5785708931946334
1590505119.160947,-0.38913749495986216,-3.053426560609948,8.702843737399656,0.4844444444444445,0.2822222222222222,-0.6355555555555555,-0.02711310870777324,-0.05597564113153141,0.6028887105363221
1590505119.170947,-0.27194968321111257,-3.1324641188096862,8.83108853464359,0.48868820461668244,0.2822222222222222,-0.6355555555555555,-0.037641490057509046,-0.04869985083770294,0.6425084787407783
1590505119.180947,0.03020540480632472,-3.1479592515285293,8.900816631878383,0.5153742665213563,0.2822222222222222,-0.6355555555555555,-0.03426097650779266,-0.03940343857598291,0.6974418239236695
1590505119.190947,-0.048777108670838745,-3.227312158066675,8.775121029637502,0.5188888888888888,0.2822222222222222,-0.6355555555555555,-0.017160094448007673,-0.07183503032338018,0.8812801583883166
1590505119.200947,-0.13957354272444603,-3.359379698508285,8.799883693470305,0.5188888888888888,0.2822222222222222,-0.6355555555555555,-0.03156642829623812,-0.07633700965095219,1.0073355795603334
1590505119.210947,-0.18427049226867537,-3.383594261596987,8.722811476806026,0.5188888888888888,0.2822222222222222,-0.6355555555555555,-0.02274829253454596,-0.08857858935203672,1.1741805397211262
1590505119.220947,-0.20037877062249845,-3.36,8.769494972503335,0.519043202846203,0.2819977655570379,-0.6352048420162051,-0.02626257371082027,-0.10157121516852839,1.2777043543232127
1590505119.230947,-0.2641276846131215,-3.3648753835161602,8.725124616483841,0.5311111111111111,0.2644444444444444,-0.6077777777777778,-0.03166127979171301,-0.11525340362656603,1.4163095089800017
1590505119.240947,-0.37,-3.370499707617883,8.698916325554197,0.5311111111111111,0.2644444444444444,-0.6077777777777778,-0.02818888015535569,-0.1277999217416375,1.5140008718307205
1590505119.250947,-0.37236738454451224,-3.3342043072670733,8.654204307267074,0.5311111111111111,0.2644444444444444,-0.6077777777777778,-0.02907846071702363,-0.1318169314567742,1.6154539314911012
1590505119.260947,-0.3915094394423468,-3.3953459192564623,8.708951786232936,0.5311111111111111,0.2644444444444444,-0.6077777777777778,-0.03560407675283052,-0.14138950669677292,1.6923839439611053
1590505119.270947,-0.4463289282602381,-3.468438571013651,8.75158916642463,0.5311111111111111,0.2644444444444444,-0.6077777777777778,-0.03892623152412364,-0.13939621383399706,1.7415518345762435
1590505119.280947,-0.48894812164579604,-3.509474060822898,8.788948121645795,0.5258477439872788,0.2507596899224806,-0.6214625322997416,-0.03932727923428279,-0.14990356627599688,1.834091265062213
1590505119.290947,-0.5266084518693844,-3.4733042259346925,8.672202817289795,0.5255555555555556,0.25,-0.6222222222222222,-0.03852998714963365,-0.15441739093291204,1.9202760797578315
1590505119.300947,-0.5839420923722882,-3.5050684044786564,8.69,0.5255555555555556,0.25,-0.6222222222222222,-0.04974820042412331,-0.1511489559426733,1.9888750103008914
1590505119.310947,-0.6353068579426172,-3.5711088173547934,8.69,0.5255555555555556,0.25,-0.6222222222222222,-0.04414517368214042,-0.15915327985979172,2.0353000890201782
1590505119.320947,-0.6716117452135494,-3.5912893961708394,8.77,0.5255555555555556,0.24828080510554737,-0.6229027368679431,-0.04690572364734761,-0.16925458541619876,2.117160331159906
1590505119.330947,-0.7102190721649484,-3.622175257731959,8.77,0.5255555555555556,0.2070996563573883,-0.6392036082474226,-0.04690572364734761,-0.1734659914830479,2.1660126415353558
1590505119.340947,-0.781104701908846,-3.66,8.683314105726538,0.5255555555555556,0.19666666666666666,-0.6433333333333333,-0.05041922456436732,-0.1838620928832305,2.2623389973603807
1590505119.350947,-0.7890632234070813,-3.66,8.707189670221245,0.5255555555555556,0.19666666666666666,-0.6433333333333333,-0.05215550461105432,-0.18820279299994797,2.317031818831021
1590505119.360947,-0.7744604713486246,-3.5844604713486246,8.654460471348624,0.5255555555555556,0.19666666666666666,-0.6433333333333333,-0.04530283779074713,-0.1897918095899075,2.3949141035946857
1590505119.370947,-0.8413900780659783,-3.6495366406446736,8.72,0.5260961414701026,0.1960488541928985,-0.6433333333333333,-0.05776348680749742,-0.19963466936305513,2.437535140241063
1590505119.3809469,-0.9623342779967232,-3.612334277996723,8.717665722003277,0.5722222222222222,0.14333333333333334,-0.6433333333333333,-0.052941447883580364,-0.20071286397934787,2.4977509530912254
1590505119.3909469,-0.9840166112161612,-3.62,8.7012396179899,0.5722222222222222,0.14333333333333334,-0.6433333333333333,-0.052798021875420806,-0.20128622964113066,2.524485353666198
1590505119.4009469,-1.059668417879597,-3.6151657910602015,8.67127982085953,0.5722222222222222,0.14333333333333334,-0.6433333333333333,-0.05894103225319473,-0.20416113312418901,2.536708899696315
1590505119.4109468,-1.114190489569432,-3.5865079253588066,8.727904755215285,0.5722222222222222,0.14333333333333334,-0.6433333333333333,-0.05314596734125523,-0.20507618710933373,2.5380827271469295
1590505119.4209468,-1.1729231552354737,-3.5412527808152032,8.70542871686588,0.572454218669482,0.14119896601854295,-0.6436117290700452,-0.04958846156722016,-0.20507618710933373,2.518270326106276
1590505119.4309468,-1.2282757060442668,-3.5649753025904,8.808226311225066,0.5768472782574814,0.10078281780894804,-0.6488834005756444,-0.059076789130523534,-0.20507618710933373,2.488942768183338
1590505119.4409468,-1.2499948603216835,-3.5600051396783168,8.760035977748217,0.5777777777777777,0.09222222222222222,-0.65,-0.054544903036414724,-0.19853456632594688,2.4434811362616125
1590505119.4509468,-1.3337979968464768,-3.513445557307513,8.68551289169202,0.5777777777777777,0.09222222222222222,-0.65,-0.05047889759274823,-0.19243724011624314,2.392677933641129
1590505119.4609468,-1.3547096138915715,-3.4952903861084286,8.68,0.5777777777777777,0.09222222222222222,-0.65,-0.04777136105010242,-0.18637022284832894,2.3472005946251735
1590505119.4709468,-1.407280532738397,-3.4805438934523205,8.802929385119834,0.5777777777777777,0.09222222222222222,-0.65,-0.0479372248578251,-0.18228739982094605,2.279589651243071
1590505119.4809468,-1.4225698032709173,-3.432043138184404,8.788978430907797,0.5966666666666667,0.02666666666666667,-0.7022222222222222,-0.03627773787367071,-0.1718480697807082,2.2117521541049943
1590505119.4909468,-1.481161913217179,-3.340704694262568,8.810247475307957,0.5966666666666667,0.02666666666666667,-0.7022222222222222,-0.04241565544697295,-0.17313872942515576,2.1527472254012077
1590505119.5009468,-1.4878114051080424,-3.2875087591356595,8.697206113163277,0.5966666666666667,0.02666666666666667,-0.7022222222222222,-0.0416903084027215,-0.1651599119383898,2.1121277909231266
1590505119.5109468,-1.5602462535780435,-3.289926123926587,8.6005663832295,0.5966666666666667,0.02666666666666667,-0.7022222222222222,-0.0392860254288662,-0.1614402695996432,2.0287518483354825
1590505119.5209467,-1.6485250042094628,-3.263442498737161,8.803607509681765,0.5966666666666667,0.02666666666666667,-0.7022222222222222,-0.04506385614661104,-0.16047729781335235,1.9594178797225448
1590505119.5309467,-1.69,-3.213663165028804,8.777604201965435,0.5755555555555556,-0.012222222222222223,-0.7022222222222222,-0.036258756846857795,-0.14465059363148533,1.8493293027651176
1590505119.5409467,-1.69,-3.179822336254054,8.818213196495135,0.5755555555555556,-0.012222222222222223,-0.7022222222222222,-0.03182900271893517,-0.13652937773029383,1.7814064061369705
1590505119.5509467,-1.7533664772727273,-3.1943892045454545,8.651683238636364,0.5755555555555556,-0.012222222222222223,-0.7022222222222222,-0.03381575425739013,-0.13259172119287888,1.642603671898921
1590505119.5609467,-1.8140820734341254,-3.102721382289417,8.686803455723542,0.5755555555555556,-0.012222222222222223,-0.7022222222222222,-0.03388996844669605,-0.12376099569014863,1.5209585536684629
1590505119.5709467,-1.864409647228222,-3.136273098152148,8.77068274538037,0.5755555555555556,-0.012222222222222223,-0.7022222222222222,-0.03480494955841209,-0.11644114679642034,1.4175656880445502
1590505119.5809467,-1.936352131614332,-3.1473724590682592,8.897959345092145,0.5706405828433828,-0.06055278722525421,-0.7120521676465676,-0.033298163981016156,-0.11080279976801302,1.3160092993411872
1590505119.5909467,-1.9423276298471195,-3.020846410853498,8.571058013566873,0.5688888888888889,-0.07777777777777778,-0.7155555555555555,-0.007635815477475192,-0.07645048387611539,1.1736766028231151
1590505119.6009467,-2.05329560720043,-3.06,8.634830232401933,0.5688888888888889,-0.07777777777777778,-0.7155555555555555,-0.009493206197785563,-0.0810210570531749,1.064532825468092
1590505119.6109467,-2.0955541375604514,-3.06,8.824993619022031,0.5688888888888889,-0.07777777777777778,-0.7155555555555555,-0.033309940830001356,-0.08486246586482261,0.9930826215714448
1590505119.6209466,-2.118216507426258,-3.0189174628687083,8.766752388606125,0.5688888888888889,-0.07777777777777778,-0.7155555555555555,-0.016355675904380144,-0.06914627528939078,0.9068142822031572
1590505119.6309466,-2.1575297515484726,-2.9599603312687033,8.777529751548473,0.5598539487012937,-0.09306767655678506,-0.7294554635364712,-0.015002168649816332,-0.060673675987460284,0.8422171505539503
1590505119.6409466,-2.211362850888983,-2.922159287277754,8.862725701777967,0.5544444444444444,-0.10222222222222224,-0.7377777777777778,-0.02344031607583932,-0.06465634410762192,0.7380232413477834
1590505119.6509466,-2.2401363466933475,-2.9100272693386695,8.740136346693347,0.5544444444444444,-0.10222222222222224,-0.7377777777777778,-0.01961710634451281,-0.050133596643778464,0.6313411546995203
1590505119.6609466,-2.281278716183077,-2.9182557432366156,8.781278716183076,0.5544444444444444,-0.10222222222222224,-0.7377777777777778,-0.014231582772003966,-0.03666978771250637,0.5559438246843966
1590505119.6709466,-2.2816491068495917,-2.894947320548776,8.79,0.5544444444444444,-0.10222222222222224,-0.7377777777777778,-0.01217902825897708,-0.03290481312640975,0.4597984178094714
1590505119.6809466,-2.3008995110300643,-2.9,8.828650733454904,0.5333333333333333,-0.10222222222222224,-0.7444444444444445,-0.006299681114781403,-0.023507670054527363,0.34514099311570856
1590505119.6909466,-2.314436716316749,-2.9,8.808344925524876,0.5333333333333333,-0.10222222222222224,-0.7444444444444445,-0.0026079810558590046,-0.01612426993668257,0.2860737921729502
1590505119.7009466,-2.290105287650515,-2.86,8.700035095883504,0.5333333333333333,-0.10222222222222224,-0.7444444444444445,-0.0043518380289659965,-0.00652201449293908,0.1709733053264479
1590505119.7109466,-2.314503519283346,-2.86,8.708167839761115,0.5333333333333333,-0.10222222222222224,-0.7444444444444445,-0.001690403818608899,-0.0011991460722248874,0.10443745006752048
1590505119.7209466,-2.3859475366583793,-2.8764868841645947,8.751217210411488,0.5333333333333333,-0.10222222222222224,-0.7444444444444445,-0.0028892708579158,0.004496100188548359,0.024704281449613036
1590505119.7309465,-2.414159388646288,-2.894159388646288,8.816637554585153,0.5459194565744784,-0.11795487627365359,-0.7648968947113052,-0.006361591746829769,0.009315528161657781,-0.04546775621299775
1590505119.7409465,-2.410709821277746,-2.9092901787222543,8.756388391499712,0.5511111111111111,-0.12444444444444445,-0.7733333333333333,0.0014847961551403659,0.023069123335118638,-0.1376336271881498
1590505119.7509465,-2.419948810148076,-2.919948810148076,8.789795240592303,0.5511111111111111,-0.12444444444444445,-0.7733333333333333,-0.0021593257785008624,0.0283392645584158,-0.2221218515257971
1590505119.7609465,-2.427725968568943,-2.950903874275771,8.782274031431056,0.5511111111111111,-0.12444444444444445,-0.7733333333333333,-0.0030244339989532083,0.03257546251470933,-0.282366322440458
1590505119.7709465,-2.3950490242292823,-2.946019609691713,8.82194117092486,0.5511111111111111,-0.12444444444444445,-0.7733333333333333,0.004352627702307911,0.04296589831714687,-0.34877923350522794
1590505119.7809465,-2.4104071394307645,-3.0008142788615286,8.773257115446114,0.5044444444444445,-0.14222222222222222,-0.7944444444444444,0.00536532986771312,0.05358394440948006,-0.4483010368926283
1590505119.7909465,-2.418790374160537,-3.0175807483210746,8.840322993284298,0.5044444444444445,-0.14222222222222222,-0.7944444444444444,0.0035363917676871836,0.05632735155951898,-0.5150572775435751
1590505119.8009465,-2.3851196579119995,-3.02,8.719198717169999,0.5044444444444445,-0.14222222222222222,-0.7944444444444444,0.003272492347489368,0.05862562823249558,-0.5903233566032506
1590505119.8109465,-2.3519229076154566,-3.0410578192884072,8.714038546192272,0.5044444444444445,-0.14222222222222222,-0.7944444444444444,0.007100911929496441,0.06732738533522419,-0.6512577527719455
1590505119.8209465,-2.3328947510239275,-3.0713157469282173,8.762631493856434,0.5044444444444445,-0.14222222222222222,-0.7944444444444444,0.004076271679730909,0.07555437544251037,-0.7311722750533225
1590505119.8309464,-2.33,-3.08,8.78,0.5044444444444445,-0.18052087808670395,-0.7944444444444444,0.005314963020884039,0.0858044561062914,-0.8237875335171523
1590505119.8409464,-2.249681879557116,-3.0873016473129895,8.699681879557115,0.5044444444444445,-0.18222222222222226,-0.7944444444444444,0.006250640077676424,0.09254752113877318,-0.8802143062003213
1590505119.8509464,-2.2473654822335027,-3.0991218274111674,8.587903553299492,0.5044444444444445,-0.18222222222222226,-0.7944444444444444,0.011520169761339474,0.10584768522318529,-0.9646128014222658
1590505119.8609464,-2.236789767004633,-3.1462358154837844,8.698892096958302,0.5044444444444445,-0.18222222222222226,-0.7944444444444444,0.004073567770047868,0.10834242956418234,-1.0198338343258542
1590505119.8709464,-2.243191011235955,-3.19638202247191,8.78638202247191,0.5044444444444445,-0.18222222222222226,-0.7944444444444444,0.0007194580554218198,0.11339982658217651,-1.091780663234023
1590505119.8809464,-2.25,-3.263306351363071,8.764462432424619,0.5419563213295687,-0.19999100600991268,-0.7687784234177805,0.012720472576378474,0.12435029429003587,-1.171160689014814
1590505119.8909464,-2.1249988638372006,-3.1834607518872926,8.779230944025045,0.5466666666666666,-0.20222222222222225,-0.7655555555555555,0.00264306202701132,0.1170544576994978,-1.2431281328250308
1590505119.9009464,-2.093457371128379,-3.2507803436576554,8.60304914085586,0.5466666666666666,-0.20222222222222225,-0.7655555555555555,0.01086771655145588,0.12154447983071133,-1.293984614646858
1590505119.9109464,-2.163936400745855,-3.417114851584942,8.72787280149171,0.5466666666666666,-0.20222222222222225,-0.7655555555555555,-0.006147584315667802,0.12923010655415315,-1.360759369146205
1590505119.9209464,-2.1481672897196264,-3.43,8.718167289719627,0.5466666666666666,-0.20222222222222225,-0.7655555555555555,0.005859800238048017,0.12425184488127458,-1.4062069868321323
1590505119.9309464,-2.088325521406776,-3.4472248261977416,8.71,0.559106818920591,-0.1687295046155029,-0.7655555555555555,0.011847776356946942,0.12311251617158546,-1.4683259361920011
1590505119.9409463,-2.0424875064966215,-3.4575024987006757,8.770019989605405,0.5611111111111111,-0.16333333333333333,-0.7655555555555555,0.006270369037625352,0.11917190015793121,-1.5159954357065544
1590505119.9509463,-2.0133532121760265,-3.5349105452078797,8.6651490913202,0.5611111111111111,-0.16333333333333333,-0.7655555555555555,0.01162685456521674,0.1232573730860404,-1.5720180042420129
1590505119.9609463,-1.9813088337814957,-3.557172791554626,8.64,0.5611111111111111,-0.16333333333333333,-0.7655555555555555,0.02013184103175249,0.13530873175849933,-1.6095637205869664
1590505119.9709463,-1.933880247315327,-3.564514969085584,8.676119752684674,0.5611111111111111,-0.16333333333333333,-0.7655555555555555,0.022907446432425576,0.13765631325531635,-1.6446148656404938
1590505119.9809463,-1.8529539624679356,-3.5588861887403804,8.723704603753207,0.5730481676492207,-0.15798223902314626,-0.7865483101570586,0.02371566559461547,0.13364657870518074,-1.6915193514988363
1590505119.9909463,-1.7739418658088235,-3.5935271139705884,8.73,0.5933333333333334,-0.14888888888888888,-0.8222222222222222,0.025089107997418484,0.13381914508044038,-1.7469451954811757
1590505120.0009463,-1.7472627027027028,-3.659105945945946,8.68541945945946,0.5933333333333334,-0.14888888888888888,-0.8222222222222222,0.027173243394073603,0.14191154220313731,-1.7932463231866167
1590505120.0109463,-1.734840182648402,-3.7061187214611873,8.654840182648401,0.5933333333333334,-0.14888888888888888,-0.8222222222222222,0.03173869290441743,0.14620619159186515,-1.8266434644338485
1590505120.0209463,-1.6557228706806888,-3.7075037559228012,8.77070033514388,0.5933333333333334,-0.14888888888888888,-0.8222222222222222,0.03693217951731096,0.14675575701766547,-1.8607996090209018
1590505120.0309463,-1.5347277149866847,-3.734665855857745,8.786547002453396,0.5547950960039701,-0.16325907907949888,-0.7542904140484296,0.029650884604494193,0.14424752014144945,-1.9019458265606095
1590505120.0409462,-1.5017539770625232,-3.7717539770625232,8.683507954125046,0.5277777777777778,-0.17333333333333334,-0.7066666666666667,0.03729947147782018,0.155491854421756,-1.9410675563275355
1590505120.0509462,-1.4736728628043028,-3.734897150405737,8.715102849594263,0.5277777777777778,-0.17333333333333334,-0.7066666666666667,0.03461704861875406,0.157213181739717,-1.9747605676417512
1590505120.0609462,-1.435619270346118,-3.858927736202058,8.754380729653882,0.5277777777777778,-0.17333333333333334,-0.7066666666666667,0.03756611008050447,0.15989239954682538,-2.0031443522988144
1590505120.0709462,-1.3878389159382882,-3.858919457969144,8.710812068594668,0.5277777777777778,-0.17333333333333334,-0.7066666666666667,0.03817907738737596,0.16111863516561128,-2.018626291872963
1590505120.0809462,-1.3373119594119625,-3.85,8.649139949264953,0.5159737631209864,-0.08253322058878465,-0.6667146170590652,0.047093357610607185,0.1667915239434142,-2.0341882377988036
1590505120.0909462,-1.3034734823338496,-3.9207373804430676,8.763790415775368,0.5133333333333333,-0.06222222222222223,-0.6577777777777778,0.040406602605538675,0.15737809509614084,-2.0500845105314642
1590505120.1009462,-1.2268965968586387,-3.9218773996509597,8.641915794066318,0.5133333333333333,-0.06222222222222223,-0.6577777777777778,0.03661179342147757,0.15510276364752826,-2.0536247783747634
1590505120.1109462,-1.1664980426272291,-3.861997390169639,8.639001304915181,0.5133333333333333,-0.06222222222222223,-0.6577777777777778,0.047860734372649795,0.16201596224465678,-2.048498148117369
1590505120.1209462,-1.1059960952166403,-3.8124975595104003,8.605996095216641,0.5133333333333333,-0.06222222222222223,-0.6577777777777778,0.04515975547667013,0.15151522433783862,-2.045198527616158
1590505120.1309462,-1.0626325928354783,-3.8931437003033036,8.592102221493565,0.5182449381096811,0.0016286398702990215,-0.652047572205372,0.027215016386504642,0.1575940194387577,-2.0289473568060927
1590505120.1409461,-1.0224257627733366,-3.897793510948574,8.648309733577138,0.52,0.024444444444444446,-0.65,0.03696017829379772,0.16186802589179686,-2.0088528391753298
1590505120.1509461,-0.9689937855840435,-3.8910062144159565,8.597572656569792,0.52,0.024444444444444446,-0.65,0.047712531693821746,0.15806070249611437,-1.9879712108574017
1590505120.1609461,-0.7004958302235779,-3.6291735081286305,8.085082584287893,0.52,0.024444444444444446,-0.65,0.030885834526086658,0.1455673096527689,-1.9579240549601222
1590505120.1709461,-0.7747655039130518,-3.687592659918486,8.952469719293546,0.52,0.024444444444444446,-0.65,-0.0021533998616290184,0.1995426123834839,-1.916429402999795
1590505120.180946,-0.7407299734748011,-3.6507299734748013,8.63539522546419,0.52,0.0820953728264073,-0.6299823165340407,0.04556223678016257,0.07915588978857543,-1.8903127576105776
1590505120.190946,-0.7775269395103862,-3.8816668906027463,8.547258216214763,0.52,0.10444444444444444,-0.6222222222222222,0.09082047857698833,0.16947769413969013,-1.8031784006374536
1590505120.200946,-0.813321287991224,-4.087418693940763,8.935649641866167,0.52,0.10444444444444444,-0.6222222222222222,0.040207183596363445,0.13529455166146082,-1.772607905214716
1590505120.210946,-0.7341655192944592,-3.9723931083243404,8.47723104975254,0.52,0.10444444444444444,-0.6222222222222222,0.025918891157311035,0.1184179561341075,-1.7185692930807825
1590505120.220946,-0.7314444687842279,-4.031642059145674,8.737333625410734,0.52,0.10444444444444444,-0.6222222222222222,0.047010768381627,0.1303960239930367,-1.645013203444358
1590505120.230946,-0.7142667591950035,-4.061400138792505,8.782733934767522,0.5106839694656489,0.15695298018351453,-0.625609869689259,0.04576157008877963,0.11848120996229292,-1.5726969007220293
1590505120.240946,-0.592387069404378,-3.853093331070762,8.831595961310029,0.5077777777777778,0.17333333333333334,-0.6266666666666667,0.026189194089455893,0.10636062894817493,-1.517692303837355
1590505120.250946,-0.5369501446987636,-3.7692903183372795,8.546527887398053,0.5077777777777778,0.17333333333333334,-0.6266666666666667,0.03669349844878271,0.10338132784739777,-1.4373285457453167
1590505120.260946,-0.5736981261650151,-3.9227359462376143,8.874359119003238,0.5077777777777778,0.17333333333333334,-0.6266666666666667,0.029423589874006603,0.09943024784299333,-1.3365537399496936
1590505120.270946,-0.5222056252979501,-3.952661687589385,8.873689814079135,0.5077777777777778,0.17333333333333334,-0.6266666666666667,0.03338431014208207,0.09158003705107899,-1.2558700304153314
1590505120.280946,-0.4932705625854993,-3.9709646460328316,8.69423520861833,0.5117097963216295,0.19643394227846178,-0.6207686388508892,0.04002451759712779,0.08497957447604097,-1.1781563519710363
1590505120.290946,-0.4721274272258813,-4.02082073507832,8.760820735078319,0.5166666666666667,0.2255555555555556,-0.6133333333333333,0.03744635983996178,0.07895093926783721,-1.0817059679243803
1590505120.300946,-0.4285039941902687,-3.903543936092956,8.655039941902688,0.5166666666666667,0.2255555555555556,-0.6133333333333333,0.03957054018291338,0.07055187720009122,-0.9942538375534709
1590505120.310946,-0.3908028686373972,-3.8647446213048804,8.642992828406507,0.5166666666666667,0.2255555555555556,-0.6133333333333333,0.038975305628648954,0.06664418931169684,-0.929276301307871
1590505120.320946,-0.34,-3.952455758873315,8.749253336901615,0.5166666666666667,0.2255555555555556,-0.6133333333333333,0.03748041729432149,0.06501906859407296,-0.8625641963608627
1590505120.330946,-0.32005112781954886,-3.959897744360902,8.799642105263157,0.5085393483709274,0.25732598162071846,-0.6177664160401002,0.029441276767523145,0.05561563836749751,-0.7506310078560762
1590505120.340946,-0.33081654517572423,-4.091021574270529,8.835305758040459,0.5044444444444445,0.2733333333333333,-0.62,0.027849537981912545,0.055120307544323933,-0.6793199741535281
1590505120.350946,-0.2640520729761602,-4.0577230790575065,8.61114320068444,0.5044444444444445,0.2733333333333333,-0.62,0.019276077391215035,0.045166074675886445,-0.6212909996336363
1590505120.360946,-0.2732264733658337,-4.056573164195105,8.616412874243855,0.5044444444444445,0.2733333333333333,-0.62,0.02252926540384778,0.041812265842148345,-0.5604006370113981
1590505120.370946,-0.2579017303059064,-4.0905245674235235,8.674737716288238,0.5044444444444445,0.2733333333333333,-0.62,0.021587729932699445,0.03680213945834241,-0.5134988150349492
1590505120.380946,-0.2022173606733657,-3.9992317104824058,8.693710185768847,0.5097133746152991,0.28782289130318345,-0.6285620115276388,0.014220317458022507,0.027754522618092275,-0.45830222497635686
1590505120.390946,-0.21126373626373626,-3.9654395604395605,8.67456043956044,0.5133333333333333,0.2977777777777777,-0.6344444444444445,0.02359670764114586,0.02740862180415545,-0.401857265411112
1590505120.400946,-0.22,-3.9335225955967554,8.62016222479722,0.5133333333333333,0.2977777777777777,-0.6344444444444445,0.019670346045434356,0.02039461723705714,-0.35972262250457576
1590505120.410946,-0.18275965438194322,-4.011080938106154,8.68512078998413,0.5133333333333333,0.2977777777777777,-0.6344444444444445,0.0170126130414211,0.014621479650976123,-0.32548190037588487
1590505120.420946,-0.1636622950819672,-4.054459016393443,8.66436393442623,0.5133333333333333,0.2977777777777777,-0.6344444444444445,0.014569922759783811,0.016070619796949428,-0.2877432779507209
1590505120.4309459,-0.2146788795398871,-4.0,8.693050378102035,0.5200764487994225,0.312708962024118,-0.6411875599105337,0.011236056641390432,0.017270654753398996,-0.24506665471184466
1590505120.4409459,-0.26,-3.9631740590937135,8.769522177281141,0.5288888888888889,0.3322222222222222,-0.65,0.008499012825960595,0.00958984360845705,-0.19968851352629816
1590505120.4509459,-0.24675194948995216,-3.9697441515301435,8.709744151530144,0.5288888888888889,0.3322222222222222,-0.65,0.010866444716978441,0.006176722977703682,-0.16229111419865525
1590505120.4609458,-0.2465078953570587,-3.950952627857648,8.593334197501768,0.5288888888888889,0.3322222222222222,-0.65,0.008501590104657623,0.00512518217802966,-0.12786976550289503
1590505120.4709458,-0.25512798215433474,-3.960767892926009,8.632815607395365,0.5288888888888889,0.3322222222222222,-0.65,0.004894777833878195,0.003244570972777655,-0.08377154783890323
1590505120.4809458,-0.2549273816619091,-4.010290473352364,8.74507261833809,0.5536883563195555,0.35533081687352525,-0.6421092603629698,0.002703312660672151,-0.002798369842948105,-0.01968131926923567
1590505120.4909458,-0.256245387673483,-3.998773061632585,8.706282286285619,0.5777777777777777,0.37777777777777777,-0.6344444444444445,0.0024533630070682905,-0.013085944375762527,0.060506895807896297
1590505120.5009458,-0.2502308740364695,-3.882308740364695,8.767922133671775,0.5777777777777777,0.37777777777777777,-0.6344444444444445,0.002206846015578927,-0.017428108069357278,0.11606409801188439
1590505120.5109458,-0.25406567530079677,-3.7893771168671977,8.545866584948872,0.5777777777777777,0.37777777777777777,-0.6344444444444445,0.0036480427149479877,-0.011383929891575464,0.16604963191813116
1590505120.5209458,-0.27,-3.8335788240462767,8.36162510068097,0.5777777777777777,0.37777777777777777,-0.6344444444444445,0.00288210320400766,-0.01792401831137367,0.20160717429195674
1590505120.5309458,-0.27,-3.8888599253130263,8.644172951599913,0.5777777777777777,0.37777777777777777,-0.6344444444444445,-0.003148129491199774,-0.0420449490922034,0.22103792408762515
1590505120.5409458,-0.3082716610600964,-3.9960618238021635,8.763654332212019,0.7822222222222223,0.4955555555555556,-0.7144444444444444,-0.003272492347489368,-0.04363323129985824,0.3665191429188092
1590505120.5509458,-0.23642345859768993,-3.8621172929884495,8.705293232471124,0.7822222222222223,0.4955555555555556,-0.7144444444444444,-0.002492212056186795,-0.044023371445509524,0.3803691180894299
1590505120.5609457,-0.22523702901167691,-3.9213997833152763,8.505237029011678,0.7822222222222223,0.4955555555555556,-0.7144444444444444,-0.012619679108937512,-0.04467235037389832,0.4765305894682133
1590505120.5709457,-0.22538371802349805,-4.0776976918590115,8.625407049412548,0.7822222222222223,0.4955555555555556,-0.7144444444444444,-0.019549967268701375,-0.05017948852470573,0.5504586089080925
1590505120.5809457,-0.20270672653447053,-4.1134586546931065,8.687368251444777,0.9989645829901915,0.577410383292395,-0.9438685390871353,-0.013467250090484044,-0.05743675077178559,0.618738942761213
1590505120.5909457,-0.16598554166375637,-4.168173500034924,8.598173500034925,1.4088888888888889,0.7322222222222222,-1.3777777777777778,-0.01593243806374355,-0.05584738174417089,0.6672136158079616
1590505120.6009457,-0.1551039260969977,-4.25958429561201,8.640623556581986,1.4088888888888889,0.7322222222222222,-1.3777777777777778,-0.019612280927794247,-0.05881416962624079,0.7028250443261173
1590505120.6109457,-0.13408377308707123,-4.274694591029023,8.594083773087071,1.4088888888888889,0.7322222222222222,-1.3777777777777778,-0.01493848144815892,-0.06268945504286708,0.7191906351719559
1590505120.6209457,-0.10115066070304926,-4.284137004472713,8.603561674121188,1.4088888888888889,0.7322222222222222,-1.3777777777777778,-0.014443800937805748,-0.06114928262555629,0.7207133876590508
1590505120.6309457,-0.0837203003394247,-4.318601501697123,8.648601501697124,1.2650372757644672,0.4209570938236896,-1.216151396364994,-0.014359270515446802,-0.06283644572856861,0.706936100587268
1590505120.6409457,-0.08505742317427777,-4.2560910403112775,8.778851536514445,1.022222222222222,-0.10444444444444444,-0.9433333333333334,-0.0006017904607659883,-0.07517962943967228,0.66569491656704
1590505120.6509457,-0.0995113112233692,-4.130733033164946,8.592208159455303,1.022222222222222,-0.10444444444444444,-0.9433333333333334,-0.005214269370208048,-0.06268377752487693,0.615841599602702
1590505120.6609457,-0.13362630932178593,-4.059121072034642,8.394468371467024,1.022222222222222,-0.10444444444444444,-0.9433333333333334,-0.014280697777615549,-0.05036996833087884,0.5539703923578613
1590505120.6709456,-0.15449922660479504,-4.012249613302397,8.553744199535963,1.022222222222222,-0.10444444444444444,-0.9433333333333334,-0.011862995670473107,-0.053233892015101605,0.4930857793916634
1590505120.6809456,-0.16801527455529777,-4.019007637277649,8.655114559164733,1.022222222222222,-0.10444444444444444,-0.9433333333333334,-0.008177065379946485,-0.02964393815573122,0.4407455692661854
1590505120.6909456,-0.15380868271822998,-4.03238263456354,8.74620898019894,0.64,0.16333333333333333,-0.75,-0.0018705461201012946,-0.036050552880115515,0.3243467750801989
1590505120.7009456,-0.155391829797948,-4.084514382828727,8.619216340404105,0.64,0.16333333333333333,-0.75,-0.0013370521701739466,-0.026265422780935153,0.23937051444874063
1590505120.7109456,-0.15413138017853056,-4.135211718928817,8.62173723964294,0.64,0.16333333333333333,-0.75,-0.0018488445741328117,-0.022835789660950068,0.1659655716927762
1590505120.7209456,-0.14892435034439575,-4.09261623356293,8.628459416092673,0.64,0.16333333333333333,-0.75,0.000856160431393489,-0.013996846280712492,0.09978866805762118
1590505120.7309456,-0.1363981542518128,-4.090663590419688,8.666398154251812,0.6257818794404161,0.1818168900607925,-0.7424170023682218,-0.002574561986585571,-0.005759183851793418,0.04339013734696703
1590505120.7409456,-0.16,-4.115906255978572,8.664161469294049,0.5733333333333334,0.25,-0.7144444444444444,0.0020498519758930913,-0.008858455849071467,-0.022629051891799923
1590505120.7509456,-0.16360614525139666,-4.059181564245811,8.605243016759777,0.5733333333333334,0.25,-0.7144444444444444,0.004399582588957075,-0.0010015532910798465,-0.08560096509772608
1590505120.7609456,-0.17732326283987918,-4.035117824773414,8.654882175226586,0.5733333333333334,0.25,-0.7144444444444444,-0.002340507618516565,0.0013571121336315426,-0.1299209122004767
1590505120.7709455,-0.22599252128252048,-3.9479027766727666,8.677977563847561,0.5733333333333334,0.25,-0.7144444444444444,0.004800471244508431,0.006332529149147618,-0.19747708270043962
1590505120.7809455,-0.22762577855229613,-3.866187110723852,8.701941782037629,0.5631656285969385,0.2576257785522961,-0.7280013840929709,0.00545415391248228,0.011324229524231852,-0.24685704432409292
1590505120.7909455,-0.2292182765151515,-3.8869543087121214,8.743045691287879,0.5466666666666666,0.27,-0.75,0.00957051646545547,0.01670355295371609,-0.3074791663966232
1590505120.8009455,-0.17491072025680465,-3.9250297599143984,8.98051583851624,0.5466666666666666,0.27,-0.75,0.028391899173570788,0.04203918706603693,-0.3540189550620707
1590505120.8109455,-0.13,-4.02612907961051,8.842849244018202,0.5466666666666666,0.27,-0.75,0.04833084386521986,0.0637901423365013,-0.40556620925686077
1590505120.8209455,-0.14167428369296076,-4.134592854616201,8.658078528475416,0.5466666666666666,0.27,-0.75,0.034030339618112415,0.051942714851809874,-0.4597088128088653
1590505120.8309455,-0.16541280509373896,-4.164266006367174,9.162522108241953,0.5466666666666666,0.27,-0.75,-0.005459092941140206,0.026695372723763114,-0.5050245550899749
1590505120.8409455,-0.04940862469973692,-4.206474625386052,8.278248751286842,0.5733333333333334,0.25,-0.7566666666666667,0.023420191385588967,0.041836960287754035,-0.5866775930587136
1590505120.8509455,0.0,-4.27947894332295,8.561092074922126,0.5733333333333334,0.25,-0.7566666666666667,0.014180800172453925,0.04954754290417602,-0.666974115682073
1590505120.8609455,-0.03160415478817026,-4.262346364560351,8.663703116091128,0.5733333333333334,0.25,-0.7566666666666667,0.018490148284668783,0.05169998158855492,-0.7302768254970607
1590505120.8709455,-0.0907965037547704,-4.140825639131683,8.689203496245229,0.5733333333333334,0.25,-0.7566666666666667,0.023518820178879535,0.05471530928763831,-0.798044172850568
1590505120.8809454,-0.09236537080726229,-3.9603220843163403,8.692043286490922,0.5503103452205924,0.23824358053817485,-0.735848007203018,0.021206694776466386,0.06154986675449411,-0.8529242700661815
1590505120.8909454,-0.025494915641543207,-3.842525421792284,8.742969493849259,0.4688888888888889,0.19666666666666666,-0.6622222222222223,0.02323506541215544,0.07024876290280992,-0.9099836100878951
1590505120.9009454,0.02039729823346034,-4.000595947350191,8.67158919293384,0.4688888888888889,0.19666666666666666,-0.6622222222222223,0.026572441383606427,0.07247401127703558,-0.9937877253934699
1590505120.9109454,-1.249446293957831,-5.746297019094631,7.130505873799411,0.4688888888888889,0.19666666666666666,-0.6622222222222223,-0.1255424637645752,0.21611552152237679,-1.4341511650108103
1590505120.9209454,-5.147318475073313,-10.033578885630499,-1.7100129032258062,0.4688888888888889,0.19666666666666666,-0.6622222222222223,-1.7966401406093024,0.7397914560672741,-4.401737135856093
1590505120.9309454,2.284368109921713,1.0980180540022368,0.4032984502316664,0.4653286822531111,0.20794065434662973,-0.662391755871545,-3.326839736511666,0.16824744634167058,-5.340043671120139
1590505120.9409454,0.20683853206728417,-0.6097508340526795,0.0404896997410354,0.4222222222222222,0.34444444444444444,-0.6644444444444444,-2.865852375605512,-0.5940023680506059,-0.8358997119889682
1590505120.9509454,-0.03537365904097195,-0.5464409978027659,-0.07014243246736461,0.4222222222222222,0.34444444444444444,-0.6644444444444444,-2.816268819060332,-0.3758900800550704,-0.6276623403821832
1590505120.9609454,2.2116883747626828,-1.4822162126363194,6.767202304737517,0.4222222222222222,0.34444444444444444,-0.6644444444444444,-2.5497579791950433,-0.06230402178221614,-0.45097650795110567
1590505120.9709454,2.4373239668063422,-2.8382811601347466,13.395912414756388,0.4222222222222222,0.34444444444444444,-0.6644444444444444,-1.3422958235528122,0.6567562230301937,-0.39734526260124786
1590505120.9809453,-1.2188984456863432,-2.1529804837582955,8.226383164512749,0.4133701294291147,0.3707324775876121,-0.6521051635813249,0.7314553572093245,1.0604801448050238,-0.43908072649824637
1590505120.9909453,0.025713305042436345,-0.11100723914128804,-0.5088173989016475,0.3855555555555555,0.4533333333333333,-0.6133333333333333,2.32498865614028,-0.15862043796724704,-0.47856347547690437
1590505121.0009453,0.5229781975283834,-1.2692424394654878,3.6231200643022206,0.3855555555555555,0.4533333333333333,-0.6133333333333333,3.7342111522134127,0.08415052030645377,-0.4706089934027491
1590505121.0109453,2.1429008165993433,-2.4535596175641508,10.787535962337625,0.3855555555555555,0.4533333333333333,-0.6133333333333333,4.793531720393656,-0.0003903545452227791,-0.49158463088034726
1590505121.0209453,2.6790558497549064,-2.3718115243026165,13.438586136976593,0.3855555555555555,0.4533333333333333,-0.6133333333333333,4.096722901361498,-0.2427140902826873,-0.335563660056868
1590505121.0309453,-0.21396806122824452,-0.09013945615778046,-1.2251977775324723,0.3897782847424088,0.46210361702910546,-0.6247022196056305,1.3990684867801988,-0.4431253907526408,-0.0012504195226519521
1590505121.0409453,0.5198902174818765,0.124302974752104,-0.323446796100325,0.4,0.4833333333333333,-0.6522222222222223,0.02231958308055526,-0.017309655711007288,0.25864183216730596
1590505121.0509453,1.241268656716418,-0.8184803256445047,3.8935278154681137,0.4,0.4833333333333333,-0.6522222222222223,-0.8152276489913939,0.4892224349652364,0.41499820865814285
1590505121.0609453,2.8063059701492534,-2.9810773405698776,13.852856173677068,0.4,0.4833333333333333,-0.6522222222222223,-1.7697025485437359,0.7763409006842337,0.5453655120116334
1590505121.0709453,0.2494571082840044,-1.176913366255682,3.9867953036596138,0.4,0.4833333333333333,-0.6522222222222223,-0.6082145589956648,-0.30018955344698367,0.3989173915245097
1590505121.0809453,0.9901844523661576,-3.8723378683324063,13.918028583575891,0.4,0.4833333333333333,-0.6522222222222223,0.24019403878407475,0.15319281891150155,0.45876984992166947
1590505121.0909452,0.5504794873683435,-3.7373982961380765,10.502947877537993,0.38222222222222224,0.3922222222222223,-0.6755555555555556,0.59270858733085,0.1479562744217492,0.448801999759746
1590505121.1009452,0.46206456806338175,-3.8880705842477647,11.25061814176164,0.38222222222222224,0.3922222222222223,-0.6755555555555556,-0.19842254914275181,-0.1681577372377039,0.38610141102772344
1590505121.1109452,0.2966257749986752,-2.9741600869058344,9.520800434529171,0.38222222222222224,0.3922222222222223,-0.6755555555555556,-0.4882479332334758,-0.018162670685530524,0.4341136853859287
1590505121.1209452,0.40049579947665614,-2.949008401046688,8.97920672083735,0.38222222222222224,0.3922222222222223,-0.6755555555555556,0.032723270928604276,-0.03648416582035696,0.4642075764820887
1590505121.1309452,0.256083872744801,-3.237832254510398,9.21026580360832,0.38222222222222224,0.3922222222222223,-0.6755555555555556,0.3509318005068397,0.10529191171450036,0.5264315216223873
1590505121.1409452,0.2216987587042083,-3.6976893732970026,10.782875567665759,0.4088888888888889,0.38222222222222224,-0.6888888888888889,-0.08173575568227426,-0.08574200759154099,0.5412411058233287
1590505121.1509452,0.24366386001223012,-3.035096664941907,8.519836304623924,0.4088888888888889,0.38222222222222224,-0.6888888888888889,-0.07997351044077185,-0.058688533049342476,0.6117516440387241
1590505121.1609452,1.6396174158835637,-13.234010066698072,7.568196176638318,0.4088888888888889,0.38222222222222224,-0.6888888888888889,-0.004387584249519169,-0.04861985153089861,0.7409361322248361
1590505121.1709452,5.199517221547703,-27.564382069141796,8.224770272860885,0.4088888888888889,0.38222222222222224,-0.6888888888888889,-0.2651738427466194,-0.1546477436366089,1.3221903696668675
1590505121.1809452,7.812746501373891,-13.560153364432232,10.717388970541247,0.4088888888888889,0.38222222222222224,-0.6888888888888889,-0.6065138348113873,-0.4038917207117393,2.442691885374125
1590505121.1909451,-2.3767626286406136,1.1026979215712651,7.791174413129751,0.4355555555555555,0.3888888888888889,-0.6888888888888889,-0.0035145486299576444,-0.09181424450330801,0.40225498534107124
1590505121.2009451,-1.9253682652855315,0.1716970471514092,15.333221900854241,0.4355555555555555,0.3888888888888889,-0.6888888888888889,0.9925592335823614,0.34826366751428706,0.20734868398129713
1590505121.2109451,-1.1167587752053771,-0.7350186706497386,9.186825989544435,0.4355555555555555,0.3888888888888889,-0.6888888888888889,0.48142704573518347,-0.03104101964560302,0.11507572293675832
1590505121.2209451,-1.3686162627209426,-3.314781902785217,12.665022094268881,0.4355555555555555,0.3888888888888889,-0.6888888888888889,-0.5756173851118707,0.052008804744386634,0.023548828056145707
1590505121.230945,-0.5051004284949115,-3.153311462238886,11.232849491162293,0.4355555555555555,0.3888888888888889,-0.6888888888888889,-0.3405128781882231,-0.0674579805327763,0.04192833348340154
1590505121.240945,1.114514540179475,-4.884394440321166,7.728707239727414,0.4544444444444444,0.3688888888888889,-0.7111111111111111,0.23242916826232926,0.11236727305273289,0.07040204647750303
1590505121.250945,-0.14010593077390188,-2.6392841238782805,9.634221037716754,0.4544444444444444,0.3688888888888889,-0.7111111111111111,-0.03202549935195573,-0.04815773919562688,-0.8135145273772473
1590505121.260945,-4.693161172075099,-7.757290457504053,7.674743990412859,0.4544444444444444,0.3688888888888889,-0.7111111111111111,0.013516515317807733,0.14437535144387162,-0.8310268893808637
1590505121.270945,-0.1395043359972794,-4.677889814657371,9.03038768916851,0.4544444444444444,0.3688888888888889,-0.7111111111111111,0.021849075331435135,-0.06291112888822827,0.16569016602161693
1590505121.280945,2.1451737944049167,-6.021117996582766,9.361678014944024,0.4533721809943981,0.3688888888888889,-0.7098601370860571,0.01029803455573223,-0.08435246198440856,0.5193115071277205
1590505121.290945,-0.5372459285616533,-4.162616668947584,8.508903517175312,0.4477777777777778,0.3688888888888889,-0.7033333333333334,-0.020583067715651278,0.008834699266728311,-0.08083765205485938
1590505121.300945,-0.9050544662309369,-4.835337690631809,8.303485838779956,0.4477777777777778,0.3688888888888889,-0.7033333333333334,0.00873377587292914,0.03986641912064934,-0.19973373046651888
1590505121.310945,0.2997956911159525,-4.821800048414428,8.865297990801258,0.4477777777777778,0.3688888888888889,-0.7033333333333334,-0.01341713940678466,-0.005912139124092511,0.03432760765579029
1590505121.320945,0.04658173126883508,-4.688099760989297,8.737218746752571,0.4477777777777778,0.3688888888888889,-0.7033333333333334,-0.00742853155677759,-0.0052746650357281604,0.024799617853768954
1590505121.330945,0.07945772087386184,-4.765900742720408,8.52271139563069,0.44711499217916445,0.3699734471411652,-0.7029718139159079,-0.016625143851047793,-0.004245016177286466,-0.0041267092245871086
1590505121.340945,0.07282887621669452,-4.55111763838364,8.581315504866778,0.4355555555555555,0.3888888888888889,-0.6966666666666667,-2.1583885063161147e-05,-0.0006387489364716612,-0.0006171650514085002
1590505121.350945,0.08,-4.63,8.61,0.4355555555555555,0.3888888888888889,-0.6966666666666667,0.00545415391248228,0.003272492347489368,-0.002181661564992912
1590505121.360945,0.08977916978734028,-4.62022083021266,8.61488958489367,0.4355555555555555,0.3888888888888889,-0.6966666666666667,0.00438741196935327,0.0016723794327958535,-0.002181661564992912
1590505121.370945,0.08615987460815047,-4.575399686520376,8.60615987460815,0.4355555555555555,0.3888888888888889,-0.6966666666666667,0.001007907125833324,0.0007548617405520146,-0.002181661564992912
1590505121.380945,0.08563620359869323,-4.588181017993466,8.622544814394773,0.4355555555555555,0.3888888888888889,-0.6966666666666667,-0.002459257752748751,0.00047601634430926817,-0.0003372182504313484
1590505121.390945,0.08296434945370652,-4.617035650546294,8.625928698907412,0.4441546840010253,0.37638106569547825,-0.6763414539773744,-0.002828382291828838,0.0007674704190784929,-0.001211580474739023
1590505121.400945,0.07273270726460368,-4.649069170941585,8.692672927353964,0.4477777777777778,0.3711111111111111,-0.6677777777777778,0.003367509069835317,0.0002980921203781375,-0.000596184240756275
1590505121.410945,0.07925422567382366,-4.5711186614892645,8.61186443581544,0.4477777777777778,0.3711111111111111,-0.6677777777777778,0.008401240823256167,0.001090830782496456,-0.002140985885403477
1590505121.420945,0.06328688899040658,-4.59506966651439,8.651782777523984,0.4477777777777778,0.3711111111111111,-0.6677777777777778,0.0014341758757536772,0.001090830782496456,-0.0012701027669656656
1590505121.430945,0.06888548029983728,-4.617770960599675,8.62445807880065,0.4477777777777778,0.3711111111111111,-0.6677777777777778,-0.008723299885495509,-0.0018169358460020464,-0.00012157523966362181
1590505121.440945,0.07842310694769711,-4.67896174863388,8.62,0.44309827391794604,0.36923930956717843,-0.6921111978489027,-0.012573932345310436,-0.0003440246964313569,0.0
1590505121.450945,0.07,-4.6370312378684755,8.647406247573695,0.44222222222222224,0.3688888888888889,-0.6966666666666667,-0.005130312200584537,-0.0006664290341781966,-0.003272492347489368
1590505121.460945,0.06813998747315676,-4.564880100214745,8.63,0.44222222222222224,0.3688888888888889,-0.6966666666666667,0.0041604272379748624,0.0013700779969490653,-0.002663804671456483
1590505121.470945,0.06314264697561252,-4.626857353024388,8.631047548991871,0.44222222222222224,0.3688888888888889,-0.6966666666666667,0.0027011430042364476,-0.002181661564992912,0.0
1590505121.4809449,0.08687545974084762,-4.603124540259152,8.638958486580282,0.44222222222222224,0.3688888888888889,-0.6966666666666667,-0.0016136041156874347,-0.002181661564992912,0.0
1590505121.4909449,0.08,-4.628903893024175,8.657259732560437,0.4355555555555555,0.3711111111111111,-0.7111111111111111,-0.006186284525937018,-0.001031047420989503,-0.001090830782496456
1590505121.5009449,0.08,-4.610484816547,8.611212041367498,0.4355555555555555,0.3711111111111111,-0.7111111111111111,-0.00015865584399922094,-2.644264066653675e-05,-0.001090830782496456
1590505121.5109448,0.0693062749099871,-4.63514392436991,8.56693725090013,0.4355555555555555,0.3711111111111111,-0.7111111111111111,0.006772005699811594,0.003272492347489368,-0.0010151571142188363
1590505121.5209448,0.061230529295107534,-4.578613705065753,8.647694707048926,0.4355555555555555,0.3711111111111111,-0.7111111111111111,0.009414787272308016,0.003272492347489368,-0.00013422992338669646
1590505121.5309448,0.06,-4.593670167612643,8.66,0.4355555555555555,0.3711111111111111,-0.7111111111111111,0.0033624401777876,0.001981484974553267,0.0006455036864680504
1590505121.5409448,0.06715177398160316,-4.602848226018397,8.66,0.4403234048766243,0.3750843188786684,-0.6952182800408819,-0.004991518386791437,0.0018709683033554523,-0.0012495817800805334
1590505121.5509448,0.07989233638521533,-4.6593540183112925,8.630322990844356,0.44222222222222224,0.37666666666666665,-0.6888888888888889,-0.008703157702939255,0.0011025750610126521,-2.348855703239233e-05
1590505121.5609448,0.07071986781583531,-4.64143973563167,8.555758942526683,0.44222222222222224,0.37666666666666665,-0.6888888888888889,-0.0026528139486978967,7.85253972841642e-05,0.0
1590505121.5709448,0.06236928716422617,-4.60184643582113,8.633937841193513,0.44222222222222224,0.37666666666666665,-0.6888888888888889,0.0036450099525641316,0.0008323816453652919,-0.0016647632907305838
1590505121.5809448,0.06816688047602151,-4.59,8.684500641428064,0.44222222222222224,0.37666666666666665,-0.6888888888888889,0.0018906800643968516,-0.000690906141546258,0.001381812283092516
1590505121.5909448,0.06316842819742073,-4.603663143605159,8.67633685639484,0.43235439628516326,0.3812210478683862,-0.6888888888888889,-0.0026352136250476776,-0.0003456219009876292,-0.0007991739610423952
1590505121.6009448,0.06943198143441265,-4.638295944303238,8.622840092827936,0.42777777777777776,0.38333333333333336,-0.6888888888888889,-0.007449931836563541,-0.0010288695688592388,-0.00012392242727443442
1590505121.6109447,0.07724616626311542,-4.647246166263115,8.562030669895076,0.42777777777777776,0.38333333333333336,-0.6888888888888889,-0.002893210748539026,-0.00030039666100709495,0.001580868242978722
1590505121.6209447,0.0796047699508633,-4.5896047699508635,8.64237138029482,0.42777777777777776,0.38333333333333336,-0.6888888888888889,0.00549726682285887,0.002138548654616321,-4.311291037659088e-05
1590505121.6309447,0.07145875818135913,-4.581458758181359,8.691247450911845,0.42777777777777776,0.38333333333333336,-0.6888888888888889,0.006385858862134227,0.0012499566153409641,-0.0009317049496519478
1590505121.6409447,0.07973775043145494,-4.601311247842725,8.688951001725819,0.44222222222222224,0.3711111111111111,-0.7111111111111111,-0.0022674825356125213,0.0011194377727029923,0.001033616802083383
1590505121.6509447,0.0718697006077887,-4.640651496961056,8.657478802431156,0.44222222222222224,0.3711111111111111,-0.7111111111111111,-0.004842295819373806,0.0019777088672900873,-0.0006829253870908067
1590505121.6609447,0.07904677299396744,-4.637140318981902,8.566672589042229,0.44222222222222224,0.3711111111111111,-0.7111111111111111,-0.002960549539223193,0.0026486067309570175,0.002181661564992912
1590505121.6709447,0.07038158003470787,-4.611144740104124,8.627328939757046,0.44222222222222224,0.3711111111111111,-0.7111111111111111,-0.00012487177435362498,-0.003022748798782118,0.002181661564992912
1590505121.6809447,0.07,-4.601673554148063,8.67995867511162,0.44222222222222224,0.3711111111111111,-0.7111111111111111,0.0027248230332246643,-0.002364218003081147,0.00036511287617646917
1590505121.6909447,0.07,-4.606922872612116,8.696922872612115,0.44222222222222224,0.37495715145117536,-0.7111111111111111,0.00025181932805041314,-0.001426493310133173,0.0007551682548597387
1590505121.7009447,0.07,-4.61,8.685254381393818,0.44222222222222224,0.37666666666666665,-0.7111111111111111,-0.005916323187269182,0.0005176666857611193,-0.0005176666857611193
1590505121.7109447,0.07989285331618987,-4.639785706632379,8.56032144005143,0.44222222222222224,0.37666666666666665,-0.7111111111111111,-0.007554000246815434,-1.1687890094251107e-05,0.0010791428924022048
1590505121.7209446,0.0724027643844423,-4.624805528768885,8.582791706846674,0.44222222222222224,0.37666666666666665,-0.7111111111111111,-0.0018347065475450676,-0.0008287298471328749,0.0002621009353635811
1590505121.7309446,0.07,-4.612674158459125,8.63395504924525,0.44222222222222224,0.37666666666666665,-0.7111111111111111,0.0047947520762865285,-0.00029170543644870125,-0.0023973760381432647
1590505121.7409446,0.06407924620380277,-4.61,8.685524522777184,0.449458699084241,0.36943018980464787,-0.7025589111832706,0.006544984694978735,0.0019375621489424071,-0.0019807842481944296
1590505121.7509446,0.0684092705862772,-4.61,8.642725835309783,0.4544444444444444,0.3644444444444445,-0.6966666666666667,0.004710366452208098,0.003272492347489368,-0.002008139903881775
1590505121.7609446,0.07713376749756719,-4.624267534995134,8.572929860019464,0.4544444444444444,0.3644444444444445,-0.6966666666666667,-0.0026402367333812713,0.0017161457111855689,-0.0006253149286891129
1590505121.7709446,0.08,-4.63,8.569596688132474,0.4544444444444444,0.3644444444444445,-0.6966666666666667,-0.0033164868474936412,2.199725000213656e-05,-0.0010688335324943194
1590505121.7809446,0.07187919331423864,-4.597516773256954,8.659328873543375,0.4544444444444444,0.3644444444444445,-0.6966666666666667,-0.0006149645740299104,-0.001771685182306305,-0.00020498819134330342
1590505121.7909446,0.06034285202757139,-4.59,8.689657147972428,0.4362031649409681,0.3826857239479207,-0.6687682391907618,0.005267157139724182,-0.0011282301370480754,0.0
1590505121.8009446,0.052818337059662344,-4.59,8.675636674119325,0.4355555555555555,0.38333333333333336,-0.6677777777777778,0.0007537665095816836,-0.001090830782496456,0.0
1590505121.8109446,0.07933931669054982,-4.6095595444603665,8.581982049928351,0.4355555555555555,0.38333333333333336,-0.6677777777777778,-0.00642486907974042,0.0010427845364011296,-0.0010668076594487928
1590505121.8209445,0.0720191806726743,-4.625961638654651,8.611923277309302,0.4355555555555555,0.38333333333333336,-0.6677777777777778,-0.008286129373336643,0.00022025844331750215,-0.00022025844331750215
1590505121.8309445,0.07,-4.63,8.64893622888659,0.4355555555555555,0.38333333333333336,-0.6677777777777778,-0.003991966880143183,-0.0015782264599428215,0.0007891132299714108
1590505121.8409445,0.07598235717714835,-4.618035285645703,8.671964714354296,0.42691437296634127,0.38333333333333336,-0.6750895476609591,0.0017337820514402992,-0.0015290876289207102,0.0004382568464242542
1590505121.8509445,0.06421349126101401,-4.594213491261014,8.624747219413548,0.4211111111111111,0.38333333333333336,-0.68,0.0035023026459540625,-0.001090830782496456,-0.002583061452095284
1590505121.8609445,0.06,-4.607427123552124,8.592572876447877,0.4211111111111111,0.38333333333333336,-0.68,-0.0014800183577669702,0.0008101734996060793,-0.00042098592433556514
1590505121.8709445,0.07765341219582757,-4.6335378829277705,8.59,0.4211111111111111,0.38333333333333336,-0.68,-0.002181661564992912,0.001090830782496456,-0.0006418961813102357
1590505121.8809445,0.09,-4.644478504799243,8.60656448560227,0.4211111111111111,0.38333333333333336,-0.68,-0.000977058178914461,0.001090830782496456,-0.0004885290894572305
1590505121.8909445,0.07925433504363133,-4.613135837609078,8.652236994869105,0.4354386643862693,0.386318240265658,-0.68,0.0023443404225600775,0.0005047456768564366,-0.0005860851056400194
1590505121.9009445,0.08249356580998296,-4.596246782904991,8.673753217095008,0.4477777777777778,0.3888888888888889,-0.68,0.004363323129985824,-0.002044254925301203,-0.00040941247406272175
1590505121.9109445,0.07906746958763779,-4.6,8.615337347938189,0.4477777777777778,0.3888888888888889,-0.68,0.00018938388345164214,-0.00207993827705103,-0.0005962770352191688
1590505121.9209445,0.07,-4.616460112222493,8.597433520370823,0.4477777777777778,0.3888888888888889,-0.68,-0.005068012057053551,-0.000492324212641728,-0.001090830782496456
1590505121.9309444,0.07,-4.623342136082853,8.633315727834294,0.4477777777777778,0.3888888888888889,-0.68,-0.005818724404329099,-0.0007262602906496371,-0.0018170910731460932
1590505121.9409444,0.07892789621226938,-4.62,8.657855792424538,0.43686590462944846,0.37301707340041,-0.6819839769360598,-0.0015586243079714988,-0.00011694838136876076,-0.0002338967627375215
1590505121.9509444,0.08656777789105244,-4.613432222108948,8.68627111156421,0.4355555555555555,0.3711111111111111,-0.6822222222222222,0.0017749029359674046,0.0014328668592319303,0.0007164334296159651
1590505121.9609444,0.07190797137626893,-4.6190460143118655,8.573355799633882,0.4355555555555555,0.3711111111111111,-0.6822222222222222,0.0012989581734320836,0.002181661564992912,-0.0008827033915608281
1590505121.9709444,0.07733281550525226,-4.62,8.589331262021009,0.4355555555555555,0.3711111111111111,-0.6822222222222222,0.00029094469494680953,-0.00021799669765602738,0.0013088274801524833
1590505121.9809444,0.08,-4.613507666902572,8.619476999292287,0.4355555555555555,0.3711111111111111,-0.6822222222222222,-0.0014164073585791444,-0.001090830782496456,5.7050527124194884e-05
1590505121.9909444,0.07439798050859733,-4.626806058474208,8.641204038982806,0.44613714792820497,0.36301930517908504,-0.6903140281542482,-0.00279274709552963,-0.001090830782496456,0.00013134027857698025
1590505122.0009444,0.0781314362078453,-4.615605691376464,8.658131436207846,0.4544444444444444,0.3566666666666667,-0.6966666666666667,0.00027551602108019093,0.0015701754939307134,-0.0015701754939307134
1590505122.0109444,0.07141864919122229,-4.61,8.599930544338555,0.4544444444444444,0.3566666666666667,-0.6966666666666667,0.002962991106019575,0.0012455814032313526,-0.0031177417267544715
1590505122.0209444,0.0786159585991094,-4.592768082801781,8.607231917198218,0.4544444444444444,0.3566666666666667,-0.6966666666666667,-0.0014267840828224194,0.001090830782496456,-0.0023326370614270104
1590505122.0309443,0.08,-4.611034289035258,8.631034289035258,0.4544444444444444,0.3566666666666667,-0.6966666666666667,-0.003711318229498694,0.001090830782496456,-0.001416833232740021
1590505122.0409443,0.08,-4.61167629331994,8.673294826720241,0.4442710251688152,0.3788632178134941,-0.6827938221998996,-0.005271298677093936,0.0001828552353883437,-0.001998806329604568
1590505122.0509443,0.08717382356976265,-4.617173823569763,8.672826176430236,0.44222222222222224,0.38333333333333336,-0.68,-0.0023239828812439928,-0.0007825427578095717,-0.0013991188071833401
1590505122.0609443,0.08166979418886199,-4.611669794188862,8.611688559322033,0.44222222222222224,0.38333333333333336,-0.68,-0.00018214629016443545,-0.0029081997671604972,0.0016352226944996056
1590505122.0709443,0.08,-4.616832864378166,8.620498593134498,0.44222222222222224,0.38333333333333336,-0.68,-0.0022360496388979124,0.00045425705067381975,-5.438807390500044e-05
1590505122.0809443,0.07558042328042329,-4.62,8.634419576719578,0.44222222222222224,0.38333333333333336,-0.68,-0.0027903913143574686,0.000735358465597214,-0.001090830782496456
1590505122.0909443,0.07,-4.62,8.643638739756994,0.44222222222222224,0.38333333333333336,-0.6832344353395499,-0.0017847366313506934,-0.0002969809152120191,-0.0006939058488542375
1590505122.1009443,0.07,-4.61496603075111,8.634898092253328,0.44222222222222224,0.38333333333333336,-0.6888888888888889,-0.0005417099210134263,0.0016399516439794858,-0.0010982417229660594
1590505122.1109443,0.07,-4.60313499344692,8.59253997378768,0.44222222222222224,0.38333333333333336,-0.6888888888888889,0.0007488560470139497,0.002930517612006862,-0.0014328055179789623
1590505122.1209443,0.07579900157191964,-4.6,8.6089950078596,0.44222222222222224,0.38333333333333336,-0.6888888888888889,0.001723403724735984,0.0020073464630103116,0.0001743151019826003
1590505122.1309443,0.08480256165690149,-4.5951974383430985,8.644407684970705,0.44222222222222224,0.38333333333333336,-0.6888888888888889,0.0011339051469558472,0.001090830782496456,4.30743644593912e-05
1590505122.1409442,0.09,-4.611462354155588,8.66,0.43745281018764703,0.38333333333333336,-0.6888888888888889,-0.0031215728770341822,-0.00046995565602063515,-0.001090830782496456
1590505122.1509442,0.08172774209797255,-4.62,8.651727742097973,0.4355555555555555,0.38333333333333336,-0.6888888888888889,-0.0016562330619014944,0.0016162592855878735,0.0007138959295597636
1590505122.1609442,0.08798120890870623,-4.612018791091294,8.58615032873035,0.4355555555555555,0.38333333333333336,-0.6888888888888889,-0.0002202159465812852,-0.0004301829427526007,0.0037026752902419684
1590505122.1709442,0.0738356633101965,-4.61,8.642739515104116,0.4355555555555555,0.38333333333333336,-0.6888888888888889,0.0008816278019937263,0.0015540526234847226,-0.0009264436819765333
1590505122.1809442,0.07638513829847002,-4.59722972340306,8.647229723403061,0.4355555555555555,0.38333333333333336,-0.6888888888888889,-0.0003021902987971699,0.002878172105639725,-0.001485151024346099
1590505122.1909442,0.07317681805852748,-4.6036463638829455,8.653646363882945,0.4355555555555555,0.38712398996748476,-0.6888888888888889,-0.0025794181617628895,0.0017839049682229346,-0.0018351244721296726
1590505122.2009442,0.08365809103364287,-4.6168290455168215,8.66,0.4355555555555555,0.3888888888888889,-0.6888888888888889,-0.003272492347489368,0.001090830782496456,-0.001436728258511088
1590505122.2109442,0.08681374090247453,-4.616813740902475,8.650441222707425,0.4355555555555555,0.3888888888888889,-0.6888888888888889,-0.00118709064473527,0.0007432638320374397,-0.001090830782496456
1590505122.2209442,0.08192954876273653,-4.6119295487627365,8.63578864628821,0.4355555555555555,0.3888888888888889,-0.6888888888888889,0.00200960563545679,0.00021048111867209634,-0.001090830782496456
1590505122.2309442,0.07455608479231034,-4.599112169584621,8.64088783041538,0.4355555555555555,0.3888888888888889,-0.6888888888888889,0.0026786533189045204,0.0011876780571696951,-0.001090830782496456
1590505122.2409441,0.0911500357471147,-4.611150035747115,8.65,0.42537220501064843,0.3802722076585829,-0.6826222116304845,0.0014126245635311405,-0.0008944864408541738,-0.00032179378103468453
1590505122.2509441,0.07515176404704126,-4.62621205898824,8.631363823035281,0.4211111111111111,0.37666666666666665,-0.68,0.00041320026579089197,-0.0008264005315817839,0.0
1590505122.2609441,0.0669247745154481,-4.616150450969104,8.571526578391863,0.4211111111111111,0.37666666666666665,-0.68,0.0022661271609893275,0.0007553757203297757,0.0
1590505122.270944,0.07,-4.61,8.585349360326163,0.4211111111111111,0.37666666666666665,-0.68,0.0027216327705559687,-1.0888371370342811e-05,0.0
1590505122.280944,0.07345043408035534,-4.61,8.637252170401776,0.4211111111111111,0.37666666666666665,-0.68,0.002181661564992912,-0.00033806284093116496,0.0003763839707826455
1590505122.290944,0.08,-4.6145963685437374,8.674596368543737,0.43336809389440967,0.38534869613816986,-0.6907248599353863,-0.0008266546121311019,8.80587234551181e-05,0.001090830782496456
1590505122.300944,0.09121665582303189,-4.614391672088484,8.685608327911515,0.4477777777777778,0.3955555555555556,-0.7033333333333334,-0.0025280021127211294,-0.001090830782496456,-0.0007444902347682385
1590505122.310944,0.08708946330682729,-4.622910536693173,8.612536779840964,0.4477777777777778,0.3955555555555556,-0.7033333333333334,-0.001090830782496456,-0.0024991518668427354,-6.917993847349287e-05
1590505122.320944,0.07333133487996246,-4.609994004639887,8.616680655840263,0.4477777777777778,0.3955555555555556,-0.7033333333333334,0.0010914847748327548,-0.00036273827105042086,0.001090830782496456
1590505122.330944,0.07,-4.5950694867113,8.664652566443499,0.4477777777777778,0.3955555555555556,-0.7033333333333334,0.002719497131875041,0.001090830782496456,0.0005529952156143273
1590505122.340944,0.07,-4.598516184168358,8.685741907915821,0.4506165058338971,0.39035122078600343,-0.7066451827321393,0.0018790349714512718,-0.001231598177567038,0.0009289715840253976
1590505122.350944,0.07553856054917946,-4.615538560549179,8.630152955057385,0.4544444444444444,0.38333333333333336,-0.7111111111111111,-0.0012083264675530837,-0.00315499666243274,-0.00023499137011325551
1590505122.360944,0.07359386833893787,-4.613593868338938,8.551563210033626,0.4544444444444444,0.38333333333333336,-0.7111111111111111,-8.525988120939264e-05,-0.0014828610037317391,-0.0007840604424705661
1590505122.370944,0.06300676539650803,-4.603006765396508,8.585945876827935,0.4544444444444444,0.38333333333333336,-0.7111111111111111,0.0026165178974381434,-0.0018536743399672996,-0.0007628435574708436
1590505122.380944,0.07097325717744071,-4.6,8.626459885766161,0.4544444444444444,0.38333333333333336,-0.7111111111111111,0.0014769973404789932,-0.0015831632293227872,-0.001090830782496456
1590505122.390944,0.08,-4.605787131882202,8.657361395646607,0.45894554701949064,0.38333333333333336,-0.6982508180395505,-0.0006312781599472928,-0.001090830782496456,-0.001090830782496456
1590505122.400944,0.08,-4.61,8.659664793435912,0.4622222222222222,0.38333333333333336,-0.6888888888888889,-0.002781925002031422,-0.001090830782496456,-0.0005271327093181341
1590505122.410944,0.08481527764426929,-4.619630555288539,8.606662501201576,0.4622222222222222,0.38333333333333336,-0.6888888888888889,-0.003838057821922229,-0.0016160960905600512,-0.0005252653080635952
1590505122.420944,0.08164290464373186,-4.6258214523218655,8.589249833746939,0.4622222222222222,0.38333333333333336,-0.6888888888888889,-0.003272492347489368,-0.0008142350349615898,-0.000635021939152682
1590505122.430944,0.07197564717788008,-4.62,8.635926941533642,0.4622222222222222,0.38333333333333336,-0.6888888888888889,-0.0017639246176006905,0.0004443017554013084,0.0
1590505122.440944,0.07659361572720674,-4.616593615727207,8.666812768545586,0.4531385308281068,0.38333333333333336,-0.6843470431918312,0.003620165365630884,-0.0010669249184605018,0.0
1590505122.450944,0.07,-4.61,8.68,0.4355555555555555,0.38333333333333336,-0.6755555555555556,0.0018406721247525228,6.78624617752885e-05,0.0003409894402403891
1590505122.460944,0.0657461987461267,-4.61,8.62895438495352,0.4355555555555555,0.38333333333333336,-0.6755555555555556,0.00016279531242704905,-0.0017176438299582085,0.00016279531242704905
1590505122.470944,0.06732368699201807,-4.6136618434960095,8.570985530488027,0.4355555555555555,0.38333333333333336,-0.6755555555555556,0.00010750469934287356,-0.0018897211037226757,-0.001090830782496456
