time,acc_x,acc_y,acc_z,mag_x,mag_y,mag_z,gyr_x,gyr_y,gyr_z
1590505164.6150105,0.02,-4.61,8.67,0.4622222222222222,0.3022222222222222,-0.62,0.00545415391248228,-0.007635815477475192,0.0
1590505164.6250105,0.0129202833313516,-4.592920283331352,8.60292028333135,0.4622222222222222,0.3022222222222222,-0.62,0.008408092764826685,-0.004865259823214179,0.0
1590505164.6350105,0.019911288832137636,-4.6,8.610221777919655,0.4622222222222222,0.3022222222222222,-0.62,0.0076213001465768706,-0.008746000034502743,4.8384436327738095e-06
1590505164.6450105,0.0058173020380046705,-4.6,8.645456744904989,0.4622222222222222,0.3022222222222222,-0.62,0.005315176950106053,-0.011820830963130498,0.0007735461757897128
1590505164.6550105,0.0,-4.6,8.669560981290273,0.4739078660214442,0.3022222222222222,-0.5998157061649804,0.006449205670446208,-0.01308996938995747,0.0021337720527266476
1590505164.6650105,0.0014125247779164525,-4.5907062623889585,8.647528081638647,0.4744444444444445,0.3022222222222222,-0.5988888888888889,0.00888072881085067,-0.009855997680187861,-0.0042092405791068
1590505164.6750104,0.04978081678531285,-4.607554795803672,8.604452041963283,0.4744444444444445,0.3022222222222222,-0.5988888888888889,0.01175631738653531,-0.008507734218804668,0.0002667304006844322
1590505164.6850104,0.07597227426002248,-4.601006931434994,8.669930685650057,0.4744444444444445,0.3022222222222222,-0.5988888888888889,0.00818501138005279,-0.0020793834071361345,0.000980991601980936
1590505164.6950104,0.1077306302561315,-4.652269369743869,8.778067342435966,0.4720823074217376,0.3022222222222222,-0.6016805053702697,0.008827277693076955,0.005069243040968565,-0.0055915149466482066
1590505164.7050104,0.0963497930812809,-4.593138334203865,8.712918960183213,0.4622222222222222,0.3022222222222222,-0.6133333333333333,0.02547133047538673,-0.0025559073784742585,-0.025893436275789453
1590505164.7150104,0.0030766681611727326,-4.5365383340805865,8.579230004483518,0.4622222222222222,0.3022222222222222,-0.6133333333333333,0.02846641145091236,-0.00545415391248228,-0.04917137869351678
1590505164.7250104,-0.029628062925203216,-4.520185968537398,8.481115811224392,0.4622222222222222,0.3022222222222222,-0.6133333333333333,0.01865569641528325,-0.00545415391248228,-0.05987397691420308
1590505164.7350104,-0.23049777573247432,-4.59248868691517,8.617420808406196,0.4622222222222222,0.3022222222222222,-0.6133333333333333,-4.9362644705700995e-06,0.007917161635922805,-0.02568141790113712
1590505164.7450104,0.09745739375210355,-4.597457393752103,8.665762322920173,0.4632580988417356,0.3015630280098046,-0.6133333333333333,0.003919654752183132,0.0009797885277044937,0.004899443279887625
1590505164.7550104,0.07,-4.567427728361273,8.60971091344509,0.4744444444444445,0.29444444444444445,-0.6133333333333333,0.010347125208071283,-0.011157364682121102,-0.00052964816560318
1590505164.7650104,0.07,-4.557850344601246,8.569251723006236,0.4744444444444445,0.29444444444444445,-0.6133333333333333,0.007319700091540052,-0.007554191119611984,0.0017943038667122537
1590505164.7750103,0.0444841658504734,-4.56822559582109,8.595612144955926,0.4744444444444445,0.29444444444444445,-0.6133333333333333,0.0001935574698944901,-0.0016820090714106308,0.00396570231096614
1590505164.7850103,-0.005144708045172021,-4.592282937932242,8.728006478158102,0.4744444444444445,0.29444444444444445,-0.6133333333333333,-0.003272492347489368,0.0019326316678910773,0.0038336929377524487
1590505164.7950103,-0.019831918060054275,-4.570252122909919,8.77941171321019,0.4744444444444445,0.29444444444444445,-0.6133333333333333,-0.003272492347489368,0.004335820786874647,0.005435819017074827
1590505164.8050103,0.006446050813224191,-4.578815350271075,8.788815350271074,0.46954702762718076,0.29444444444444445,-0.5937436660642784,-0.007118914521160086,0.0034017175865681446,0.00545415391248228
1590505164.8150103,-0.018098733003708282,-4.598732488669138,8.761901266996292,0.4688888888888889,0.29444444444444445,-0.5911111111111111,-0.006614116713822055,-0.001836001470776315,0.00851925020344169
1590505164.8250103,-0.06827049613371115,-4.628345900773258,8.564962297680227,0.4688888888888889,0.29444444444444445,-0.5911111111111111,-0.003280717717685417,-0.009440157831309203,0.03051036042911657
1590505164.8350103,-0.10184477210508622,-4.621631045578983,8.585106863263052,0.4688888888888889,0.29444444444444445,-0.5911111111111111,0.0011141447298674244,-0.016764928577230602,0.04808981021932793
1590505164.8450103,-0.0356845198784837,-4.5766338660678905,8.569050653810592,0.4688888888888889,0.29444444444444445,-0.5924592377346307,0.0018507815105743264,-0.022674756997247688,0.10069267902951691
1590505164.8550103,0.21066839663442635,-4.476263269639066,8.502941731540458,0.4688888888888889,0.29444444444444445,-0.6,-0.014986078098543158,0.006336202582483935,0.12959622102304597
1590505164.8650103,-0.11276355038999492,-4.669713856420001,8.827334335019996,0.4688888888888889,0.29444444444444445,-0.6,-0.046375914967363194,0.04547236472003251,0.11510893190647756
1590505164.8750103,0.10529363404675125,-4.6848088569784325,8.692404428489217,0.4688888888888889,0.29444444444444445,-0.6,-0.038474899957971036,0.009097709878483844,0.07686035962378156
1590505164.8850102,0.252590346122992,-4.4333346377350376,8.59629810796533,0.4688888888888889,0.29444444444444445,-0.6,0.0010503426885326577,0.0052926284010863765,0.052561464300730304
1590505164.8950102,0.0,-4.580197158023145,8.8,0.4688888888888889,0.29444444444444445,-0.5999890467764919,-0.008629866541673603,0.014159293568387693,0.0054326473084160476
1590505164.9050102,-0.0019420847532243075,-4.601942084753224,8.788347491480655,0.4688888888888889,0.29444444444444445,-0.5988888888888889,0.0008789821993930452,0.011363592858150784,0.0028487951812825466
1590505164.9150102,-0.008780877533384423,-4.608780877533385,8.747314734799694,0.4688888888888889,0.29444444444444445,-0.5988888888888889,0.00013298563142172812,0.009125603154236831,0.001356802045339912
1590505164.9250102,-0.007964541914326707,-4.59,8.613716335314614,0.4688888888888889,0.29444444444444445,-0.5988888888888889,0.0008687967488630822,0.004566017777948785,0.002606390246589247
1590505164.9350102,0.0,-4.589337329981306,8.551988010056082,0.4688888888888889,0.29444444444444445,-0.5988888888888889,7.228608550289156e-05,0.0006571142694791067,0.0
1590505164.9450102,0.0,-4.58032488880294,8.579025333591181,0.4688888888888889,0.29444444444444445,-0.5988888888888889,0.001055390911782976,-0.0052415146882014,0.0
1590505164.9550102,0.025810316210580074,-4.58860343873686,8.58,0.46315326306431553,0.29444444444444445,-0.5807260737777399,0.0020293203634453904,-0.00545415391248228,-0.0037539583237957367
1590505164.9650102,0.03583939913765126,-4.592080300431174,8.592080300431174,0.4622222222222222,0.29444444444444445,-0.5777777777777777,0.006998835844411866,-0.0034556208311195625,-0.00022692557471656535
1590505164.9750102,0.0181789451506426,-4.598178945150642,8.618210548493574,0.4622222222222222,0.29444444444444445,-0.5777777777777777,0.009322585065859697,0.0015891701490347975,-0.0006935382452377566
1590505164.9850101,0.004156412930135558,-4.5929217935349325,8.708765380604795,0.4622222222222222,0.29444444444444445,-0.5777777777777777,0.011999138607461015,0.010479596540373408,0.001090830782496456
1590505164.9950101,-0.03,-4.609341275865483,8.759011913798224,0.4622222222222222,0.29422486973293877,-0.5785096934827967,0.012214705576392364,0.020833568351898334,0.0011267586106516808
1590505165.0050101,-0.024978547592563165,-4.592510726203718,8.712424916573971,0.4622222222222222,0.2877777777777778,-0.6,0.016626979101834187,0.022902766243147424,0.0013600283361619567
1590505165.01501,-0.007739039220566796,-4.6,8.650956156882268,0.4622222222222222,0.2877777777777778,-0.6,0.01057946440946817,0.018895056400069336,-0.0015018850518669425
1590505165.02501,0.01463215161967073,-4.6,8.561471393521316,0.4622222222222222,0.2877777777777778,-0.6,0.007325706594850323,0.011574101317179179,-0.0055690823201392506
1590505165.03501,0.029303934158300255,-4.6,8.530696065841699,0.4622222222222222,0.2877777777777778,-0.6,0.003500279361520484,0.0016982628199127634,-0.004515181139339901
1590505165.04501,0.005088897751841976,-4.5667851970024556,8.57151850374693,0.4622222222222222,0.2877777777777778,-0.6,0.005084078824703197,-0.005249721887751946,-0.01160966903884114
1590505165.05501,-0.03236603736023093,-4.561183018680115,8.647098112080693,0.4544444444444444,0.2877777777777778,-0.5911111111111111,-0.0013489254210041115,-0.01373520598622661,-0.019951500951909694
1590505165.06501,-0.046282557483659045,-4.568141278741829,8.688847672450976,0.4544444444444444,0.2877777777777778,-0.5911111111111111,-0.002866982274590788,-0.0175303481201933,-0.015397330391149664
1590505165.07501,0.0,-4.581385566638083,8.634156699914248,0.4544444444444444,0.2877777777777778,-0.5911111111111111,-0.003758755633977498,-0.012820523306435192,-0.007031247981466866
1590505165.08501,0.0007742399342645851,-4.589225760065736,8.661548479868529,0.4544444444444444,0.2877777777777778,-0.5911111111111111,-0.00025336942600015256,-0.0040254972286522875,-0.003188035872155984
1590505165.09501,0.009390304026294167,-4.580609695973706,8.678780608052588,0.4544444444444444,0.2877777777777778,-0.5911111111111111,-0.0030729698066646258,-0.0002660300544329898,-0.002248169078601159
1590505165.10501,-0.01090321571897639,-4.581806431437953,8.684580705686141,0.4622222222222222,0.2877777777777778,-0.5844444444444444,-0.005552679463431691,0.003469543449388191,-0.000893779680597633
1590505165.11501,-0.015555344958301746,-4.601481551680566,8.619629138236037,0.4622222222222222,0.2877777777777778,-0.5844444444444444,-0.006544984694978735,0.004969317258776027,0.0007676063466922875
1590505165.12501,0.009639478764478765,-4.609278957528958,8.56,0.4622222222222222,0.2877777777777778,-0.5844444444444444,-0.0063090240981086045,0.002181661564992912,-0.001051504016351434
1590505165.13501,0.0003936138760224697,-4.589606386123977,8.56314891100818,0.4622222222222222,0.2877777777777778,-0.5844444444444444,0.00017174645295322147,0.002181661564992912,4.293661323830537e-05
1590505165.14501,0.008660687888045727,-4.581339312111954,8.629285503104366,0.4622222222222222,0.2877777777777778,-0.5844444444444444,0.0037789379783498,0.002181661564992912,0.00094473449458745
1590505165.15501,0.001474543334628838,-4.58,8.681474543334629,0.4688888888888889,0.29444444444444445,-0.6055555555555555,0.002020813839039101,-0.004202475404032013,-0.0008495591935657397
1590505165.16501,0.017775748153905944,-4.58,8.697775748153905,0.4688888888888889,0.29444444444444445,-0.6055555555555555,0.00024262823817439638,-0.0024242898031673083,0.0018177192077313178
1590505165.17501,0.009371976845610974,-4.598115930536832,8.65937197684561,0.4688888888888889,0.29444444444444445,-0.6055555555555555,0.0033409990463821753,0.0027297151561353704,0.002250168263885719
1590505165.18501,0.001057211957814606,-4.573171635873444,8.651057211957815,0.4688888888888889,0.29444444444444445,-0.6055555555555555,0.004247999195265072,0.009985716347198546,0.0031571684127686163
1590505165.19501,0.016651884196402175,-4.561674057901799,8.666651884196401,0.4688888888888889,0.29444444444444445,-0.6055555555555555,0.007087981310186087,0.016357624185365086,0.0014560535606891927
1590505165.20501,-0.009504147036167887,-4.590247926481916,8.668016588144672,0.4622222222222222,0.2877777777777778,-0.5988888888888889,0.006599073862632752,0.01966199866876322,0.0032454477636623597
1590505165.21501,0.005522992314995612,-4.5977614961574975,8.607908030740017,0.4622222222222222,0.2877777777777778,-0.5988888888888889,0.00823828048034405,0.020481601977618863,0.0024258444548067113
1590505165.22501,0.00040395480225988704,-4.58,8.5220197740113,0.4622222222222222,0.2877777777777778,-0.5988888888888889,0.006324661528457559,0.011646621541027132,-0.00035251706643388297
1590505165.23501,0.008302824858757062,-4.58,8.561514124293785,0.4622222222222222,0.2877777777777778,-0.5988888888888889,0.0020164962261742395,0.004753557057373823,-0.007245581550087195
1590505165.24501,-0.045638772899519675,-4.564103207742994,8.617690376771018,0.4622222222222222,0.2877777777777778,-0.5988888888888889,-0.0006432402511928486,-0.0027967562704231987,-0.009593681776816302
1590505165.25501,-0.038088842298368605,-4.56,8.695733473104895,0.4565415517069844,0.2837201559811794,-0.603758035044807,-0.002684255135901378,-0.008346884013498129,-0.007427340512360721
1590505165.2650099,0.000545063351661487,-4.570817595027492,8.708364809945015,0.4544444444444444,0.2822222222222222,-0.6055555555555555,-0.005483882506602432,-0.01294132641935671,-0.0010313735942561518
1590505165.2750099,0.01597123889736847,-4.593956858346052,8.662086283307895,0.4544444444444444,0.2822222222222222,-0.6055555555555555,-0.006325249863674993,-0.0087344896339939,0.0006513611198889721
1590505165.2850099,0.0007555097510702394,-4.580755509751071,8.66075550975107,0.4544444444444444,0.2822222222222222,-0.6055555555555555,-0.007635815477475192,-0.0015223549306379904,0.002099248235698547
1590505165.2950099,0.007405739654352307,-4.587405739654352,8.667405739654352,0.4544444444444444,0.2822222222222222,-0.6055555555555555,-0.007635815477475192,0.004281065460704817,0.0013738206867806959
1590505165.3050098,0.0004956344046070978,-4.570991268809214,8.660495634404608,0.4797894193654922,0.2938386690610358,-0.6055555555555555,-0.005562284565564225,0.004471453783067769,0.003164361694407424
1590505165.3150098,-0.016227696857080063,-4.57,8.64377230314292,0.4811111111111111,0.29444444444444445,-0.6055555555555555,-0.0063392374755184755,0.0061334902560582156,0.0006172416583807793
1590505165.3250098,-0.018453463960811756,-4.58,8.496959412176347,0.4811111111111111,0.29444444444444445,-0.6055555555555555,-0.008810996715860981,-0.0015969335178324605,0.00016870091177866815
1590505165.3350098,0.0,-4.5806711730069285,8.582684692027712,0.4811111111111111,0.29444444444444445,-0.6055555555555555,-0.009963904277735691,-0.007928669948010364,0.0022182683738098084
1590505165.3450098,0.0,-4.5924597029188154,8.629838811675263,0.4811111111111111,0.29444444444444445,-0.6055555555555555,-0.012535762539389105,-0.013072386471317194,0.0028612329392231624
1590505165.3550098,0.0,-4.6,8.690374583015153,0.46963626863872027,0.29444444444444445,-0.5967806760178449,-0.013518129569285487,-0.019013144150120592,0.0026098217443209287
1590505165.3650098,0.012601382443360943,-4.6,8.71,0.4622222222222222,0.29444444444444445,-0.5911111111111111,-0.01308996938995747,-0.017289290899625533,0.002181661564992912
1590505165.3750098,0.01092087124345189,-4.590920871243452,8.61012958367797,0.4622222222222222,0.29444444444444445,-0.5911111111111111,-0.010118831452190037,-0.012300493017182949,0.0031720408775820575
1590505165.3850098,0.0034239365058280477,-4.583423936505828,8.63288031747086,0.4622222222222222,0.29444444444444445,-0.5911111111111111,-0.0105348142911775,-0.008412452363914032,0.002555155098779971
1590505165.3950098,0.0,-4.586313888066331,8.668941664198993,0.4622222222222222,0.29444444444444445,-0.5911111111111111,-0.013663261208960938,-0.0037900313109823567,0.004247876602990197
1590505165.4050097,0.026596632025068193,-4.576701683987466,8.666701683987466,0.47034897089654865,0.29001167244026643,-0.6058870177917045,-0.01237038846258284,-5.729695717253663e-06,0.006904775158666052
1590505165.4150097,0.030629779577148,-4.598110661268556,8.650629779577148,0.4744444444444445,0.2877777777777778,-0.6133333333333333,-0.01090830782496456,0.001090830782496456,0.006613682989872799
1590505165.4250097,0.0027031210136916374,-4.565878901267114,8.53398826430819,0.4744444444444445,0.2877777777777778,-0.6133333333333333,-0.010163900928355915,0.0018352376791051013,0.00580057779837009
1590505165.4350097,-0.01,-4.583740756850805,8.581222270552415,0.4744444444444445,0.2877777777777778,-0.6133333333333333,-0.010737613447407751,-0.0014988840547656822,0.007294426722361577
1590505165.4450097,-0.002530522303615032,-4.612408433089155,8.65975582157108,0.4744444444444445,0.2877777777777778,-0.6133333333333333,-0.008463926964848328,-0.004626042425109144,0.007635815477475192
1590505165.4550097,0.0,-4.62,8.661396119412496,0.46927669983680437,0.2877777777777778,-0.599897197353469,-0.0035770783537275854,-0.004439469631545378,0.0035770783537275854
1590505165.4650097,0.009519385042745278,-4.591441844871764,8.650480614957255,0.4688888888888889,0.2877777777777778,-0.5988888888888889,0.002957930593548366,-0.007478534600504691,0.00015728087697050109
1590505165.4750097,0.037833844438249234,-4.608555896292167,8.612888207415667,0.4688888888888889,0.2877777777777778,-0.5988888888888889,0.002260425203874033,-0.0025754797593985175,0.0010120671436153346
1590505165.4850097,0.04,-4.60054419284149,8.65727903579255,0.4688888888888889,0.2877777777777778,-0.5988888888888889,0.002181661564992912,0.0019442126437482486,-0.0020035748740594144
1590505165.4950097,0.018126331252295267,-4.621873668747704,8.667291222915901,0.4688888888888889,0.2877777777777778,-0.5988888888888889,0.002181661564992912,0.006953755804218319,-0.0005909634852511096
1590505165.5050097,-0.008578798127839843,-4.59284240374432,8.67,0.4626959561796089,0.30738873135716427,-0.6050818215981688,0.003194977809974673,0.012779911239898693,0.0010133162449817612
1590505165.5150096,-0.01,-4.618378301416673,8.63216226477777,0.4622222222222222,0.3088888888888889,-0.6055555555555555,0.004304356505498343,0.012058105231948496,0.001090830782496456
1590505165.5250096,-0.0015849881194840466,-4.603169976238968,8.554264893075356,0.4622222222222222,0.3088888888888889,-0.6055555555555555,0.005281258529419843,0.011081203208026996,0.001090830782496456
1590505165.5350096,-0.00962045099352534,-4.6,8.616963607948202,0.4622222222222222,0.3088888888888889,-0.6055555555555555,0.008602439138053097,0.006710594190870137,4.140237397285036e-05
1590505165.5450096,-0.002653596900908729,-4.592653596900909,8.649385612396365,0.4622222222222222,0.3088888888888889,-0.6055555555555555,0.00952801452408326,0.004942248166755512,0.0
1590505165.5550096,0.0,-4.5956287005136875,8.671257401027376,0.4728542120814107,0.30513642187976353,-0.5974252103691173,0.006133501170997393,0.00313533117282892,-0.000613995978578452
1590505165.5650096,-0.016176149649259546,-4.59191192517537,8.71235229929852,0.4811111111111111,0.3022222222222222,-0.5911111111111111,0.005919308644441602,-0.001347426830943401,-0.001090830782496456
1590505165.5750096,-0.013570523392066661,-4.602858953215867,8.655705233920667,0.4811111111111111,0.3022222222222222,-0.5911111111111111,0.005142290495123819,-0.0028830086649203703,0.0024159047171408354
1590505165.5850096,-0.0021478950848578347,-4.594295790169715,8.635704209830285,0.4811111111111111,0.3022222222222222,-0.5911111111111111,8.066425557142626e-05,0.0018666983018079094,0.0009371960304543057
1590505165.5950096,0.006689275587924612,-4.5966892755879245,8.660067826763774,0.4811111111111111,0.3022222222222222,-0.5911111111111111,-0.0018205175548874806,0.004002179119880393,-0.0014593735447820493
1590505165.6050096,-0.014930627459101264,-4.6,8.67,0.4654140493776029,0.2957587262143071,-0.5911111111111111,-0.003088164760304214,0.005269826325297126,-0.00127515836968161
1590505165.6150095,-0.0015567282321899759,-4.609221635883905,8.623891820580473,0.4622222222222222,0.29444444444444445,-0.5911111111111111,0.0007512053673656332,0.00545415391248228,-0.001090830782496456
1590505165.6250095,0.008687944849814225,-4.601312055150186,8.550496441201485,0.4622222222222222,0.29444444444444445,-0.5911111111111111,0.001090830782496456,0.002611030608839608,-0.002986246318258238
1590505165.6350095,0.01,-4.6,8.581369386585132,0.4622222222222222,0.29444444444444445,-0.5911111111111111,0.001090830782496456,-7.468845201002907e-05,-0.0025203756751550543
1590505165.6450095,0.005251612426308884,-4.6,8.628490325442147,0.4622222222222222,0.29444444444444445,-0.5911111111111111,0.0016087995157570488,-0.002126768249017642,-0.0006277553652111335
1590505165.6550095,0.0,-4.6,8.68254859467209,0.4622222222222222,0.29143796515483245,-0.5976251495719371,0.0031655296118069725,-0.004256360394303429,-0.0008769053111316657
1590505165.6650095,0.0,-4.622660776232692,8.732660776232692,0.4622222222222222,0.2877777777777778,-0.6055555555555555,0.00601126128131145,-0.008750030215133535,-0.003272492347489368
1590505165.6750095,-0.006972393526757999,-4.616055212946484,8.67027606473242,0.4622222222222222,0.2877777777777778,-0.6055555555555555,0.00426327424897874,-0.007535766596468109,-0.003272492347489368
1590505165.6850095,0.016295369211514393,-4.592469753858991,8.62246975385899,0.4622222222222222,0.2877777777777778,-0.6055555555555555,0.006140872164792314,-0.0036766048776757897,-0.006140872164792314
1590505165.6950095,0.013712451310490526,-4.596287548689509,8.62628754868951,0.4622222222222222,0.2877777777777778,-0.6055555555555555,0.005173254363586299,-0.0019007620160969307,-0.005173254363586299
1590505165.7050095,0.01,-4.587813792239254,8.63,0.46718697353215544,0.2855210726368991,-0.6032988504146768,0.004363323129985824,0.0011246843087232164,-0.003477117093497955
1590505165.7150095,-0.004378503015253634,-4.574792834338418,8.601242993969493,0.4744444444444445,0.2822222222222222,-0.6,0.0027948717604601462,0.003840506006810598,-0.0042729300576938144
1590505165.7250094,-0.00947518770869926,-4.5905248122913,8.554212781563049,0.4744444444444445,0.2822222222222222,-0.6,0.0005167913211290608,0.0026984528861219727,-0.0036747873881417597
1590505165.7350094,-0.006807528270141253,-4.606807528270141,8.601267754431271,0.4744444444444445,0.2822222222222222,-0.6,-0.0022277584169354786,-0.0007886829909210594,-0.00034824464351796314
1590505165.7450094,-6.060606060605961e-05,-4.595090909090909,8.644909090909092,0.4744444444444445,0.2822222222222222,-0.6,-0.003814602190911849,-0.004350100938682836,-0.0005421098434224812
1590505165.7550094,0.004242930925575001,-4.585757069074425,8.6830282762977,0.4686873753700195,0.2838214080762292,-0.601599185854007,-0.004677322538152883,-0.006544984694978735,-0.0007768313743293975
1590505165.7650094,-0.005380012575809822,-4.60461998742419,8.72614003772743,0.4544444444444444,0.2877777777777778,-0.6055555555555555,-0.006462078811892912,-0.008560834493799999,0.0015118873491159477
1590505165.7750094,0.011369267069753723,-4.604315366465123,8.630415130511725,0.4544444444444444,0.2877777777777778,-0.6055555555555555,-0.007635815477475192,-0.009048015850847963,0.0038925896721949
1590505165.7850094,0.01206934536298783,-4.584138690725975,8.593791963911036,0.4544444444444444,0.2877777777777778,-0.6055555555555555,-0.007635815477475192,-0.00936601591815542,0.0017680224689654842
1590505165.7950094,0.003692604048972939,-4.592614791902054,8.606307395951026,0.4544444444444444,0.2877777777777778,-0.6055555555555555,-0.009011875809629958,-0.009129446876390722,0.004530981612883369
1590505165.8050094,-0.004936850842362653,-4.595063149157637,8.61,0.44841051563711226,0.2949087845500794,-0.6022643216606471,-0.010894530815956652,-0.006572538712994552,0.00708351158172301
1590505165.8150094,0.0036170661418429752,-4.603617066141843,8.630425599212765,0.44222222222222224,0.3022222222222222,-0.5988888888888889,-0.01051374711597976,-0.005848714621467081,0.006893119731734563
1590505165.8250093,0.003380068894663685,-4.616619931105337,8.613520275578654,0.44222222222222224,0.3022222222222222,-0.5988888888888889,-0.009817477042468105,-0.005100739769437408,0.008711352083290729
1590505165.8350093,0.0071527244819646965,-4.612847275518035,8.650069071373753,0.44222222222222224,0.3022222222222222,-0.5988888888888889,-0.006696512225010861,-0.004363323129985824,0.008256994633739483
1590505165.8450093,0.01,-4.603683398294521,8.707899610232872,0.44222222222222224,0.3022222222222222,-0.5988888888888889,-0.0033870508381506105,-0.001607185697543598,0.007635815477475192
1590505165.8550093,-0.01023713814743052,-4.6,8.77047427629486,0.45571364765384254,0.3022222222222222,-0.5988888888888889,2.586775909213957e-05,-0.002943372432113402,0.008371658585503542
1590505165.8650093,-0.004817828786267285,-4.607591085606867,8.744453486358802,0.4622222222222222,0.3022222222222222,-0.5988888888888889,0.001090830782496456,0.0006050307815355449,0.01038276423047877
1590505165.8750093,0.020516022169841372,-4.625387016627381,8.668451933490475,0.4622222222222222,0.3022222222222222,-0.5988888888888889,0.0005313430695653884,-5.628928673135844e-05,0.011467795537895627
1590505165.8850093,0.04449309758316523,-4.631013804833669,8.61,0.4622222222222222,0.3022222222222222,-0.5988888888888889,-0.0004901209152477056,-0.0007112988192497954,0.011999138607461015
1590505165.8950093,0.032462486895839526,-4.62,8.62315313482812,0.4622222222222222,0.3022222222222222,-0.5988888888888889,-0.0006125693039351254,0.0015690922610577865,0.010086092693215693
1590505165.9050093,0.007746043567305902,-4.613238130701918,8.633238130701917,0.4637248598440183,0.3037248598440183,-0.6021446037361137,0.0004917370118377247,0.002181661564992912,0.00640647294788088
1590505165.9150093,0.0,-4.59,8.61873685298068,0.4688888888888889,0.3088888888888889,-0.6133333333333333,0.002181661564992912,0.0007520973389721923,0.0017051401563193387
1590505165.9250093,-0.03941995092777181,-4.573105735316669,8.579317205950007,0.4688888888888889,0.3088888888888889,-0.6133333333333333,0.002181661564992912,-0.001090830782496456,0.001090830782496456
1590505165.9350092,-0.17111883482290635,-4.4748472969912365,8.619830659070715,0.4688888888888889,0.3088888888888889,-0.6133333333333333,0.0027622065003350214,-0.005735190265233331,0.01676554403673341
1590505165.9450092,-0.26,-4.3912230299505675,8.70316545507415,0.4688888888888889,0.3088888888888889,-0.6133333333333333,0.0056660396242321,-0.010296186497816651,0.05017034957919117
1590505165.9550092,-0.20913729734144648,-4.393871646179606,8.743119410299343,0.4688888888888889,0.3114577122554825,-0.6030580398669588,0.00822225897141788,-0.012421469690625863,0.09796475197717502
1590505165.9650092,-0.276819363222872,-4.264157732293697,8.744636127355426,0.4688888888888889,0.3144444444444445,-0.5911111111111111,-0.004122954066233964,-0.019022646455157697,0.1534057869008186
1590505165.9750092,-0.3194584067513679,-4.164729203375684,8.81398938143374,0.4688888888888889,0.3144444444444445,-0.5911111111111111,-0.01090830782496456,-0.025981079407690847,0.2476286279638153
1590505165.9850092,-0.5043522998834752,-3.783834258290048,8.651917129145023,0.4688888888888889,0.3144444444444445,-0.5911111111111111,-0.002701644417408026,-0.03274187850078242,0.3529996102998864
1590505165.9950092,-0.6737765337065547,-3.439002799160252,8.683404089884146,0.4688888888888889,0.3144444444444445,-0.5911111111111111,-0.008572873131236239,-0.04039699819811315,0.4815958956942221
1590505166.0050092,-0.5652564567468472,-3.3937539788065596,8.761706756920102,0.47556312144369683,0.2968487404363145,-0.5953583500096252,-0.01228583384877712,-0.05475000080343115,0.6869475976885026
1590505166.0150092,-0.44148199155015055,-3.522963983100301,8.572590042249246,0.4811111111111111,0.2822222222222222,-0.5988888888888889,-0.015298824701027888,-0.07311285617334004,0.9450809607061321
1590505166.0250092,-0.2286107247349993,-3.26147800853758,8.451442515228548,0.4811111111111111,0.2822222222222222,-0.5988888888888889,-0.04222672458440614,-0.10627296860829621,1.157968934549845
1590505166.0350091,-0.18353197042192257,-3.1686565587522524,8.513282793761263,0.4811111111111111,0.2822222222222222,-0.5988888888888889,-0.03566649953081853,-0.11645298127078986,1.305143004626742
1590505166.0450091,-0.21762726599478377,-3.2143226969765273,8.634831760955663,0.4811111111111111,0.2822222222222222,-0.5988888888888889,-0.025763935953245012,-0.11812407990464391,1.4041034602709366
1590505166.0550091,-0.2339354718388661,-3.277870943677732,8.764924654979485,0.4811111111111111,0.2829510133034937,-0.5969940320775831,-0.02566149917414956,-0.12288853661051692,1.4910084633301128
1590505166.065009,-0.2924752590184868,-3.3462376295092433,8.85963693879328,0.4811111111111111,0.2877777777777778,-0.5844444444444444,-0.028862014257289126,-0.12762720155208535,1.6352525638848754
1590505166.075009,-0.3498840586338585,-3.401837682087402,8.776092753092913,0.4811111111111111,0.2877777777777778,-0.5844444444444444,-0.032273414472556876,-0.1321909847010092,1.734205941070407
1590505166.085009,-0.37,-3.3851577175028282,8.881714766778037,0.4811111111111111,0.2877777777777778,-0.5844444444444444,-0.030713841430859406,-0.14294971364611037,1.82321969528558
1590505166.095009,-0.4068522551702314,-3.3231477448297686,8.865766273896613,0.4811111111111111,0.2877777777777778,-0.5844444444444444,-0.02032168547608734,-0.15645062977281643,1.8970244800909821
1590505166.105009,-0.4672613148331682,-3.296815328708292,8.786592335645853,0.4837615167198913,0.27263260287046215,-0.589366626289322,-0.028702147120414682,-0.16062654446565464,1.9692832622094036
1590505166.115009,-0.523887508733794,-3.3372125611365577,8.787775017467588,0.4888888888888889,0.2433333333333333,-0.5988888888888889,-0.06441766070706878,-0.15738098516295473,2.0692924447548173
1590505166.125009,-0.5360612230731855,-3.3739387769268148,8.581795969365325,0.4888888888888889,0.2433333333333333,-0.5988888888888889,-0.04994447194993312,-0.17793898557258167,2.1848405445786727
1590505166.135009,-0.5827622386193709,-3.394435564925355,8.525524477238742,0.4888888888888889,0.2433333333333333,-0.5988888888888889,-0.04756774158381378,-0.1958613370497877,2.271576099338493
1590505166.145009,-0.6817419507017337,-3.4253732751503714,8.600497700200496,0.4888888888888889,0.2433333333333333,-0.5988888888888889,-0.04892451320259402,-0.20348065893802567,2.350789609565591
1590505166.155009,-0.776731237132697,-3.5148474639715515,8.759002433090025,0.49898735625012997,0.22135431613533801,-0.6066112462827791,-0.05362291791841389,-0.20332663173022023,2.4409528382191676
1590505166.165009,-0.7948686009418199,-3.554343004709099,8.90052559623272,0.5077777777777778,0.20222222222222225,-0.6133333333333333,-0.05431220450489646,-0.2029231923718316,2.520291364551488
1590505166.175009,-0.8055701642684324,-3.5144298357315673,8.73315802877881,0.5077777777777778,0.20222222222222225,-0.6133333333333333,-0.04807948146118882,-0.202286914879584,2.593099308197423
1590505166.185009,-0.8962058927937522,-3.576205892793752,8.76956620518282,0.5077777777777778,0.20222222222222225,-0.6133333333333333,-0.05572006490597363,-0.20140559509323996,2.667886291416386
1590505166.195009,-0.952027027027027,-3.603963963963964,8.753693693693695,0.5077777777777778,0.20222222222222225,-0.6133333333333333,-0.05103319147300988,-0.2048649000658772,2.7184092738072487
1590505166.205009,-0.970963126720614,-3.581926253441228,8.57600442145658,0.5091689608186647,0.19729957453908403,-0.6160086853350388,-0.0423166721653152,-0.20943951023931956,2.7628732595224936
1590505166.215009,-1.0298557613505983,-3.605539529038955,8.692590832104027,0.5222222222222223,0.1511111111111111,-0.6411111111111111,-0.062444236547553905,-0.21910781231328036,2.8351239747015207
1590505166.225009,-1.0874374276702445,-3.61,8.63068733123057,0.5222222222222223,0.1511111111111111,-0.6411111111111111,-0.06450896858010634,-0.23196514485799832,2.8669282250199095
1590505166.235009,-1.1325293791793614,-3.6053529458315197,8.673941162505441,0.5222222222222223,0.1511111111111111,-0.6411111111111111,-0.07191783080925097,-0.23866093886017853,2.883617583072024
1590505166.245009,-1.17,-3.5963859282818227,8.708070358590886,0.5222222222222223,0.1511111111111111,-0.6411111111111111,-0.07150872615512754,-0.24374136998634827,2.8925808725341726
1590505166.255009,-1.2016939226295418,-3.577322430948183,8.74,0.5299696255316658,0.12575597300747765,-0.6456891221576004,-0.06630224984771116,-0.24341621326618618,2.8887881599997427
1590505166.265009,-1.2831277146842002,-3.5467180713289497,8.77610121538155,0.5466666666666666,0.07111111111111111,-0.6555555555555556,-0.06359254399403887,-0.23814229132986656,2.8643654975903963
1590505166.275009,-1.3180388417965934,-3.495786370118737,8.821864053711924,0.5466666666666666,0.07111111111111111,-0.6555555555555556,-0.05951487240556645,-0.23318148845310796,2.817959029881127
1590505166.285009,-1.3367275838217627,-3.414862936401034,8.766544832356473,0.5466666666666666,0.07111111111111111,-0.6555555555555556,-0.04599835925296625,-0.21978745135374464,2.778796726720877
1590505166.295009,-1.3948156652081618,-3.356543776805441,8.733087553610881,0.5466666666666666,0.07111111111111111,-0.6555555555555556,-0.05186850042183231,-0.21432814095403138,2.6936910033946067
1590505166.305009,-1.4484263676352147,-3.333934080911963,8.747753856638374,0.5466666666666666,0.040400498385753325,-0.6463423717379482,-0.0513673438700254,-0.2086186332118991,2.609672888863791
1590505166.3150089,-1.5010859556494192,-3.2851809926082365,8.74108595564942,0.5466666666666666,0.004444444444444445,-0.6355555555555555,-0.04197724189526668,-0.19404941989928792,2.520946982824458
1590505166.3250089,-1.4826644061084573,-3.237930846719303,8.741598643665075,0.5466666666666666,0.004444444444444445,-0.6355555555555555,-0.03886981358863302,-0.18624822587366166,2.436026737033738
1590505166.3350089,-1.435081765646133,-3.1291823435386696,8.633773515308006,0.5466666666666666,0.004444444444444445,-0.6355555555555555,-0.034888746543136055,-0.17165422102081235,2.341800969299242
1590505166.3450089,-1.4866345221491666,-3.1004026034402603,8.629951783223751,0.5466666666666666,0.004444444444444445,-0.6355555555555555,-0.04335394906126331,-0.17588725931739438,2.2618612958610966
1590505166.3550088,-1.5757741914059906,-3.1394012087401206,8.763661287108986,0.5466666666666666,0.004444444444444445,-0.6355555555555555,-0.06158575440505643,-0.20141178679870475,2.1962267966234412
1590505166.3650088,-1.7782954987676742,-3.080662861590349,8.859431832922558,0.5422643086724032,-0.05718856747524538,-0.641058503048385,-0.06113817166460776,-0.17161163819662595,2.071419452505437
1590505166.3750088,-1.8206779826548949,-3.063728806938042,8.827457613876085,0.5422222222222223,-0.057777777777777775,-0.6411111111111111,-0.04333740555987503,-0.15972350598299134,1.9772139543136589
1590505166.3850088,-1.8208396754828826,-3.0198472860623413,8.849694572124683,0.5422222222222223,-0.057777777777777775,-0.6411111111111111,-0.039236591157049576,-0.14137499015327928,1.8020690563928383
1590505166.3950088,-1.8049750644469607,-2.93,8.67,0.5422222222222223,-0.057777777777777775,-0.6411111111111111,-0.021616304564469127,-0.11949604845472693,1.6624587530871993
1590505166.4050088,-1.90425709033071,-2.9361101815703043,8.706661089421825,0.5392802829476313,-0.06728250466491775,-0.6472212926814154,-0.02991680764506495,-0.11736537956671522,1.5198350542353674
1590505166.4150088,-1.965243063606152,-2.9508246386892343,8.840824638689234,0.5277777777777778,-0.10444444444444444,-0.6711111111111111,-0.032565838716676586,-0.11205350345951344,1.3793384525730013
1590505166.4250088,-2.0201829120708137,-2.89,8.692540714359808,0.5277777777777778,-0.10444444444444444,-0.6711111111111111,-0.01385376969979961,-0.09092584325506026,1.2136756560721549
1590505166.4350088,-2.073602997400214,-2.883198501299893,8.558088392720599,0.5277777777777778,-0.10444444444444444,-0.6711111111111111,-0.02255854406484776,-0.09465763771283457,1.1048069789137895
1590505166.4450088,-2.1896799186851545,-2.817740060986134,8.811129969506933,0.5277777777777778,-0.10444444444444444,-0.6711111111111111,-0.020795615777659794,-0.08050987225556237,0.9493534211362484
1590505166.4550087,-2.2527763612867173,-2.78,8.877911354825189,0.529907171325564,-0.11118752401243408,-0.6782090896037318,-0.012604846678437533,-0.06881347363529257,0.8397013130770515
1590505166.4650087,-2.322913452852477,-2.7878024459731776,8.944888993120701,0.5344444444444445,-0.12555555555555556,-0.6933333333333334,-0.01599077882854743,-0.059677884631821644,0.722062762795061
1590505166.4750087,-2.394667008021847,-2.7906659839563064,8.85499743983615,0.5344444444444445,-0.12555555555555556,-0.6933333333333334,-0.012508230208699846,-0.05032351115487456,0.6339163041671567
1590505166.4850087,-2.4065599675135507,-2.749679902540652,8.757200162432246,0.5344444444444445,-0.12555555555555556,-0.6933333333333334,-0.012304553507950584,-0.039505488637950885,0.5163116893176432
1590505166.4950087,-2.4036782668817698,-2.73,8.781417377275869,0.5344444444444445,-0.12555555555555556,-0.6933333333333334,-0.00926162849208791,-0.030564128228164702,0.4354918780352531
1590505166.5050087,-2.438101436739172,-2.725139137956497,8.728101436739172,0.5310238378212386,-0.1304164175990586,-0.6967539399565392,-0.012382985663754573,-0.022377208637773403,0.32717432485216624
1590505166.5150087,-2.484221555749592,-2.6991556888500816,8.768311377700163,0.5133333333333333,-0.15555555555555556,-0.7144444444444444,-0.00835824602303727,-0.018713953492600265,0.23369122826472255
1590505166.5250087,-2.5343533261697764,-2.7074133046791053,8.741293347660447,0.5133333333333333,-0.15555555555555556,-0.7144444444444444,-0.002938700472314009,-0.007776897821523771,0.10191856730972845
1590505166.5350087,-2.5486050658376005,-2.7170924012435993,8.764420263350402,0.5133333333333333,-0.15555555555555556,-0.7144444444444444,-0.0001521637123901192,-0.00232098287950022,0.013570200260689842
1590505166.5450087,-2.5566885871045564,-2.7099342386863303,8.82986847737266,0.5133333333333333,-0.15555555555555556,-0.7144444444444444,0.0025357072304586087,0.006523464355404211,-0.06199801843917695
1590505166.5550086,-2.5468108427132075,-2.728405421356604,8.87,0.51103005307065,-0.1544925031266248,-0.7167477247071278,0.006497803194079053,0.01430756021848704,-0.12872086046548367
1590505166.5650086,-2.5284712150362587,-2.720764392481871,8.87152878496374,0.4988888888888889,-0.14888888888888888,-0.7288888888888889,0.011999138607461015,0.021226078576912683,-0.1974894485236565
1590505166.5750086,-2.51,-2.7240344282452136,8.848240997716495,0.4988888888888889,-0.14888888888888888,-0.7288888888888889,0.011023024211664125,0.0305244842150677,-0.2851301946064083
1590505166.5850086,-2.51,-2.7114345323741005,8.753586330935251,0.4988888888888889,-0.14888888888888888,-0.7288888888888889,0.008570163052755968,0.037944352576552445,-0.339736029650098
1590505166.5950086,-2.480819647876905,-2.719388962864329,8.813263796419589,0.4988888888888889,-0.14888888888888888,-0.7288888888888889,0.006255613546433663,0.0369321830797021,-0.4195894565053515
1590505166.6050086,-2.404974601765547,-2.6918089460965624,8.847738817379296,0.4988888888888889,-0.14888888888888888,-0.7288888888888889,0.0055034852646324624,0.0421970810523105,-0.4639650251316224
1590505166.6150086,-2.4129431013518348,-2.724715506759173,8.796487912166512,0.4844444444444445,-0.14222222222222222,-0.7422222222222222,0.010072883277108126,0.048766342657281705,-0.5467759063594347
1590505166.6250086,-2.4216480446927373,-2.765768156424581,8.843519553072625,0.4844444444444445,-0.14222222222222222,-0.7422222222222222,0.0059934752770126505,0.04880553647663961,-0.5990870080590767
1590505166.6350086,-2.437508637902596,-2.832491362097404,8.66498272419481,0.4844444444444445,-0.14222222222222222,-0.7422222222222222,0.011727373160841662,0.05835756236555087,-0.6658975422718102
1590505166.6450086,-2.4302262349162254,-2.8397737650837747,8.679547530167548,0.4844444444444445,-0.14222222222222222,-0.7422222222222222,0.010932986226033973,0.05994633623516625,-0.7119719844906562
1590505166.6550086,-2.4076268947040043,-2.869830807061328,8.754577017653318,0.4844444444444445,-0.14222222222222222,-0.7422222222222222,0.009281289694504107,0.06813078368960734,-0.7670949300578771
1590505166.6650085,-2.371162177885767,-2.8992252147428217,8.808837822114233,0.4844444444444445,-0.1486306271364962,-0.7561070995364826,0.018163801478680332,0.08243830168513581,-0.8462153859180154
1590505166.6750085,-2.4116345333964944,-2.97,8.792595689246802,0.4844444444444445,-0.14888888888888888,-0.7566666666666667,0.020495062013626567,0.09248989365839266,-0.9303634510635282
1590505166.6850085,-2.3656394801280842,-2.9727067244302128,8.699773968732341,0.4844444444444445,-0.14888888888888888,-0.7566666666666667,0.02777108467926558,0.10183272115377962,-0.9938039630195631
1590505166.6950085,-2.292987702210192,-2.984674865193205,8.772987702210191,0.4844444444444445,-0.14888888888888888,-0.7566666666666667,0.025160041408561023,0.10581058590215622,-1.0584585963909017
1590505166.7050085,-2.264389714007454,-3.001122057198509,8.754488228794036,0.4844444444444445,-0.1502602921315112,-0.7600328382621943,0.021571820743558012,0.10593298335534178,-1.112834273376612
1590505166.7150085,-2.2251120933455697,-3.008977581330886,8.785910325323544,0.4844444444444445,-0.1598614882933052,-0.7835994106593248,0.019858011236309918,0.10678988810896582,-1.1599640348259348
1590505166.7250085,-2.2251776479971186,-3.0996447040057626,8.785888239985594,0.4844444444444445,-0.16111111111111112,-0.7866666666666666,0.011999138607461015,0.10652212784199042,-1.2419524231138284
1590505166.7350085,-2.2170812471552117,-3.1418020785920193,8.70291875284479,0.4844444444444445,-0.16111111111111112,-0.7866666666666666,0.013544027082535081,0.11820287706974777,-1.2971002881689053
1590505166.7450085,-2.2385931120936458,-3.180281377581271,8.682532398231437,0.4844444444444445,-0.16111111111111112,-0.7866666666666666,0.018329268573431496,0.12650567723687345,-1.3378944657920782
1590505166.7550085,-2.2030668631735866,-3.1873866273652824,8.746479646287543,0.4844444444444445,-0.16111111111111112,-0.7866666666666666,0.012903830946223046,0.1257306147187008,-1.3789727792552278
1590505166.7650084,-2.0869307011572498,-3.2061385976855004,8.727698025867937,0.5066666666666667,-0.18222222222222226,-0.7711111111111111,0.010403392032679816,0.1377794871603887,-1.4460122951088792
1590505166.7750084,-2.0480103000891354,-3.28,8.69602060017827,0.5066666666666667,-0.18222222222222226,-0.7711111111111111,0.01636807956459251,0.1437613850441707,-1.5037653856090154
1590505166.7850084,-2.044879012429417,-3.293010699811778,8.68,0.5066666666666667,-0.18222222222222226,-0.7711111111111111,0.013418385793111873,0.15268991415624553,-1.5529808606239388
1590505166.7950084,-2.066215725840639,-3.3499086022417037,8.68,0.5066666666666667,-0.18222222222222226,-0.7711111111111111,0.019624984136116144,0.15734486291349875,-1.5847896771318357
1590505166.8050084,-1.9694130045315628,-3.3558699546843713,8.702347981873748,0.5070579969789581,-0.18065690097305656,-0.7698718984555216,0.02149645928685054,0.16093070562854978,-1.643490904142377
1590505166.8150084,-1.9605726630835705,-3.4442733691642955,8.737709347665719,0.5129515579442864,-0.15708265711174343,-0.7512089553986487,0.016674800997225833,0.15321605236515023,-1.6868858287489994
1590505166.8250084,-1.9191339546267532,-3.5017320907464935,8.782953261790455,0.5133333333333333,-0.15555555555555556,-0.75,0.016053223584242653,0.16064845044640752,-1.748361151616281
1590505166.8350084,-1.8798158912484657,-3.5752761631273016,8.635092054375768,0.5133333333333333,-0.15555555555555556,-0.75,0.02399827721492203,0.1597765849117057,-1.7883502124881536
1590505166.8450084,-1.85,-3.6236343993890516,8.693612792668617,0.5133333333333333,-0.15555555555555556,-0.75,0.02062843969487803,0.15291571374976498,-1.830012887700955
1590505166.8550084,-1.85,-3.6392594110306034,8.881112932367241,0.5133333333333333,-0.15555555555555556,-0.75,0.006140832570728227,0.14439359191202975,-1.8658057994194424
1590505166.8650084,-1.7538712043704032,-3.6884794316931453,8.75769588633863,0.5644444444444444,-0.11,-0.75,0.02148487910672797,0.15246496973868445,-1.904494925085919
1590505166.8750083,-1.700560884013725,-3.653926188096074,8.740464971766677,0.5644444444444444,-0.11,-0.75,0.013824164847055023,0.1518702105860399,-1.930842130376635
1590505166.8850083,-1.7056581556767476,-3.727236407205421,8.591578251528674,0.5644444444444444,-0.11,-0.75,0.026022064865227904,0.15677817147042838,-1.9538786652267783
1590505166.8950083,-1.6789681234055742,-3.770128984574303,8.659871015425697,0.5644444444444444,-0.11,-0.75,0.025187598238300492,0.16142888577506376,-1.9745725567315253
1590505166.9050083,-1.5991553285453006,-3.780362002052014,8.65072400410403,0.56414947980947,-0.11,-0.7505094843695013,0.03273808624094914,0.1603126367288126,-1.9875858250709306
1590505166.9150083,-1.5336690904224473,-3.808427532676094,8.706855065352189,0.5412812696713308,-0.11,-0.7900091200626509,0.03375857773201059,0.1572511622556283,-1.994729265508361
1590505166.9250083,-1.53,-3.8750518576328274,8.75878889322462,0.54,-0.11,-0.7922222222222223,0.029380718709611058,0.15707963267948966,-1.9986775296242414
1590505166.9350083,-1.468922937632761,-3.832215412473448,8.650030643869485,0.54,-0.11,-0.7922222222222223,0.037450742623174015,0.15610629117547847,-1.9970728414664272
1590505166.9450083,-1.395894766166382,-3.8468210467667237,8.584305289549745,0.54,-0.11,-0.7922222222222223,0.03984058394592268,0.16407242891797402,-1.9883100899496824
1590505166.9550083,-1.3109345119971136,-3.87959949485838,8.777196464008659,0.54,-0.11,-0.7922222222222223,0.034979398929391135,0.15289106288431475,-1.9745639068754948
1590505166.9650083,-1.30165329149822,-3.85495987449466,8.78,0.4936293972123334,-0.09794364327520666,-0.7031906648699022,0.02398076916036679,0.14907437092299725,-1.9625674157824384
1590505166.9750082,-1.2269761877891885,-3.88961110484144,8.701317458526127,0.4844444444444445,-0.09555555555555556,-0.6855555555555556,0.03134666782940516,0.14678859646152134,-1.9344316927796923
1590505166.9850082,-1.169934561934932,-3.788387865054223,8.629738247739727,0.4844444444444445,-0.09555555555555556,-0.6855555555555556,0.03982603083947914,0.14800841132021206,-1.9056385479078748
1590505166.9950082,-1.1151543033954892,-3.8312114241511277,8.465131300382705,0.4844444444444445,-0.09555555555555556,-0.6855555555555556,0.04508934516948251,0.15777653507501666,-1.8699170984105824
1590505167.0050082,-1.0810015471052847,-3.839749613223679,8.712738783486687,0.4844444444444445,-0.09555555555555556,-0.6855555555555556,0.024599162341832584,0.12424714499340772,-1.8484955436362212
1590505167.0150082,-1.034296304667194,-3.8695061588880098,8.523802463555203,0.4755555555555556,0.012222222222222223,-0.6355555555555555,0.0375488141231938,0.14601780234842032,-1.7916828419458015
1590505167.0250082,-1.0086040348191643,-3.915583860723343,8.574899129520892,0.4755555555555556,0.012222222222222223,-0.6355555555555555,0.04781648971729551,0.13782392353999995,-1.7409630378599623
1590505167.0350082,-0.9940756252716425,-3.9550780354814496,8.772226875814926,0.4755555555555556,0.012222222222222223,-0.6355555555555555,0.014844073905585934,0.12128388413875744,-1.694788948623312
1590505167.0450082,-0.9360723458058399,-4.004795132166423,8.59821703741752,0.4755555555555556,0.012222222222222223,-0.6355555555555555,0.032017838074354515,0.13393823668416588,-1.6378443621689744
1590505167.0550082,-0.9395304806862596,-4.00046951931374,8.751548652352673,0.4755555555555556,0.012222222222222223,-0.6355555555555555,0.039013825109670094,0.12694610366591264,-1.5643079295350586
1590505167.0650082,-0.9061247940517934,-4.033875205948207,8.76,0.46802773201150966,0.09220534737771019,-0.6299096878975211,0.02818427294635915,0.11360312967549008,-1.5083220824407404
1590505167.0750082,-0.8654519654459907,-4.014088974084493,8.751362991361498,0.4666666666666667,0.10666666666666667,-0.6288888888888889,0.034659302182324464,0.11409119428210834,-1.4328508909091673
1590505167.0850081,-0.5323123003194887,-3.3910343450479234,8.021805111821086,0.4666666666666667,0.10666666666666667,-0.6288888888888889,0.021103589578343226,0.13538858890378364,-1.3459883656559744
1590505167.0950081,-0.6743513753694174,-3.876829313658627,8.591930063860127,0.4666666666666667,0.10666666666666667,-0.6288888888888889,0.015312503011673594,0.19104307190300984,-1.261509741019077
1590505167.1050081,-0.6097910252822092,-3.7791641011288366,8.967283328668719,0.4668408122648257,0.10723554228731952,-0.6284477200402194,0.057380914967945625,-0.07667057668932083,-1.2162273729913962
1590505167.115008,-0.6007694217367403,-3.723333747096271,8.71538471086837,0.4833333333333333,0.16111111111111112,-0.5866666666666667,0.01694984257445298,0.09134992582224642,-1.0961448710516057
1590505167.125008,-0.6453951731597893,-3.8200228751795438,8.737697586579895,0.4833333333333333,0.16111111111111112,-0.5866666666666667,0.019383799741667825,0.054029249258285526,-1.0458430895958322
1590505167.135008,-0.6013986691646747,-3.8624008872235502,8.691398669164675,0.4833333333333333,0.16111111111111112,-0.5866666666666667,0.02228574547220956,0.06608296431847707,-0.9743827818197852
1590505167.145008,-0.5288881678964737,-3.7814824428047014,8.638888167896475,0.4833333333333333,0.16111111111111112,-0.5866666666666667,0.03159366533628075,0.06326818538479445,-0.8866418737237396
1590505167.155008,-0.5055597167117802,-3.812587044384293,8.615559716711779,0.4833333333333333,0.16111111111111112,-0.5866666666666667,0.030745418914273095,0.06326818538479445,-0.836595334825288
1590505167.165008,-0.4785020624026563,-3.879736594382734,8.919028873637188,0.5044444444444445,0.22,-0.6,0.004171190390282074,0.046713590907643855,-0.7687421349318797
1590505167.175008,-0.46414465914731207,-3.9730597155424716,8.718025228062368,0.5044444444444445,0.22,-0.6,0.01278501397548647,0.055327414492848254,-0.7241068672630931
1590505167.185008,-0.5015017088980553,-4.065836181496759,8.739055745433118,0.5044444444444445,0.22,-0.6,0.025810123361066466,0.04363323129985824,-0.6503361883452206
1590505167.195008,-0.41525295872221685,-3.928643702492062,8.732034446261908,0.5044444444444445,0.22,-0.6,0.03257697436770548,0.043189383978293625,-0.5967760245685044
1590505167.205008,-0.35875319926873855,-3.912500914076783,8.756248628884826,0.5044444444444445,0.22,-0.6,0.03081606931583407,0.0379066688226794,-0.5589165659532691
1590505167.215008,-0.37939603159793495,-3.9026509921005164,8.590972818311874,0.4799477514461653,0.24368013656500315,-0.6106152336325876,0.036154828736197304,0.036286594201122846,-0.5225884153829505
1590505167.225008,-0.42807801263891915,-3.5330695140553496,8.299994334277619,0.4711111111111111,0.25222222222222224,-0.6144444444444445,0.020556823760394423,0.017495841813921692,-0.4646112868932842
1590505167.235008,-0.3823785138374374,-3.8438261059054257,8.537631728045326,0.4711111111111111,0.25222222222222224,-0.6144444444444445,0.06841322699621802,-0.007429368204736431,-0.41077283325298264
1590505167.245008,-0.37347694124981545,-3.755631059997047,8.902245172509966,0.4711111111111111,0.25222222222222224,-0.6144444444444445,0.003306244695294863,0.03538978408058032,-0.35602717370431497
1590505167.255008,-0.3859842853291222,-3.8838192812849055,8.498581442822477,0.4711111111111111,0.25222222222222224,-0.6144444444444445,0.018711720421084682,0.02054533121374002,-0.28387788182474005
1590505167.265008,-0.38280191001072805,-3.8970047750268204,8.57400955005364,0.48,0.27111111111111114,-0.6077777777777778,-0.0002714055090634654,0.014027979687979569,-0.21373436244953486
1590505167.275008,-0.41809335492963673,-3.985233387324092,8.750466774648183,0.48,0.27111111111111114,-0.6077777777777778,0.02378921603863887,0.012103129964163385,-0.15791372045886545
1590505167.285008,-0.4114847086597274,-3.938908251958365,8.649301212576457,0.48,0.27111111111111114,-0.6077777777777778,0.0037250015908604182,0.0017815224999767204,-0.10380989057707526
1590505167.295008,-0.3587307475051779,-3.929153831670119,8.69042308416494,0.48,0.27111111111111114,-0.6077777777777778,0.01608555379902437,-0.0034570976397710128,-0.031138977519306287
1590505167.305008,-0.3350385991338731,-3.913359066089249,8.698320466955375,0.48,0.27111111111111114,-0.6077777777777778,0.010916728849645854,-0.006902980939356691,0.018826330324686058
1590505167.315008,-0.4012698971911732,-4.015555359830893,8.746349485955866,0.4811111111111111,0.2911111111111111,-0.6133333333333333,0.010631259235617063,-0.014527110909138297,0.07796854773839357
1590505167.325008,-0.41470326361976745,-3.968538577330814,8.813516318098838,0.4811111111111111,0.2911111111111111,-0.6133333333333333,0.007700553313044032,-0.01819049331235459,0.1065429304834806
1590505167.335008,-0.3403549533231155,-4.144687891876829,8.742656054061586,0.4811111111111111,0.2911111111111111,-0.6133333333333333,0.014267586347290973,-0.021565604498014267,0.1622146840104126
1590505167.345008,-0.34660114712895534,-4.003988528710447,8.62209254366179,0.4811111111111111,0.2911111111111111,-0.6133333333333333,0.008028014029743524,-0.026343876228183405,0.20511147724613935
1590505167.355008,-0.4409581718562074,-3.9017813711078446,8.592420152345316,0.4811111111111111,0.2911111111111111,-0.6133333333333333,0.02473531322137694,-0.03884643317011934,0.23834382914673366
1590505167.3650079,-0.38738896613773927,-3.9181281694748895,8.71073920333715,0.5164149717360088,0.2946414971736009,-0.6083907928458476,0.009747571438175121,-0.035610503693453234,0.2673234473159247
1590505167.3750079,-0.34,-3.9320169485914795,8.668237280280712,0.5366666666666666,0.2966666666666667,-0.6055555555555555,-0.011760635601125514,-0.02466756612066442,0.3010230758557577
1590505167.3850079,-0.3477254606184678,-3.891372696907661,8.624549078763064,0.5366666666666666,0.2966666666666667,-0.6055555555555555,0.003516257355882608,-0.026278314533061106,0.32169235633436405
1590505167.3950078,-0.3327091940726051,-3.84541838814521,8.594063791108907,0.5366666666666666,0.2966666666666667,-0.6055555555555555,-0.0035332269238818152,-0.038587575578276134,0.3365321428143163
1590505167.4050078,-0.3973372266903771,-3.862445742230126,8.545108515539749,0.5366666666666666,0.2966666666666667,-0.6055555555555555,-0.00545415391248228,-0.03301538698418834,0.3544805469476358
1590505167.4150078,-0.3704237573148584,-3.92949149122217,8.748135467814622,0.608276794989649,0.3550564636069446,-0.6264877469115042,0.006443290239840503,-0.04460387772628223,0.3697084307120945
1590505167.4250078,-0.34548165137614684,-3.897308868501529,8.78269113149847,0.6088888888888889,0.3555555555555556,-0.6266666666666667,-0.013959798523094934,-0.032242889688744635,0.37781524609076217
1590505167.4350078,-0.3685948867786706,-3.9662530314097886,8.523114390065741,0.6088888888888889,0.3555555555555556,-0.6266666666666667,0.0012109257536709363,-0.03569086767143925,0.377529633460755
1590505167.4450078,-0.40155383472173334,-4.0173307520826,8.541553834721734,0.6088888888888889,0.3555555555555556,-0.6266666666666667,-0.01158629612311598,-0.03685791317788985,0.3825904348768146
1590505167.4550078,-0.43045738182295884,-4.002723490902722,8.706839927309352,0.6088888888888889,0.3555555555555556,-0.6266666666666667,-0.007089265620302487,-0.037832097998938406,0.3914109493793415
1590505167.4650078,-0.4119759438462587,-4.008682704102494,8.742634591795012,0.8320434101131252,0.45831042811927375,-0.7148905471506671,-0.007348426094544069,-0.04123602769766699,0.40812752794164486
1590505167.4750078,-0.4033235436447678,-3.9699412618686067,8.679911892802911,0.8477777777777777,0.4655555555555556,-0.7211111111111111,-0.003994373422334503,-0.04145156973486533,0.4214424464236493
1590505167.4850078,-0.3837278368794326,-3.9581360815602835,8.658136081560285,0.8477777777777777,0.4655555555555556,-0.7211111111111111,-0.0163818027087677,-0.04500160502080902,0.4347057373104981
1590505167.4950078,-0.38,-4.03328831065647,8.540906495183235,0.8477777777777777,0.4655555555555556,-0.7211111111111111,-0.009641810927281095,-0.0408183212860236,0.4523213420508306
1590505167.5050077,-0.41840117900103563,-4.078401179001036,8.722005895005177,0.8477777777777777,0.4655555555555556,-0.7211111111111111,-0.013753348836589985,-0.044549657766217485,0.46551457819730174
1590505167.5150077,-0.40462446951083314,-4.098458510163056,8.746165959347778,1.4342344824163002,0.4063459844141663,-1.4194081167944805,-0.01158090965098231,-0.04304685188687509,0.4782840397333962
1590505167.5250077,-0.39130698362690347,-4.12607904911929,8.731306983626904,1.5411111111111107,0.3955555555555556,-1.5466666666666666,-0.01659787373647622,-0.04349066150261372,0.47617250035743275
1590505167.5350077,-0.36360524030110014,-4.1827895193978,8.598026201505501,1.5411111111111107,0.3955555555555556,-1.5466666666666666,-0.008815627607096251,-0.03883452857049877,0.4592866318886326
1590505167.5450077,-0.3883175851677818,-4.208878390111854,8.65551356044742,1.5411111111111107,0.3955555555555556,-1.5466666666666666,-0.01175444128907272,-0.039208733840275345,0.42719806073193295
1590505167.5550077,-0.4128654432491515,-4.179512742334465,8.72097451533107,1.5411111111111107,0.3955555555555556,-1.5466666666666666,-0.007842083715527647,-0.03677567523471239,0.38884192212460417
1590505167.5650077,-0.41104492542742815,-4.071494179701709,8.641494179701711,0.9152508993169233,-0.034288023927892985,-0.9028963057273351,0.00029294500734012695,-0.03209002742105799,0.3207703189245603
1590505167.5750077,-0.4362026091888826,-4.06,8.804684061259218,0.8422222222222222,-0.08444444444444445,-0.8277777777777777,0.00204358453866171,-0.029728585180066717,0.25604128623289885
1590505167.5850077,-0.3880180115788721,-3.964699687894599,8.474789745788959,0.8422222222222222,-0.08444444444444445,-0.8277777777777777,-0.0015985753086831295,-0.02283701659847124,0.18146444233736478
1590505167.5950077,-0.38905091669988046,-3.9590509166998804,8.754883917895576,0.8422222222222222,-0.08444444444444445,-0.8277777777777777,0.008678658835651982,-0.009968993394680147,0.09622549190203342
1590505167.6050076,-0.3747513745876237,-3.9676243127061883,8.675635309407179,0.8422222222222222,-0.08444444444444445,-0.8277777777777777,0.0031640090462369957,-0.011221696758558313,0.02681271441707518
1590505167.6150076,-0.397562883951221,-4.015938139918701,8.759439163788624,0.6104898275212159,0.15137134047155748,-0.715484546865396,0.0050996897516123775,-0.0049836354115081515,-0.055503713286100584
1590505167.6250076,-0.3754767626954649,-4.026130809326133,8.733215144043198,0.59,0.17222222222222222,-0.7055555555555556,0.00812922412630751,-0.0010194853627042864,-0.09920627436681106
1590505167.6350076,-0.3670672106152388,-4.044134421230478,8.632260683232373,0.59,0.17222222222222222,-0.7055555555555556,0.007504737776821643,0.0057163093137893774,-0.16335135902663817
1590505167.6450076,-0.3642808815318422,-4.021404407659211,8.594280881531843,0.59,0.17222222222222222,-0.7055555555555556,0.010288138979265027,0.010755110714380435,-0.20743687719668136
1590505167.6550076,-0.37628260795240864,-3.9945724640158637,8.655130431809635,0.59,0.17222222222222222,-0.7055555555555556,0.0077614983978147945,0.013682021722417767,-0.25403393617001235
1590505167.6650076,-0.4068231068189848,-3.947942232952538,8.659530679543046,0.5385960624975464,0.23764541540716316,-0.7111632578285505,0.011530515596407966,0.018768590866297594,-0.31360007166112136
1590505167.6750076,-0.39212593226555814,-3.9310629661327794,8.784055508008315,0.5288888888888889,0.25,-0.7122222222222222,0.008215573566668504,0.020609833249594,-0.3616491749695854
1590505167.6850076,-0.39,-3.872794637271974,8.691945425958174,0.5288888888888889,0.25,-0.7122222222222222,0.007635815477475192,0.020032436305348154,-0.3928663882780207
1590505167.6950076,-0.326291204499297,-3.8798179971879394,8.63,0.5288888888888889,0.25,-0.7122222222222222,0.009373203358673657,0.028321893490928528,-0.4392436945152468
1590505167.7050076,-0.31,-3.8612622498679654,8.752135438061147,0.5288888888888889,0.25,-0.7122222222222222,0.01373597985043246,0.03367806415627225,-0.5154225696821267
1590505167.7150075,-0.34562409077684025,-3.769845795752109,8.666409659586849,0.51800375004041,0.29749878770245364,-0.7250864772249701,0.015271630954950384,0.038792570521669144,-0.5790597609776728
1590505167.7250075,-0.40187542042244045,-3.77729180680748,8.71916722722992,0.5166666666666667,0.3033333333333333,-0.7266666666666667,0.01338538743989227,0.04209927344245958,-0.6109449996039465
1590505167.7350075,-0.3471235935379362,-3.764280898384484,8.674983144345694,0.5166666666666667,0.3033333333333333,-0.7266666666666667,0.019091377360345572,0.044257088508901234,-0.6263740332730077
1590505167.7450075,-0.20568601685089277,-3.7931503955064283,8.626849604493572,0.5166666666666667,0.3033333333333333,-0.7266666666666667,0.021629821664191275,0.04653213567587192,-0.6312174350939723
1590505167.7550075,-0.18589964732821876,-3.8825950625950627,8.655397883969313,0.5166666666666667,0.3033333333333333,-0.7266666666666667,0.015381098738435127,0.04626217195619821,-0.6470362636530336
1590505167.7650075,-0.13848968965415226,-3.9296979379308303,8.690302062069168,0.5212453609196309,0.2758611678155478,-0.7375410655174568,0.017650991681908125,0.04918623479332293,-0.6785609037376056
1590505167.7750075,-0.08537912077976094,-3.915379120779761,8.727725275321434,0.5255555555555556,0.25,-0.7477777777777778,0.021982038296668036,0.05387205674852038,-0.7228306275463432
1590505167.7850075,-0.10859342033289053,-3.8861721497225914,8.688516449167773,0.5255555555555556,0.25,-0.7477777777777778,0.021714326290001345,0.05771174211238439,-0.7796539339084375
1590505167.7950075,-0.09804595261034996,-3.8693231216421444,8.647292486568578,0.5255555555555556,0.25,-0.7477777777777778,0.02552376942635354,0.0625381800563576,-0.8420141104311181
1590505167.8050075,-0.006162046908315566,-3.8909594882729213,8.68634683724236,0.5255555555555556,0.25,-0.7477777777777778,0.02806776604031215,0.06744233814453923,-0.9024271724856199
1590505167.8150074,0.13397991739420773,-3.9163979917394207,8.743979917394206,0.4701062938139089,0.25497621579732727,-0.6603385573390272,0.029452431127404314,0.07788312719778787,-0.9921175167234547
1590505167.8250074,0.2380092183705012,-3.9124434201810554,8.711990781629499,0.4388888888888889,0.2577777777777778,-0.6111111111111112,-0.3637362780005465,0.5104457022858387,-2.0838250749466845
1590505167.8350074,-9.274937289798208,-5.231559697309417,6.609123108183856,0.4388888888888889,0.2577777777777778,-0.6111111111111112,-1.9027546991269726,1.1782625282777273,-7.458607601622326
1590505167.8450074,-3.6028680221542064,-1.9005669727444978,1.6802233639411166,0.4388888888888889,0.2577777777777778,-0.6111111111111112,-3.079338586284893,0.32098136972366986,-4.795120370845122
1590505167.8550074,0.865726231221692,-0.2550355583792756,-0.04355891213903634,0.4388888888888889,0.2577777777777778,-0.6111111111111112,-3.0440843467245777,-0.2888295812532985,-0.9151589604767267
1590505167.8650074,-0.2157441162533565,-0.359782340862423,-0.16170589164429,0.41732810333631687,0.3449192860527563,-0.6452490215693502,-2.9944235399086314,-0.21303571967323354,-0.5165866513649369
1590505167.8750074,1.4366499791405922,-1.8862050602468772,6.034375322093794,0.4122222222222222,0.3655555555555556,-0.6533333333333333,-2.947524437192936,-0.15748840310449938,-0.3491527977689006
1590505167.8850074,1.3638882808076995,-1.9997040951122853,7.233423664842423,0.4122222222222222,0.3655555555555556,-0.6533333333333333,-2.2987715850621244,0.02889419090925488,-0.3414623131374117
1590505167.8950074,0.15372724721353542,-0.8899119958303263,4.125826717985727,0.4122222222222222,0.3655555555555556,-0.6533333333333333,0.5470170870122955,0.4833752323866361,-0.3958592414800664
1590505167.9050074,0.5998777541907621,-0.38392687211770726,1.6828014054608003,0.4122222222222222,0.3655555555555556,-0.6533333333333333,1.8247679397284498,0.13393638921165585,-0.42271764929109445
1590505167.9150074,2.82593470206854,-1.8960647576412473,10.383561670268602,0.409647310555384,0.37153129395218004,-0.6493009244965867,2.6193729925497906,-0.40924071045571037,-0.4286072928889633
1590505167.9250073,0.6746438494569336,-2.0321912099014905,6.511668350593585,0.3533333333333333,0.5022222222222222,-0.5611111111111111,4.760976826266728,0.11291228279618372,-0.4570158037197373
1590505167.9350073,5.271534458541527,-0.9565585208040712,15.913525754680052,0.3533333333333333,0.5022222222222222,-0.5611111111111111,4.507303600246127,-0.25457718328428836,-0.3226248647534352
1590505167.9450073,2.399275982211143,-0.03624082939126985,5.0491054584596196,0.3533333333333333,0.5022222222222222,-0.5611111111111111,1.681987217770338,-0.4702316802094732,0.07162864645927575
1590505167.9550073,0.11242413672828744,0.009940704569236136,-0.29550052319497727,0.3533333333333333,0.5022222222222222,-0.5611111111111111,0.2776097757781719,-0.13824292169942876,0.33751948075937516
1590505167.9650073,0.14146770459806635,0.280982252280877,0.3683037538014615,0.35463417709389294,0.47750619077158957,-0.6046893770898583,-0.5929471134241537,0.3641324709205665,0.5507131569338247
1590505167.9750073,1.471655370712672,-2.103906346272335,8.660098582871226,0.3555555555555556,0.46,-0.6355555555555555,-1.6175933930321986,0.2866980652841173,0.7070532582880941
1590505167.9850073,0.9808307594332113,-2.15556376373189,7.952789046330202,0.3555555555555556,0.46,-0.6355555555555555,-0.9506638376466127,-0.013209941672165493,0.7040125308870072
1590505167.9950073,0.25496371610845303,-2.4495271132376395,8.730712918660288,0.3555555555555556,0.46,-0.6355555555555555,0.3078648063939519,0.028677628114669423,0.7480645668546078
1590505168.0050073,0.2586493052595687,-2.8626012275168358,9.107179268604552,0.3555555555555556,0.46,-0.6355555555555555,0.6056222578178022,0.06901710816442483,0.8432847712422554
1590505168.0150073,0.417861002122596,-3.6412147038013765,11.164937608541841,0.3652247307447668,0.4406616496215776,-0.6395843785510602,-0.16627844371406791,-0.17826309357408027,0.8964045614779161
1590505168.0250072,0.5218530533728929,-4.092396237488181,12.937220664471326,0.3688888888888889,0.43333333333333335,-0.6411111111111111,-0.307603859959776,-0.18950484531991113,0.9534523091609948
1590505168.0350072,0.282538228293828,-3.155649636464413,10.085955462815038,0.3688888888888889,0.43333333333333335,-0.6411111111111111,0.14588071879917064,-0.10745993797865433,1.1018790051692684
1590505168.0450072,0.17271188813636443,-2.600542517631823,7.57522111968639,0.3688888888888889,0.43333333333333335,-0.6411111111111111,0.20669211180869104,-0.046953811758180614,1.1888317370223143
1590505168.0550072,0.17887953620603156,-3.0487532749874573,8.936581749261386,0.3688888888888889,0.43333333333333335,-0.6411111111111111,-0.01574365135458966,-0.09205142688282292,1.248028047828197
1590505168.0650072,0.20014042930038378,-3.4068021760215914,10.147910850588286,0.38215980919982945,0.42448605312603965,-0.6599115815516102,-0.1128508674821828,-0.13380803930343646,1.3066314559064065
1590505168.0750072,0.18936342262752923,-2.987727628954118,8.062731547449415,0.3955555555555556,0.4155555555555556,-0.6788888888888889,-0.013585723847177825,-0.11461634770334914,1.3601666639050247
1590505168.0850072,-0.3076259687694041,-4.801867626428719,7.894141388588644,0.3955555555555556,0.4155555555555556,-0.6788888888888889,-0.40907968088427127,-0.15112595889622868,-0.7258548529349604
1590505168.0950072,-12.79498987462741,-17.868917153973925,9.441195249038659,0.3955555555555556,0.4155555555555556,-0.6788888888888889,-0.33513705152188367,0.3324167629389619,-2.946557227641323
1590505168.1050072,-5.368688854387614,-8.572974787343378,10.754424788436728,0.3955555555555556,0.4155555555555556,-0.6788888888888889,0.3123003376175892,0.15735086743988774,-1.6638905560106496
1590505168.1150072,1.6410149474072706,1.3527329765639418,10.82908900781202,0.406509059345376,0.39112081633211,-0.6839443521764983,0.888668174413853,0.15559358793938083,-0.13961453071021873
1590505168.1250072,1.38,1.65,10.73,0.41,0.38333333333333336,-0.6855555555555556,0.9653852425093636,0.23125612588924865,-0.02836160034490785
1590505168.1350071,1.2790460251046025,-1.4600695881964323,8.39664038757983,0.41,0.38333333333333336,-0.6855555555555556,-0.2492911788119777,-0.20047408710249226,0.09088193847313591
1590505168.1450071,0.852882530238384,-3.067213371433045,11.824416174110464,0.41,0.38333333333333336,-0.6855555555555556,-0.5303548213398929,0.11886648150793426,0.21454515509607175
1590505168.1550071,-0.7022557045810834,-5.358954094155279,8.124164938005732,0.41,0.38333333333333336,-0.6855555555555556,0.0608293751149667,0.0392774048137831,0.28693737944234493
1590505168.165007,-1.8498695063400221,-10.18378554721162,7.932580327465223,0.40958718043415815,0.3857414474674108,-0.6842482935970564,0.12643028233943104,0.013373185211733297,0.4250383267287908
1590505168.175007,3.0360080767727653,-6.445517173998002,9.416434061400842,0.4033333333333333,0.4222222222222222,-0.6644444444444444,-0.10746383708050014,-0.12538424618221378,1.2319753285192696
1590505168.185007,3.8998768265109844,-7.177852394290149,7.905214794317146,0.4033333333333333,0.4222222222222222,-0.6644444444444444,0.07169367797717915,-0.0487014550019773,0.5142541035560123
1590505168.195007,-1.2136549910515357,-5.287270170568684,8.26553489901019,0.4033333333333333,0.4222222222222222,-0.6644444444444444,0.0523236612925707,0.08220682296490248,-0.43522956949451225
1590505168.205007,-1.9619266187050357,-5.284999424460432,8.773436258992804,0.4033333333333333,0.4222222222222222,-0.6644444444444444,-0.001837398509118425,0.055617082580957364,-0.30856168681785745
1590505168.215007,0.4287161296491061,-4.318681327086719,9.01913815852376,0.4083947052511925,0.4111792289468932,-0.6644444444444444,-0.03922952479871049,-0.05191824701528423,0.2200405832120919
1590505168.225007,0.8577261595818562,-4.421736540078219,8.350957637340546,0.4155555555555556,0.3955555555555556,-0.6644444444444444,0.015075704844157316,-0.04006684978617926,0.2326215881432841
1590505168.235007,-0.07999686798559269,-4.531622383462964,8.554052826643003,0.4155555555555556,0.3955555555555556,-0.6644444444444444,-0.0027712351893583297,0.002181661564992912,-0.06486044415030828
1590505168.245007,0.10136035163525292,-4.780578857185428,8.50397973627356,0.4155555555555556,0.3955555555555556,-0.6644444444444444,-0.011411099306101829,0.004580384071656689,-0.01413976094536902
1590505168.255007,0.08,-4.85,8.52,0.4155555555555556,0.3955555555555556,-0.6644444444444444,-0.016362461737446838,0.00545415391248228,0.01090830782496456
1590505168.265007,0.07310060417659005,-4.712012083531801,8.56139637494046,0.4071229606602767,0.3955555555555556,-0.6744102384115921,0.0009475069556002212,0.003196331909041359,0.004134841814641796
1590505168.275007,0.05860396115906289,-4.604415844636252,8.705356427250308,0.4033333333333333,0.3955555555555556,-0.6788888888888889,0.00934820375828262,0.002803219063303884,0.001090830782496456
1590505168.285007,0.05769432948237648,-4.5738471647411885,8.680737893023165,0.4033333333333333,0.3955555555555556,-0.6788888888888889,0.004361889599938019,0.0036921529199916824,0.0006711702099941417
1590505168.295007,0.08176021353896346,-4.572159857640691,8.560561281233781,0.4033333333333333,0.3955555555555556,-0.6788888888888889,-0.004790936561220254,0.002225255973813672,-0.0004276134312344304
1590505168.305007,0.08928400620900866,-4.617151966885287,8.623564026905704,0.4033333333333333,0.3955555555555556,-0.6788888888888889,-0.002726642204289621,7.810280672896925e-05,-0.0003115417230128392
1590505168.315007,0.07168775958270987,-4.71099861555888,8.54731362485841,0.4033333333333333,0.3955555555555556,-0.6788888888888889,0.0017520808735291427,0.0019975555543655828,0.0009680934420782359
1590505168.325007,0.07,-4.547363049244608,8.750219121208627,0.3955555555555556,0.3955555555555556,-0.6788888888888889,0.010656514743293856,-0.001090830782496456,0.0
1590505168.335007,0.07424997897923148,-4.605750021020769,8.633000084083074,0.3955555555555556,0.3955555555555556,-0.6788888888888889,-0.0016907739548086833,-0.001090830782496456,-0.0009272015791017131
1590505168.345007,0.08,-4.629890591706277,8.592065644976234,0.3955555555555556,0.3955555555555556,-0.6788888888888889,-0.007410488564896736,-0.0007647750070940466,-0.0018556057895905025
1590505168.355007,0.08,-4.68164594059406,8.56835405940594,0.3955555555555556,0.3955555555555556,-0.6788888888888889,-0.01044193626427901,-0.00022245747759742907,-0.0008683733048990269
1590505168.365007,0.08247025305848835,-4.622351265292442,8.62517848164907,0.39747686348993544,0.39390872018323003,-0.676967580954509,-0.003016009091608267,-0.0008213679748209446,-0.0002694628076755113
1590505168.375007,0.09,-4.655839805825242,8.602881067961166,0.4033333333333333,0.3888888888888889,-0.6711111111111111,0.0026791545359421453,-0.00022690339334938418,-0.0006370239957976876
1590505168.385007,0.08200133994933317,-4.628002009924,8.634009379645333,0.4033333333333333,0.3888888888888889,-0.6711111111111111,0.0056728316492744325,-0.001090830782496456,0.0015270900125960584
1590505168.395007,0.0739129153900542,-4.606087084609946,8.569564576950272,0.4033333333333333,0.3888888888888889,-0.6711111111111111,-0.00018966778453612088,-0.00023716507114140484,0.003035327276347963
1590505168.405007,0.08409856903491708,-4.604098569034917,8.612295707104751,0.4033333333333333,0.3888888888888889,-0.6711111111111111,-0.002181661564992912,0.0006437462557490208,0.002574985022996083
1590505168.4150069,0.08660355242989812,-4.61,8.640189342710306,0.40559763171340124,0.3888888888888889,-0.6688468127310432,0.0015232879956095127,-0.0003704949560602425,-0.0003704949560602425
1590505168.4250069,0.08396116389313128,-4.6020776722137375,8.687728147251919,0.41,0.3888888888888889,-0.6644444444444444,0.008726646259971648,-0.00022663888066823455,0.00020545707024587643
1590505168.4350069,0.08275170747084165,-4.59,8.708255122412526,0.41,0.3888888888888889,-0.6644444444444444,0.007935980198837147,0.001090830782496456,0.0019181062112814114
1590505168.4450068,0.06414998050820428,-4.594149980508204,8.631700038983592,0.41,0.3888888888888889,-0.6644444444444444,0.003417036994183001,0.0013171771067519314,0.0006381381339855051
1590505168.4550068,0.07718202227786893,-4.6156359554442625,8.614089888610655,0.41,0.3888888888888889,-0.6644444444444444,-0.004670716814354806,0.0006446931431480002,-0.0013982244668654382
1590505168.4650068,0.07114584232795096,-4.627708315344098,8.644270788360245,0.41,0.3888888888888889,-0.6644444444444444,-0.00532916190416065,-0.0026475323058812185,-0.002056669556671282
1590505168.4750068,0.07,-4.608526259378349,8.632947481243301,0.4155555555555556,0.3888888888888889,-0.6788888888888889,-0.0003042751459214391,0.0,0.00031289773651191214
1590505168.4850068,0.07,-4.5879770550061805,8.654103252472188,0.4155555555555556,0.3888888888888889,-0.6788888888888889,0.004363323129985824,0.0008701617154409113,0.001090830782496456
1590505168.4950068,0.07,-4.594716741551084,8.61320814612229,0.4155555555555556,0.3888888888888889,-0.6788888888888889,0.002922537892995364,0.002181661564992912,0.001090830782496456
1590505168.5050068,0.06732307204062203,-4.590707711837512,8.639292288162489,0.4155555555555556,0.3888888888888889,-0.6788888888888889,-0.002550868492803915,0.0018896540229314202,0.0005068156983734724
1590505168.5150068,0.06377634981584515,-4.621888174907923,8.619440874539613,0.4132477862236502,0.3888888888888889,-0.677420308404949,-0.005515145038829056,0.001090830782496456,-0.0012967987137263918
1590505168.5250068,0.08,-4.629552518645056,8.659776259322529,0.4033333333333333,0.3888888888888889,-0.6711111111111111,-0.0009443928515267639,0.001066424460668174,-0.002108442599508066
1590505168.5350068,0.08,-4.604298276739845,8.635745691849612,0.4033333333333333,0.3888888888888889,-0.6711111111111111,0.006387096199300281,0.0009329422868180014,0.001401811544769123
1590505168.5450068,0.08,-4.591356700967308,8.603391752418272,0.4033333333333333,0.3888888888888889,-0.6711111111111111,0.008504656583304147,0.003050502670821867,0.002107665006103745
1590505168.5550067,0.08638571428571429,-4.587228571428572,8.646385714285715,0.4033333333333333,0.3888888888888889,-0.6711111111111111,0.002089720113325354,0.0019845328592989096,0.001090830782496456
1590505168.5650067,0.07044025157232706,-4.620660377358491,8.630660377358492,0.4033333333333333,0.3887665967854647,-0.6707686932215234,-0.0032965043458462085,0.0010668187841396158,0.0010668187841396158
1590505168.5750067,0.07969963872260752,-4.6396996387226075,8.66,0.4033333333333333,0.38333333333333336,-0.6555555555555556,-0.003614259719838209,-0.0003745317050738076,-0.0007490634101476152
1590505168.5850067,0.07320914610515437,-4.615596951298282,8.624775610386255,0.4033333333333333,0.38333333333333336,-0.6555555555555556,0.0002198289653396815,-0.001090830782496456,-0.0012210653528598747
1590505168.5950067,0.08098526437445824,-4.600985264374458,8.611551574689397,0.4033333333333333,0.38333333333333336,-0.6555555555555556,0.0037641699033097876,0.000384201884964802,0.0004916775558204194
1590505168.6050067,0.07234897956401413,-4.5876510204359855,8.65,0.4033333333333333,0.38333333333333336,-0.6555555555555556,0.002313451757280455,0.0011567258786402276,0.0005783629393201138
1590505168.6150067,0.07806710201633243,-4.581932897983668,8.65,0.4033333333333333,0.38333333333333336,-0.6555555555555556,-0.0026765514339778893,-0.0013382757169889447,-0.0006691378584944723
1590505168.6250067,0.08,-4.629334278533221,8.667337114132886,0.4155555555555556,0.3955555555555556,-0.6644444444444444,-0.004072847342573608,0.00014523789370610803,-0.000872973941937294
1590505168.6350067,0.08,-4.62,8.612147069229863,0.4155555555555556,0.3955555555555556,-0.6644444444444444,0.0019474526441844678,0.001903454044395131,0.0016252465237973498
1590505168.6450067,0.0810871259980107,-4.61891287400199,8.566522755988064,0.4155555555555556,0.3955555555555556,-0.6644444444444444,0.007517228427166967,0.0009722437321882309,0.0
1590505168.6550066,0.08211378830708485,-4.61,8.631829317539372,0.4155555555555556,0.3955555555555556,-0.6644444444444444,0.005684732447787202,0.00021506306179788342,0.0
1590505168.6650066,0.0545342907115898,-4.611133572677898,8.677732854644205,0.4141700778381254,0.3955555555555556,-0.6660818272014074,0.0018107007736186684,0.0009671771853717082,0.00012365359712474783
1590505168.6750066,0.08542299548927552,-4.618855748872319,8.662288502255363,0.40473186248938803,0.3955555555555556,-0.6772360817044606,-0.0007163754766022021,0.00012481843529808486,0.0009660123471983711
1590505168.6850066,0.07851863055624755,-4.64407452222499,8.645186305562476,0.4033333333333333,0.3955555555555556,-0.6788888888888889,-0.0015352922091949836,0.0018584768870939477,-0.0006060537656480096
1590505168.6950066,0.07105519769386812,-4.614220790775473,8.570551976938681,0.4033333333333333,0.3955555555555556,-0.6788888888888889,0.0017212447145566702,0.0002302084252181209,0.0018363489271657305
1590505168.7050066,0.07,-4.61,8.664659393988009,0.4033333333333333,0.3955555555555556,-0.6788888888888889,0.0009214104361665173,0.0014296714751563333,-0.0009214104361665173
1590505168.7150066,0.07,-4.61,8.689892313554052,0.4033333333333333,0.3955555555555556,-0.6788888888888889,3.915589669859117e-06,0.00326466116814965,-3.915589669859117e-06
1590505168.7250066,0.0769540076505649,-4.623045992349435,8.649540076505648,0.41,0.4033333333333333,-0.6711111111111111,-0.002419895669701461,-0.00033226622180125125,0.00033226622180125125
1590505168.7350066,0.07277821153445764,-4.6244435769310845,8.56888715386217,0.41,0.4033333333333333,-0.6711111111111111,-0.004241930447653041,-0.0001816631838745268,0.001090830782496456
1590505168.7450066,0.08,-4.612520107238606,8.555120643431634,0.41,0.4033333333333333,-0.6711111111111111,0.0005585755481416167,0.002181661564992912,0.0013657318376028014
1590505168.7550066,0.08,-4.6199669761908995,8.599801857145394,0.41,0.4033333333333333,-0.6711111111111111,0.0054325398799686345,0.002181661564992912,0.0021780592262406378
1590505168.7650065,0.08,-4.612853132969347,8.664321803275882,0.41,0.4033333333333333,-0.6711111111111111,0.00545415391248228,0.000622457053903706,0.001402059309448309
1590505168.7750065,0.07017149595687332,-4.629657008086253,8.679657008086252,0.4033333333333333,0.4033333333333333,-0.6644444444444444,0.0021442469512266927,-0.002106832337460473,0.0021442469512266927
1590505168.7850065,0.07750663751366547,-4.617480087459004,8.630079650163985,0.4033333333333333,0.4033333333333333,-0.6644444444444444,0.00027198365520156054,0.001637694254589791,0.0
1590505168.7950065,0.07104979852047874,-4.634751007397606,8.552597582245744,0.4033333333333333,0.4033333333333333,-0.6644444444444444,0.001319861290807945,0.00034354576246723356,0.00011451525415574452
1590505168.8050065,0.08,-4.592425618353447,8.664851236706895,0.4033333333333333,0.4033333333333333,-0.6644444444444444,0.0035370862641422307,0.002743304514183643,0.0008262368658435936
1590505168.8150065,0.08,-4.598790868879334,8.682418262241331,0.40239289801726,0.40239289801726,-0.6652505318582215,0.004099531640686517,0.001090830782496456,0.0002637914892993069
1590505168.8250065,0.08655088892118394,-4.59,8.696724555539408,0.3955555555555556,0.3955555555555556,-0.6711111111111111,3.7888178610180276e-05,0.00037623965370221215,0.0014670704361986681
1590505168.8350065,0.09790929464496344,-4.598362821420146,8.656548714319415,0.3955555555555556,0.3955555555555556,-0.6711111111111111,-0.004819444281666637,-0.001090830782496456,0.00022806057584040673
1590505168.8450065,0.09172520051899033,-4.623099197924039,8.557603208303844,0.3955555555555556,0.3955555555555556,-0.6711111111111111,-0.006168604328560033,-0.001090830782496456,0.0009026405992871049
1590505168.8550065,0.07,-4.610711055330752,8.613555276653756,0.3955555555555556,0.3955555555555556,-0.6711111111111111,-0.000780574365359862,0.0,0.0010132666782123076
1590505168.8650064,0.07,-4.619787072901564,8.658935364507823,0.3955555555555556,0.3955555555555556,-0.6711111111111111,0.003179585374128927,0.0,2.3226743340110274e-05
1590505168.8750064,0.09128606423516604,-4.61,8.663464548176375,0.4033333333333333,0.3955555555555556,-0.6711111111111111,0.0038880516615369394,-0.00037792357982312913,0.0013284665167208982
1590505168.8850064,0.06274564507348937,-4.61,8.642059233805117,0.4033333333333333,0.3955555555555556,-0.6711111111111111,0.0023314132731915103,0.001957034002695015,0.002106785710893613
1590505168.8950064,0.09173495177346423,-4.6217349517734645,8.543469903546928,0.4033333333333333,0.3955555555555556,-0.6711111111111111,-0.0005230691423039759,0.0016138999248004318,0.001803153804864592
1590505168.9050064,0.09894623729862628,-4.628946237298626,8.557892474597253,0.4033333333333333,0.3955555555555556,-0.6711111111111111,0.001836818527361388,-0.0007459877448649319,0.0002298953584210161
1590505168.9150064,0.060312972306833766,-4.61,8.690312972306833,0.4033333333333333,0.3959728519646673,-0.6709024629065553,0.0023182214955381935,0.0011249707651327762,3.413998263632036e-05
1590505168.9250064,0.06982181783717184,-4.610089091081415,8.700089091081413,0.4033333333333333,0.4088888888888889,-0.6644444444444444,0.006496393047952545,0.002162224906182436,0.001090830782496456
1590505168.9350064,0.055445554754301025,-4.614554445245699,8.680049448851346,0.4033333333333333,0.4088888888888889,-0.6644444444444444,-0.00039421390594391323,0.00029700893768807386,0.0007938218448083821
1590505168.9450064,0.07607946343305129,-4.612158926866102,8.603039731716525,0.4033333333333333,0.4088888888888889,-0.6644444444444444,-0.004363323129985824,0.00075924748980476,0.00033158329269169595
1590505168.9550064,0.0857262339023358,-4.635726233902336,8.618547532195327,0.4033333333333333,0.4088888888888889,-0.6644444444444444,-0.0038971275683336373,-0.00023309778082609327,0.001090830782496456
1590505168.9650064,0.06920182160290148,-4.62,8.652394535191297,0.40386545226473236,0.4078246510260909,-0.6649765633758434,-0.0019204582953492866,-0.0007425597563049557,0.0009166952694007059
1590505168.9750063,0.06165086076713984,-4.62,8.67009483539716,0.41,0.3955555555555556,-0.6711111111111111,0.0009107498082552712,0.0023720874762834443,-0.001090830782496456
1590505168.9850063,0.07,-4.62,8.61890074074074,0.41,0.3955555555555556,-0.6711111111111111,-5.139025019761082e-05,-0.0021645314815937084,-0.0010394405322988452
1590505168.9950063,0.07,-4.622399450188251,8.561997250941253,0.41,0.3955555555555556,-0.6711111111111111,-0.0037959711727715375,-0.0005673519572142866,0.0016581827397107425
1590505169.0050063,0.07,-4.63057068409796,8.60114136819592,0.41,0.3955555555555556,-0.6711111111111111,-0.005267397978141267,0.001090830782496456,0.00012450395622734197
1590505169.0150063,0.07,-4.636887971804681,8.613775943609362,0.41,0.3955555555555556,-0.6711111111111111,-0.0032000704104281218,0.001090830782496456,0.0015027223347027722
1590505169.0250063,0.07,-4.615097320279284,8.686407145921908,0.4044660711731742,0.402011805853519,-0.6775673614090746,0.00234577336934166,-0.0007201431912373722,0.0012761745781259977
1590505169.0350063,0.07,-4.593922407340077,8.708038796329962,0.4033333333333333,0.4033333333333333,-0.6788888888888889,0.00502628564567763,-0.001090830782496456,0.001967727431590587
1590505169.0450063,0.07253434113342998,-4.61253434113343,8.611267170566714,0.4033333333333333,0.4033333333333333,-0.6788888888888889,0.0006761501842426003,0.001090830782496456,0.001905207832823675
1590505169.0550063,0.08701042313798578,-4.627010423137985,8.618505211568992,0.4033333333333333,0.4033333333333333,-0.6788888888888889,-0.0016924931948342715,0.001090830782496456,0.0003261122467724273
1590505169.0650063,0.08104675562251157,-4.603140266867534,8.655812977509953,0.4033333333333333,0.4033333333333333,-0.6788888888888889,-0.0012050141079751418,0.001090830782496456,0.0019532949140355403
1590505169.0750062,0.08,-4.608390368671723,8.668390368671723,0.4135882283765509,0.4033333333333333,-0.6844824680033712,0.000739663702225503,-0.000739663702225503,0.00035116708027095296
1590505169.0850062,0.07794517397603662,-4.6138355219281095,8.669451739760365,0.4155555555555556,0.4033333333333333,-0.6855555555555556,0.0017333680690700991,0.0002241467479614064,0.0008666840345350496
1590505169.0950062,0.07334169321493934,-4.595012539822409,8.59,0.4155555555555556,0.4033333333333333,-0.6855555555555556,-0.0005467832736773058,0.0012730918737222246,-0.00018226109122576858
1590505169.1050062,0.08795036319612591,-4.618975181598063,8.595124092009685,0.4155555555555556,0.4033333333333333,-0.6855555555555556,-0.0031607020015591925,0.0016227098353420342,-0.001090830782496456
1590505169.1150062,0.07102421307506054,-4.610512106537531,8.63743946731235,0.4155555555555556,0.4033333333333333,-0.6855555555555556,-0.002237523722498481,-0.002993181559961523,-0.001090830782496456
1590505169.1250062,0.08658146659008233,-4.601709266704958,8.676581466590083,0.4155555555555556,0.3955555555555556,-0.6555555555555556,0.0005593562211796159,-0.0014358532700867576,-0.00037290414745307717
1590505169.1350062,0.07336560180703454,-4.61,8.648220393675379,0.4155555555555556,0.3955555555555556,-0.6555555555555556,0.003639622552763264,0.001814531359719016,-0.001630966257082068
1590505169.1450062,0.09239895163602113,-4.60880052418199,8.59239895163602,0.4155555555555556,0.3955555555555556,-0.6555555555555556,0.0046690988253946545,0.00026168502902920834,0.0009599882679818518
1590505169.1550062,0.10957533068512224,-4.600212334657439,8.609575330685121,0.4155555555555556,0.3955555555555556,-0.6555555555555556,-0.0009518580741813536,0.002135337328887878,2.3162118052516946e-05
1590505169.1650062,0.09171417502346858,-4.6,8.634381099968708,0.4155555555555556,0.3955555555555556,-0.6555555555555556,-0.0017557221414212227,0.001516770206068145,-0.0013297827178495338
1590505169.1750062,0.09170372573808284,-4.6058518628690415,8.667555588607124,0.41230452062831036,0.3916543136428613,-0.6776625930608232,-0.00090498313449323,0.000452491567246615,-0.001543322349743071
1590505169.1850061,0.09351811693370107,-4.61,8.692963766132598,0.41,0.3888888888888889,-0.6933333333333334,0.0014141275154522764,-0.0014141275154522764,-0.003212022055674871
1590505169.1950061,0.09884251471825063,-4.618842514718251,8.638102396972247,0.41,0.3888888888888889,-0.6933333333333334,0.0012170928400583355,0.0016766133347453937,-0.0005050482302475182
1590505169.2050061,0.07858370129510227,-4.62,8.615722467530068,0.41,0.3888888888888889,-0.6933333333333334,-0.002024043600762402,0.0006242243733634828,-0.002336155787444144
1590505169.215006,0.07880809695032628,-4.62,8.627616193900653,0.41,0.3888888888888889,-0.6933333333333334,-0.002311678018626462,-0.0009608143288629058,-0.0013508636897635563
1590505169.225006,0.08,-4.62,8.64447769642992,0.4051741011900269,0.3993450029771639,-0.6619649910685084,-0.0029712974112626597,-0.001090830782496456,-0.00030119493622670853
1590505169.235006,0.06066206408213843,-4.62,8.63066206408214,0.4033333333333333,0.4033333333333333,-0.65,0.0009463908063400825,-3.6109994039093323e-05,-0.0031641623653720884
1590505169.245006,0.06,-4.612113997807735,8.598455991230939,0.4033333333333333,0.4033333333333333,-0.65,0.001090830782496456,-0.0008602293942157779,-0.0006918041648420344
1590505169.255006,0.07099133197032932,-4.602973995910988,8.620991331970329,0.4033333333333333,0.4033333333333333,-0.65,-0.00010813754289080829,0.001090830782496456,-0.0011989683253872644
1590505169.265006,0.0780783333051721,-4.624234999915516,8.628078333305172,0.4033333333333333,0.4033333333333333,-0.65,-0.0008812094640548055,0.001090830782496456,-0.0019720402465512616
1590505169.275006,0.07,-4.600982263457408,8.660982263457408,0.43666666666666665,0.3955555555555556,-0.6711111111111111,0.0001071483215861978,-0.0019673649218205163,-0.001037256621703357
1590505169.285006,0.07,-4.619557140010186,8.679557140010186,0.43666666666666665,0.3955555555555556,-0.6711111111111111,0.0021333530340703704,0.002085044503147829,-2.4154265461270776e-05
1590505169.295006,0.09786147636381647,-4.6,8.569623356362827,0.43666666666666665,0.3955555555555556,-0.6711111111111111,0.0035057690886338942,-0.00085755404135193,-0.003039215606344842
1590505169.305006,0.08112139191483679,-4.6022427838296736,8.65,0.43666666666666665,0.3955555555555556,-0.6711111111111111,0.00459787973851965,0.0009685059005017946,-0.001090830782496456
1590505169.315006,0.08912318522616708,-4.618246370452335,8.65,0.43666666666666665,0.3955555555555556,-0.6711111111111111,-0.0015121419829016826,9.564565458446139e-05,-0.001090830782496456
1590505169.325006,0.08232821840142972,-4.62767178159857,8.657671781598571,0.41620858240381253,0.401522496798888,-0.6770780523544435,-0.0030185231174239455,0.0,-0.001090830782496456
1590505169.335006,0.08,-4.63,8.66,0.41,0.4033333333333333,-0.6788888888888889,-0.003272492347489368,0.0008310535734732315,-0.001090830782496456
1590505169.345006,0.08868055555555555,-4.612638888888889,8.581875,0.41,0.4033333333333333,-0.6788888888888889,-0.003272492347489368,0.001090830782496456,-0.0001439290615793935
1590505169.355006,0.09,-4.622778103751769,8.601945259379422,0.41,0.4033333333333333,-0.6788888888888889,-0.0011816800103349248,0.0003938933367783081,-0.0006969374457181478
1590505169.365006,0.07592116279848622,-4.601842325596972,8.64111825580227,0.41,0.4033333333333333,-0.6788888888888889,0.0015357629001167491,0.0015357629001167491,-0.001090830782496456
1590505169.375006,0.07,-4.614336862226143,8.656084215556536,0.4059438562956428,0.39860116567824994,-0.6876772002483295,0.0008542916417102998,0.0035090314882755243,-0.001090830782496456
1590505169.385006,0.07,-4.63,8.6525121544155,0.4033333333333333,0.3955555555555556,-0.6933333333333334,0.0,0.0027297286383551832,-0.0019076280283117763
1590505169.395006,0.0630009593476436,-4.616001918695288,8.587008634128793,0.4033333333333333,0.3955555555555556,-0.6933333333333334,0.0007634768991534435,0.000654707766686025,-0.002181661564992912
1590505169.405006,0.08,-4.610169155035148,8.620845775175738,0.4033333333333333,0.3955555555555556,-0.6933333333333334,0.004307967274179782,0.0021263057091868705,-0.0032171364916833266
1590505169.415006,0.08,-4.618666004902457,8.663330024512286,0.4033333333333333,0.3955555555555556,-0.6933333333333334,0.0015273796573261355,-0.0006542819076667764,-0.00043654887482967976
1590505169.425006,0.09864289704911372,-4.61,8.688642897049114,0.4155555555555556,0.3955555555555556,-0.6933333333333334,-9.86913115895688e-05,9.86913115895688e-05,-9.86913115895688e-05
1590505169.435006,0.0773401391640002,-4.61,8.667340139164,0.4155555555555556,0.3955555555555556,-0.6933333333333334,-0.0016478715817996304,0.0016478715817996304,-0.0016478715817996304
1590505169.445006,0.07132205041867884,-4.600661025209339,8.573966151256037,0.4155555555555556,0.3955555555555556,-0.6933333333333334,-0.002253768229628272,-7.210666463536007e-05,0.0008024041239550157
1590505169.455006,0.0899047450268043,-4.609952372513402,8.629714235080414,0.4155555555555556,0.3955555555555556,-0.6933333333333334,-0.003267296994641981,-0.001085635429649069,-0.0032517109360998206
1590505169.4650059,0.09,-4.593425155409029,8.654862266886457,0.4155555555555556,0.3955555555555556,-0.6933333333333334,-0.0014644572779967217,-0.001090830782496456,-0.000560439743250399
1590505169.4750059,0.0759361809893635,-4.611095728515955,8.674063819010636,0.42024349522576776,0.3908676158853434,-0.6777068677659595,0.000443293887129659,0.000443293887129659,0.0
1590505169.4850059,0.07,-4.610159673895908,8.628562934936829,0.4222222222222222,0.3888888888888889,-0.6711111111111111,0.001073413062414705,0.001055995342332954,-1.7417720081750947e-05
1590505169.4950058,0.07,-4.619605657275409,8.543549084521315,0.4222222222222222,0.3888888888888889,-0.6711111111111111,4.301611828370368e-05,-0.0010047985459290486,-0.0010478146642127523
1590505169.5050058,0.08909237736327075,-4.613635874212243,8.584548880514298,0.4222222222222222,0.3888888888888889,-0.6711111111111111,0.0027768737251858983,-0.001090830782496456,-0.001090830782496456
1590505169.5150058,0.09306249999999999,-4.61,8.63775,0.4222222222222222,0.3888888888888889,-0.6711111111111111,0.0028497954192719913,0.0004226969282173766,-0.00033406692713953967
1590505169.5250058,0.07978524557566116,-4.6106442632730165,8.68978524557566,0.4033333333333333,0.4033333333333333,-0.6711111111111111,-4.685214734922141e-05,-0.0010674047088218453,-0.0021348094176436906
1590505169.5350058,0.07144501889043547,-4.635664943328694,8.681445018890436,0.4033333333333333,0.4033333333333333,-0.6711111111111111,-0.001866407347597734,-0.00015762710869758893,-0.00031525421739517787
1590505169.5450058,0.0778213600992444,-4.632178639900755,8.578322318709823,0.4033333333333333,0.4033333333333333,-0.6711111111111111,-0.0004753054935438489,0.001706356071449063,0.0008531780357245315
1590505169.5550058,0.08962466088304565,-4.610750678233909,8.617372626181318,0.4033333333333333,0.4033333333333333,-0.6711111111111111,0.0020997752724631422,0.0032315492012244835,-0.0010089444899666863
1590505169.5650058,0.06660270296175597,-4.625598198025496,8.65899549506374,0.4033333333333333,0.4033333333333333,-0.6711111111111111,-0.0003705876186600632,0.0015709928917207177,-0.001090830782496456
1590505169.5750058,0.06922447990794295,-4.602326560276171,8.67,0.40948298660529525,0.3961587378493778,-0.6711111111111111,-8.45961188860316e-05,8.45961188860316e-05,-8.45961188860316e-05
1590505169.5850058,0.0767836841561305,-4.613567368312261,8.69035105246839,0.41,0.3955555555555556,-0.6711111111111111,0.0,-0.0007399851496240643,-0.0007399851496240643
1590505169.5950058,0.08834056127020537,-4.628340561270205,8.59157270348733,0.41,0.3955555555555556,-0.6711111111111111,-0.0009098140976837757,-0.002000644880180232,-0.002000644880180232
1590505169.6050057,0.07430578338590957,-4.622152891692955,8.609235541535226,0.41,0.3955555555555556,-0.6711111111111111,0.001477129405976116,-0.00046968810601119744,-0.0013256748355020547
1590505169.6150057,0.07668522149830266,-4.606629557003394,8.633370442996606,0.41,0.3955555555555556,-0.6711111111111111,0.0014524170251773506,0.0007292445398155614,-0.0003615862426808946
1590505169.6250057,0.06822752985543683,-4.605886235072282,8.651772470144563,0.41,0.3955555555555556,-0.6841916334939591,0.00044874214151095564,-0.00019334649947454468,0.0012841772819710006
1590505169.6350057,0.08608844539362251,-4.627392296929082,8.642607703070919,0.41,0.3955555555555556,-0.6933333333333334,-0.0018972052868560867,-0.001090830782496456,0.0002844562781368252
1590505169.6450057,0.07216514954486347,-4.612165149544864,8.58649544863459,0.41,0.3955555555555556,-0.6933333333333334,0.0007365590166596683,0.0008546496052719307,-0.0009727401938841934
1590505169.6550057,0.09859264750997035,-4.61,8.589530882503324,0.41,0.3955555555555556,-0.6933333333333334,0.001090830782496456,-0.0030678012250963836,0.002028143223198173
1590505169.6650057,0.1,-4.61,8.649049652177114,0.41,0.3955555555555556,-0.6933333333333334,-0.0005194986747661542,-5.183343296414787e-05,0.0005713321077303018
1590505169.6750057,0.0830775806796324,-4.61,8.69538362898055,0.41,0.40213649640236515,-0.6745306451995916,-0.00016785598704796925,-0.0016780936038490043,-0.0009229747954484867
1590505169.6850057,0.07187391275625923,-4.601873912756259,8.683747825512517,0.41,0.4033333333333333,-0.6711111111111111,-0.0008864186106724224,0.00047759426702435534,0.0006820064388483888
1590505169.6950057,0.07,-4.608863467656416,8.591365323435843,0.41,0.4033333333333333,-0.6711111111111111,-0.002057685118424452,0.001090830782496456,-0.0008428778893595362
1590505169.7050056,0.08422672233031717,-4.602886638834841,8.615566805825793,0.41,0.4033333333333333,-0.6711111111111111,-0.002957608897589896,-0.00046106388269751214,-0.001090830782496456
1590505169.7150056,0.08382481007967389,-4.612350379840652,8.636175189920326,0.41,0.4033333333333333,-0.6711111111111111,-0.0012516661716333016,0.00025638666807425493,0.00025638666807425493
1590505169.7250056,0.062456104039463244,-4.611228052019732,8.666315843940804,0.42072126975366136,0.390662741806279,-0.6837817026381655,0.002870613263800308,0.00013395969456301985,-0.0008229113933704163
1590505169.7350056,0.07898237747481907,-4.6036725408417265,8.644690163366908,0.4222222222222222,0.3888888888888889,-0.6855555555555556,0.002582273625006035,0.0,-0.0004006120600131229
1590505169.7450056,0.09,-4.6,8.588671346307427,0.4222222222222222,0.3888888888888889,-0.6855555555555556,0.0003783588591131416,0.0027049540588196556,-0.0018033027058797703
