time,acc_x,acc_y,acc_z,mag_x,mag_y,mag_z,gyr_x,gyr_y,gyr_z
1590505194.5300136,0.01,-4.6,8.73,0.4511111111111111,0.2933333333333333,-0.6077777777777778,0.011999138607461015,-0.025089107997418484,0.02181661564992912
1590505194.5400136,-0.010806435610820819,-4.6,8.702258085852238,0.4611290245533582,0.2979569856912935,-0.6023835166934909,0.015025311999236188,-0.012984414430317791,0.03846056930469258
1590505194.5500135,-0.02,-4.6,8.69,0.4655555555555556,0.3,-0.6,0.016362461737446838,-0.007635815477475192,0.04581489286485115
1590505194.5600135,-0.008180301685891749,-4.55,8.608163620230702,0.4655555555555556,0.3,-0.6,0.01566680787764573,-0.004660160738127805,0.06198067597319126
1590505194.5700135,0.007510234905997854,-4.5575102349059975,8.532530704717994,0.4655555555555556,0.3,-0.6,0.0035396177678542733,0.0001380285303898194,0.07254247994611801
1590505194.5800135,0.02254315138036068,-4.572543151380361,8.585258908282164,0.4655555555555556,0.3,-0.6,-0.004382151471587683,0.0019042467839683335,0.07360283530610799
1590505194.5900135,0.03691330079950161,-4.582304433599834,8.636913300799502,0.46069064017812855,0.29795161457792546,-0.5969274218668882,-0.0073844407667834015,0.0003367066504210844,0.06545446805828345
1590505194.6000135,0.06,-4.588026302498939,8.663947395002122,0.4444444444444444,0.2911111111111111,-0.5866666666666667,-0.006652633194453396,-0.0023969585639422334,0.05324975713112687
1590505194.6100135,0.06,-4.571079978182259,8.697840043635482,0.4444444444444444,0.2911111111111111,-0.5866666666666667,-0.007576911805193561,-0.004245515785422561,0.0421584138022449
1590505194.6200135,0.06262694172180744,-4.5824818654683135,8.662409327341566,0.4444444444444444,0.2911111111111111,-0.5866666666666667,-0.01363142844012768,0.0005414590501702093,0.026466493669312117
1590505194.6300135,0.010682389158203881,-4.589902515834543,8.69951257917271,0.4444444444444444,0.2911111111111111,-0.5866666666666667,-0.015250363209252937,0.0021603938192954653,0.020800221977373724
1590505194.6400135,-0.04668448089193983,-4.624766994540554,8.70715049181083,0.4444444444444444,0.2884627808108032,-0.5882556648468514,-0.01833495798872893,5.083390553063346e-05,0.021714947838867852
1590505194.6500134,-0.10537632455343628,-4.626559188616409,8.7004302149561,0.4444444444444444,0.28,-0.5933333333333334,-0.011834936044622007,-0.003565725363468358,0.033933027648508654
1590505194.6600134,-0.12,-4.581906289093597,8.595718867280791,0.4444444444444444,0.28,-0.5933333333333334,-0.0023640497620162587,-0.005246210030118973,0.05879914111380516
1590505194.6700134,-0.12788046873047998,-4.57,8.58758164055668,0.4444444444444444,0.28,-0.5933333333333334,0.0013220357778220798,-0.006974797588564152,0.08598004923482504
1590505194.6800134,-0.14699776498744044,-4.58049664748116,8.64049664748116,0.4444444444444444,0.28,-0.5933333333333334,-0.0011450066185463897,-0.007635815477475192,0.11764232096046892
1590505194.6900134,0.17241748177455393,-4.643214272630692,8.630082426640291,0.44887667753477184,0.28,-0.5933333333333334,-0.004360326012768282,-0.00799842669923483,0.13745067282898854
1590505194.7000134,0.613651417344934,-4.684730283468987,8.559348301992703,0.4577777777777778,0.28,-0.5933333333333334,-0.0053830646877571385,-0.006693286247333853,0.09851423524972511
1590505194.7100134,0.21340948638787538,-4.604681897277575,8.540513387594723,0.4577777777777778,0.28,-0.5933333333333334,-0.0033284942466569943,-0.0030977879754085997,0.03739076462699581
1590505194.7200134,-0.00674500711387469,-4.579529957316752,8.578824893291879,0.4577777777777778,0.28,-0.5933333333333334,-0.003956984783489147,-0.0007357661387972091,0.0025623630600908743
1590505194.7300134,-0.0009513963480128894,-4.617145810955962,8.681902792696025,0.4577777777777778,0.28,-0.5933333333333334,-0.007324471750645041,0.0,0.0012983932670498901
1590505194.7400134,-0.006465722306752674,-4.593534277693247,8.694698583460129,0.4591522191029295,0.28353427769324735,-0.5958858672229009,-0.004363323129985824,0.0003855298901684751,0.002886962457320893
1590505194.7500134,0.006064658940828512,-4.61,8.670655890176528,0.4655555555555556,0.3,-0.6077777777777778,-0.004077137052188059,0.002396301123341235,0.001090830782496456
1590505194.7600133,-0.04074759575140907,-4.61,8.678457932625234,0.4655555555555556,0.3,-0.6077777777777778,-0.0006728538244309321,0.004949513544159081,0.001090830782496456
1590505194.7700133,-0.018376838778026712,-4.62513051633408,8.616492644887893,0.4655555555555556,0.3,-0.6077777777777778,0.0032440181005227277,-0.0009137713599081533,0.00017705942258830265
1590505194.7800133,-0.011092412164157071,-4.603277236492471,8.645630351343373,0.4655555555555556,0.3,-0.6077777777777778,0.008011664170469985,-0.00011916368158361044,0.0009716671009128455
1590505194.7900133,-0.007864967073091218,-4.61,8.705729934146182,0.4655555555555556,0.29691606355002065,-0.6061171966124043,0.0017158696373297906,0.0017158696373297906,-0.0013237267463280166
1590505194.8000133,-0.00823401649760854,-4.597648975253588,8.677648975253588,0.4655555555555556,0.2855555555555556,-0.6,0.0008981918659175051,-0.0008981918659175051,-0.0012834696990754067
1590505194.8100133,-0.02538055986289072,-4.585380559862891,8.641168040479883,0.4655555555555556,0.2855555555555556,-0.6,0.0024751255812682175,-0.002181661564992912,0.00029346401627530544
1590505194.8200133,-0.039072880110993226,-4.599072880110993,8.593244919611523,0.4655555555555556,0.2855555555555556,-0.6,0.0032219258017897037,-0.002181661564992912,0.0010402642367967918
1590505194.8300133,-0.02895287153071423,-4.59,8.61209425693857,0.4655555555555556,0.2855555555555556,-0.6,-0.0015791341753684184,-0.0013920944773087027,0.0004883033928719624
1590505194.8400133,-0.0013939867239359627,-4.59,8.671393986723936,0.4681886415896569,0.2855555555555556,-0.6010842118963946,-0.0001520603628860737,-0.002181661564992912,-0.0006346496938382348
1590505194.8500133,-0.01,-4.592797183861359,8.674405632277281,0.4844444444444445,0.2855555555555556,-0.6077777777777778,-0.001090830782496456,-0.001571410712938301,0.0012662852869109956
1590505194.8600132,-0.010651155378486056,-4.598697689243028,8.654139601593625,0.4844444444444445,0.2855555555555556,-0.6077777777777778,-0.0009487707162883119,0.0,-0.0009487707162883119
1590505194.8700132,-0.0167046434450861,-4.583295356554914,8.609544278658968,0.4844444444444445,0.2855555555555556,-0.6077777777777778,0.001809766056376767,0.0,0.0007313631455563006
1590505194.8800132,-0.01,-4.59,8.69,0.4844444444444445,0.2855555555555556,-0.6077777777777778,0.003272492347489368,0.0,0.0
1590505194.8900132,-0.019087442859851277,-4.589087442859851,8.69,0.4832277015909129,0.2855555555555556,-0.6077777777777778,0.006345895611126503,-0.0008917416986442242,-0.001090830782496456
1590505194.9000132,-0.010251943291693877,-4.580251943291694,8.69,0.47144703550003625,0.2855555555555556,-0.6077777777777778,0.004418288629590456,0.001035865282891823,-0.001090830782496456
1590505194.9100132,-0.018401585937283388,-4.593196828125433,8.61520475781185,0.4711111111111111,0.2855555555555556,-0.6077777777777778,0.001613910561332406,0.00017435992627864996,-0.001832941712435612
1590505194.9200132,-0.012705510493411114,-4.607294489506589,8.603527552467055,0.4711111111111111,0.2855555555555556,-0.6077777777777778,0.0034779468914118185,0.0005005799567804523,0.00029512541285800183
1590505194.9300132,-0.017881269191402253,-4.597881269191402,8.644237461617196,0.4711111111111111,0.2855555555555556,-0.6077777777777778,0.0017841838182490652,-0.001090830782496456,0.0003974777467438467
1590505194.9400132,-0.012329208783548274,-4.590776402927849,8.663105611711398,0.47007590720731185,0.2855555555555556,-0.6082953797296774,0.004109245865990266,-0.0012602156251601616,-0.0020969691436610594
1590505194.9500132,-0.04,-4.597954011446932,8.697954011446932,0.4577777777777778,0.2855555555555556,-0.6144444444444445,0.001760378970792905,-0.0028261268886250685,-0.0006444653236321567
1590505194.9600132,-0.03956035683366583,-4.590879286332668,8.684284638837655,0.4577777777777778,0.2855555555555556,-0.6144444444444445,0.004363323129985824,-0.0012826613021570666,0.000946957892750998
1590505194.9700131,-0.0316665411977265,-4.606666917604548,8.581665035570445,0.4577777777777778,0.2855555555555556,-0.6144444444444445,0.004363323129985824,-0.0047269881369708475,-0.0016362872333593374
1590505194.9800131,-0.01320123355427839,-4.59,8.582408634879949,0.4577777777777778,0.2855555555555556,-0.6144444444444445,0.004188722924837454,-0.004581152886740427,-0.0012654309876448263
1590505194.9900131,-0.029999599495364154,-4.59,8.699997196467548,0.4577777777777778,0.2855555555555556,-0.6144444444444445,0.0032725141916286338,-1.0922069632653825e-07,-0.0021816397208536467
1590505195.000013,-0.023157106241651924,-4.603157106241652,8.732280964586117,0.4655555555555556,0.28,-0.6222222222222222,0.005856210960577613,-0.005109767045281719,-0.004363323129985824
1590505195.010013,-0.00044511028482726103,-4.580445110284828,8.739851629905058,0.4655555555555556,0.28,-0.6222222222222222,0.01081119982490549,-0.007587261477445657,-0.004363323129985824
1590505195.020013,0.0,-4.597057948159829,8.61,0.4655555555555556,0.28,-0.6222222222222222,0.012320066678556856,-0.010266451682772878,-0.006096010054673962
1590505195.030013,-0.0039448206282377135,-4.586055179371762,8.617889641256475,0.4655555555555556,0.28,-0.6222222222222222,0.01222934303541573,-0.008296333082700776,-0.007420658888839756
1590505195.040013,-0.019833830671113453,-4.57,8.650332338657773,0.4655555555555556,0.28,-0.621982199858275,0.008690393736160403,-0.006454353385450623,-0.006472479647356246
1590505195.050013,-0.014018527006489277,-4.57,8.667990736496755,0.4655555555555556,0.28,-0.6077777777777778,0.006106631399081552,-0.0008716541345478641,-0.0017433082690957282
1590505195.060013,-0.03,-4.576216838592946,8.643421763752144,0.4655555555555556,0.28,-0.6077777777777778,0.0032330699788195947,-0.0006781518906997377,0.0002260506302332459
1590505195.070013,-0.03,-4.6,8.588326990409499,0.4655555555555556,0.28,-0.6077777777777778,0.0002716698371387123,-0.0034995757840952293,0.00040958047267887173
1590505195.080013,-0.024249026681430152,-4.6,8.62958495553095,0.4655555555555556,0.28,-0.6077777777777778,0.006081487785003458,-0.004781545711666609,-0.0028089954375140904
1590505195.090013,-0.0017771546951459057,-4.6,8.66703807550809,0.4655555555555556,0.28,-0.6077777777777778,0.008532788755299323,-0.006415746358530518,-0.005260296407809954
1590505195.100013,-0.0147876304023845,-4.584787630402385,8.716969076005961,0.4777777777777778,0.3,-0.6,0.013043637531088396,-0.010055435843940412,-0.00924889572178534
1590505195.110013,-0.002202411825726141,-4.565595176348548,8.666785529045642,0.4777777777777778,0.3,-0.6,0.008135756011802699,-0.007395569615951563,-0.0066748320313806744
1590505195.120013,-0.01,-4.553017294626312,8.63206917850525,0.4777777777777778,0.3,-0.6,0.0018525257791686262,-0.005722145230418021,-0.0026142207758407966
1590505195.130013,-0.01,-4.571290299325221,8.69870970067478,0.4777777777777778,0.3,-0.6,-0.0004222494667755112,-0.0009500809602379523,0.001090830782496456
1590505195.140013,-0.01,-4.577337793413692,8.692662206586308,0.4777777777777778,0.3,-0.6,-0.0024012872793763903,-0.0002904016893709926,0.001090830782496456
1590505195.150013,-0.01892466169986316,-4.58,8.69,0.453978679911476,0.2940502255334245,-0.6198325815552514,-0.0013254332063737915,0.0019470591411155764,0.002064360353054244
1590505195.160013,-0.004407725578521458,-4.587796137210739,8.627630902314085,0.4511111111111111,0.2933333333333333,-0.6222222222222222,-0.003642110718708593,0.002181661564992912,0.00048080827418482057
1590505195.170013,0.009001595539824308,-4.569001595539825,8.56698883122123,0.4511111111111111,0.2933333333333333,-0.6222222222222222,-0.0033814013793435085,-0.0005462856232257546,0.0011997398143505963
1590505195.180013,0.0013094430282245498,-4.561309443028224,8.62083389880243,0.4511111111111111,0.2933333333333333,-0.6222222222222222,-0.004220485053674552,0.003649132748429467,0.0020388234886816407
1590505195.190013,-0.009063281250000001,-4.56906328125,8.67531640625,0.4511111111111111,0.2933333333333333,-0.6222222222222222,-0.009306576218947305,0.009306576218947305,0.002181661564992912
1590505195.200013,-0.03920282815198618,-4.591594343696028,8.739202828151987,0.4711111111111111,0.2733333333333333,-0.6144444444444445,-0.010473518029588031,0.007548857518399886,-8.695795907530577e-05
1590505195.210013,-0.03,-4.608649081699459,8.713788980393508,0.4711111111111111,0.2733333333333333,-0.6144444444444445,-0.0047173422790483255,0.005808173061544781,-0.0007961061291228744
1590505195.220013,-0.03,-4.601422762826918,8.627073153923021,0.4711111111111111,0.2733333333333333,-0.6144444444444445,-0.000775996743897155,0.0018668275263936107,0.0007804320849375938
1590505195.230013,-0.006685033340181924,-4.573314966659818,8.629944899979453,0.4711111111111111,0.2733333333333333,-0.6144444444444445,0.0003676172474006529,-0.00036160676754790153,-0.002000858181218961
1590505195.240013,0.008983171146267207,-4.588983171146267,8.676949513438801,0.4711111111111111,0.2733333333333333,-0.6144444444444445,-0.0030506547046529045,-0.00207074274357468,-0.0011462901932055719
1590505195.2500129,-0.001770066767386325,-4.576459866465227,8.688229933232613,0.4577777777777778,0.2855555555555556,-0.6077777777777778,-0.001409324238217313,-0.002181661564992912,-0.0017954929016051125
1590505195.2600129,-0.011902289080874647,-4.567609156323498,8.670488554595627,0.4577777777777778,0.2855555555555556,-0.6077777777777778,0.001559138919005425,-0.001559138919005425,0.00041501509732499124
1590505195.2700129,-0.023419916517590938,-4.598290041741204,8.640259749552774,0.4577777777777778,0.2855555555555556,-0.6077777777777778,-0.0022099958457833385,0.0014638858035920836,0.0016220790333494705
1590505195.2800128,-0.04,-4.592285250957885,8.693427876436827,0.4577777777777778,0.2855555555555556,-0.6077777777777778,-0.006638686641239064,0.00289856903390082,-0.0007169074689079079
1590505195.2900128,-0.04,-4.605621869982035,8.713432804973053,0.4577777777777778,0.2855555555555556,-0.6077777777777778,-0.0008194888148508727,0.0007163698490052482,0.001465291715987664
1590505195.3000128,-0.0207143976595967,-4.5814287953191934,8.67214319297879,0.4711111111111111,0.2855555555555556,-0.6222222222222222,0.0009349733908901553,-0.003116634955883067,-7.792869580315033e-05
1590505195.3100128,-0.0272278343810969,-4.6,8.68336700628658,0.4711111111111111,0.2855555555555556,-0.6222222222222222,-0.00048603806424088783,-0.0015444253211881322,-0.0009396326029325639
1590505195.3200128,-0.008863689020465955,-4.597727378040932,8.58,0.4711111111111111,0.2855555555555556,-0.6222222222222222,0.0035823730962304774,-0.004673203878726933,0.0
1590505195.3300128,0.00802207225681369,-4.558022072256813,8.584944819357966,0.4711111111111111,0.2855555555555556,-0.6222222222222222,0.008187250143016305,-0.009278080925512763,-0.0002157584467821371
1590505195.3400128,-0.007616047127251035,-4.542383952872749,8.624040117818128,0.4711111111111111,0.2855555555555556,-0.6222222222222222,0.003922614641893226,-0.005013445424389681,-0.001921612647231369
1590505195.3500128,-0.017562490692875528,-4.570249962771502,8.690499925543005,0.466909727392847,0.2813541718372914,-0.6163402850166524,-0.004976905292642212,0.002236194982119439,0.0002931577270465619
1590505195.3600128,-0.03082680069300307,-4.609173199306997,8.732558793762973,0.4655555555555556,0.28,-0.6144444444444445,-0.006184224836211875,0.0023620414943763424,0.001090830782496456
1590505195.3700128,-0.03802151054085116,-4.601978489459149,8.66780640513234,0.4655555555555556,0.28,-0.6144444444444445,-0.0030449404469466406,0.003931683689008959,0.001090830782496456
1590505195.3800128,0.0,-4.57,8.651131575860163,0.4655555555555556,0.28,-0.6144444444444445,0.003334210236539093,-6.17178890497249e-05,6.17178890497249e-05
1590505195.3900127,0.0,-4.57,8.665190132229466,0.4655555555555556,0.28,-0.6144444444444445,0.0041009855387940134,-0.0008284931913046454,0.0008284931913046454
1590505195.4000127,0.0,-4.57,8.67,0.444633247930784,0.29321408902617146,-0.6144444444444445,0.004363323129985824,-0.001090830782496456,0.001090830782496456
1590505195.4100127,0.0,-4.611030132456849,8.678206026491369,0.4444444444444444,0.2933333333333333,-0.6144444444444445,-0.001902647279151349,0.0006994464772570221,0.0037762466721266734
1590505195.4200127,-0.000914559925093633,-4.599085440074906,8.67725632022472,0.4444444444444444,0.2933333333333333,-0.6144444444444445,-0.00465604981749845,0.0037647450587479513,0.0042635601181128455
1590505195.4300127,-0.004343373493975904,-4.587171686746988,8.645757530120482,0.4444444444444444,0.2933333333333333,-0.6144444444444445,0.0031182317895429566,-0.0023359221229393235,0.003221072161507231
1590505195.4400127,0.07145722891566265,-4.549271385542169,8.588907078313254,0.4444444444444444,0.2933333333333333,-0.6144444444444445,0.0010510910285377374,-0.004403062883944543,0.0025320252411721576
1590505195.4500127,0.0027478930392259016,-4.57290084278431,8.710152949745083,0.459539185424109,0.28777211297240435,-0.6160333645475671,-0.007799593317360988,0.004685317400087004,0.001401702233256813
1590505195.4600127,0.055639186842374094,-4.503815711512923,8.496268668914087,0.4655555555555556,0.2855555555555556,-0.6166666666666667,0.00391736288976202,-0.006336869916207627,0.005424423229800693
1590505195.4700127,-0.08147144754316071,-4.623787516600265,8.693365205843294,0.4655555555555556,0.2855555555555556,-0.6166666666666667,-0.010104309041052827,0.0002065769848393021,0.004489645101079703
1590505195.4800127,-0.021753813904739724,-4.582046116222196,8.71175381390474,0.4655555555555556,0.2855555555555556,-0.6166666666666667,-0.0021497763284252388,-0.0010270603093611094,0.0033043775840570413
1590505195.4900126,-0.07059857924770001,-4.639031675788984,8.7605985792477,0.4655555555555556,0.2855555555555556,-0.6166666666666667,-0.001261753435093286,0.0007489854773027956,0.0041924004773889936
1590505195.5000126,-0.027939362499279502,-4.60444694218687,8.711431782811689,0.46049410468742996,0.2855555555555556,-0.5920824767357709,-0.0039302980796052205,0.0060598985524367936,0.0015238558328770596
1590505195.5100126,0.05904107320304736,-4.520958926796952,8.581598211328254,0.4577777777777778,0.2855555555555556,-0.5788888888888889,-0.002233962908406745,0.00013947024910355467,0.0010733970013585116
1590505195.5200126,-0.03235204622380254,-4.534208007111354,8.551583985777292,0.4577777777777778,0.2855555555555556,-0.5788888888888889,-0.008381074170990413,0.008524192333246562,0.0026406839339958316
1590505195.5300126,0.06600855878726339,-4.594403423514905,8.721344745049684,0.4577777777777778,0.2855555555555556,-0.5788888888888889,-0.002006568468477016,-0.000858929351909881,0.00228341019676853
1590505195.5400126,-0.024798009787260197,-4.616122770736502,8.74,0.4577777777777778,0.2855555555555556,-0.5788888888888889,-0.010763798822676387,0.00661194574426157,0.004819743757769257
1590505195.5500126,-0.05,-4.517014731743881,8.515304869259376,0.45153624636831596,0.2855555555555556,-0.6059355249965565,-0.0018560193142144986,-0.00046476743836351177,0.0023903493463705602
1590505195.5600126,-0.002605272575450318,-4.5953105093641895,8.718015746152929,0.4511111111111111,0.2855555555555556,-0.6077777777777778,-0.01349874140715112,0.0020111468736672107,0.005283639221156579
1590505195.5700126,-0.009488568564746313,-4.533580020046776,8.426365805928118,0.4511111111111111,0.2855555555555556,-0.6077777777777778,-0.0038303775002004326,0.0032167038322182618,0.001313984843580882
1590505195.5800126,-0.047628817244965496,-4.6428864517348964,8.739252150893448,0.4511111111111111,0.2855555555555556,-0.6077777777777778,-0.00532482595547646,0.003272492347489368,0.001090830782496456
1590505195.5900126,0.012064488206016015,-4.61120969487124,8.697935511793984,0.4511111111111111,0.2855555555555556,-0.6077777777777778,-0.0012227880227941232,0.0024262191695517367,0.0002445576045588246
1590505195.6000125,-0.05695142007717123,-4.580677462205073,8.699322537794925,0.4575519570427534,0.2737473380142113,-0.5873817656609105,-0.0042155238045315,0.002181661564992912,0.001053880951132875
1590505195.6100125,-0.0007872842418974318,-4.58,8.657705203029927,0.4577777777777778,0.2733333333333333,-0.5866666666666667,0.003941240835405052,-0.0024319850824464635,0.002013560111984331
1590505195.6200125,0.030464900138421992,-4.566356733241052,8.540853865928415,0.4577777777777778,0.2733333333333333,-0.5866666666666667,0.0024776548415880546,-0.002528367579765812,-0.0007948375059013131
1590505195.6300125,0.003705236575356881,-4.569073690856161,8.626105362842413,0.4577777777777778,0.2733333333333333,-0.5866666666666667,-0.0008887414768549041,0.0007876968240341287,-0.0002020893056415519
1590505195.6400125,-0.04450710605288489,-4.547746446973558,8.647417851008814,0.4577777777777778,0.2733333333333333,-0.5866666666666667,0.004573303371774347,-0.0013366552836196028,-0.0008091620220386863
1590505195.6500125,-0.026406751456079874,-4.5959887475732,8.789971868933002,0.46213245814458226,0.28453108284797335,-0.6103063600864623,0.005323499708453325,-0.0034031465515183225,-0.0017015732757591612
1590505195.6600125,0.0,-4.6027074747627506,8.743371394003553,0.4655555555555556,0.2933333333333333,-0.6288888888888889,0.007617709888851201,-0.0051769198197021676,-0.0013680648752765678
1590505195.6700125,-0.012879763036641557,-4.570680355445037,8.625601184816793,0.4655555555555556,0.2933333333333333,-0.6288888888888889,0.008726646259971648,-0.007561600211226576,-0.0017933128820778878
1590505195.6800125,-0.01151006838188069,-4.568489931618119,8.606979863236239,0.4655555555555556,0.2933333333333333,-0.6288888888888889,0.01428329351017234,-0.011504969885071993,-0.004959985190093259
1590505195.6900125,-0.0248927569222316,-4.525321729233305,8.498304323083264,0.4655555555555556,0.2933333333333333,-0.6288888888888889,0.00958571376449779,-0.009562316954409905,-0.0030173322594311686
1590505195.7000124,-0.0009372802464588242,-4.529375146502361,8.585938452265346,0.4655555555555556,0.28041656899842615,-0.6353472710563425,-0.008215439187640072,-0.002386144393925542,0.0009885893680301409
1590505195.7100124,-0.01729285262492094,-4.6164642631246045,8.736989247311827,0.4655555555555556,0.28,-0.6355555555555555,-0.0002380370777743685,-0.00029530396894907225,0.00014765198447453613
1590505195.7200124,-0.00045394519643446665,-4.56158880818752,8.593858534169692,0.4655555555555556,0.28,-0.6355555555555555,0.001090830782496456,-0.0031982157384138005,0.0
1590505195.7300124,-0.004215847106590657,-4.555784152893409,8.632158471065907,0.4655555555555556,0.28,-0.6355555555555555,-0.00304806743585448,-0.001892859608039056,0.0004598775798167707
1590505195.7400124,-0.008516281835705205,-4.551483718164294,8.675162818357052,0.4655555555555556,0.28,-0.6355555555555555,-0.007270009358425941,-0.0004855456338485691,0.0009289822378802663
1590505195.7500124,-0.0037910771595172452,-4.568626768521448,8.727253537042897,0.45658711145263603,0.28344940157804605,-0.6224478295589808,-0.002631050515482118,-0.0006772884160543922,0.0004135423664420638
1590505195.7600124,-0.008321981219415422,-4.5716780187805846,8.75,0.4511111111111111,0.2855555555555556,-0.6144444444444445,0.0001830434539468825,-0.0001830434539468825,0.0009077873285495735
1590505195.7700124,-0.01941759476857055,-4.645340758148564,8.75,0.4511111111111111,0.2855555555555556,-0.6144444444444445,-0.005136501135317172,-0.0010273002270634345,6.353055543302142e-05
1590505195.7800124,-0.0011115079648546314,-4.527224801771554,8.608336309736409,0.4511111111111111,0.2855555555555556,-0.6144444444444445,-0.00545415391248228,0.0019997914995348986,0.0
1590505195.7900124,-0.013269346733668343,-4.559808040201005,8.64644271356784,0.4511111111111111,0.2855555555555556,-0.6144444444444445,-0.0011117703482710108,0.002181661564992912,-0.0007237305940352114
1590505195.8000124,-0.041835986942908535,-4.536328026114183,8.640885350742789,0.4656684357397168,0.2815118542698318,-0.6039308211015626,0.0034727674548479873,0.0013876826742090682,-0.00029685189171261216
1590505195.8100123,-0.041201052549305686,-4.599190527056249,8.709190527056249,0.4711111111111111,0.28,-0.6,-0.005234839602800255,0.00397027960233228,0.0019196325465572158
1590505195.8200123,-0.05771645509550362,-4.556850634713489,8.533977221497212,0.4711111111111111,0.28,-0.6,-0.006544984694978735,0.0053296058587304004,0.002181661564992912
1590505195.8300123,0.000140913508260454,-4.602623299319728,8.660352283770651,0.4711111111111111,0.28,-0.6,-0.0016247177143086785,-0.0011062020617444625,-0.0002784719253421169
1590505195.8400123,0.0010737741503538852,-4.577415991838296,8.634295096601416,0.4711111111111111,0.28,-0.6,-0.002064530975327412,-0.0001756958844982494,0.0004575674489991034
1590505195.8500123,-0.013507100354105064,-4.562464498229475,8.647393494688425,0.46678251134718113,0.28,-0.6140679492327723,-0.0033009249097754436,0.001501828647138734,0.0014733960848526584
1590505195.8600123,0.0,-4.5649588458337185,8.691010512037979,0.4577777777777778,0.28,-0.6433333333333333,-0.002667472851244841,0.0001833015381296644,-0.0007883210343741921
1590505195.8700123,0.0,-4.573758901583073,8.638439725395768,0.4577777777777778,0.28,-0.6433333333333333,-0.0005105986702330484,0.001090830782496456,0.0007504316690077569
1590505195.8800123,-0.0681888640578194,-4.562952783985545,8.614429175978318,0.4577777777777778,0.28,-0.6433333333333333,0.0027893441976650853,-0.0007687320159469341,-0.0007687320159469341
1590505195.8900123,-0.025443719225924658,-4.614556280774075,8.73275163174167,0.4577777777777778,0.28,-0.6433333333333333,0.0002969088251453195,-0.0018347266630824681,0.00039696097867556834
1590505195.9000123,0.0,-4.597819031329522,8.700365441575237,0.4577777777777778,0.28,-0.6245862361464547,-0.0016659845207623902,-0.002181661564992912,0.0005156770442305218
1590505195.9100122,0.021329473373653932,-4.574219648915769,8.648439297831539,0.4577777777777778,0.28,-0.6077777777777778,0.0009205845857297866,-0.002181661564992912,0.0
1590505195.9200122,0.022993837304847987,-4.558981511914544,8.568919884963023,0.4577777777777778,0.28,-0.6077777777777778,0.0014174077714878969,-0.0014174077714878969,0.000764253793505015
1590505195.9300122,-0.013044370661032294,-4.599566555991549,8.720005131300935,0.4577777777777778,0.28,-0.6077777777777778,-0.005217187140926983,-0.0037942670353922157,-0.0016126054703993035
1590505195.9400122,-0.013349141575677365,-4.5700948494540645,8.693491415756773,0.4577777777777778,0.28,-0.6077777777777778,-0.0036430002552679335,-1.0346470419620411e-05,-0.0007306693451375108
1590505195.9500122,-0.0232753217683268,-4.623014269725798,8.825941522104085,0.45335267052166883,0.2836875893800908,-0.6173655101660138,-0.002181661564992912,0.0014576050833711037,-0.0007240564816218081
1590505195.9600122,-0.013478164853972286,-4.569129906696848,8.645650637663557,0.4511111111111111,0.2855555555555556,-0.6222222222222222,-0.002181661564992912,-0.0025136744896273157,0.00071142185356543
1590505195.9700122,0.015823894510589992,-4.584431859347453,8.581392035163137,0.4511111111111111,0.2855555555555556,-0.6222222222222222,0.0043912215480954135,-0.003272492347489368,0.0020298140843662167
1590505195.9800122,0.002822618934574115,-4.5814113094672875,8.631532143196278,0.4511111111111111,0.2855555555555556,-0.6222222222222222,-0.0011040116976111349,-0.0013987307446055352,0.002181661564992912
1590505195.9900122,0.0024682437698805588,-4.58246824376988,8.652341218849402,0.4511111111111111,0.2855555555555556,-0.6222222222222222,-0.0011046870518365871,-0.0013600744107855373,0.0019124179367038308
1590505196.0000122,0.005655622630913941,-4.579139056577285,8.674794679208198,0.4554554884801971,0.2843487840641428,-0.617395136256571,0.0007599673954988998,-0.002892508649739918,0.0008538817542474539
1590505196.0100121,-0.0030581082991658418,-4.5816513502050045,8.696360808709176,0.4711111111111111,0.28,-0.6,-0.0013343514675751922,-0.003939668081276965,0.0
1590505196.0200121,-0.013890928815822417,-4.613890928815822,8.695272677960444,0.4711111111111111,0.28,-0.6,-0.0037881631874415334,-0.0040301249849776745,0.0007576326374883067
1590505196.0300121,-0.009590315508531122,-4.578361262034124,8.659180631017062,0.4711111111111111,0.28,-0.6,-0.0060219141264507905,-0.002660042488080291,0.001658590996464967
1590505196.0400121,0.0,-4.562640847919307,8.685281695838615,0.4711111111111111,0.28,-0.6,-0.005063144663846653,-0.0030666174906725657,-0.00028807182022722597
1590505196.050012,0.0,-4.563328680229097,8.695547800381828,0.45925719121293196,0.28246956664545403,-0.5970365200254553,-0.006181882009080105,-0.003514560804755122,-0.0013328992397622105
1590505196.060012,-0.06413506737699781,-4.53,8.674982764023817,0.4444444444444444,0.2855555555555556,-0.5933333333333334,-0.019993550603531876,0.0065412243883013746,0.004906858367895371
1590505196.070012,-0.18502927981918427,-4.471048422999212,8.710718468545597,0.4444444444444444,0.2855555555555556,-0.5933333333333334,-0.04305501739393476,0.01784515632284004,0.014066434964392121
1590505196.080012,-0.30788960405695337,-4.3389545543202654,8.702633118782915,0.4444444444444444,0.2855555555555556,-0.5933333333333334,-0.057986155931652836,0.022907446432425576,0.03731632747065602
1590505196.090012,-0.4780831815778653,-4.164115216667645,8.696099199122754,0.4444444444444444,0.2855555555555556,-0.5933333333333334,-0.056908904009305504,0.01425829403524539,0.08410950616839001
1590505196.100012,-0.6028290817153414,-4.061447278856439,8.7,0.4595139361591017,0.2815898998411721,-0.6036440381907303,-0.06108295265812016,-0.009961066028488593,0.16343103212490864
1590505196.110012,-0.6858577331889598,-3.9841422668110402,8.678047422270346,0.4655555555555556,0.28,-0.6077777777777778,-0.06965393139616828,-0.03102300279411273,0.2623627976919585
1590505196.120012,-0.5742186788154897,-3.6098271190504736,8.569950605442992,0.4655555555555556,0.28,-0.6077777777777778,-0.07823122932207564,-0.03521786611271935,0.3805887544650458
1590505196.130012,-0.43119059936442244,-3.309032961348016,8.718719976350602,0.4655555555555556,0.28,-0.6077777777777778,-0.09525288210298999,-0.02340255671627023,0.4796667771060726
1590505196.140012,-0.36301075450070797,-3.2101075450070797,8.951290371519114,0.4655555555555556,0.28,-0.6077777777777778,-0.10788668379102628,-0.027646117292893162,0.5587165063781121
1590505196.150012,-0.3607810499359795,-3.268284250960307,9.13615877080666,0.46579029733959315,0.28,-0.6077777777777778,-0.10820454744018301,-0.058590602426304525,0.6266382881682233
1590505196.160012,-0.045672846783124346,-2.7945382774264997,8.72828492837495,0.4777777777777778,0.28,-0.6077777777777778,-0.008315066410554737,-0.054768917312793604,0.8084783159359727
1590505196.170012,-0.1623606954538977,-2.907267825756496,8.756524868177284,0.4777777777777778,0.28,-0.6077777777777778,-0.031492265517835794,-0.07437322206186806,0.983220229938996
1590505196.180012,-0.18890953138011962,-2.9436369142251495,8.82418214853509,0.4777777777777778,0.28,-0.6077777777777778,-0.03205042355066641,-0.08163388117654741,1.0886308371904345
1590505196.190012,-0.22689071643207337,-2.9925209552427647,8.817479044757235,0.4777777777777778,0.28,-0.6077777777777778,-0.023384113434171218,-0.08784853804810222,1.1975258677536427
1590505196.200012,-0.30779440342013215,-3.121389428682472,8.785196268946756,0.4777777777777778,0.2772004145614717,-0.6045115947661613,-0.025939345515606067,-0.10131541342380024,1.3332718454705133
1590505196.210012,-0.36376456972803173,-3.2312937091840954,8.823764569728032,0.4777777777777778,0.2733333333333333,-0.6,-0.03081279098395896,-0.11304846501167598,1.4362249417486168
1590505196.220012,-0.37469955204031635,-3.2265022397984184,8.731309407153356,0.4777777777777778,0.2733333333333333,-0.6,-0.030990355936260653,-0.12344878214209049,1.546477164224677
1590505196.230012,-0.38940638286421614,-3.221948226683171,8.629406382864216,0.4777777777777778,0.2733333333333333,-0.6,-0.03682923226698734,-0.13459722337452085,1.6276108165362586
1590505196.240012,-0.4376179071868238,-3.3079746223818827,8.681070145585178,0.4777777777777778,0.2733333333333333,-0.6,-0.04317882732544337,-0.14545707486337262,1.7191480069949108
1590505196.250012,-0.4944629913432465,-3.3933889740297394,8.74,0.48075310533994214,0.26440735064684034,-0.6099177585405477,-0.039639587889144505,-0.15055285635983073,1.817605116131625
1590505196.260012,-0.5196783968046278,-3.414919599201157,8.744919599201157,0.4844444444444445,0.2533333333333333,-0.6222222222222222,-0.04198821475948202,-0.15652544692160988,1.9050323698905753
1590505196.270012,-0.5732497994422585,-3.415250028651106,8.664500515719906,0.4844444444444445,0.2533333333333333,-0.6222222222222222,-0.039951693035686846,-0.15707963267948966,1.985420869695136
1590505196.280012,-0.6499924364186442,-3.41,8.629988654627967,0.4844444444444445,0.2533333333333333,-0.6222222222222222,-0.04654032575925222,-0.16580462882198754,2.0812952322983955
1590505196.290012,-0.6738278531842623,-3.4406228254740983,8.705934238211148,0.4844444444444445,0.2533333333333333,-0.6222222222222222,-0.05377437082789565,-0.17685046620427974,2.1371314063814726
1590505196.3000119,-0.6795958304110457,-3.4867666432883646,8.775149964932545,0.4844444444444445,0.2533333333333333,-0.6222222222222222,-0.0575495030949239,-0.18691748558302174,2.1818038048746398
1590505196.3100119,-0.7547193592857612,-3.52,8.803581041160639,0.4922222222222222,0.20777777777777776,-0.6077777777777778,-0.046617709375227814,-0.17916442671059446,2.297044722713605
1590505196.3200119,-0.8248393422839041,-3.532419671141952,8.748629506712929,0.4922222222222222,0.20777777777777776,-0.6077777777777778,-0.05653865298690882,-0.19428232683441085,2.377202814877781
1590505196.3300118,-0.8767030377542134,-3.55376363915783,8.700357563649403,0.4922222222222222,0.20777777777777776,-0.6077777777777778,-0.058584223607712434,-0.20085368123112243,2.436040665941608
1590505196.3400118,-0.940003903962522,-3.5785731016982236,8.66715010735897,0.4922222222222222,0.20777777777777776,-0.6077777777777778,-0.05874963765195093,-0.20834910531307232,2.4961363898325977
1590505196.3500118,-1.0067411629623555,-3.6100446977774134,8.75665176740753,0.5030109716868513,0.18508420131769593,-0.6148462688063279,-0.06288832255345843,-0.2152637754408355,2.570104590526976
1590505196.3600118,-1.0513111631413945,-3.63,8.761311163141395,0.5244444444444445,0.14,-0.6288888888888889,-0.05727751189938224,-0.2189887274953227,2.6439048643664864
1590505196.3700118,-1.083140677937814,-3.6256197740207288,8.731817514228014,0.5244444444444445,0.14,-0.6288888888888889,-0.06047350157055306,-0.2203478180642841,2.7125178780841623
1590505196.3800118,-1.1193014662984715,-3.62,8.67,0.5244444444444445,0.14,-0.6288888888888889,-0.060735613260040025,-0.2235060131021377,2.7628156969718938
1590505196.3900118,-1.1925092042853827,-3.62,8.72689110749942,0.5244444444444445,0.14,-0.6288888888888889,-0.06132551956539112,-0.2297220195973902,2.814586430713576
1590505196.4000118,-1.23750598353008,-3.62,8.79004786824064,0.5277697997376712,0.12891548235591074,-0.6324913571232179,-0.05864325049114309,-0.22771418935553475,2.8451404600918635
1590505196.4100118,-1.251259324762488,-3.5774813504750242,8.660907194521915,0.5377777777777778,0.09555555555555556,-0.6433333333333333,-0.04530382022900496,-0.22188103597182265,2.875262297578832
1590505196.4200118,-1.3130311915474446,-3.5830311915474446,8.626894494717153,0.5377777777777778,0.09555555555555556,-0.6433333333333333,-0.05520284253434191,-0.2262152866077158,2.8714961469036493
1590505196.4300117,-1.3634102244389028,-3.588709476309227,8.70364089775561,0.5377777777777778,0.09555555555555556,-0.6433333333333333,-0.06278057586418974,-0.2322313449304581,2.8536786136411028
1590505196.4400117,-1.3863665594855303,-3.55,8.773183279742765,0.5377777777777778,0.09555555555555556,-0.6433333333333333,-0.05801045116305108,-0.22857640010845354,2.831544171758421
1590505196.4500117,-1.4066506467840458,-3.513421442687747,8.760048059647861,0.539625179662235,0.07597309558030903,-0.6462891763484648,-0.04654822962989857,-0.2134505818461847,2.7943824257044416
1590505196.4600117,-1.465702533420585,-3.4666598111620077,8.746659811162008,0.5433333333333333,0.03666666666666667,-0.6522222222222223,-0.04269791299219651,-0.20772438609883082,2.7406401934315614
1590505196.4700117,-1.5733084716533736,-3.4862082345333043,8.690074585039879,0.5433333333333333,0.03666666666666667,-0.6522222222222223,-0.05043367591337634,-0.2132837775664852,2.664202212991562
1590505196.4800117,-1.6392828155777583,-3.4516334812634977,8.609282815577759,0.5433333333333333,0.03666666666666667,-0.6522222222222223,-0.06311172001589278,-0.2131683253958144,2.580475455173008
1590505196.4900117,-1.6440615980869135,-3.335778634452049,8.635624639234765,0.5433333333333333,0.03666666666666667,-0.6522222222222223,-0.054353609858530154,-0.19812174733709564,2.493911089414876
1590505196.5000117,-1.629384459435842,-3.142402390856024,8.526426299416267,0.5332031878080324,0.01134130285341443,-0.6682616193039487,-0.0258081435070944,-0.17099837266220966,2.393253186870403
1590505196.5100117,-1.7953278858517565,-3.200270023642623,8.706215106391804,0.5166666666666667,-0.03,-0.6944444444444444,-0.05682418929600146,-0.18932436257129673,2.2446394081349226
1590505196.5200117,-1.88,-3.1705085643651776,8.84362881864736,0.5166666666666667,-0.03,-0.6944444444444444,-0.06267740699702884,-0.1869279065153577,2.115398266092836
1590505196.5300117,-1.9039845865033098,-3.02601541349669,8.65398458650331,0.5166666666666667,-0.03,-0.6944444444444444,-0.03687092112421299,-0.16013620067270046,1.9938563730825536
1590505196.5400116,-1.9356941574999533,-2.9835412362499305,8.745975952500604,0.5166666666666667,-0.03,-0.6944444444444444,-0.03631566870297627,-0.1520798037883174,1.881158485057956
1590505196.5500116,-1.920080778751838,-2.960121168127757,8.948949876226106,0.5166666666666667,-0.03,-0.6944444444444444,-0.04142513495014237,-0.1418608712939852,1.776414426991051
1590505196.5600116,-1.9599485058906139,-2.92,8.79700514941094,0.5422222222222223,-0.08888888888888889,-0.6944444444444444,-0.020930469897619444,-0.11507422184943078,1.6027249786928974
1590505196.5700116,-2.050892677686523,-2.9283570710746094,8.819249748761132,0.5422222222222223,-0.08888888888888889,-0.6944444444444444,-0.041776849524288416,-0.12562475573161944,1.4682623913781538
1590505196.5800116,-2.1537482917132564,-2.9566073868981064,8.862147737962125,0.5422222222222223,-0.08888888888888889,-0.6944444444444444,-0.039056516321999996,-0.11218097726705753,1.3067406619179889
1590505196.5900116,-2.204367223440057,-2.9383540708265152,8.735822964586744,0.5422222222222223,-0.08888888888888889,-0.6944444444444444,-0.015430427680365517,-0.09097385253263228,1.1956120018841714
1590505196.6000116,-2.243115693363564,-2.8743718977878547,8.809347080090692,0.5359072587508766,-0.11123414424903488,-0.6978448093905536,-0.023515962764826856,-0.08119837797322975,1.0002035263381661
1590505196.6100116,-2.26,-2.88,8.86,0.5277777777777778,-0.14,-0.7022222222222222,-0.03272492347489368,-0.0818123086872342,0.9130253649495336
1590505196.6200116,-2.3239843783528604,-2.880039054117849,8.824140594824256,0.5277777777777778,-0.14,-0.7022222222222222,-0.01440663458706115,-0.05782681190249205,0.7322797930545616
1590505196.6300116,-2.3534209253586975,-2.8385087860712557,8.693420925358698,0.5277777777777778,-0.14,-0.7022222222222222,-0.007358315723359536,-0.04374806484829773,0.593756622178748
1590505196.6400115,-2.446284158726835,-2.836513663490734,8.786284158726835,0.5277777777777778,-0.14,-0.7022222222222222,-0.011288608143209424,-0.0349816902982438,0.4293176006476251
1590505196.6500115,-2.48,-2.838297341943235,8.811223006457427,0.5177004888955633,-0.1432507383491015,-0.7126245849393469,-0.007902634095665646,-0.024851054942436675,0.3080536926614429
1590505196.6600115,-2.4986184726757283,-2.7960361454932037,8.785345381831068,0.4933333333333334,-0.1511111111111111,-0.7377777777777778,-0.003780232425433209,-0.010269580802120745,0.1739371333998858
1590505196.6700115,-2.5293821097920843,-2.7753089451039576,8.765926835311873,0.4933333333333334,-0.1511111111111111,-0.7377777777777778,-0.003851608421687473,-0.002249062930892666,0.06855030978117604
1590505196.6800115,-2.54,-2.766511429222357,8.763954283110571,0.4933333333333334,-0.1511111111111111,-0.7377777777777778,-0.0028919483083723347,0.002334065569556844,-0.017455156409114478
1590505196.6900115,-2.550654775383651,-2.7639955407688688,8.788668153077042,0.4933333333333334,-0.1511111111111111,-0.7377777777777778,-0.0020363796028795168,0.009888901956878809,-0.09045293723304323
1590505196.7000115,-2.609102753923601,-2.7859135327213504,8.781362155759549,0.4933333333333334,-0.1511111111111111,-0.7377777777777778,-0.001239418925803643,0.016264587373485802,-0.15580371275326488
1590505196.7100115,-2.5572810429411876,-2.811820260735297,8.805460782205891,0.5077777777777778,-0.16333333333333333,-0.7511111111111111,0.002181661564992912,0.0216205505271678,-0.2753039381277861
1590505196.7200115,-2.58988868940754,-2.8199257929383603,8.829480550568523,0.5077777777777778,-0.16333333333333333,-0.7511111111111111,0.0022180878711947683,0.03059183031816991,-0.34610905270512593
1590505196.7300115,-2.576568927362666,-2.813807439468888,8.684477024212445,0.5077777777777778,-0.16333333333333333,-0.7511111111111111,0.009288054207439436,0.04513938929987023,-0.4549766870862919
1590505196.7400115,-2.617518224420724,-2.8479318536839364,8.670827258526426,0.5077777777777778,-0.16333333333333333,-0.7511111111111111,0.002587741144561284,0.048861785445913644,-0.5145350254229866
1590505196.7500114,-2.573664575062961,-2.9040598454774407,8.82297007726128,0.5067877520240178,-0.16547838913314647,-0.7563912484644972,0.0025918813623973503,0.05358006028298349,-0.6180033886136678
1590505196.7600114,-2.484133961629081,-2.8686220127903064,8.820708179064289,0.5011111111111111,-0.17777777777777778,-0.7866666666666666,0.017753922693187353,0.07323597751388458,-0.689888346546848
1590505196.7700114,-2.5169006793917825,-2.8763992235522484,8.658997088320932,0.5011111111111111,-0.17777777777777778,-0.7866666666666666,0.009577854233889942,0.06842801614211592,-0.798203690985176
1590505196.7800114,-2.4827144189700037,-2.933178604742501,8.815499533604989,0.5011111111111111,-0.17777777777777778,-0.7866666666666666,-0.0048696712594229075,0.06425003484064845,-0.8746283249088728
1590505196.7900114,-2.51,-2.9429021939717037,8.717097806028297,0.5011111111111111,-0.17777777777777778,-0.7866666666666666,0.01966935428472049,0.0910998258248331,-0.9330766106589076
1590505196.8000114,-2.51933970681963,-2.973349267049076,8.735684193753984,0.492030840592026,-0.18063157708377595,-0.7822562495573967,0.021777995095456408,0.1042823799474045,-0.9901580512942284
1590505196.8100114,-2.524967517540528,-3.060728206768345,8.784239310772183,0.4622222222222222,-0.19,-0.7677777777777778,0.013638928067874012,0.1012160442378271,-1.0658494558282774
1590505196.8200114,-2.4747225660621064,-3.0905548678757873,8.70416769818632,0.4622222222222222,-0.19,-0.7677777777777778,0.01883196267204204,0.10932518503329638,-1.1221608914532217
1590505196.8300114,-2.4477208636727132,-3.123069784081822,8.650790647754535,0.4622222222222222,-0.19,-0.7677777777777778,0.018630369593315613,0.12217304763960307,-1.1843429962533372
1590505196.8400114,-2.412402950474183,-3.1356977871443625,8.671783772391992,0.4622222222222222,-0.19,-0.7677777777777778,0.012840446158909703,0.11989409638290258,-1.242680588487396
1590505196.8500113,-2.3842300265508083,-3.165287533188511,8.839424933622977,0.4616347185346099,-0.19282001770053905,-0.7677777777777778,-0.0013741690098230306,0.1124810306183417,-1.3009300110267221
1590505196.8600113,-2.4111583788444957,-3.212210405288876,8.741158378844496,0.4566666666666666,-0.21666666666666667,-0.7677777777777778,0.008106449856471219,0.1334372315606106,-1.3634804718846512
1590505196.8700113,-2.381018252371371,-3.219745436907157,8.711018252371371,0.4566666666666666,-0.21666666666666667,-0.7677777777777778,0.017147838736406858,0.13836889822239368,-1.4004679718480242
1590505196.8800113,-2.3243684924591403,-3.2456315075408595,8.665533854988325,0.4566666666666666,-0.21666666666666667,-0.7677777777777778,0.00776293680943552,0.1436296037757098,-1.4621265692642202
1590505196.8900113,-2.278050419637786,-3.2919495803622136,8.65230011989651,0.4566666666666666,-0.21666666666666667,-0.7677777777777778,0.011371878210824493,0.1457949686165432,-1.4924416770358873
1590505196.9000113,-2.2280602952602955,-3.262984926184926,8.707909557109557,0.4616415436415436,-0.2097018389018389,-0.7652903392903393,0.011461944706958875,0.15463759565499177,-1.5485072042726857
1590505196.9100113,-2.0907048416246554,-3.2626762104061635,8.778817178731096,0.49,-0.17,-0.7511111111111111,0.0055831796975136065,0.1444966355337325,-1.6021906297090813
1590505196.9200113,-1.9531784518137647,-3.2538754186518233,8.689303033161941,0.49,-0.17,-0.7511111111111111,0.012743254082043836,0.15013724781784174,-1.6383345442955408
1590505196.9300113,-1.9334342771423214,-3.329545752859554,8.649697168573036,0.49,-0.17,-0.7511111111111111,0.013822695542329105,0.14511352785627263,-1.674227048426596
1590505196.9400113,-1.9147217862889607,-3.3952782137110393,8.708473747988636,0.49,-0.17,-0.7511111111111111,0.013665733189217107,0.140429289042413,-1.710105292599759
1590505196.9500113,-1.8880598004326286,-3.416822971181355,8.749765543227968,0.4936010125679374,-0.16241892090960544,-0.7475100985431736,0.016574104678674345,0.14018454318399948,-1.7434871097026134
1590505196.9600112,-1.8210630553824967,-3.4470210184608323,8.750642686165852,0.5111111111111111,-0.12555555555555556,-0.73,0.02063275109803655,0.1399742242199641,-1.7899616037403783
1590505196.9700112,-1.8004333213102928,-3.440144440436764,8.867544512575007,0.5111111111111111,-0.12555555555555556,-0.73,0.015381923007212174,0.13322315953176134,-1.819966335687946
1590505196.9800112,-1.6784606736894698,-3.4819232210517552,8.546541199983345,0.5111111111111111,-0.12555555555555556,-0.73,0.029074725802541068,0.14860465371209464,-1.855000235213315
1590505196.9900112,-1.6292591110274037,-3.496668000753367,8.697777333082211,0.5111111111111111,-0.12555555555555556,-0.73,0.02371563093014578,0.14524213097157268,-1.8874609640968087
1590505197.0000112,-1.6172059216503663,-3.5841911175244507,8.672794078349634,0.5101797516612331,-0.12679736815539286,-0.7310089727373678,0.03412054092463889,0.1477193356378947,-1.9208286564151948
1590505197.0100112,-1.5786974935650524,-3.643907519304843,8.726932583654321,0.4977777777777778,-0.14333333333333334,-0.7444444444444445,0.03775283315328376,0.15352297750927216,-1.9531966269364127
1590505197.0200112,-1.5710407272860039,-3.6668778181419888,8.826470545281952,0.4977777777777778,-0.14333333333333334,-0.7444444444444445,0.03524716224781366,0.15185253023895876,-1.9824294541668972
1590505197.0300112,-1.3948318699794506,-3.6274719783299085,8.633200541752288,0.4977777777777778,-0.14333333333333334,-0.7444444444444445,0.04221772909120589,0.1635757103339679,-2.0183982993249745
1590505197.0400112,-1.3391932714667594,-3.62,8.82,0.4977777777777778,-0.14333333333333334,-0.7444444444444445,0.030483496530493346,0.15407114162715344,-2.0474578484187504
1590505197.0500112,-1.3,-3.6252186657981227,8.769552897284813,0.49855091345157376,-0.1375348157798636,-0.7316877058268111,0.04140493012186308,0.16974345037003463,-2.071109209738092
1590505197.0600111,-1.3,-3.65,8.53,0.5022222222222222,-0.11,-0.6711111111111111,0.0567232006898157,0.1832595714594046,-2.0900317792632093
1590505197.0700111,-1.2645977655868337,-3.6783217875305327,8.735332959596365,0.5022222222222222,-0.11,-0.6711111111111111,0.03355249244959346,0.15468236462979718,-2.112430130562091
1590505197.0800111,-1.235977378953119,-3.732067863140643,8.721841652671833,0.5022222222222222,-0.11,-0.6711111111111111,0.027822353887227154,0.15054698585164597,-2.127784394631295
1590505197.0900111,-1.2016367432150312,-3.768908837856646,8.472002783576897,0.5022222222222222,-0.11,-0.6711111111111111,0.05317272488195737,0.16824558000868478,-2.1314238353353416
1590505197.100011,-1.0857434508408796,-3.7618388179172055,8.672190734152652,0.5022222222222222,-0.11,-0.6711111111111111,0.030504873803652254,0.15928605578573304,-2.1341540895893156
1590505197.110011,-1.0445045521292218,-3.5247295154185023,8.673738619676946,0.5077777777777778,-0.024444444444444446,-0.6355555555555555,0.04431624193958877,0.15947747415990948,-2.124380679067804
1590505197.120011,-1.0116563876651983,-3.672546255506608,8.755859030837005,0.5077777777777778,-0.024444444444444446,-0.6355555555555555,0.03535829470312301,0.17381018973825468,-2.114526937107692
1590505197.130011,-0.8817200255554767,-3.600224793544876,8.418487731004946,0.5077777777777778,-0.024444444444444446,-0.6355555555555555,0.05726341501145665,0.1262346829206071,-2.096425920033697
1590505197.140011,-0.7219585695231744,-3.425461403801267,7.635574358119373,0.5077777777777778,-0.024444444444444446,-0.6355555555555555,0.11721193178169695,0.07676489752984583,-2.0727592613010857
1590505197.150011,-0.7588931604314896,-3.5743028459949504,7.619894709662612,0.5071357075459669,-0.012887180271848622,-0.6335223331548211,0.15664631723840503,0.03816080090192214,-2.0261154671425445
1590505197.160011,-0.9535161616161616,-3.900329292929293,9.80988787878788,0.5011111111111111,0.09555555555555556,-0.6144444444444445,-0.11551997153072241,0.3226217983476738,-1.9176805156287695
1590505197.170011,-0.73039347895498,-3.6596065210450197,8.370827714441335,0.5011111111111111,0.09555555555555556,-0.6144444444444445,0.030723841188245785,0.0909090051996982,-1.8972462923349842
1590505197.180011,-0.7024133733668749,-3.6944245178392707,8.515284697990207,0.5011111111111111,0.09555555555555556,-0.6144444444444445,0.05710593125000835,0.18537912155811076,-1.8313232999808946
1590505197.190011,-0.7586107168967445,-3.8152821141358104,8.916121360684643,0.5011111111111111,0.09555555555555556,-0.6144444444444445,0.01872721849635381,0.11005390967112945,-1.790504859756679
1590505197.200011,-0.7445774527169876,-3.902950688532084,9.124816867607565,0.5001471027052422,0.09989359338196548,-0.6140829412922436,0.04666912038751351,0.13540743477272058,-1.7215537408622967
1590505197.210011,-0.6461963982184736,-3.7952144071261054,8.844785592873894,0.4833333333333333,0.17555555555555555,-0.6077777777777778,0.04150512904044996,0.11910800958749604,-1.6341919795717288
1590505197.220011,-0.6254997804770964,-3.8482994292404507,8.76829942924045,0.4833333333333333,0.17555555555555555,-0.6077777777777778,0.037284605724222486,0.11959866783592418,-1.562342029037038
1590505197.230011,-0.5816547845539504,-3.734302439840271,8.654302439840272,0.4833333333333333,0.17555555555555555,-0.6077777777777778,0.039197704572678474,0.11577247013901222,-1.490600822219939
1590505197.240011,-0.5565801206002812,-3.770420740830298,8.84786032734362,0.4833333333333333,0.17555555555555555,-0.6077777777777778,0.03817907738737596,0.10659379676593872,-1.4001618823434572
1590505197.250011,-0.6009515029696686,-4.042987803956535,8.968296936631956,0.4833333333333333,0.17555555555555555,-0.6077777777777778,0.03817907738737596,0.10451943949091952,-1.3455371407679508
1590505197.260011,-0.5205277593085107,-3.9710027426861703,8.940422207446808,0.49217531028368794,0.22197593454491724,-0.6144092604905438,0.0153925271358396,0.07650207879962002,-1.2407063717730746
1590505197.270011,-0.48744316412332606,-3.9211647461849894,8.476065088757396,0.4922222222222222,0.2222222222222222,-0.6144444444444445,0.049897779741037276,0.0914516042456103,-1.1541531527176903
1590505197.280011,-0.4334770202404505,-3.922389856947192,8.712174326586517,0.4922222222222222,0.2222222222222222,-0.6144444444444445,0.025397859922786863,0.06580562030555324,-1.0360499860492662
1590505197.290011,-0.3856041698371633,-3.866538198143357,8.728131943387613,0.4922222222222222,0.2222222222222222,-0.6144444444444445,0.0436752725258006,0.06841667924884093,-0.9542368058262524
1590505197.300011,-0.37102513147371735,-3.9048743426314134,8.658201051789739,0.4922222222222222,0.2222222222222222,-0.6144444444444445,0.04875191172204946,0.07459637701167335,-0.8536118730687833
1590505197.310011,-0.37,-4.010543422718891,8.675135855679722,0.47546498510240703,0.24456520504864243,-0.6209611477688171,0.03172204063644822,0.04876232437641985,-0.7856323681181175
1590505197.320011,-0.314287604242954,-4.059435375274634,8.73143802121477,0.4722222222222222,0.2488888888888889,-0.6222222222222222,0.02003962501450085,0.04799655442984406,-0.691963477803717
1590505197.330011,-0.2657677492985877,-3.9052903133767654,8.543858005611298,0.4722222222222222,0.2488888888888889,-0.6222222222222222,0.030479925356311527,0.04672697036014979,-0.6209951963205994
1590505197.340011,-0.2248408211841714,-3.9465605474561145,8.802484379648915,0.4722222222222222,0.2488888888888889,-0.6222222222222222,0.02119476745615845,0.03571602626914756,-0.5637268083111407
1590505197.3500109,-0.1749235346623029,-3.9132823564415355,8.536258851532281,0.4722222222222222,0.2488888888888889,-0.6222222222222222,0.025732376849220917,0.032993460633310094,-0.5192582362591286
1590505197.3600109,-0.2598807543633595,-4.033134590605599,8.851090312756238,0.4744444444444445,0.3,-0.6355555555555555,0.01289298863157671,0.0296233965235599,-0.4597006248950244
1590505197.3700109,-0.20283129052313703,-3.9456987743138825,8.608566258104627,0.4744444444444445,0.3,-0.6355555555555555,0.0102985121996841,0.02477631403869304,-0.4176081042785242
1590505197.3800108,-0.16638815039878466,-3.930380744398025,8.619164451196353,0.4744444444444445,0.3,-0.6355555555555555,0.03072151103415793,0.02247192198878737,-0.3745529894157616
1590505197.3900108,-0.23706593568870676,-4.046479122826448,8.819461549820947,0.4744444444444445,0.3,-0.6355555555555555,0.008083894951076802,0.017581315226686614,-0.33918963755338266
1590505197.4000108,-0.19835456122863365,-4.00002547347436,8.548481928600436,0.4744444444444445,0.3,-0.6355555555555555,0.013995753196208082,0.019270417582438408,-0.30963034632772635
1590505197.4100108,-0.20707104402681903,-4.003905274630908,8.801701291409321,0.51,0.30666666666666664,-0.6355555555555555,0.01904920493998039,0.0067047344617848685,-0.2601744725459416
1590505197.4200108,-0.16551177461439376,-4.059317633847475,8.683950028074117,0.51,0.30666666666666664,-0.6355555555555555,0.010737947704905292,0.008971440980441715,-0.22164046172877527
1590505197.4300108,-0.13018490095448224,-3.969876732697012,8.756795050122308,0.51,0.30666666666666664,-0.6355555555555555,0.01313703170895865,0.004410385448987002,-0.15026572044736136
1590505197.4400108,-0.1598978408189015,-3.9502043183621973,8.248274893668981,0.51,0.30666666666666664,-0.6355555555555555,0.02034689437727923,0.011731686496764475,-0.10664510841190183
1590505197.4500108,-0.15136225808421008,-3.96727548383158,8.939657095178983,0.51,0.30666666666666664,-0.6355555555555555,-0.011310085360779359,-0.010614416847747467,-0.08523009270674456
1590505197.4600108,-0.1422927735869684,-3.9468783207609053,8.656931452935389,0.5399725471617896,0.32036840251205617,-0.6355555555555555,-0.004592269990840387,-0.010817888244852084,-0.0582719251940213
1590505197.4700108,-0.1334240236905423,-3.952568017767907,8.725447899315196,0.5488888888888889,0.3244444444444444,-0.6355555555555555,0.012313284951633599,-0.002117964153947635,-0.026056884668878188
1590505197.4800107,-0.16606611839048416,-3.976066118390484,8.58517354335099,0.5488888888888889,0.3244444444444444,-0.6355555555555555,-0.007206695562039534,-0.013151272235019707,-0.012047821023899443
1590505197.4900107,-0.10298165514972031,-3.9116263573543932,8.84,0.5488888888888889,0.3244444444444444,-0.6355555555555555,0.00026611209982668976,-0.01388512006153538,0.006104650156503077
1590505197.5000107,-0.19786751398486344,-3.9633822803553804,8.84,0.5488888888888889,0.3244444444444444,-0.6355555555555555,0.008734655197725665,-0.004475627730536523,0.02680553328470057
1590505197.5100107,-0.22684480626545755,-4.02278812860676,8.82918219291014,0.7288888888888889,0.3888888888888889,-0.6577777777777778,-0.017167410322288204,-0.021423269084171533,0.04555079580792646
1590505197.5200107,-0.16633347073371807,-3.884476504534213,8.62171475680132,0.7288888888888889,0.3888888888888889,-0.6577777777777778,0.009235640672908985,-0.013879540228400907,0.08232647397980827
1590505197.5300107,-0.19632432955287404,-3.87,8.581837835223563,0.7288888888888889,0.3888888888888889,-0.6577777777777778,0.0020932144000058335,-0.017052339072939543,0.12084636654331313
1590505197.5400107,-0.2,-3.9554351559194645,8.64644956571514,0.7288888888888889,0.3888888888888889,-0.6577777777777778,-0.002015679150314747,-0.017453292519943295,0.16577484164207867
1590505197.5500107,-0.2139070885899491,-4.001721265769847,8.768210253014567,0.7288888888888889,0.3888888888888889,-0.6577777777777778,-0.005974231647198345,-0.026555460717236336,0.20287958526074418
1590505197.5600107,-0.22793640493186243,-3.9326995457495135,8.669208306294614,1.2474006777705675,0.5176350133391016,-0.9152700266782032,-0.005038633036865525,-0.03227471687030722,0.2675126228708749
1590505197.5700107,-0.23,-3.8777087681724955,8.759164927310017,1.3822222222222222,0.5511111111111111,-0.9822222222222222,-0.004363323129985824,-0.034838379655823926,0.3240216055074811
1590505197.5800107,-0.2018664548229293,-4.019423422670068,8.483019609482795,1.3822222222222222,0.5511111111111111,-0.9822222222222222,-0.00947814597996973,-0.03292852211239271,0.41037585838617313
1590505197.5900106,-0.21887862242755146,-4.0488786224275515,8.620468290634188,1.3822222222222222,0.5511111111111111,-0.9822222222222222,-0.004669131423692832,-0.03684359996991389,0.4711474991551812
1590505197.6000106,-0.22,-4.009668699891878,8.783258940410862,1.3822222222222222,0.5511111111111111,-0.9822222222222222,-0.017561710226798245,-0.05028663370169191,0.5123467667301539
1590505197.6100106,-0.23952760957613184,-4.013018406384088,8.78745398403978,1.1753742096750477,0.24083909229034944,-0.877351726350403,-0.02072578486743266,-0.05913105971145092,0.5590494418537564
1590505197.6200106,-0.18935947204968945,-4.029715320910974,8.669644151138716,1.0644444444444443,0.07444444444444444,-0.8211111111111111,-0.0022049518185011823,-0.06107876040196544,0.6384698347273786
1590505197.6300106,-0.10794836956521739,-3.993532608695652,8.624415760869564,1.0644444444444443,0.07444444444444444,-0.8211111111111111,-0.005165143039402376,-0.06009202999499838,0.6808992422269624
1590505197.6400106,-0.1,-4.204519129202628,8.756512173128945,1.0644444444444443,0.07444444444444444,-0.8211111111111111,-0.0075814636358328335,-0.061059347898980355,0.7169513772580326
1590505197.6500106,-0.04493318998617724,-4.217866687144832,8.689199815696513,1.0644444444444443,0.07444444444444444,-0.8211111111111111,-0.011068305275015875,-0.07052587076303841,0.7297803691740604
1590505197.6600106,-0.0014369093941078367,-4.2390420604039285,8.727126181211785,0.63917176209005,0.21831778971856797,-0.7058008564428797,-0.0005747224995420915,-0.07100849586218638,0.741346952097923
1590505197.6700106,0.059689670459583274,-4.180310329540417,8.640465494310625,0.6177777777777778,0.2255555555555556,-0.7,0.008681510657917708,-0.051370601881954796,0.7244019107817546
1590505197.6800106,-0.02095984307977497,-4.1889955381199755,8.810915224279524,0.6177777777777778,0.2255555555555556,-0.7,0.0038203413167771363,-0.04734400282277782,0.6811361560775351
1590505197.6900105,-0.13553783732779767,-4.066872523117569,8.768436261558785,0.6177777777777778,0.2255555555555556,-0.7,-0.0398989782807351,-0.08719909623369045,0.5947689739611565
1590505197.7000105,-0.15609178863805506,-3.9586231704291737,8.558970974944183,0.6177777777777778,0.2255555555555556,-0.7,-0.01724091742738482,-0.059495063677935583,0.5410657610077471
1590505197.7100105,-0.19642832783903605,-3.894795953165852,8.528876889848812,0.5634243997322319,0.25215401715231206,-0.7034693645560987,-0.005153577145769603,-0.045558832211690395,0.4604199944415572
1590505197.7200105,-0.19729040255757813,-3.840935603836367,8.685419194884844,0.5133333333333333,0.2766666666666667,-0.7066666666666667,-0.00644822835330692,-0.04254770272218308,0.32650169503966875
1590505197.7300105,-0.160162091181419,-3.9642705896836143,8.677621568386064,0.5133333333333333,0.2766666666666667,-0.7066666666666667,-0.00382674844125075,-0.03222371159621122,0.23438103445858177
1590505197.7400105,-0.05995187035457536,-3.991990374070915,8.651990374070916,0.5133333333333333,0.2766666666666667,-0.7066666666666667,0.0036034166731528927,-0.009806976782712137,0.11907042025373556
1590505197.7500105,0.002760898797575663,-4.118133611365541,8.67261181377039,0.5133333333333333,0.2766666666666667,-0.7066666666666667,0.01094083313233734,0.0005860720254642071,0.03919703447466072
1590505197.7600105,-0.018825444290932494,-4.110081571625944,8.718825444290932,0.5170309946943745,0.28467826628225595,-0.7109806049212147,0.005224599860008103,-0.00640796245860216,-0.038090096546818025
1590505197.7700105,-0.12471897193101117,-4.0139607710517415,8.737546838011498,0.52,0.2911111111111111,-0.7144444444444444,-0.001090830782496456,-0.0026341516014522105,-0.13479104918947737
1590505197.7800105,-0.22636213841083852,-3.8610132633548964,8.567176044590912,0.52,0.2911111111111111,-0.7144444444444444,0.0002754260074117338,0.005046451524939918,-0.2092510702091116
1590505197.7900105,-0.2518642780711746,-3.9120358289323804,8.68152877014946,0.52,0.2911111111111111,-0.7144444444444444,0.015290344250967113,0.01965366738095294,-0.2966514896612971
1590505197.8000104,-0.17694814281716043,-3.932694814281716,8.759220742873136,0.52,0.2911111111111111,-0.7144444444444444,0.006591041122403319,0.018126213560411,-0.3634803346036502
1590505197.8100104,-0.1057436949964238,-3.9388512610007154,8.654933606990703,0.5219669468890479,0.23800354510681965,-0.7331304398903988,0.01763002630657783,0.030845303682682696,-0.43695088125180326
1590505197.8200104,-0.05937699137601428,-3.9724984068991884,8.607501593100812,0.5222222222222223,0.2311111111111111,-0.7355555555555555,0.014317414690776692,0.034497436606280185,-0.5042335749431988
1590505197.8300104,0.004911520147821764,-3.9878445028782603,8.709823040295644,0.5222222222222223,0.2311111111111111,-0.7355555555555555,0.023358399645543468,0.04431931277417376,-0.5797552032193325
1590505197.8400104,0.10146935462048438,-4.064063049654986,8.562248680828034,0.5222222222222223,0.2311111111111111,-0.7355555555555555,0.023756231147638283,0.050945236367808705,-0.6621245440970313
1590505197.8500104,0.20512030205068726,-4.142584211435481,8.702824815536855,0.5222222222222223,0.2311111111111111,-0.7355555555555555,0.023726881811098787,0.05481818369584952,-0.7653463985177492
1590505197.8600104,0.18450508339045008,-4.0690101667809,8.6790101667809,0.4383093760312746,0.25032007590181,-0.6364777371614246,0.019035551666441393,0.06059509545579989,-0.8892125688426474
1590505197.8700104,6.697481282770394,-14.058516278502623,0.6390252408242887,0.43,0.25222222222222224,-0.6266666666666667,0.02989450955548689,0.07450061666431179,-1.0020298943502357
1590505197.8800104,-6.766073302623672,-15.457459242940116,-7.80816422992189,0.43,0.25222222222222224,-0.6266666666666667,-1.0578057658585664,0.8398889296254451,-5.018502489372889
1590505197.8900104,-1.5833843889676231,-2.366123950724953,-1.5299397688869512,0.43,0.25222222222222224,-0.6266666666666667,-3.3500170538032674,1.111775732427896,-7.398921261936752
1590505197.9000103,0.007076469745646519,-0.45652274448014074,-0.24513843131637644,0.43,0.25222222222222224,-0.6266666666666667,-3.284290860197525,-0.25284175836094036,-2.639082008233137
1590505197.9100103,-0.02059784063531722,-0.5301195681270635,-0.21646738645489427,0.41584178539206645,0.3222681260719987,-0.6475314039836214,-3.2852218862210236,-0.5390351943211413,-0.842384557308989
1590505197.9200103,1.7012790999286684,-2.0292844173529603,7.64297710913689,0.4088888888888889,0.3566666666666667,-0.6577777777777778,-3.3455780099166303,-0.4625122517784973,-0.743946593662583
1590505197.9300103,0.3764632165235555,-1.6851311209097237,6.082260385240195,0.4088888888888889,0.3566666666666667,-0.6577777777777778,-1.231724653342463,0.5162431990802628,-0.6916170943097384
1590505197.9400103,0.21947649769585265,-0.9364626728110599,3.0846805529953922,0.4088888888888889,0.3566666666666667,-0.6577777777777778,1.05234349765776,0.35385074695163177,-0.6386637888918363
1590505197.9500103,1.0327394894182405,-1.5314636044414918,7.780829837714719,0.4088888888888889,0.3566666666666667,-0.6577777777777778,2.4998513243117406,0.06984830607365938,-0.5808093251532261
1590505197.9600103,1.1872412359130036,-2.1945319582484304,7.503311431779432,0.3661851097156957,0.49386391464862794,-0.6050794970959649,4.189486064735803,0.06370407314580451,-0.5404609954232727
1590505197.9700103,1.2,-2.2,6.53,0.3566666666666667,0.5244444444444445,-0.5933333333333334,4.4298638077181085,0.007635815477475192,-0.5388704065532492
1590505197.9800103,7.547594963211102,-2.035464796315128,14.808718669617754,0.3566666666666667,0.5244444444444445,-0.5933333333333334,3.962271006839306,-0.4627908811642279,-0.38395077151461604
1590505197.9900103,3.187581726593711,-0.25956088240402964,3.687260378669448,0.3566666666666667,0.5244444444444445,-0.5933333333333334,1.835665123315918,-0.4745528483979803,-0.09094997286163892
1590505198.0000103,0.2967273308641318,0.30181912654214077,-1.4107311678968266,0.3566666666666667,0.5244444444444445,-0.5933333333333334,0.3128909845531105,-0.1803050649031836,0.1899033817202254
1590505198.0100102,0.4650334068897879,-0.4366059825916392,2.445276449675126,0.3486217359323281,0.46723604811136993,-0.6523294920518165,-0.8262894737767578,0.535930432379191,0.47402327804611366
1590505198.0200102,2.342897968659315,-4.97537527568195,19.473980963435867,0.3466666666666667,0.4533333333333333,-0.6666666666666666,-1.6592792524815079,0.3058682676643306,0.5534591002001934
1590505198.0300102,0.7921978733471127,-2.8318098961575813,9.974163657643748,0.3466666666666667,0.4533333333333333,-0.6666666666666666,-0.24896353903499224,-0.23094550383088164,0.4858617404283087
1590505198.0400102,0.5048350485717034,-4.140131287871501,13.680996922189093,0.3466666666666667,0.4533333333333333,-0.6666666666666666,0.6118221938166698,0.3497708982836764,0.6586663831508563
1590505198.0500102,0.25638127338407946,-2.8116122113275708,7.802562250032254,0.3466666666666667,0.4533333333333333,-0.6666666666666666,0.4923043976723961,0.18988702639545452,0.6739082664549364
1590505198.0600102,0.09722154605835101,-2.0099878290503184,4.636977083840456,0.3619747076074231,0.4303712719221986,-0.6743206871370448,-0.08769381244829622,-0.1594162114095455,0.6616496188103121
1590505198.0700102,0.17785476704329062,-2.9939418560365625,8.778228005585882,0.37333333333333335,0.4133333333333333,-0.68,-0.2744525817304305,-0.00041688929638533656,0.7468610519990191
1590505198.0800102,0.22023115404519578,-3.0680351906158356,9.112603070553735,0.37333333333333335,0.4133333333333333,-0.68,0.013694564750344085,-0.04465744933489846,0.7739255289351357
1590505198.0900102,0.2142781634307058,-2.984514605870538,8.336692624828219,0.37333333333333335,0.4133333333333333,-0.68,0.16339825624553078,-0.09311841092948112,0.8047755062943831
1590505198.1000102,0.19027652885297996,-3.3773736520063555,9.35525540042595,0.37333333333333335,0.4133333333333333,-0.68,-0.07181399143796567,-0.021545281587605027,0.8646467745200053
1590505198.1100101,0.18889936773692204,-3.5486114937656743,10.427699480767194,0.3765231417705721,0.4109409770054042,-0.6818607215883893,-0.13749137729500152,-0.11350893602552847,0.8871847623534852
1590505198.1200101,0.08572437348084821,-2.9656537591149106,8.004134397787277,0.38666666666666666,0.4033333333333333,-0.6877777777777778,0.01128599804057875,-0.07365617488076837,0.9584856760959859
1590505198.1300101,-1.1610248120908429,-6.45123090600501,7.699963630485735,0.38666666666666666,0.4033333333333333,-0.6877777777777778,-0.14801726479826638,-0.10233964046395325,1.269704196818547
1590505198.14001,2.953390099754031,-10.166237359934408,9.859623360207706,0.38666666666666666,0.4033333333333333,-0.6877777777777778,-0.47188261937410864,-0.3303105444630424,2.1086010939297166
1590505198.15001,2.758007181328546,-5.8767104882145125,9.634673075809348,0.38666666666666666,0.4033333333333333,-0.6877777777777778,-0.32353262701365854,-0.2590533901375537,1.5550382536655545
1590505198.16001,-2.4424595331918764,0.6370324340709306,11.145411943013034,0.39682866862012056,0.3967280320635883,-0.6877777777777778,0.5714290105726729,0.16605367499628576,0.20009916833451208
1590505198.17001,-1.3337765614938828,0.35952994204764965,7.374654432281606,0.4088888888888889,0.3888888888888889,-0.6877777777777778,0.6379752746992153,0.0088699363305636,0.22678849601669962
1590505198.18001,-1.3892383864860927,-2.395117227319062,9.79730886850153,0.4088888888888889,0.3888888888888889,-0.6877777777777778,-0.40343614799412253,-0.003072975314896448,0.23080387669196203
1590505198.19001,-0.731097968694595,-2.9933881262347395,10.601577934248517,0.4088888888888889,0.3888888888888889,-0.6877777777777778,-0.3899448734971455,-0.052222895162291325,0.2784570883224166
1590505198.20001,1.2928304554778836,-5.5578144231343725,8.70286949074904,0.4088888888888889,0.3888888888888889,-0.6877777777777778,0.05243235194772122,0.001790547534655254,0.2138040499657448
1590505198.21001,0.26887143997870644,-2.8321712802768166,8.947004258717062,0.4337417561292994,0.36936163605713784,-0.6931033921864371,0.09425190252414614,0.030581152092790245,-0.7265026648085262
1590505198.22001,-0.2902867639340821,-2.1443281200797735,8.215698540988768,0.44,0.3644444444444445,-0.6944444444444444,0.05645440313077417,0.1308625962640621,-1.0764222898610996
1590505198.23001,-2.4701985183284694,-5.316558000064142,7.595485872807158,0.44,0.3644444444444445,-0.6944444444444444,-0.006149649931577926,0.11033023427352577,-0.9452991544532371
1590505198.24001,-3.5107523304697494,-8.234455858161214,7.872469018460976,0.44,0.3644444444444445,-0.6944444444444444,-0.0711344889603442,0.003270179491141903,-0.3145012889605685
1590505198.25001,-0.42563898149490265,-6.307469198434556,8.401170701067787,0.44,0.3644444444444445,-0.6944444444444444,0.03385396522116796,-0.05721061447328806,0.4606648263449404
1590505198.26001,0.6089793348640842,-4.098534182653137,7.608945263313829,0.4370437580755335,0.3651400307796131,-0.6921837888551465,0.161189659423791,-0.016258234516543173,0.30480757895876676
1590505198.27001,-0.7797151454363089,-4.902341023069208,8.833148445336008,0.4211111111111111,0.3688888888888889,-0.68,-0.07789943192951898,0.014648533532049946,-0.17840094331915185
1590505198.28001,-0.2812497930806158,-4.975293825525575,8.830749875848369,0.4211111111111111,0.3688888888888889,-0.68,-0.044707991243148906,-0.0005117388574068828,0.010111085857621091
1590505198.29001,0.029361854639428066,-4.662342255673137,8.504891253088864,0.4211111111111111,0.3688888888888889,-0.68,-0.0032028814871874513,-0.010235142204279603,0.04228650910183868
1590505198.30001,0.04,-4.719187906724512,8.459262472885033,0.4211111111111111,0.3688888888888889,-0.68,0.0029545305548690616,-0.0024593974936166028,0.001090830782496456
1590505198.31001,0.03642419863873151,-4.614303205445074,8.702909616335221,0.4211111111111111,0.3645184650028941,-0.68,0.009810799079200225,-0.0007007713628000161,0.0014808902021928958
1590505198.32001,0.042494540439063644,-4.649370905329297,8.773752729780467,0.4211111111111111,0.3566666666666667,-0.68,0.00068147146620387,0.0,0.0011594543656871068
1590505198.33001,0.05581073089962943,-4.660540487266419,8.603918039895923,0.4211111111111111,0.3566666666666667,-0.68,-0.0034936386574707617,0.0,-0.001090830782496456
1590505198.34001,0.04959762678701045,-4.664396440180516,8.492384574115569,0.4211111111111111,0.3566666666666667,-0.68,-0.0040593143364671515,-0.0005234693369091776,-4.3892108678100826e-05
1590505198.35001,0.06,-4.718402775159308,8.593602428264395,0.4211111111111111,0.3566666666666667,-0.68,0.002181661564992912,-0.0016144673984597449,0.0016144673984597449
1590505198.36001,0.042185426356589145,-4.657566201550388,8.705711937984496,0.4211111111111111,0.3621100086132644,-0.6864330404823428,0.007525650024495626,-0.001695844432310847,0.001695844432310847
1590505198.37001,0.036881403508771934,-4.653796959064327,8.732474385964913,0.4211111111111111,0.3688888888888889,-0.6944444444444444,0.0037457725662904014,-0.00231848108910393,0.00047700562919271927
1590505198.38001,0.055490376667847445,-4.640192466643051,8.61411547998583,0.4211111111111111,0.3688888888888889,-0.6944444444444444,-0.004962230317664655,-0.0014757707844528746,0.0
1590505198.3900099,0.047858964820916144,-4.641057763843129,8.553929482410458,0.4211111111111111,0.3688888888888889,-0.6944444444444444,-0.010089489129133244,0.0,0.0
1590505198.4000099,0.05139711231742124,-4.681004812804298,8.576593262073983,0.4211111111111111,0.3688888888888889,-0.6944444444444444,-0.008531451709239517,-0.0008288213964941733,-0.00041441069824708665
1590505198.4100099,0.06900148301527786,-4.651664194974537,8.617670127035648,0.4211111111111111,0.3688888888888889,-0.6944444444444444,-0.001490208905882624,-0.0021090473607408814,-0.0010545236803704407
1590505198.4200099,0.051349726775956284,-4.65079781420765,8.68,0.4355555555555555,0.3688888888888889,-0.68,0.005778720776454586,-0.0006190315670068686,0.0006190315670068686
1590505198.4300098,0.05113592894673203,-4.604543715786928,8.602048497372875,0.4355555555555555,0.3688888888888889,-0.68,0.002169479138420305,0.0,0.0006073707043394319
1590505198.4400098,0.049065124995816736,-4.6800945416820054,8.550934875004183,0.4355555555555555,0.3688888888888889,-0.68,-0.0033744713907243283,0.0,0.0006932275072526505
1590505198.4500098,0.03248542228352875,-4.737572888582356,8.577456266850586,0.4355555555555555,0.3688888888888889,-0.68,-0.004640801372169542,0.00027111751343757926,-0.00013555875671878963
1590505198.4600098,0.05,-4.647180947398076,8.655371473417315,0.4280380819504254,0.3710814853570518,-0.6737354386623916,0.002628385460324046,0.0018741506294273939,-0.0007833198469309379
1590505198.4700098,0.045502694933524976,-4.63100538986705,8.706508084800575,0.4088888888888889,0.37666666666666665,-0.6577777777777778,0.007526144455936381,0.000600250902017633,0.0
1590505198.4800098,0.0338002760987986,-4.622801656592792,8.629597791209612,0.4088888888888889,0.37666666666666665,-0.6577777777777778,0.006348303859354002,0.0005673524777255652,-0.0004145458150555053
1590505198.4900098,0.045876201720357564,-4.648247596559285,8.594690504300894,0.4088888888888889,0.37666666666666665,-0.6577777777777778,-0.0030138132987138546,0.0023110010893806687,-0.0007703336964602228
1590505198.5000098,0.056210814905667185,-4.635156740377331,8.633789185094333,0.4088888888888889,0.37666666666666665,-0.6577777777777778,-0.007635815477475192,0.0,0.00041333597414749734
1590505198.5100098,0.05278730512249443,-4.673936525612472,8.64,0.4101276911655531,0.37666666666666665,-0.6661396931452611,-0.005811528540779003,-0.0006080956455653963,0.001090830782496456
1590505198.5200098,0.054726633872101194,-4.683633169360506,8.650546732255798,0.4133333333333333,0.37666666666666665,-0.6877777777777778,0.00236057927731524,-0.002756896574961528,0.001090830782496456
1590505198.5300097,0.04500022971607094,-4.669999540567858,8.615002067444639,0.4133333333333333,0.37666666666666665,-0.6877777777777778,0.003817982913146019,-0.0043632730137135416,0.0005454404493843691
1590505198.5400097,0.04481872462383568,-4.6559063768808215,8.594093623119178,0.4133333333333333,0.37666666666666665,-0.6877777777777778,7.909630417146521e-05,-0.0028259473364554712,-0.0005256413152053617
1590505198.5500097,0.05,-4.6608699448402025,8.62,0.4133333333333333,0.37666666666666665,-0.6877777777777778,-0.0034061665135624013,-0.0012245049485694894,-0.0001724520710693387
1590505198.5600097,0.05,-4.724812761593259,8.62,0.4133333333333333,0.37666666666666665,-0.6877777777777778,-0.005942558980244711,-0.003760897415251799,0.0017298422789423942
1590505198.5700097,0.05,-4.66277833001988,8.607221669980119,0.42777777777777776,0.37666666666666665,-0.68,0.0015755239830689367,-0.000565656121473477,0.001090830782496456
1590505198.5800097,0.042337615270003626,-4.647662384729996,8.614675230540008,0.42777777777777776,0.37666666666666665,-0.68,0.006544984694978735,-0.00016292398712517038,0.001090830782496456
1590505198.5900097,0.03201321366242832,-4.657986786337572,8.598052854649714,0.42777777777777776,0.37666666666666665,-0.68,0.005007731890675266,-0.0017424464780490634,0.0008712232390245317
1590505198.6000097,0.03948249456850803,-4.650517505431492,8.627929978274032,0.42777777777777776,0.37666666666666665,-0.68,-0.000695673184150071,-0.00011290217095611017,5.645108547805509e-05
1590505198.6100097,0.04,-4.675811046138617,8.642094476930692,0.4247524222112237,0.37666666666666665,-0.6830253555665541,-0.008675117087854747,0.0,0.0006854159727680149
1590505198.6200097,0.04,-4.660434073286529,8.649782963356737,0.4136468307069373,0.37666666666666665,-0.6941309470708403,-0.004481698255687051,0.0,0.003201467272068632
1590505198.6300097,0.03600286610916611,-4.6739971338908335,8.624992834727085,0.4133333333333333,0.37666666666666665,-0.6944444444444444,0.000982216670262468,0.0,0.0007634252257422999
1590505198.6400096,0.05,-4.661214858712149,8.597289152272891,0.4133333333333333,0.37666666666666665,-0.6944444444444444,0.0028749307636106642,0.000132520527959568,0.0
1590505198.6500096,0.05622827469266639,-4.6668858626536665,8.640657587961,0.4133333333333333,0.37666666666666665,-0.6944444444444444,-0.002377897814811451,0.0004114314068360414,-0.0003396996878302073
1590505198.6600096,0.07,-4.662169257846876,8.618915371076561,0.41200767576024244,0.37666666666666665,-0.6952880447182295,-0.007635815477475192,-0.001090830782496456,-0.0008542014590420326
1590505198.6700096,0.059366454881775776,-4.672910969921184,8.624178060157632,0.4011111111111111,0.37666666666666665,-0.7022222222222222,-0.004929289197669615,-0.0007041841710956593,0.0014774773938972525
1590505198.6800096,0.04863034131789068,-4.6542464391214065,8.626985756485626,0.4011111111111111,0.37666666666666665,-0.7022222222222222,0.001569040328834363,-0.0009414241973006179,0.0015540454334591668
1590505198.6900096,0.060262968499141895,-4.636754322833047,8.59271974016867,0.4011111111111111,0.37666666666666665,-0.7022222222222222,0.0047460569997307,-0.002210346978361999,0.0
1590505198.7000096,0.03751563771654459,-4.631242181141728,8.643726543425183,0.4011111111111111,0.37666666666666665,-0.7022222222222222,0.003001490462122733,-0.00013550094268331746,-0.00013550094268331746
1590505198.7100096,0.02295518884209073,-4.646895440631544,8.66704481115791,0.40373794563741394,0.37666666666666665,-0.7014560621520505,0.0006610159882241061,-0.0009833770839283685,-0.000875923385360281
1590505198.7200096,0.05110197433758392,-4.706694076987248,8.64,0.42777777777777776,0.37666666666666665,-0.6944444444444444,-0.0031522855945936,0.0,0.001090830782496456
1590505198.7300096,0.05558397541631832,-4.671167950832636,8.600255778746865,0.42777777777777776,0.37666666666666665,-0.6944444444444444,0.0002269062110776235,0.0,0.00012740367206824188
1590505198.7400095,0.05,-4.647603127398312,8.570661454336147,0.42777777777777776,0.37666666666666665,-0.6944444444444444,0.004174018363529945,-0.0004507630080202882,-0.0006400677744761678
1590505198.7500095,0.05346518359901658,-4.636930367198033,8.617325917995084,0.42777777777777776,0.37666666666666665,-0.6944444444444444,0.002808203656715884,-0.0014688236761773695,0.0003779928936809136
1590505198.7600095,0.058302343159486014,-4.651697656840514,8.65,0.42777777777777776,0.37534626690182243,-0.6957648442092886,-0.0029224041008922438,-0.0019964759310180788,0.001090830782496456
1590505198.7700095,0.05037660619803477,-4.659623393801965,8.65,0.42777777777777776,0.3691818048206937,-0.7019293062904174,-0.006380659241500622,-0.0011319121458659843,0.001090830782496456
1590505198.7800095,0.06,-4.681014278805773,8.616038076815395,0.42777777777777776,0.3688888888888889,-0.7022222222222222,-0.003493773656163469,-0.0020710209106558613,-0.0004373706970568523
1590505198.7900095,0.051122737904715006,-4.651122737904715,8.574795436825475,0.42777777777777776,0.3688888888888889,-0.7022222222222222,0.0017364034996848465,-0.0037177504127974335,0.0007680444239022608
1590505198.8000095,0.03367123947051745,-4.635506859205776,8.619178098676294,0.42777777777777776,0.3688888888888889,-0.7022222222222222,0.003072257296271547,-0.0017811914625572695,0.00020023505121782116
1590505198.8100095,0.05244982741240798,-4.66,8.664899654824817,0.42124490467802317,0.3724275284845893,-0.6967781613057601,0.0016471921343412593,-0.0005344694306516527,0.001090830782496456
1590505198.8200095,0.05706181346796752,-4.662938186532033,8.653556321211708,0.4011111111111111,0.38333333333333336,-0.68,-0.0012820257255430137,-0.0012201422708356517,0.0004498179197249491
1590505198.8300095,0.05,-4.670197524553653,8.589012377231736,0.4011111111111111,0.38333333333333336,-0.68,-0.00427713678461643,0.001090830782496456,-0.0010261910234694105
1590505198.8400095,0.052680315352107675,-4.671959053943677,8.556081892112646,0.4011111111111111,0.38333333333333336,-0.68,0.0011695081971507511,0.0007984537332087682,0.0018892845157052242
1590505198.8500094,0.05958904109589041,-4.649589041095891,8.601643835616438,0.4011111111111111,0.38333333333333336,-0.68,0.004318494467691449,0.0,0.001135659444790831
1590505198.8600094,0.03569965870307167,-4.636450511945393,8.68,0.4037390974592339,0.3792718998862344,-0.6831058020477816,0.0010089253995103737,-0.0002345472330965076,0.002334303415103338
1590505198.8700094,0.030780140038192235,-4.663593380012731,8.672813239974538,0.4133333333333333,0.3644444444444445,-0.6944444444444444,-0.004840400159927049,-0.0006988538293870357,-0.00030687687627761534
1590505198.8800094,0.05,-4.67,8.622598763024461,0.4133333333333333,0.3644444444444445,-0.6944444444444444,-0.006955841800869147,-0.00033998683830302234,0.001090830782496456
1590505198.8900094,0.051359334112799956,-4.67,8.549515338789599,0.4133333333333333,0.3644444444444445,-0.6944444444444444,-0.004712752165512429,-0.001090830782496456,0.001090830782496456
1590505198.9000094,0.05779903919906342,-4.665598078398127,8.623205764805618,0.4133333333333333,0.3644444444444445,-0.6944444444444444,0.00096035031709187,-0.001571005941042391,0.0006106556239505209
1590505198.9100094,0.05,-4.65,8.67,0.4133333333333333,0.3644444444444445,-0.6944444444444444,0.00425420703627666,-0.0030542601600710394,-0.001090830782496456
1590505198.9200094,0.05,-4.64754029658285,8.6749194068343,0.4133333333333333,0.3644444444444445,-0.6944444444444444,0.002467556286517612,-0.0008225187621725373,-0.0005542067418486186
1590505198.9300094,0.05277043803451553,-4.644155657051773,8.667836495723876,0.4133333333333333,0.3644444444444445,-0.6944444444444444,-0.0004533118633572772,-0.0004533118633572772,0.0007886228735916045
1590505198.9400094,0.06457421783109857,-4.67271289108445,8.546277346506704,0.4133333333333333,0.3644444444444445,-0.6944444444444444,-0.002680631326593561,-0.0023847008161456576,-0.0004989697616006489
1590505198.9500093,0.050809599782748904,-4.677571200651753,8.594857598696493,0.4133333333333333,0.3644444444444445,-0.6944444444444444,-0.0006492626002339815,8.83136364524949e-05,0.001090830782496456
1590505198.9600093,0.057928476866152954,-4.656214569401541,8.637570861196918,0.4133333333333333,0.3644444444444445,-0.6944444444444444,0.003233482529458884,0.0008648626623910681,0.001090830782496456
1590505198.9700093,0.05,-4.650199342923105,8.68,0.4211111111111111,0.3711111111111111,-0.6711111111111111,0.0010473409031374692,0.002138171685633925,-0.0010690858428169625
1590505198.9800093,0.05,-4.659510078138874,8.68,0.4211111111111111,0.3711111111111111,-0.6711111111111111,-0.0009839464130696367,0.00010688436942681923,-5.3442184713409615e-05
1590505198.9900093,0.03765107956376465,-4.667651079563765,8.562348920436236,0.4211111111111111,0.3711111111111111,-0.6711111111111111,-0.004941698968986175,-0.002181661564992912,0.002503809932245211
1590505199.0000093,0.03053715293678658,-4.6605371529367865,8.569462847063214,0.4211111111111111,0.3711111111111111,-0.6711111111111111,-0.003389680939160403,-0.002181661564992912,0.00017578288750655239
1590505199.0100093,0.03143526219031778,-4.659521579269894,8.650956841460212,0.4211111111111111,0.3711111111111111,-0.671908478994621,5.218760593839737e-05,0.0,0.003115929529674176
1590505199.0200093,0.058973780968222006,-4.650342073010593,8.669315853978814,0.4211111111111111,0.3711111111111111,-0.6872076560934567,0.0010535164055148845,0.0,0.00011194313094471404
1590505199.0300093,0.048721102166310704,-4.6658140681108735,8.639301523223883,0.4211111111111111,0.3711111111111111,-0.6877777777777778,-0.0028158780116801277,-0.0015474451183056961,-0.00013950611246563204
1590505199.0400093,0.05558605085829522,-4.677117210171659,8.551531159313363,0.4211111111111111,0.3711111111111111,-0.6877777777777778,-0.0037343959531414258,-0.00031446358842219906,0.0012382707997263148
1590505199.0500093,0.024541818753383748,-4.672270909376691,8.59362545626015,0.4211111111111111,0.3711111111111111,-0.6877777777777778,-0.0014385082092863112,-0.001090830782496456,-0.0005953952120253889
1590505199.0600092,0.03919209207286191,-4.679596046036431,8.637576276218587,0.4211111111111111,0.3711111111111111,-0.6877777777777778,0.0009586371570446863,-0.001090830782496456,0.0010027016988619424
1590505199.0700092,0.05644443592005831,-4.6664444359200585,8.658222217960029,0.42777777777777776,0.3688888888888889,-0.6944444444444444,0.006351058757601781,0.002690714535358505,0.001793809690239003
1590505199.0800092,0.04035521117035559,-4.650355211170356,8.650177605585178,0.42777777777777776,0.3688888888888889,-0.6944444444444444,0.005473527676427803,5.8121291836571356e-05,3.8747527891047715e-05
1590505199.0900092,0.04417864175290125,-4.675821358247099,8.568732037370648,0.42777777777777776,0.3688888888888889,-0.6944444444444444,-0.0017258424596839485,-0.0004558191053089636,-0.0001791925718785288
1590505199.1000092,0.03,-4.686463139509497,8.599431627974674,0.42777777777777776,0.3688888888888889,-0.6944444444444444,-0.0030152845943936316,0.0009622269059485877,-0.002758076841297895
1590505199.1100092,0.03,-4.6681487519103415,8.648269994905757,0.42777777777777776,0.3688888888888889,-0.6944444444444444,-0.0016834247440115962,0.00029629698075757014,-9.43571405338248e-05
1590505199.1200092,0.03933555216938006,-4.66,8.67933555216938,0.43503876279840664,0.39378369467390245,-0.6747360565313087,-7.248001470032189e-05,0.0,7.248001470032189e-05
1590505199.1300092,0.0317407794657318,-4.643481558931463,8.67174077946573,0.4355555555555555,0.3955555555555556,-0.6733333333333333,0.0018018823996413156,0.0,-0.0009009411998206578
1590505199.1400092,0.04295487825642772,-4.661477439128214,8.58443231738464,0.4355555555555555,0.3955555555555556,-0.6733333333333333,-0.0025039887810569933,-0.001090830782496456,0.0018593343489288305
1590505199.1500092,0.05723820875191554,-4.668619104375958,8.605857313127872,0.4355555555555555,0.3955555555555556,-0.6733333333333333,-0.004062058439161841,-0.001090830782496456,0.00030126469082398296
1590505199.1600091,0.050215454913528836,-4.679784545086471,8.619784545086471,0.4355555555555555,0.3955555555555556,-0.6733333333333333,-0.0032959948326811046,-2.3502485191736512e-05,0.0010673282973047195
1590505199.1700091,0.05,-4.68,8.65286047578217,0.4136485717007761,0.38003810865842014,-0.6851996162546722,-0.0014802314219558978,0.0,0.0028830917080299263
1590505199.1800091,0.04244262593198764,-4.652442625931988,8.667786870340061,0.4088888888888889,0.37666666666666665,-0.6877777777777778,0.0024481107206665324,-0.0023148861428297224,0.0
1590505199.190009,0.05769739952718676,-4.667697399527187,8.591513002364067,0.4088888888888889,0.37666666666666665,-0.6877777777777778,0.004112148382432266,-0.0031469049737125896,0.0
1590505199.200009,0.048390152942062836,-4.66,8.59482954117381,0.4088888888888889,0.37666666666666665,-0.6877777777777778,-0.0005268212177727648,-0.0029212782023075247,0.0
1590505199.210009,0.04049009266932871,-4.66,8.618529721992013,0.4088888888888889,0.37666666666666665,-0.6877777777777778,-0.0031121098964954834,-0.001197752416492379,0.0
1590505199.220009,0.04903264863946301,-4.641934702721073,8.659032648639464,0.4133333333333333,0.3688888888888889,-0.7022222222222222,-0.0015485315800547645,-0.0008797874541837402,-0.0007742657900273823
1590505199.230009,0.04012320241306795,-4.659753595173864,8.650123202413068,0.4133333333333333,0.3688888888888889,-0.7022222222222222,0.0042826873391944055,0.0010639521855659825,0.0021413436695972028
1590505199.240009,0.058279734950239206,-4.64172026504976,8.565160795149282,0.4133333333333333,0.3688888888888889,-0.7022222222222222,0.0009031789754632692,-0.001994009757959725,-0.00018765180703318672
1590505199.250009,0.05,-4.653313216552249,8.596626433104499,0.4133333333333333,0.3688888888888889,-0.7022222222222222,-0.0007228317208539693,-0.0009101228522829636,-0.001090830782496456
1590505199.260009,0.05,-4.667819087309136,8.625638174618272,0.4133333333333333,0.3688888888888889,-0.7022222222222222,-0.003887521790559401,-0.0001189503348566057,-0.001090830782496456
1590505199.270009,0.05,-4.659850044858376,8.645224932712438,0.42066385649117305,0.3688888888888889,-0.6909444942870842,-0.0015953522526253334,0.0016607825264162944,-0.001090830782496456
1590505199.280009,0.05,-4.65,8.643497944437524,0.42777777777777776,0.3688888888888889,-0.68,0.001090830782496456,0.003072481789911408,-0.0008908202249184961
1590505199.290009,0.05,-4.65136318348774,8.580905467901914,0.42777777777777776,0.3688888888888889,-0.68,0.0013882312846198225,0.0024790620671162784,-0.00014870025106168323
1590505199.300009,0.05,-4.6576003390485825,8.630802712388657,0.42777777777777776,0.3688888888888889,-0.68,0.0027489675408170914,0.0038397983233135467,-0.0008290683791603174
1590505199.310009,0.05861578525641026,-4.66,8.65,0.42777777777777776,0.3688888888888889,-0.68,0.001392819592875082,0.0006039776207572519,-0.00015099440518931298
1590505199.320009,0.04681316686500333,-4.666813166865003,8.645219750297505,0.4133333333333333,0.3644444444444445,-0.7022222222222222,0.0012646455666131587,0.0009170159983797533,0.0
1590505199.330009,0.030100345889239422,-4.649949827055381,8.619698962332281,0.4133333333333333,0.3644444444444445,-0.7022222222222222,0.002192607603480846,1.0946038487934334e-05,-5.473019243967167e-06
1590505199.340009,0.046042799042152874,-4.641978600478923,8.571871602873541,0.4133333333333333,0.3644444444444445,-0.7022222222222222,0.003931659468251414,0.0017499979032585015,-0.0008749989516292508
1590505199.350009,0.06621359223300971,-4.63757281553398,8.60504854368932,0.4133333333333333,0.3644444444444445,-0.7022222222222222,0.0008154754393420108,0.0001376776715772226,0.0001376776715772226
1590505199.360009,0.04258417682297046,-4.684831646354059,8.636554430902706,0.4133333333333333,0.3644444444444445,-0.7022222222222222,-0.0009029041407691179,0.000996867461632787,0.000996867461632787
1590505199.370009,0.04708654997137554,-4.677086549971375,8.657086549971376,0.4211111111111111,0.3688888888888889,-0.6711111111111111,-0.002795780201316056,0.00015890404872443732,0.0020227575162684746
1590505199.380009,0.032533872282844406,-4.662533872282845,8.642533872282845,0.4211111111111111,0.3688888888888889,-0.6711111111111111,-0.0004146038827561862,0.0009526294882443938,0.0012290320767485183
1590505199.390009,0.05889268198865275,-4.66,8.57442927204539,0.4211111111111111,0.3688888888888889,-0.6711111111111111,0.00012078965727903346,0.0,-0.00024157931455806692
1590505199.400009,0.05095602995676344,-4.6590439700432364,8.61573617974058,0.4211111111111111,0.3688888888888889,-0.6711111111111111,0.000986544091913825,0.00020857338116526196,-0.00197308818382765
1590505199.410009,0.05905188387893762,-4.650948116121063,8.664311303273626,0.4211111111111111,0.3688888888888889,-0.6711111111111111,0.00010342342502359862,0.0019748147149457147,-0.00020684685004719724
