time,acc_x,acc_y,acc_z,mag_x,mag_y,mag_z,gyr_x,gyr_y,gyr_z
1590503194.3900704,-0.27,-4.32,8.72,0.5255555555555556,0.31222222222222223,-0.5955555555555555,0.006544984694978735,-0.008726646259971648,-0.001090830782496456
1590503194.4000704,-0.252419117984489,-4.32,8.804838235968978,0.5066666666666667,0.31777777777777777,-0.5877777777777777,-0.0008269459460993164,-0.01308996938995747,-0.0005630611097021769
1590503194.4100704,-0.25785466461063994,-4.32429067077872,8.80069198149576,0.5066666666666667,0.31777777777777777,-0.5877777777777777,0.0002340197881492975,-0.012387910025509579,0.0015588703587950511
1590503194.4200704,-0.2477648860075118,-4.342235113992488,8.734470227984977,0.5066666666666667,0.31777777777777777,-0.5877777777777777,0.0015784570115753961,-0.008842224584310224,0.004491557920186719
1590503194.4300704,-0.24186170212765956,-4.340691489361702,8.74627659574468,0.5066666666666667,0.31777777777777777,-0.5877777777777777,0.0040848131429654525,-0.0050479935147442374,0.008320485862233606
1590503194.4400704,-0.25,-4.299849113542059,8.73015088645794,0.506767257638627,0.31777777777777777,-0.5879118990737248,0.007635815477475192,-0.0032231148695943948,0.006528525535680411
1590503194.4500704,-0.2478105397821063,-4.294378920435787,8.731242159128426,0.5133333333333333,0.31777777777777777,-0.5966666666666667,0.005963984055564304,0.00023883306027298396,0.004737654731663328
1590503194.4600704,-0.24073592917806247,-4.311471858356125,8.6941125665755,0.5133333333333333,0.31777777777777777,-0.5966666666666667,-0.0006422193609342888,0.001171108202613242,0.002261938985109698
1590503194.4700704,-0.24828289189578234,-4.3265657837915645,8.63373686483374,0.5133333333333333,0.31777777777777777,-0.5966666666666667,-0.007228186758407853,0.0019943541272974376,0.003085184909793894
1590503194.4800704,-0.26114156446305714,-4.346575306610828,8.72,0.5133333333333333,0.31777777777777777,-0.5966666666666667,-0.009663054168457799,0.002774390884886664,0.0
1590503194.4900703,-0.26898313640442717,-4.3230505907867185,8.72,0.5133333333333333,0.31777777777777777,-0.5966666666666667,-0.0011092261116508809,-0.0006471403378361038,0.0
1590503194.5000703,-0.25,-4.3273713937648814,8.78,0.52,0.3244444444444444,-0.5966666666666667,0.005740890372115187,-0.005167417452849372,-0.00019115763975527164
1590503194.5100703,-0.25,-4.304145855252228,8.78,0.52,0.3244444444444444,-0.5966666666666667,0.008274403607081069,-0.002633904217883491,-0.001880166463065859
1590503194.5200703,-0.257985071078781,-4.326044786763657,8.678134360290972,0.52,0.3244444444444444,-0.5966666666666667,0.0008628936699080509,-0.00021165218577321528,-0.001090830782496456
1590503194.5300703,-0.25298262841227614,-4.345526057381585,8.752982628412276,0.52,0.3244444444444444,-0.5966666666666667,-0.004363323129985824,0.0026217837705174952,-0.0012535079267394242
1590503194.5400703,-0.2679593294174359,-4.323061005873846,8.767959329417435,0.52,0.3244444444444444,-0.5966666666666667,-0.004363323129985824,-0.0006456255248172681,-0.002070360250573115
1590503194.5500703,-0.27803691461277374,-4.311963085387226,8.745889256161679,0.5146420569248176,0.3244444444444444,-0.5841647994912409,0.0026502079547414837,-0.0019675221680873693,-0.0013049701794019984
1590503194.5600703,-0.2509031377395731,-4.326387449041707,8.731871760343841,0.5133333333333333,0.3244444444444444,-0.5811111111111111,0.007340264343326994,-0.003371009392205434,-0.0012878648719285878
1590503194.5700703,-0.2586401283872277,-4.295439486451089,8.66223884451495,0.5133333333333333,0.3244444444444444,-0.5811111111111111,0.004808340074622367,-0.00421498414844031,-0.00297581438439834
1590503194.5800703,-0.26,-4.31,8.704790504210205,0.5133333333333333,0.3244444444444444,-0.5811111111111111,0.004363323129985824,-0.006893359992056837,-0.0012650184310355067
1590503194.5900702,-0.26,-4.31,8.755852287714314,0.5133333333333333,0.3244444444444444,-0.5811111111111111,0.004363323129985824,-0.010606677675753608,-0.0031216772728838932
1590503194.6000702,-0.2687097106586432,-4.301290289341357,8.746129131975929,0.52,0.3244444444444444,-0.5733333333333334,0.005841241029039168,-0.01256213354021267,-0.0024631590313687387
1590503194.6100702,-0.260065946748001,-4.3099340532519985,8.720197840244003,0.52,0.3244444444444444,-0.5733333333333334,0.0011267991538589641,-0.016333687040356832,-0.004348935781440821
1590503194.6200702,-0.26786052637168895,-4.318930263185845,8.663209210442467,0.52,0.3244444444444444,-0.5733333333333334,0.0016742817055217286,-0.015271630954950384,-0.00264842230341313
1590503194.6300702,-0.25004163391889883,-4.310020816959449,8.689937549121652,0.52,0.3244444444444444,-0.5733333333333334,0.006533630804896036,-0.015271630954950384,-0.006535901582912574
1590503194.6400702,-0.2569473037587993,-4.316947303758799,8.724736518793996,0.52,0.3244444444444444,-0.5733333333333334,0.006544984694978735,-0.015271630954950384,-0.005029318135888411
1590503194.6500702,-0.2696190126179101,-4.310380987382089,8.74,0.5135873249213933,0.3180317693658377,-0.5808147875917079,0.00759425620106255,-0.014222359448866568,-0.0022647801178181963
1590503194.6600702,-0.28410053637738963,-4.288849195433915,8.75410053637739,0.5133333333333333,0.31777777777777777,-0.5811111111111111,0.010712075303508727,-0.014180800172453925,0.00012553330453223942
1590503194.6700702,-0.29,-4.299428549031904,8.672571529356432,0.5133333333333333,0.31777777777777777,-0.5811111111111111,0.010939475640298882,-0.014180800172453925,0.0063891456183071205
1590503194.6800702,-0.30447654507455346,-4.285523454925447,8.73514445283549,0.5133333333333333,0.31777777777777777,-0.5811111111111111,0.010118734775388542,-0.014180800172453925,0.01049284994285883
1590503194.6900702,-0.30143734282634965,-4.2971253143473005,8.78568797152095,0.5133333333333333,0.31777777777777777,-0.5811111111111111,0.005147272029977153,-0.007642513154966596,0.017603384622450154
1590503194.7000701,-0.275837034176482,-4.3161086438823455,8.806108643882345,0.5187028812941151,0.3079336065163445,-0.5936400563529353,0.003484732899429047,-0.007423574925535513,0.028208615838564304
1590503194.7100701,-0.258931650609931,-4.314273397560275,8.714658253049656,0.52,0.3055555555555556,-0.5966666666666667,0.007053121276900899,-0.0030394146672596506,0.039344465788524546
1590503194.7200701,-0.2518549325954546,-4.342580269618181,8.679274662977273,0.52,0.3055555555555556,-0.5966666666666667,0.003193370352281885,-0.0014955142974120452,0.04706396763776257
1590503194.73007,-0.28,-4.33,8.68214385863824,0.52,0.3055555555555556,-0.5966666666666667,-0.006077267295795967,0.0030386336478979833,0.06241121330188937
1590503194.74007,-0.28,-4.33,8.698255641985979,0.52,0.3055555555555556,-0.5966666666666667,-0.0025622214484705965,0.0012811107242352978,0.06416873622555205
1590503194.75007,-0.257143248425089,-4.282856751574911,8.701428375787454,0.5066666666666667,0.31777777777777777,-0.5811111111111111,-0.0014024540380822691,-0.003895738858660994,0.06950154682418737
1590503194.76007,-0.2407316977736041,-4.2992683022263956,8.7096341511132,0.5066666666666667,0.31777777777777777,-0.5811111111111111,-0.003192676501996221,-0.0074761837864888965,0.06771132436027343
1590503194.77007,-0.2180283312219279,-4.29246458597259,8.636900840723253,0.5066666666666667,0.31777777777777777,-0.5811111111111111,-0.004632167754486851,-0.004202016355285208,0.05749141792291093
1590503194.78007,-0.18032684748748226,-4.34,8.770326847487482,0.5066666666666667,0.31777777777777777,-0.5811111111111111,-0.009781823512415378,-0.0010314082324085763,0.05112643265712252
1590503194.79007,-0.20084924893578848,-4.34,8.790849248935789,0.5066666666666667,0.31777777777777777,-0.5811111111111111,-0.007543176789359148,0.002699669639351805,0.0421718457648976
1590503194.80007,-0.23811184581888556,-4.330629384727038,8.818741230545925,0.5191608203639492,0.3125718804039101,-0.5956876237579407,-0.002456282458707446,0.007429849807189292,0.027957321796697736
1590503194.81007,-0.24,-4.316024571725212,8.813012285862607,0.52,0.31222222222222223,-0.5966666666666667,-0.0006571788289219001,0.00611133274140418,0.019648355882056337
1590503194.82007,-0.2599820825019343,-4.31,8.690107504988394,0.52,0.31222222222222223,-0.5966666666666667,-0.005449267672873426,0.0065440074470569645,0.007643633460849357
1590503194.83007,-0.2903255734207117,-4.280651146841424,8.720651146841425,0.52,0.31222222222222223,-0.5966666666666667,-0.007706844579330197,0.007387213620982677,0.003272492347489368
1590503194.84007,-0.29831593385658767,-4.296631867713176,8.736631867713175,0.52,0.31222222222222223,-0.5966666666666667,-0.009450070804669253,0.0012859218322959828,0.003272492347489368
1590503194.85007,-0.3075194784544443,-4.337597392272221,8.762558435363333,0.52,0.31639971025246905,-0.5849697001819756,-0.008997229185825436,-0.0024607435699280046,0.005733235917417373
1590503194.86007,-0.329552782199343,-4.309552782199343,8.754633386392115,0.52,0.31777777777777777,-0.5811111111111111,-0.0018401743045869787,-0.009963828725499219,0.012389409762210653
1590503194.87007,-0.3224502997256748,-4.302450299725675,8.669403596708099,0.52,0.31777777777777777,-0.5811111111111111,0.0035831502555061906,-0.012288110679824861,0.0185874949737457
1590503194.88007,-0.29876165214096245,-4.358761652140963,8.693095869647593,0.52,0.31777777777777777,-0.5811111111111111,0.011077161320474148,-0.014180800172453925,0.028699307335927026
1590503194.89007,-0.2669746115953012,-4.326974611595301,8.772563471011747,0.52,0.31777777777777777,-0.5811111111111111,0.015411446609432923,-0.014180800172453925,0.03736787791384459
1590503194.90007,-0.238078444780931,-4.319039222390466,8.799039222390466,0.5133333333333333,0.31222222222222223,-0.5811111111111111,0.016414864027027517,-0.014904814927885623,0.0422279867798777
1590503194.91007,-0.2,-4.3,8.78,0.5133333333333333,0.31222222222222223,-0.5811111111111111,0.017453292519943295,-0.007635815477475192,0.035997415822383035
1590503194.92007,-0.1884100092678406,-4.305794995366079,8.727845041705281,0.5133333333333333,0.31222222222222223,-0.5811111111111111,0.016821156586968887,-0.007003679544500785,0.027779648693715762
1590503194.93007,-0.20234500888445342,-4.3174483362948175,8.697448336294817,0.5133333333333333,0.31222222222222223,-0.5811111111111111,0.017174949188324126,-0.0024825474405923047,0.012066766239401684
1590503194.94007,-0.22705580453954025,-4.3029441954604595,8.734111609079081,0.5133333333333333,0.31222222222222223,-0.5811111111111111,0.01807345907367574,0.00014950232496843143,0.001904814168914768
1590503194.95007,-0.2643285642147787,-4.296082141053694,8.766082141053694,0.5173880940357964,0.3156011894742748,-0.5811111111111111,0.01655374729698308,0.001754289450982013,-0.005926327021431596
1590503194.96007,-0.28951939689021516,-4.309519396890215,8.75096120621957,0.52,0.31777777777777777,-0.5811111111111111,0.01215641560735606,-0.0009335537826014118,-0.005559005245745642
1590503194.97007,-0.29,-4.294431689042125,8.6877267561685,0.52,0.31777777777777777,-0.5811111111111111,0.011999138607461015,-0.001090830782496456,-0.00630327355369863
1590503194.9800699,-0.28060640661646713,-4.271212813232934,8.698180780150597,0.52,0.31777777777777777,-0.5811111111111111,0.009949774443258473,-0.005189559110901545,-0.0055203026128774636
1590503194.9900699,-0.2644745631067961,-4.27,8.723288155339805,0.52,0.31777777777777777,-0.5811111111111111,0.006430352147505517,-0.00799449758370422,-0.004607372688741633
1590503195.0000699,-0.26,-4.2815814520120306,8.74158145201203,0.52,0.32163826178178784,-0.5849715951151212,0.002295802822300237,-0.005568295169789605,-0.002468312475876598
1590503195.0100698,-0.26686681903178894,-4.29,8.743133180968211,0.52,0.3244444444444444,-0.5877777777777777,-0.002247161273312354,0.0012218301991353403,0.0011563304908158982
1590503195.0200698,-0.27,-4.270994703899856,8.67031391429947,0.52,0.3244444444444444,-0.5877777777777777,-0.005345648549139107,0.006036700616355688,0.0014906094977763318
1590503195.0300698,-0.27,-4.297679657950995,8.733619059365235,0.52,0.3244444444444444,-0.5877777777777777,-0.00962764450249493,0.006608262208303127,0.005201043859184714
1590503195.0400698,-0.2774885912240185,-4.314977182448037,8.777442956120092,0.52,0.3244444444444444,-0.5877777777777777,-0.013084991372344968,0.004911227530040302,0.002186639582605413
1590503195.0500698,-0.2899933025485565,-4.300013394902887,8.809986605097114,0.5133377983009623,0.31778224274540673,-0.5877777777777777,-0.00655009874531791,0.00327322292610925,0.001090830782496456
1590503195.0600698,-0.2701364540888847,-4.309931772955557,8.829863545911115,0.5133333333333333,0.31777777777777777,-0.5877777777777777,-0.0022114312291034955,-0.0032278378513234934,-0.0010759459504411648
1590503195.0700698,-0.27,-4.31,8.732117210264123,0.5133333333333333,0.31777777777777777,-0.5877777777777777,0.002089280839828018,-0.004340227948694601,0.001044640419914009
1590503195.0800698,-0.2607134291209413,-4.272853716483764,8.776432854395294,0.5133333333333333,0.31777777777777777,-0.5877777777777777,0.00623369251647788,-0.004363323129985824,7.782304462521398e-05
1590503195.0900698,-0.26,-4.284794896733223,8.757807654900166,0.5133333333333333,0.31777777777777777,-0.5877777777777777,0.0025103024998648343,-0.005170259569008604,0.0
1590503195.1000698,-0.2663606527896417,-4.296360652789642,8.762721305579284,0.5260546389126167,0.3269653873628158,-0.5877777777777777,-0.00029684838944616493,-0.002678795568597038,0.0
1590503195.1100698,-0.2794302244681241,-4.281139551063752,8.732279102127505,0.5333333333333333,0.3322222222222222,-0.5877777777777777,0.0009665250446397433,0.0009665250446397433,0.0010286779135680996
1590503195.1200697,-0.26136271342870326,-4.2893186432856485,8.636813567143518,0.5333333333333333,0.3322222222222222,-0.5877777777777777,-0.0019586881016302885,0.001090830782496456,0.004140349666623201
1590503195.1300697,-0.26,-4.29,8.63,0.5333333333333333,0.3322222222222222,-0.5877777777777777,0.001768509532762899,0.005041001880252267,0.004363323129985824
1590503195.1400697,-0.2817923876760158,-4.282735870774662,8.68084890457737,0.5333333333333333,0.3322222222222222,-0.5877777777777777,0.0005968744115866153,0.008623728219294875,0.007532897436798417
1590503195.1500697,-0.26969088552493214,-4.293539409650045,8.740618228950135,0.5333333333333333,0.3089043500471442,-0.6073347028278431,-0.0014769204823098917,0.01055593728362305,0.008726646259971648
1590503195.1600697,-0.28082827941140937,-4.293057240196197,8.787771039215214,0.5333333333333333,0.2977777777777777,-0.6166666666666667,-0.005968349619726665,0.01015097021401781,0.008726646259971648
1590503195.1700697,-0.29,-4.29533564076874,8.762650514618818,0.5333333333333333,0.2977777777777777,-0.6166666666666667,-0.00938189983594069,0.009235448922979604,0.008726646259971648
1590503195.1800697,-0.2967287179275977,-4.279813846217206,8.763643589637988,0.5333333333333333,0.2977777777777777,-0.6166666666666667,-0.009440329296532692,0.007992656995755713,0.005790689203107911
1590503195.1900697,-0.3,-4.290227560050568,8.785056890012642,0.5333333333333333,0.2977777777777777,-0.6166666666666667,-0.009829888517869454,0.0059809520906284825,0.007121428774730341
1590503195.2000697,-0.29638116610563936,-4.31,8.786381166105638,0.5333333333333333,0.30059242636228045,-0.6062122576385137,-0.008934540120609505,0.0023895554256307687,0.010212230583339116
1590503195.2100697,-0.29,-4.304433697609178,8.735469580873424,0.5333333333333333,0.3055555555555556,-0.5877777777777777,-0.006061343311741497,-0.0029123989802741076,0.012122686623482993
1590503195.2200696,-0.3044507463725251,-4.3,8.649422387696163,0.5333333333333333,0.3055555555555556,-0.5877777777777777,-0.004180486848998823,-0.007515986924625708,0.018607131030577265
1590503195.2300696,-0.31,-4.306119107236142,8.654476428944571,0.5333333333333333,0.3055555555555556,-0.5877777777777777,-0.001937510240573074,-0.006724173099597207,0.02339574908126525
1590503195.2400696,-0.303911291526132,-4.3039112915261315,8.70044354236934,0.5333333333333333,0.3055555555555556,-0.5877777777777777,0.0009016944061862179,-0.0027974536609053813,0.031066683563466507
1590503195.2500696,-0.29176569682779885,-4.275297090483396,8.752937212688805,0.5388228687814675,0.3156197038771347,-0.5950971583752899,0.007571000388580034,-0.0019890539197609763,0.03760125445168015
1590503195.2600696,-0.2825006815846319,-4.299997273661472,8.767499318415368,0.54,0.31777777777777777,-0.5966666666666667,0.007090548784926421,0.00027248464757492806,0.03899712612489858
1590503195.2700696,-0.28,-4.316809191126435,8.729144853241392,0.54,0.31777777777777777,-0.5966666666666667,0.008030519751902072,0.0033191333678814607,0.04001267569833408
1590503195.2800696,-0.27247387888441915,-4.304947757768838,8.725052242231163,0.54,0.31777777777777777,-0.5966666666666667,0.009547618718538868,0.00025846083714973177,0.03789782157666721
1590503195.2900696,-0.27,-4.293273137697517,8.763634311512416,0.54,0.31777777777777777,-0.5966666666666667,0.010551263889384457,-0.001090830782496456,0.03268552552338139
1590503195.3000696,-0.2792422841701038,-4.280757715829896,8.78,0.5215154316597924,0.31777777777777777,-0.5822897801798386,0.01090830782496456,-0.001090830782496456,0.023486024258570493
1590503195.3100696,-0.28,-4.28,8.78,0.52,0.31777777777777777,-0.5811111111111111,0.01090830782496456,-0.001090830782496456,0.022907446432425576
1590503195.3200696,-0.2966855924544043,-4.296685592454404,8.654858056591967,0.52,0.31777777777777777,-0.5811111111111111,0.0118183657186373,-0.007461236038205638,0.011986751708352695
1590503195.3300695,-0.28534240515661535,-4.285342405156616,8.666643987108461,0.52,0.31777777777777777,-0.5811111111111111,0.010400243042208487,-0.01192443739047671,0.008218581477215573
1590503195.3400695,-0.2845169257366902,-4.27096614852662,8.68903385147338,0.52,0.31777777777777777,-0.5811111111111111,0.006368435897385612,-0.014075409717123897,0.009113975968224832
1590503195.3500695,-0.29243756167919227,-4.274625370075154,8.724375616791923,0.5167499177610769,0.31777777777777777,-0.5827361522305726,0.0008521779080445629,-0.01606932114911939,0.011174204556354228
1590503195.3600695,-0.30653518535007274,-4.313464814649927,8.786929629299854,0.5066666666666667,0.31777777777777777,-0.5877777777777777,-0.004698248617325207,-0.014979732627850153,0.014137773012214774
1590503195.3700695,-0.31,-4.31,8.714616344653786,0.5066666666666667,0.31777777777777777,-0.5877777777777777,0.0008856242140767466,-0.008335135795038202,0.02161140908150941
1590503195.3800695,-0.31,-4.2982786539273246,8.695860673036337,0.5066666666666667,0.31777777777777777,-0.5877777777777777,0.003272492347489368,-0.003348483417886602,0.03166988027994315
1590503195.3900695,-0.30453941018766756,-4.29,8.74368471849866,0.5066666666666667,0.31777777777777777,-0.5877777777777777,0.005655124130640876,0.0001004851090792981,0.04125785222539464
1590503195.4000695,-0.23938441652865855,-4.279897402754776,8.769897402754776,0.5162080085093779,0.31777777777777777,-0.5922678209978771,0.006533793071649815,0.005498920405797965,0.04637709569109275
1590503195.4100695,-0.13104561403508772,-4.2822385964912275,8.76,0.5255555555555556,0.31777777777777777,-0.5966666666666667,0.00411913013376381,0.008482453263749634,0.04666153065112559
1590503195.4200695,-0.24615411522633748,-4.283645473251029,8.70916378600823,0.5255555555555556,0.31777777777777777,-0.5966666666666667,-0.00435239237708303,0.008328986816072683,0.023633410029731447
1590503195.4300694,-0.28616129324124623,-4.287306451126459,8.709225804505836,0.5255555555555556,0.31777777777777777,-0.5966666666666667,-0.007132625900062178,0.005538605540152708,0.0013441856655077421
1590503195.4400694,-0.3005949953660797,-4.296118999073216,8.756713994439295,0.5255555555555556,0.31777777777777777,-0.5966666666666667,-0.007212463949691859,-0.0009765109077191636,-0.0008467030555666651
1590503195.4500694,-0.292966537966538,-4.327033462033462,8.773241634491635,0.5308120620620621,0.30951755326755326,-0.6049268911768912,-0.007635815477475192,-0.0036260998163970834,0.0
1590503195.4600694,-0.30219993033786136,-4.310400092882851,8.725600139324278,0.5333333333333333,0.3055555555555556,-0.6088888888888889,-0.006828603231414654,-0.00246528010142883,0.002421636738181613
1590503195.4700694,-0.30306225601913483,-4.293062256019135,8.65449804815308,0.5333333333333333,0.3055555555555556,-0.6088888888888889,-0.004274613286356579,-0.0006680806259114745,0.002515701877948649
1590503195.4800694,-0.3056412295701276,-4.29,8.658206147850638,0.5333333333333333,0.3055555555555556,-0.6088888888888889,-0.004503217720734266,-0.000615362686622449,0.0009509361917480138
1590503195.4900694,-0.30677652551924006,-4.28677652551924,8.68644694896152,0.5333333333333333,0.3055555555555556,-0.6088888888888889,-0.005805780431502752,-0.0007392042634759835,0.00035162651902047244
1590503195.5000694,-0.30002350668169375,-4.280023506681694,8.699952986636612,0.5333333333333333,0.3055555555555556,-0.6088888888888889,-0.0065424205137801445,-2.5641811985908924e-06,0.001088266601297865
1590503195.5100694,-0.29,-4.2841810855653,8.7441810855653,0.5255555555555556,0.31777777777777777,-0.5877777777777777,-0.008726646259971648,0.0,0.0
1590503195.5200694,-0.307179427642654,-4.297179427642654,8.705641144714692,0.5255555555555556,0.31777777777777777,-0.5877777777777777,-0.008101984643362398,-0.0018739848498277479,0.0012493232332184986
1590503195.5300694,-0.3121594408907842,-4.31,8.730963634209903,0.5255555555555556,0.31777777777777777,-0.5877777777777777,-0.003787090024733165,-0.006693581638815614,0.0017540254035771311
1590503195.5400693,-0.30727296450939456,-4.31,8.817272964509394,0.5255555555555556,0.31777777777777777,-0.5877777777777777,0.005751769670076238,-0.014775889355859158,0.00029747342581127267
1590503195.5500693,-0.3114952899031445,-4.288738224757861,8.81299057980629,0.5203582327185883,0.31777777777777777,-0.5915576489319357,0.009679838714996412,-0.02149039399890789,-0.0006269708040035355
1590503195.5600693,-0.3091132985607279,-4.255443350719636,8.808226597121456,0.5133333333333333,0.31777777777777777,-0.5966666666666667,0.0030656113849358217,-0.02101595723488525,0.0014911599900183916
1590503195.5700693,-0.3464699501658518,-4.25,8.768236782946346,0.5133333333333333,0.31777777777777777,-0.5966666666666667,-0.003015779879300345,-0.017934529794144265,0.004716204170092285
1590503195.5800693,-0.38884723134922006,-4.25,8.69884723134922,0.5133333333333333,0.31777777777777777,-0.5966666666666667,-0.004730341490312512,-0.017579040072880057,0.00871642196148804
1590503195.5900693,-0.42851096457598525,-4.25,8.725744517712007,0.5133333333333333,0.31777777777777777,-0.5966666666666667,0.0006035450794735797,-0.013716599065042844,0.021932875026379823
1590503195.6000693,-0.35321077619520813,-4.255785948253653,8.714214051746348,0.5249052298406389,0.31777777777777777,-0.5793088219057083,0.004363323129985824,-0.014352267482160687,0.03891966681892843
1590503195.6100693,-0.29,-4.28068023058664,8.696213179608907,0.5333333333333333,0.31777777777777777,-0.5666666666666667,0.002859414322450414,-0.008504041321041038,0.05107857369122507
1590503195.6200693,-0.25513229475766563,-4.29,8.676052917903066,0.5333333333333333,0.31777777777777777,-0.5666666666666667,-0.0008611197304751943,-0.00545415391248228,0.05192931769459229
1590503195.6300693,-0.24,-4.308410429105634,8.694547238807512,0.5333333333333333,0.31777777777777777,-0.5666666666666667,-0.002181661564992912,-0.004115309726655999,0.04859135840568087
1590503195.6400692,-0.25631386861313865,-4.310211678832117,8.73936496350365,0.5333333333333333,0.31777777777777777,-0.5666666666666667,-0.002537574966289201,-0.002916578946193079,0.04477024323956987
1590503195.6500692,-0.2857516844469399,-4.292548989331836,8.792353032004492,0.5333333333333333,0.31777777777777777,-0.5666666666666667,-0.0031798084799086403,-0.0022743454325736398,0.04091684215785324
1590503195.6600692,-0.33024152847873106,-4.27,8.85,0.52,0.3055555555555556,-0.6022222222222222,-0.006544984694978735,-0.0040172773157836315,0.034188146741537265
1590503195.6700692,-0.35,-4.265575852082869,8.779213633325908,0.52,0.3055555555555556,-0.6022222222222222,-0.007510184041843499,-0.006419353259347043,0.0373195834070485
1590503195.6800692,-0.3613889035249486,-4.256203698825017,8.697592602349966,0.52,0.3055555555555556,-0.6022222222222222,-0.00831253404184177,-0.006807591041215435,0.0436736366974079
1590503195.6900692,-0.37572964063515646,-4.258540718729687,8.718540718729688,0.52,0.3055555555555556,-0.6022222222222222,-0.007169991532725858,-0.007317449691479616,0.05281397677033519
1590503195.7000692,-0.36332727729565706,-4.266663638647828,8.726663638647828,0.52,0.3055555555555556,-0.6022222222222222,-0.006181044128530721,-0.009089595909572076,0.06072555600389628
1590503195.7100692,-0.3451799606184835,-4.262410019690758,8.712769940927725,0.52,0.3055555555555556,-0.6022222222222222,-0.0065057233785229575,-0.008687384943515869,0.068380924297855
1590503195.7200692,-0.335249814846465,-4.275249814846465,8.658501110921211,0.52,0.3055555555555556,-0.6022222222222222,-0.010390143006161196,-0.010853806680074832,0.07532182513714519
1590503195.7300692,-0.35010659786804266,-4.264840103197936,8.670426391472171,0.52,0.3055555555555556,-0.6022222222222222,-0.01090830782496456,-0.0076125594303133115,0.07966553119298411
1590503195.7400692,-0.36,-4.25,8.724190941513596,0.52,0.3055555555555556,-0.6022222222222222,-0.010521309929073627,-0.005067156016591346,0.08561212474096719
1590503195.7500691,-0.3676084625830891,-4.253804231291545,8.769021156457724,0.5149276916112739,0.3055555555555556,-0.6022222222222222,-0.009817477042468105,-0.0039483458703305175,0.09344379576479298
1590503195.7600691,-0.36483171002342496,-4.265056096658858,8.80505609665886,0.5066666666666667,0.3055555555555556,-0.6022222222222222,-0.0076113386925640404,-0.0010663539975853042,0.1042416508869172
1590503195.7700691,-0.3311752940866865,-4.27,8.758232058738388,0.5066666666666667,0.3055555555555556,-0.6022222222222222,-0.008534339214735094,0.002117559216580728,0.113767458551437
1590503195.780069,-0.31,-4.266148470999276,8.711554587002171,0.5066666666666667,0.3055555555555556,-0.6022222222222222,-0.014519958443661203,0.003692628986856066,0.11991040770645074
1590503195.790069,-0.31647329163095217,-4.258705341673809,8.740357266609523,0.5066666666666667,0.3055555555555556,-0.6022222222222222,-0.019391475195454068,0.0042220978144834375,0.12368755436860669
1590503195.800069,-0.3547194207867525,-4.251056115842649,8.801551073258805,0.5066666666666667,0.3055555555555556,-0.6022222222222222,-0.02439788179479193,0.003387696714593794,0.12619075766827562
1590503195.810069,-0.45780804317101376,-4.229315174097392,8.828492869073623,0.52,0.2977777777777777,-0.5733333333333334,-0.026807555411550443,-0.007307010515926085,0.14094127969460762
1590503195.820069,-0.484467434692537,-4.127011520388055,8.741685867313427,0.52,0.2977777777777777,-0.5733333333333334,-0.02218774945185625,-0.02457921584599235,0.15510777594363992
1590503195.830069,-0.4756996490232921,-4.03849824511646,8.638600701953417,0.52,0.2977777777777777,-0.5733333333333334,-0.02400945352208484,-0.02569966695065896,0.16894848416296618
1590503195.840069,-0.45989079079854384,-4.007472697699636,8.660109209201456,0.52,0.2977777777777777,-0.5733333333333334,-0.03139414540541016,-0.016866182063156997,0.18523702436501452
1590503195.850069,-0.4394620759935944,-3.9739792910176153,8.694731037996798,0.5213141772213326,0.30250881577457495,-0.5717563206677343,-0.04294111989240225,-0.0026157348784455613,0.2088880801129007
1590503195.860069,-0.46999272092007566,-3.890020017469792,8.709996360460039,0.5255545445722327,0.31777413823781564,-0.566667879846654,-0.051267061716221016,0.006542801127755074,0.22470736957815632
1590503195.870069,-0.5341568358963557,-3.8775294923109334,8.714156835896356,0.5255555555555556,0.31777777777777777,-0.5666666666666667,-0.06681016831584663,0.005736512944290268,0.24406373624739813
1590503195.880069,-0.5120670289489101,-3.7043734470010707,8.69605745338478,0.5255555555555556,0.31777777777777777,-0.5666666666666667,-0.06872233929727672,0.00565874115283494,0.25545899034452335
1590503195.890069,-0.45579030159439143,-3.375268677295943,8.804465267123687,0.5255555555555556,0.31777777777777777,-0.5666666666666667,-0.07569750869114959,0.028131138960199663,0.2799981050093319
1590503195.900069,-0.3853594718295597,-3.0335748714002184,9.228218234841426,0.524246155507851,0.3164683777300732,-0.5697616122339684,-0.09046176748003336,0.06245106745812713,0.3428314712529556
1590503195.910069,-0.18965455339381884,-2.7010363398185433,8.841381786424725,0.5133333333333333,0.3055555555555556,-0.5955555555555555,-0.01617502894834339,-0.0240736419732683,0.4926757525763801
1590503195.920069,-0.2744500322372663,-2.701907156673114,8.789364281108963,0.5133333333333333,0.3055555555555556,-0.5955555555555555,-0.010094861736611624,-0.040959535424462665,0.61106005452732
1590503195.930069,-0.363119836718826,-2.768533061198043,8.83394628567726,0.5133333333333333,0.3055555555555556,-0.5955555555555555,-0.015862122144399738,-0.0565530399933528,0.704167334273994
1590503195.940069,-0.4026075610790358,-2.83,8.906962194604821,0.5133333333333333,0.3055555555555556,-0.5955555555555555,-0.017975241723989368,-0.05710150622784951,0.784017198740128
1590503195.950069,-0.41371276945861446,-2.814281923646536,8.851436152706928,0.5196205638747189,0.30765129906935074,-0.5910147779423326,-0.013494969711334404,-0.07554815413199806,0.8975111825555758
1590503195.960069,-0.3974654106564616,-2.78,8.912396231969385,0.5333333333333333,0.31222222222222223,-0.5811111111111111,-0.011999138607461015,-0.07743389310897715,0.9804057608143544
1590503195.970069,-0.37416216990592616,-2.752283797335371,8.822689222100188,0.5333333333333333,0.31222222222222223,-0.5811111111111111,-0.010271499348004568,-0.07288076376516668,1.0732949262598679
1590503195.980069,-0.3751318703442722,-2.71,8.707434064827863,0.5333333333333333,0.31222222222222223,-0.5811111111111111,-0.013118739036123574,-0.0745592832347019,1.1446023492590012
1590503195.990069,-0.43961723521671675,-2.761830161629254,8.738128007227164,0.5333333333333333,0.31222222222222223,-0.5811111111111111,-0.028398790435805434,-0.094168973462316,1.196311906182072
1590503196.000069,-0.5123951921207801,-2.8340034341994427,8.86479038424156,0.5354662087734077,0.29906949034176405,-0.5878652166713464,-0.03935762416812798,-0.1255313829201153,1.2342941497964548
1590503196.010069,-0.5961172189235779,-2.791973951350316,8.851648343229266,0.54,0.27111111111111114,-0.6022222222222222,-0.024400511925219324,-0.1247427365804344,1.2855145551667932
1590503196.020069,-0.6444848766387943,-2.81860586352844,8.750666356973262,0.54,0.27111111111111114,-0.6022222222222222,-0.01173467942580592,-0.09983086370541602,1.3383302874812095
1590503196.0300689,-0.6156954406793635,-2.9772182372825458,8.8155899084838,0.54,0.27111111111111114,-0.6022222222222222,-0.007151871175338708,-0.07992545652986133,1.3965956242775102
1590503196.0400689,-0.5893804903992517,-3.118659929942964,8.589380490399252,0.54,0.27111111111111114,-0.6022222222222222,0.020343803042630504,-0.054136071039293826,1.4367027415004692
1590503196.0500689,-0.64322555798045,-3.110967777431364,8.64322555798045,0.54,0.27111111111111114,-0.6022222222222222,-0.0006332888156456024,-0.08937758536119769,1.4434154108951176
1590503196.0600688,-0.7094195634905625,-3.01,8.747383023792413,0.5577777777777778,0.25222222222222224,-0.5877777777777777,-0.07699021935627297,-0.16624839611744854,1.4547728134504752
1590503196.0700688,-0.7490827249687937,-3.01,9.19954306464425,0.5577777777777778,0.25222222222222224,-0.5877777777777777,-0.09343122239547424,-0.19566913839812455,1.4668872367425179
1590503196.0800688,-0.7959875167975105,-2.9137035858264375,8.544567861942145,0.5577777777777778,0.25222222222222224,-0.5877777777777777,-0.015271630954950384,-0.1217690490970935,1.5216415506292702
1590503196.0900688,-0.8479008416436806,-2.9582007214088692,8.559400240469623,0.5577777777777778,0.25222222222222224,-0.5877777777777777,-0.015271630954950384,-0.11691516457447002,1.542675050227305
1590503196.1000688,-0.806509873323398,-2.9834901266766023,8.92226092896175,0.5635643318430203,0.24957005160898604,-0.5940465446817905,-0.07039912584753184,-0.14280613492097965,1.561112934422942
1590503196.1100688,-0.8464882184757961,-2.976488218475796,8.717023563048407,0.5844444444444444,0.24,-0.6166666666666667,-0.03079319691320568,-0.1380858629705018,1.5885824716535786
1590503196.1200688,-0.8994307400379506,-3.0163504111321946,8.800803289057558,0.5844444444444444,0.24,-0.6166666666666667,-0.029307538993106865,-0.13994165304227937,1.612459715030854
1590503196.1300688,-0.9584781412807818,-3.014997249457981,9.0030382163544,0.5844444444444444,0.24,-0.6166666666666667,-0.0382497097659727,-0.1412622862957008,1.6345866834823306
1590503196.1400688,-0.9674193191457972,-2.8664515177221257,8.682257957437391,0.5844444444444444,0.24,-0.6166666666666667,-0.007565428266396463,-0.11334085073758224,1.6754808782508273
1590503196.1500688,-1.0276562784763987,-2.993872790231456,8.80369418625843,0.5836036692789016,0.23229289431585767,-0.6156857623068668,-0.02045064183791287,-0.09928508387834291,1.6954359203645952
1590503196.1600688,-1.1585372864846886,-3.0601194973035897,8.798417789181098,0.5777777777777777,0.17888888888888888,-0.6088888888888889,-0.03391013588164719,-0.1401472531274736,1.7058997865316097
1590503196.1700687,-1.173780687050436,-3.012438625899128,8.978543359714825,0.5777777777777777,0.17888888888888888,-0.6088888888888889,-0.04505613255353967,-0.16834679047903092,1.714573536271436
1590503196.1800687,-1.1674607901528686,-2.907209847131229,8.941723645026801,0.5777777777777777,0.17888888888888888,-0.6088888888888889,-0.012765080698295538,-0.14859575419938273,1.733077080493029
1590503196.1900687,-1.1402443852303006,-2.6536901408450704,8.253783022459078,0.5777777777777777,0.17888888888888888,-0.6088888888888889,0.030243626016239002,-0.11971201380568605,1.7515948644203843
1590503196.2000687,-1.2424275599543204,-2.8899887323943663,8.790244689760183,0.5777777777777777,0.17888888888888888,-0.6088888888888889,-0.038028412354592936,-0.11692539999463168,1.7488082506093297
1590503196.2100687,-1.2316882722740081,-2.893095165835682,8.981688272274008,0.5961351735433678,0.14757333140641182,-0.6434439868005878,-0.05603138743655933,-0.176055879149485,1.740089953674515
1590503196.2200687,-1.4384454948030194,-3.0984454948030193,8.733655324323705,0.5966666666666667,0.14666666666666667,-0.6444444444444445,-0.026693254717739777,-0.10959178888577069,1.7574452751612346
1590503196.2300687,-1.2687235748775785,-2.843915439608251,8.812169120783498,0.5966666666666667,0.14666666666666667,-0.6444444444444445,-0.024949871615909572,-0.13495208493632596,1.7404739019987416
1590503196.2400687,-1.2329415277517104,-2.7294128888054736,9.041174222389053,0.5966666666666667,0.14666666666666667,-0.6444444444444445,-0.021046655769346,-0.12011986471938436,1.738912615660116
1590503196.2500687,-1.1558986827526776,-2.566589929828881,8.631106118429152,0.5956681986677063,0.14351765220840687,-0.6449820810592694,-0.009143882655541818,-0.11831243595049813,1.7176764297941975
1590503196.2600687,-1.3538323279576512,-2.7731293856949404,9.018367598178013,0.5832375832683601,0.1043134036412382,-0.651675489351225,-0.027918849010438965,-0.19247355305234182,1.6857589869908727
1590503196.2700686,-1.4202731756671303,-2.703287804055478,8.751785337886261,0.5822222222222222,0.10111111111111112,-0.6522222222222223,-0.04932683362869983,-0.1407033291956775,1.6655038547197392
1590503196.2800686,-1.3776163051431538,-2.657558713149385,8.822676139448156,0.5822222222222222,0.10111111111111112,-0.6522222222222223,-0.052810324477000695,-0.17242762977084064,1.6413895591924477
1590503196.2900686,-1.4035037861298367,-2.5458396435497277,8.42051135838951,0.5822222222222222,0.10111111111111112,-0.6522222222222223,-0.00715967877037711,-0.10671355082359847,1.636816243382309
1590503196.3000686,-1.5726943827356394,-2.7926943827356396,8.962334496985084,0.5822222222222222,0.09086498113473677,-0.6539787016467435,-0.029471955994472797,-0.14312745346824188,1.605062814685676
1590503196.3100686,-1.7035198909242848,-2.894679700041783,9.075637191300332,0.5822222222222222,0.06222222222222223,-0.6588888888888889,-0.04021215394881109,-0.12139188489245169,1.5881231037661212
1590503196.3200686,-1.6902346922748996,-2.7856496668087685,8.623520384123495,0.5822222222222222,0.06222222222222223,-0.6588888888888889,-0.009906150333881073,-0.10981363554343133,1.5825650568002705
1590503196.3300686,-1.673592773932129,-2.636287354381226,8.880558838426472,0.5822222222222222,0.06222222222222223,-0.6588888888888889,-0.04071563189815153,-0.13542195455535733,1.5628295602932536
1590503196.3400686,-1.6178939640673804,-2.5300975733468594,8.837071064363704,0.5822222222222222,0.06222222222222223,-0.6588888888888889,-0.026850864213410954,-0.12497543062119289,1.5605483008023977
1590503196.3500686,-1.707470300862276,-2.6588635574895223,8.98823113270509,0.5822222222222222,0.06222222222222223,-0.6588888888888889,-0.03601142285958054,-0.13047176580889464,1.5556626695244404
1590503196.3600686,-1.9155660601265823,-2.9029940664556966,9.138426028481012,0.5706035513361463,0.027366209563994374,-0.6976177918424754,-0.026102484616363473,-0.11597145026136113,1.5476397325405515
1590503196.3700686,-1.8699413461538463,-2.730410576923077,8.640879807692308,0.5688888888888889,0.022222222222222227,-0.7033333333333334,-0.01208231445462637,-0.1124643390126589,1.5204773516740875
1590503196.3800685,-1.8774542317645933,-2.812217962235215,8.826653886705644,0.5688888888888889,0.022222222222222227,-0.7033333333333334,-0.0233239967858681,-0.12309345244918,1.495096664521646
1590503196.3900685,-1.9444579699031919,-2.8591205789322345,8.967361736796702,0.5688888888888889,0.022222222222222227,-0.7033333333333334,-0.012360535770280819,-0.09312665900657477,1.4892494853133327
1590503196.4000685,-1.7230255843335438,-2.560193935565382,8.80397978521794,0.5677562293816242,0.02071200954586931,-0.703773812030603,0.0023035272781227276,-0.08551892825706897,1.4694303078314794
1590503196.4100685,-1.9149932699674888,-2.6974912509577353,9.182449524756166,0.5488888888888889,-0.004444444444444445,-0.7111111111111111,-0.03544803611475437,-0.12762191579691143,1.4401708822695383
1590503196.4200685,-1.8581498946897541,-2.6192175355538576,8.630676408641031,0.5488888888888889,-0.004444444444444445,-0.7111111111111111,0.005698645910012985,-0.0734972629260577,1.457117002311422
1590503196.4300685,-1.9910516113399561,-2.7599370002423065,8.708853889023505,0.5488888888888889,-0.004444444444444445,-0.7111111111111111,-0.016473738635782442,-0.10846140778673508,1.455411434269438
1590503196.4400685,-1.9326831300991314,-2.8334577594525836,8.949640757961223,0.5488888888888889,-0.004444444444444445,-0.7111111111111111,-0.04392897764017803,-0.11046965537246185,1.4937214620328205
1590503196.4500685,-2.0893083047487173,-2.896436101582906,8.635970041224786,0.5465647410950618,-0.010165423629249666,-0.7179047738930673,-0.020461702002160763,-0.0848961704166722,1.5546586083980105
1590503196.4600685,-2.1509679019024435,-2.833567757641331,8.938671896132,0.5344444444444445,-0.04,-0.7533333333333333,-0.05840395150057055,-0.11385830285984917,1.61361190218363
1590503196.4700685,-2.043819312956451,-2.568847714362997,8.825220449012713,0.5344444444444445,-0.04,-0.7533333333333333,-0.05702888115794292,-0.11798351388773202,1.6473011255780068
1590503196.4800684,-2.2233778349686344,-2.59,8.865467267170661,0.5344444444444445,-0.04,-0.7533333333333333,-0.04891771602033889,-0.13122446915748062,1.6800345111104464
1590503196.4900684,-2.2131514692951066,-2.5676262244125887,9.013151469295106,0.5344444444444445,-0.04,-0.7533333333333333,-0.043200187027131624,-0.11037333291295262,1.6600554667181937
1590503196.5000684,-2.1244052912159623,-2.477665184595306,8.907665184595306,0.5331718047598332,-0.0477337334680224,-0.7551933451800729,-0.008981335111460358,-0.08749231647465104,1.616015337027108
1590503196.5100684,-2.1722090547984285,-2.348895472600786,8.784102530339938,0.52,-0.12777777777777774,-0.7744444444444445,-0.023647570103118028,-0.07897012079944975,1.517151999399992
1590503196.5200684,-2.3010746812386156,-2.284462659380692,9.023424408014572,0.52,-0.12777777777777774,-0.7744444444444445,-0.06682282339915903,-0.10407201225063636,1.3785895585894419
1590503196.5300684,-2.1864032834889473,-2.1045061565417758,8.871106977414012,0.52,-0.12777777777777774,-0.7744444444444445,-0.06425127623809779,-0.08773646004052953,1.1768385075904888
1590503196.5400684,-2.1692789271368724,-2.0213307130825378,8.803123569299874,0.52,-0.12777777777777774,-0.7744444444444445,-0.039342487309527566,-0.06300003597009317,1.0161301458730887
1590503196.5500684,-2.4042611847753506,-2.230467105472352,9.16998092149194,0.5181993421447776,-0.13656922495327528,-0.7717964181867645,-0.04887732857401184,-0.03470069068633325,0.8601840150983167
1590503196.5600684,-2.2116247784759144,-2.150868374415982,8.9202239407121,0.5011111111111111,-0.22,-0.7466666666666667,-0.01817743755607615,-0.02944320467080996,0.6878435865979372
1590503196.5700684,-2.34802051756324,-2.1819794824367604,8.801569131171966,0.5011111111111111,-0.22,-0.7466666666666667,-0.0005062483095118766,0.02810485185728435,0.5867741294881502
1590503196.5800683,-2.3336537704019595,-2.1963462295980407,9.103270821558855,0.5011111111111111,-0.22,-0.7466666666666667,-0.02793170589328125,-0.02126097179350052,0.49901266522008825
1590503196.5900683,-2.4547827212481015,-2.200592813751208,9.084149696258457,0.5011111111111111,-0.22,-0.7466666666666667,-0.07169725532661544,-0.030051687745318627,0.38939206319399505
1590503196.6000683,-2.534406668507524,-2.1499230291315756,8.729461203921028,0.5011111111111111,-0.22,-0.7466666666666667,-0.01721469681827685,0.007849222521351687,0.3657039942773261
1590503196.6100683,-2.5425815724052208,-2.2377447172156617,8.93870921379739,0.5044444444444445,-0.22,-0.7088888888888889,-0.019565336505086857,-0.008199027206846808,0.316585372339767
1590503196.6200683,-2.5588739123679303,-2.286621737103791,8.930563043816035,0.5044444444444445,-0.22,-0.7088888888888889,-0.03289447596775258,-0.011753464396891001,0.28370682833185823
1590503196.6300683,-2.5314391431353456,-2.234575657254138,8.898560856864654,0.5044444444444445,-0.22,-0.7088888888888889,-0.03101018421952632,-0.002680788343289635,0.23461715928253055
1590503196.6400683,-2.61311976630964,-2.2672479065238558,8.81688023369036,0.5044444444444445,-0.22,-0.7088888888888889,-0.02655519731492565,-0.0062447778669701675,0.1963042719029648
1590503196.6500683,-2.1555501813784765,-1.8612841596130594,8.744977025392988,0.5044444444444445,-0.22,-0.7088888888888889,-0.0018614031442067691,-0.0014786231042061993,0.1393736156396838
1590503196.6600683,-2.35994312488151,-2.0496871868483058,9.21849280936002,0.4988888888888889,-0.2533333333333333,-0.7744444444444445,0.004267159378475222,-0.06747640568976318,0.055424532121796335
1590503196.6700683,-2.3578467788740567,-1.9566569936157865,8.751868833430063,0.4988888888888889,-0.2533333333333333,-0.7744444444444445,-0.029841787442688887,-0.007119839222260676,-0.026148916894632106
1590503196.6800683,-2.5208078080395033,-2.100538538693002,9.213080780803951,0.4988888888888889,-0.2533333333333333,-0.7744444444444445,-0.02858017048163676,0.035519961688512014,-0.0974842167196904
1590503196.6900682,-2.7440642745201798,-2.252725662996357,9.16104797183156,0.4988888888888889,-0.2533333333333333,-0.7744444444444445,0.00043277561808160395,0.022599554765080597,-0.16975796236622798
1590503196.7000682,-2.470892271996418,-2.090529786497873,8.691533592493842,0.4988888888888889,-0.2533333333333333,-0.7744444444444445,-0.04240248608935428,0.027255561472410584,-0.23866686163471176
1590503196.7100682,-2.92,-2.32,8.86,0.4155555555555556,-0.26666666666666666,-0.6588888888888889,-0.004363323129985824,0.031634092692397225,-0.284706834231575
1590503196.7200682,-2.8865092885535817,-2.290695627484384,8.98559016792407,0.4155555555555556,-0.26666666666666666,-0.6588888888888889,-0.010299886713173015,0.02021762426319109,-0.30297318371830484
1590503196.7300682,-2.6602668981230333,-2.1181957252902244,8.704676141911685,0.4155555555555556,-0.26666666666666666,-0.6588888888888889,-0.0028594512895624216,0.015473299139107263,-0.3231118415271408
1590503196.7400682,-2.6700983073397886,-2.2121376302757043,8.946412890827112,0.4155555555555556,-0.26666666666666666,-0.6588888888888889,0.0057436122988495115,0.023853548021738415,-0.31772121609283593
1590503196.7500682,-2.2884839039710676,-1.9023614647029432,8.664985367246425,0.4155555555555556,-0.26666666666666666,-0.6588888888888889,-0.019431420929345133,0.008071509316152484,-0.32141344968116103
1590503196.7600682,-1.4,-1.4,6.64,0.4633333333333333,-0.2088888888888889,-0.6166666666666667,0.062177354602297986,-0.08508480103472357,-0.30870511144649704
1590503196.7700682,-1.9003715550102966,-1.7720711562897078,7.852438767909565,0.4633333333333333,-0.2088888888888889,-0.6166666666666667,0.14195114847096074,-0.157161123565182,-0.2968090193783631
1590503196.7800682,-2.467876806344607,-2.2979261829412434,11.162718191177031,0.4633333333333333,-0.2088888888888889,-0.6166666666666667,-0.20294044300283307,0.28999940360941745,-0.2998653560122775
1590503196.7900681,-2.1240423990544097,-1.9620879246577954,8.364066038814961,0.4633333333333333,-0.2088888888888889,-0.6166666666666667,-0.033725000729826676,0.2638320671754474,-0.2815482205084985
1590503196.8000681,-2.5198103013210624,-2.406850526940775,10.267212409084163,0.4633333333333333,-0.2088888888888889,-0.6166666666666667,0.03842357115041139,-0.14998856873602529,-0.34685659827942183
1590503196.8100681,-2.466044503922958,-2.096608412710908,8.758347896822272,0.49,-0.18444444444444444,-0.6255555555555555,-0.11031688575046503,0.009717837011140328,-0.4086110021856398
1590503196.8200681,-2.2510963158646295,-2.207387548193631,8.828483864058262,0.49,-0.18444444444444444,-0.6255555555555555,0.05553894912168421,0.022357124405499973,-0.4143470414826318
1590503196.830068,-2.5580474439525918,-2.4319859345994574,9.360033378552048,0.49,-0.18444444444444444,-0.6255555555555555,-0.030210642634993803,0.03215707774912032,-0.47886340099479907
1590503196.840068,-2.2100955240724693,-2.2067197355958164,8.651082807682231,0.49,-0.18444444444444444,-0.6255555555555555,0.013941094828902984,0.042066463183550534,-0.5418024443285108
1590503196.850068,-2.4383176477700976,-2.3335098043167206,8.58346143769775,0.49,-0.18444444444444444,-0.6255555555555555,0.02039539862309782,0.06327346136447641,-0.5971250482787521
1590503196.860068,-2.3349123927297644,-2.2070677651969413,8.566883050134722,0.5166666666666667,-0.15777777777777774,-0.6022222222222222,0.022244473709430276,0.024404949640679623,-0.6684875626204779
1590503196.870068,-2.7007304499509397,-2.5206260999579486,9.27892176865451,0.5166666666666667,-0.15777777777777774,-0.6022222222222222,0.025094799406643904,0.034381089580927324,-0.6962782381683108
1590503196.880068,-2.155078437917223,-2.0937967289719626,8.821728971962617,0.5166666666666667,-0.15777777777777774,-0.6022222222222222,0.01577681376894031,0.03345038420056931,-0.75414527892577
1590503196.890068,-2.0958134856775024,-2.0787202285162536,8.358763276472482,0.5166666666666667,-0.15777777777777774,-0.6022222222222222,0.04833021979994869,-0.028077701715523824,-0.7930505677884969
1590503196.900068,-2.1419156359023153,-2.0680843640976847,8.952143989850935,0.5166666666666667,-0.15777777777777774,-0.6022222222222222,0.007379316288720718,0.02202710136133757,-0.8237401907685082
1590503196.910068,-1.940394776799271,-2.000460572932483,7.9017238586901515,0.5344444444444445,-0.12444444444444445,-0.6166666666666667,0.062119936644316594,0.08182379227883048,-0.8520091781282593
1590503196.920068,-2.1526784087458246,-2.248124810203462,8.828695718190101,0.5344444444444445,-0.12444444444444445,-0.6166666666666667,0.031244533931323478,0.0879988728214291,-0.8898315464516758
1590503196.930068,-1.723638996138996,-2.3102799227799227,9.289440154440154,0.5344444444444445,-0.12444444444444445,-0.6166666666666667,-0.02586695668522665,-0.02211354063126504,-0.9822965416458223
1590503196.940068,-2.1764313387860525,-2.4275656478691348,9.359156263452432,0.5344444444444445,-0.12444444444444445,-0.6166666666666667,0.037942175049980584,0.018583333104565645,-0.9873648018878878
1590503196.950068,-2.240254274717648,-2.443224809136223,9.022248091362231,0.5344444444444445,-0.12444444444444445,-0.6166666666666667,-0.015294963129552336,0.10769154460332636,-1.0190689972918143
1590503196.960068,-2.250095805166316,-2.384928146125263,8.837416170479473,0.5494683957360235,-0.10441250938900579,-0.6433759134072515,0.009358280111465098,0.09948474895022502,-1.0608825769094596
1590503196.970068,-2.2462641161557966,-2.5060321118537296,8.791160021510331,0.5544444444444444,-0.09777777777777777,-0.6522222222222223,0.001799447598720627,0.07656061672224454,-1.1250767683922678
1590503196.980068,-2.46376065913805,-2.7154732273181224,8.83143715909964,0.5544444444444444,-0.09777777777777777,-0.6522222222222223,0.026403350846146454,0.08359030336436621,-1.1400148525067764
1590503196.990068,-2.4610443251189285,-2.7513291410604546,8.88142407970763,0.5544444444444444,-0.09777777777777777,-0.6522222222222223,0.016414242736840542,0.08828479998306174,-1.1683936862523707
1590503197.000068,-2.555242450846281,-2.871217664713449,9.009876069335837,0.5544444444444444,-0.09777777777777777,-0.6522222222222223,0.0210848888821527,0.08174589537962472,-1.1786691077720572
1590503197.010068,-2.2530319882008754,-2.743537319567688,8.806675935104813,0.5666666666666667,-0.09222222222222222,-0.6466666666666666,0.029716415394480573,0.09156303139061049,-1.1871546299623124
1590503197.020068,-2.31,-2.81,9.12,0.5666666666666667,-0.09222222222222222,-0.6466666666666666,0.014180800172453925,0.06981317007977318,-1.1933688760511227
1590503197.030068,-2.1718994470612327,-2.678475663867841,8.896408628575328,0.5666666666666667,-0.09222222222222222,-0.6466666666666666,0.012746092227450226,0.08989908130982499,-1.1840432744085987
1590503197.040068,-1.9179935886089643,-2.553515251637265,8.886693413574054,0.5666666666666667,-0.09222222222222222,-0.6466666666666666,0.011999138607461015,0.07776415449594004,-1.1832957626957115
1590503197.050068,-1.9423290822705677,-2.669589397349337,8.90397249312328,0.5666666666666667,-0.09222222222222222,-0.6466666666666666,0.03082722161097073,0.05996579679980529,-1.1782018273722439
1590503197.060068,-1.945625921584937,-2.7988748156830123,8.520815909864266,0.6673323503094005,-0.10375683180628546,-0.6613470788645653,0.047812446576501244,0.10716681409420936,-1.1572011687129573
1590503197.070068,-2.0028432607832642,-2.9256865215665293,9.023693839860538,0.6733333333333333,-0.10444444444444444,-0.6622222222222223,0.029716190873887435,0.09874868180966916,-1.1677058566687164
1590503197.0800679,-2.0018028818443803,-3.0457932756964454,8.911634582132566,0.6733333333333333,-0.10444444444444444,-0.6622222222222223,0.024892444096113072,0.08560923810487134,-1.1941738903069776
1590503197.0900679,-1.8535832294617565,-2.9859426628895185,8.798489518413596,0.6733333333333333,-0.10444444444444444,-0.6622222222222223,0.029082006006839398,0.109042189091249,-1.2244990481844173
1590503197.1000679,-1.6494086126477927,-2.8308415229417507,8.624268358824168,0.6733333333333333,-0.10444444444444444,-0.6622222222222223,0.03487598640225196,0.07420377876984618,-1.2859398124526957
1590503197.1100678,-1.6893497261391446,-2.9586994522782892,8.669349726139144,0.9554656929391812,-0.2411023061285269,-0.7018970852917945,0.009164707427257838,0.08991110117319931,-1.3690654727320815
1590503197.1200678,-1.7212819483473838,-3.11216328783621,8.555207915161247,1.0288888888888892,-0.2766666666666667,-0.7122222222222222,0.027078491113563086,0.1338837685737916,-1.4625435418470958
1590503197.1300678,-1.8335340559346982,-3.301588719389803,9.011232102234711,1.0288888888888892,-0.2766666666666667,-0.7122222222222222,0.01024188363956545,0.10862885736279515,-1.5352470741211768
1590503197.1400678,-1.7324273010393605,-3.2232040073543207,8.775728490488161,1.0288888888888892,-0.2766666666666667,-0.7122222222222222,0.018364071348959513,0.10521750729203376,-1.643818383690059
1590503197.1500678,-1.6286208213652753,-3.2648275071808346,8.709540273788425,1.0288888888888892,-0.2766666666666667,-0.7122222222222222,0.037577213853056235,0.10514605776259622,-1.696279415546778
1590503197.1600678,-1.5282109372149868,-3.270150669439276,8.922824778373645,1.1389997527351146,-0.4537726946602946,-0.7885038447662941,0.03280710090606566,0.11513913707567568,-1.764115768872202
1590503197.1700678,-1.481442357746366,-3.274743523004845,8.906795338966084,1.2133333333333334,-0.5733333333333334,-0.84,0.027889589876175357,0.16535864213735407,-1.8129956611536147
1590503197.1800678,-1.4611108953948901,-3.370001941445989,8.657774326318242,1.2133333333333334,-0.5733333333333334,-0.84,0.06072361948865182,0.15998773824349616,-1.8804723598080306
1590503197.1900678,-1.4528398952054669,-3.4945616767125296,8.969364820548522,1.2133333333333334,-0.5733333333333334,-0.84,0.03936553547680398,0.131776367478084,-1.9371242150998427
1590503197.2000678,-1.4552961323532356,-3.5876651911791213,8.819304985278507,1.2133333333333334,-0.5733333333333334,-0.84,0.03118558638712979,0.13661600813731536,-1.9864140632139746
1590503197.2100677,-1.3683970223325062,-3.6370463828974997,9.049154037029968,0.8743240228203008,-0.22258005132446823,-0.7397847765688957,0.04579182280363707,0.15713022857186348,-2.054089415103146
1590503197.2200677,-1.33,-3.8286211695507184,9.492512932279494,0.7322222222222222,-0.07555555555555556,-0.6977777777777778,0.06988486478472258,0.12214070911707495,-2.1371329089341944
1590503197.2300677,-1.104668508287293,-3.542046961325967,8.205566298342541,0.7322222222222222,-0.07555555555555556,-0.6977777777777778,0.04413766520314527,0.16287278787106269,-2.1871783964752174
1590503197.2400677,-1.119540528163639,-3.610127003510914,8.907164707678216,0.7322222222222222,-0.07555555555555556,-0.6977777777777778,0.07592948208867974,0.13189884227803478,-2.2638076002950562
1590503197.2500677,-1.1378644642273765,-3.7322380349558966,8.977084286180988,0.7322222222222222,-0.07555555555555556,-0.6977777777777778,0.006085920801275013,0.17800916877197698,-2.3157194474263574
1590503197.2600677,-1.0195648743634493,-3.8051631721137062,8.869673655772587,0.65444120358195,0.05826125070727843,-0.6810506769949236,0.027694771447840126,0.19116512807976263,-2.4009098677730476
1590503197.2700677,-0.9614793107490329,-3.82,8.765917242996132,0.6288888888888889,0.10222222222222224,-0.6755555555555556,0.04145156973486533,0.1908953869368798,-2.424916829489621
1590503197.2800677,-0.9978834572014351,-3.857883457201435,8.886278190671451,0.6288888888888889,0.10222222222222224,-0.6755555555555556,0.03318668148232282,0.18607420212289666,-2.457976382499792
1590503197.2900677,-0.9192089450064653,-3.836803833574199,8.995996805354833,0.6288888888888889,0.10222222222222224,-0.6755555555555556,0.03621488501542505,0.18718621379466321,-2.5220404296714
1590503197.3000677,-0.808268903080502,-3.799505400880143,8.953639852420395,0.6288888888888889,0.10222222222222224,-0.6755555555555556,0.04318223259897368,0.1965383742300894,-2.547837613999824
1590503197.3100677,-0.7195466896114482,-3.771818675844579,8.748645503124717,0.6311614789320613,0.1394926989302499,-0.690100131831859,0.044228391578253194,0.20175424626925859,-2.565187185631027
1590503197.3200676,-0.713177625070189,-3.829532875210567,8.993552501403782,0.6344444444444445,0.19333333333333333,-0.7111111111111111,0.053002172398230754,0.19684567795490673,-2.5905226410377593
1590503197.3300676,-0.6544240433407692,-3.9483639349888464,9.015242075846347,0.6344444444444445,0.19333333333333333,-0.7111111111111111,0.04688751327392863,0.20350276806091633,-2.6020429813895705
1590503197.3400676,-0.4895337989704425,-3.7693783986272567,8.55531986369239,0.6344444444444445,0.19333333333333333,-0.7111111111111111,0.06843218574355954,0.20598803801938004,-2.61384343782955
1590503197.3500676,-0.474187872061346,-3.80093936030673,8.689912016950862,0.6344444444444445,0.19333333333333333,-0.7111111111111111,0.03903721374545974,0.1953334205839838,-2.626645813734348
1590503197.3600676,-0.42824769818569014,-3.801248721214272,8.62474309455707,0.5903591503063287,0.1984446717841294,-0.689387922695228,0.05143384314333014,0.19654068732528943,-2.6273203137891787
1590503197.3700676,-0.4135745486313337,-3.9607382061735583,8.918625509609784,0.5577777777777778,0.20222222222222225,-0.6733333333333333,0.04604535230943507,0.20242725353471577,-2.617681304465002
1590503197.3800676,-0.2978430044040072,-3.9489215022020034,8.689705512268306,0.5577777777777778,0.20222222222222225,-0.6733333333333333,0.05830599546892856,0.20765354736910485,-2.596776129127445
1590503197.3900676,-0.3064172869147659,-3.94,8.631194237695079,0.5577777777777778,0.20222222222222225,-0.6733333333333333,-0.18577730842898318,0.2371654692134906,-2.818766560878579
1590503197.4000676,-5.096044974508375,-3.7245943190094684,-1.689278404952658,0.5577777777777778,0.20222222222222225,-0.6733333333333333,-2.3347316000596314,1.2698066582950487,-7.893052542989043
1590503197.4100676,-3.2409024552090253,-2.2535014377350144,-3.396522893165229,0.5248560216930047,0.2783844937616228,-0.6551526620626378,-3.716987513797594,0.46636277264724346,-6.420729956478457
1590503197.4200675,0.9394329303396662,-0.4387190558434082,0.5009614277489924,0.4833333333333333,0.3744444444444445,-0.6322222222222222,-4.073604879724127,-1.0339370806221568,-1.0283011215792583
1590503197.4300675,-0.24,-0.2951979617834395,-0.18326233545647555,0.4833333333333333,0.3744444444444445,-0.6322222222222222,-4.025487861902467,-0.9009302517611243,-0.4645060032662744
1590503197.4400675,1.5810433785591436,-1.337896044334034,6.2832050449073185,0.4833333333333333,0.3744444444444445,-0.6322222222222222,-3.850443679375225,-0.6855007433288629,-0.28794476519100054
1590503197.4500675,1.780116510463474,-1.2984500577737834,7.184281358325844,0.4833333333333333,0.3744444444444445,-0.6322222222222222,-2.8391495956676063,0.4577132055425875,-0.0781747472497111
1590503197.4600675,-0.0015235263249956943,-1.0818121392338638,2.8999895049851325,0.4666899889219287,0.4177171399140964,-0.6201179717412008,-1.521074706578005,1.4303094571917505,0.07532819070899788
1590503197.4700675,1.5308740274422006,-3.032143727971981,10.868868618801676,0.4222222222222222,0.5333333333333333,-0.5877777777777777,0.6551202089501452,0.43796276807059575,0.06553259079164456
1590503197.4800675,1.3617988372093024,-1.7597744186046511,9.086177906976744,0.4222222222222222,0.5333333333333333,-0.5877777777777777,2.5243161208880487,0.06753257269962354,0.02407171803155755
1590503197.4900675,1.11,-1.5350164923854306,6.5570868131096915,0.4222222222222222,0.5333333333333333,-0.5877777777777777,3.6665784508820547,0.0833560382632775,-0.0418936742873895
1590503197.5000675,1.1256040927694406,-1.8949691678035472,6.48410204638472,0.4222222222222222,0.5333333333333333,-0.5877777777777777,4.844795627990911,0.026721990900264884,-0.13662487387223196
1590503197.5100675,4.080305829149581,-2.620680259073315,13.845915379603724,0.4284450917019038,0.5514833693157382,-0.5722206040785736,5.8442824997064955,0.03104601479344434,-0.1843519908507132
1590503197.5200675,2.6264482904178985,-0.19046053186998746,9.367807091599829,0.4355555555555555,0.5722222222222222,-0.5544444444444444,4.235887295792627,-0.15580153263602178,0.0035482160589958567
1590503197.5300674,-0.09926368760064408,0.5892805958132046,-0.07522181964573238,0.4355555555555555,0.5722222222222222,-0.5544444444444444,1.4407926160054374,-0.342219174581675,0.3425956517273409
1590503197.5400674,0.13164953949121924,0.3909275327982942,-0.9830671957828649,0.4355555555555555,0.5722222222222222,-0.5544444444444444,0.11736046387964783,0.1147335474600587,0.62446109825205
1590503197.5500674,1.4112006877820984,-2.682108091209285,9.79445886007933,0.4355555555555555,0.5722222222222222,-0.5544444444444444,-1.0637238752028626,0.4138096700782846,0.7858955902483422
1590503197.5600674,2.212883295194508,-4.630343249427918,16.81765446224256,0.4468929570302568,0.48881133994406306,-0.623278667683702,-1.5279007167678706,-0.18616138103526764,0.7580512603364874
1590503197.5700674,0.48063827312693364,-1.3024570258891397,4.969349398711358,0.4511111111111111,0.4577777777777778,-0.6488888888888888,-0.25015834495204214,-0.08769755782882527,0.7814554562540978
1590503197.5800674,-0.051124346410886805,-1.4791807195540012,4.887542158662003,0.4511111111111111,0.4577777777777778,-0.6488888888888888,0.5459221465298504,0.21501140089992477,0.8562509825806333
1590503197.5900674,-0.022915498294808642,-1.5299719590754073,4.1437070860174305,0.4511111111111111,0.4577777777777778,-0.6488888888888888,0.5344884413359992,0.15882268850620784,0.891072013102996
1590503197.6000674,-0.07648691772214457,-2.541232967622598,7.334577314638313,0.4511111111111111,0.4577777777777778,-0.6488888888888888,-0.045261984086391704,-0.05147411760432201,0.8879900429914604
1590503197.6100674,-0.12933183784649896,-4.222736740906906,13.319977567697483,0.4521743310366928,0.45737907030568464,-0.6494204988516797,-0.4935198290182654,-0.1656958150627528,0.894695178015909
1590503197.6200674,0.037728898900225266,-3.0394030740691664,10.07996190539287,0.46,0.4544444444444444,-0.6533333333333333,-0.020446934292749797,-0.1096607979578261,0.9786056938774446
1590503197.6300673,-0.03631545414725441,-2.5195145940349617,7.688582009317884,0.46,0.4544444444444444,-0.6533333333333333,0.3467636948829056,0.07870769994482381,1.059366658380171
1590503197.6400673,-0.13878609062170708,-2.5145374077976816,7.2895344381645755,0.46,0.4544444444444444,-0.6533333333333333,0.17835951653219545,0.028573726649004774,1.0754691598306247
1590503197.6500673,-0.19636583011583011,-3.1276113055019303,9.586456020752896,0.46,0.4544444444444444,-0.6533333333333333,-0.1906197178883833,-0.1645146026243768,1.0572755943879133
1590503197.6600673,-0.12866523805087116,-3.1726695238982576,10.143256871331408,0.475925132250484,0.44443436131556874,-0.6556083522262596,-0.16659312436181176,-0.19582364922531012,1.0764822466374808
1590503197.6700673,2.6845004639653576,-5.774023352922981,7.411549644293226,0.4988888888888889,0.43,-0.6588888888888889,0.048280396494729656,-0.053269353085415784,1.0143283026777161
1590503197.6800673,5.334538470795892,-13.673467987804877,7.55015023267009,0.4988888888888889,0.43,-0.6588888888888889,-0.2636653263179408,-0.1797835766827593,-1.2966093713349802
1590503197.6900673,0.6885714285714286,-9.474285714285713,12.81,0.4988888888888889,0.43,-0.6588888888888889,-0.12341971139102753,0.25431940529060226,-3.8557751501871156
1590503197.7000673,-8.129045976290534,-11.920997930126074,7.837454055071191,0.4988888888888889,0.43,-0.6588888888888889,0.56495934583867,0.7277685256376637,-3.951337218584108
1590503197.7100673,-6.044087474385246,-10.373148693647542,7.1724558145491795,0.524209927140255,0.4212958931010929,-0.6691755606785064,0.15023860925140264,0.3305352786571205,-1.4041738108105153
1590503197.7200673,-3.37,-7.44,8.77,0.5344444444444445,0.4177777777777778,-0.6733333333333333,-0.12544553998709246,0.160352125026979,-0.48323803664592996
1590503197.7300673,-0.4724537640010418,-3.3392957446304665,8.435393923607,0.5344444444444445,0.4177777777777778,-0.6733333333333333,-0.10137116370552819,-0.03457266357536384,0.502258205331652
1590503197.7400672,0.33149904566143,-2.1983996476288357,9.467960651886655,0.5344444444444445,0.4177777777777778,-0.6733333333333333,-0.18496908955841612,0.03167237026647103,0.9957281477449281
1590503197.7500672,-0.018425878530256137,-2.504648921727906,9.50111521598825,0.5344444444444445,0.4177777777777778,-0.6733333333333333,-0.11207323106938402,-0.0246926188170893,1.0824210216926953
1590503197.7600672,0.737526474102765,-3.3978899006963617,8.989402117928222,0.5050449361554064,0.43464634810755376,-0.6617663136786298,-0.008990083534528147,-0.10496656182066467,1.1593856024758225
1590503197.7700672,3.7364680379437365,-10.240103660723019,8.830194934315612,0.4666666666666667,0.4566666666666666,-0.6466666666666666,-0.0762530791492906,-0.11734312472711184,0.9150381232248679
1590503197.7800672,2.194442709465736,-8.957702646611192,9.160163461348407,0.4666666666666667,0.4566666666666666,-0.6466666666666666,-0.08251543130593623,-0.034390503257627464,-0.3495929713636333
1590503197.7900672,-1.221734698072101,-1.903400131541086,8.939311259094833,0.4666666666666667,0.4566666666666666,-0.6466666666666666,0.09069677049943162,0.172323036644775,-1.0598697207832128
1590503197.8000672,-0.7884313368529644,-2.3187450694823717,8.125524607075672,0.4666666666666667,0.4566666666666666,-0.6466666666666666,0.19460178885286628,0.1618217909674479,-0.3987756029282179
1590503197.8100672,0.1823068893528183,-2.5410020876826724,9.282154488517744,0.4666666666666667,0.4468740431454419,-0.6487067965669218,-0.07372626931477039,-0.07488496389125096,0.4263957327203636
1590503197.8200672,1.3194514893458777,-5.285817559778365,8.738386077126176,0.4666666666666667,0.43,-0.6522222222222223,-0.09612514761603878,-0.08722561374329708,0.44214201827801203
1590503197.8300672,0.9663549542379626,-6.32890758531825,8.492798211206487,0.4666666666666667,0.43,-0.6522222222222223,-0.005840418760652957,-0.007342587397197509,-0.026196433634564725
1590503197.8400671,-0.13907855332872615,-3.8911057360055286,8.482480995162405,0.4666666666666667,0.43,-0.6522222222222223,0.06485907450803449,0.04788624005216244,-0.10895165588170147
1590503197.8500671,0.11286132153303835,-4.563714092852321,8.745718142953574,0.4666666666666667,0.43,-0.6522222222222223,0.00028078686308616665,0.0038959995396745852,0.04756056573713246
1590503197.8600671,-0.14894513453525954,-4.4080074763443795,8.642578560024921,0.47060113616205673,0.44405167676925006,-0.6567187587883823,-0.009651267749531353,-0.00925288365588102,0.006404346062493795
1590503197.8700671,-0.06,-4.322335022083658,8.771331514679138,0.4744444444444445,0.4577777777777778,-0.6611111111111111,-0.0004727925312807777,-0.003490573482103819,-0.0026906592489013646
1590503197.880067,-0.051495179309289395,-4.331728306891803,8.741262051726777,0.4744444444444445,0.4577777777777778,-0.6611111111111111,0.002293899777934571,0.00030076724885952887,-0.001090830782496456
1590503197.890067,-0.044034088093940445,-4.316306792845464,8.721590942872714,0.4744444444444445,0.4577777777777778,-0.6611111111111111,0.00717717255916449,0.0017416108177756428,-0.0008708054088878214
1590503197.900067,-0.06,-4.454964074752151,8.546786417492832,0.4744444444444445,0.4577777777777778,-0.6611111111111111,-0.0025400467103286334,0.0,-0.0001831114092901837
1590503197.910067,-0.06,-4.433231199696017,8.61922933434661,0.4744444444444445,0.4577777777777778,-0.6611111111111111,0.0006208718367886317,0.0,-0.0009733410460695
1590503197.920067,-0.05334889478337754,-4.343302210433245,8.756581078691424,0.5077777777777778,0.4444444444444444,-0.6588888888888889,-0.008371523453503747,0.0,-0.0018189000495971851
1590503197.930067,-0.056269716273712425,-4.4133859100632336,8.651033120989164,0.5077777777777778,0.4444444444444444,-0.6588888888888889,-0.001090830782496456,0.0,9.233637309348009e-05
1590503197.940067,-0.06542534351145038,-4.431701374045802,8.573194503816794,0.5077777777777778,0.4444444444444444,-0.6588888888888889,0.002402292499443492,0.0,9.279555908504205e-05
1590503197.950067,-0.06668181520242959,-4.369909108785422,8.676704538006074,0.5077777777777778,0.4444444444444444,-0.6588888888888889,0.00399392929796169,-0.0003644364852881494,-0.0007263942972083066
1590503197.960067,-0.07320431509691186,-4.2990609132041175,8.732652283010294,0.5017371689750327,0.4414241400430719,-0.6541067402533824,-0.0013379288585109556,-0.0008437327064819563,-0.0002470980760144996
1590503197.970067,-0.052922417398578,-4.324155165202844,8.804155165202845,0.4811111111111111,0.4311111111111111,-0.6377777777777778,-0.0023941857555043852,0.0,-0.001090830782496456
1590503197.980067,-0.07438578076344425,-4.303685315419334,8.71070046534411,0.4811111111111111,0.4311111111111111,-0.6377777777777778,-0.0022198660229642547,0.00030620815814593844,-0.0007846226243505175
1590503197.990067,-0.05935764495708571,-4.39,8.611605887607285,0.4811111111111111,0.4311111111111111,-0.6377777777777778,0.0032374573147842312,0.0011258658152015928,-0.0001051050981154106
1590503198.000067,-0.0434896260455962,-4.3481244874528455,8.719323642775135,0.4811111111111111,0.4311111111111111,-0.6377777777777778,0.002181661564992912,0.002181661564992912,-0.002511174045501826
1590503198.010067,-0.05,-4.282843365899779,8.81715663410022,0.4811111111111111,0.43539223307770425,-0.6377777777777778,0.00043041920569983046,0.0014811646212756794,-0.0007405823106378397
1590503198.020067,-0.05,-4.320493082106057,8.76201844771718,0.4811111111111111,0.4444444444444444,-0.6377777777777778,-0.0036540315796410334,0.0011446176964549969,-0.0007630784643033312
1590503198.030067,-0.051514420358152686,-4.353629783223374,8.68728369462771,0.4811111111111111,0.4444444444444444,-0.6377777777777778,-0.00452852076441705,0.0029420970786269165,-0.0016860686616992347
1590503198.040067,-0.05660885344872712,-4.4164354137949084,8.58373802585891,0.4811111111111111,0.4444444444444444,-0.6377777777777778,-0.0028647369802226722,0.0007209140778879407,0.0007209140778879407
1590503198.050067,-0.050645309723280026,-4.38741876110688,8.63838902640264,0.4811111111111111,0.4444444444444444,-0.6377777777777778,0.002181661564992912,-0.0001407847420796232,0.0
1590503198.060067,-0.05730039350088855,-4.360798425996445,8.724905115511552,0.4811111111111111,0.4444444444444444,-0.6377777777777778,0.002181661564992912,-0.0015926987910212598,0.0
1590503198.070067,-0.06,-4.322115020663551,8.767884979336449,0.4811111111111111,0.4444444444444444,-0.6522222222222223,-0.00028839120567719444,-0.0011485090236318949,-0.002181661564992912
1590503198.080067,-0.0733409061901723,-4.3733409061901725,8.663295469049139,0.4811111111111111,0.4444444444444444,-0.6522222222222223,-0.0030287087227093682,-0.0012114834890837476,-0.0007263944511291651
1590503198.090067,-0.0755005745475438,-4.365834290912573,8.647663985444796,0.4811111111111111,0.4444444444444444,-0.6522222222222223,0.0005272139870683939,0.0,0.001090830782496456
1590503198.100067,-0.06373023579633938,-4.332539528407321,8.731190707389018,0.4811111111111111,0.4444444444444444,-0.6522222222222223,0.002718453195543329,0.0008138112065234365,0.0006839251792347377
1590503198.110067,-0.06516407815631263,-4.324835921843688,8.745164078156312,0.47949913716321535,0.4460564183923402,-0.6522222222222223,0.0036078435693878584,0.0011266270832246713,0.0
1590503198.120067,-0.05742529265177057,-4.354850585303541,8.715149414696459,0.4744444444444445,0.4511111111111111,-0.6522222222222223,-0.002181661564992912,-0.0013716877856333044,-0.0004049868896798037
1590503198.1300669,-0.07,-4.37603888334995,8.680097208374875,0.4744444444444445,0.4511111111111111,-0.6522222222222223,-0.0030458431599796353,-0.00021604539874668096,-0.0015229215799898179
1590503198.1400669,-0.07,-4.362099700897308,8.645249252243271,0.4744444444444445,0.4511111111111111,-0.6522222222222223,-0.0060869010204149185,-0.0009763098638555021,-0.0030434505102074605
1590503198.1500669,-0.058596693655877614,-4.377370242902899,8.686839676129468,0.4744444444444445,0.4511111111111111,-0.6522222222222223,0.0,0.001090830782496456,-0.0012439077582405823
1590503198.1600668,-0.050252650844490425,-4.302273857600413,8.786968189866114,0.4744444444444445,0.4511111111111111,-0.6522222222222223,0.0,0.001090830782496456,-0.0021541016331535242
1590503198.1700668,-0.06104325761826921,-4.361043257618269,8.738956742381731,0.5133333333333333,0.4444444444444444,-0.6522222222222223,-0.0009770290300882573,0.00032567634336275235,-0.0006513526867255047
1590503198.1800668,-0.047275885840341925,-4.350913828760513,8.71998262787812,0.5133333333333333,0.4444444444444444,-0.6522222222222223,-0.0028756543352606145,0.0006939927702677025,-0.0017848235527641585
1590503198.1900668,-0.05693428641052717,-4.357737145642108,8.668394281536838,0.5133333333333333,0.4444444444444444,-0.6522222222222223,-0.0018472440896214455,-0.00033441747537146647,-0.001090830782496456
1590503198.2000668,-0.05012038014783527,-4.330481520591341,8.70927771911299,0.5133333333333333,0.4444444444444444,-0.6522222222222223,-0.0011039622195824746,-0.0010776993454104373,-0.001090830782496456
1590503198.2100668,-0.06508426712452559,-4.386891378998735,8.713108621001265,0.5080534720967126,0.44316999518043254,-0.6536787356668072,0.0034512334387926122,0.001090830782496456,-0.0018241793823864237
1590503198.2200668,-0.04306773651800709,-4.326135473036015,8.766195185668968,0.4811111111111111,0.43666666666666665,-0.6611111111111111,0.003526727773378167,0.0009235117111749246,-0.0003346381426430628
1590503198.2300668,-0.06353343574480341,-4.3564665642551965,8.679399692765589,0.4811111111111111,0.43666666666666665,-0.6611111111111111,-0.001090830782496456,0.0,-0.001025347421471454
1590503198.2400668,-0.06628387416398315,-4.357432251672034,8.66,0.4811111111111111,0.43666666666666665,-0.6611111111111111,-0.0027122965639194765,-0.0004053664453557551,0.0006854643371407009
1590503198.2500668,-0.06,-4.37,8.672178992615452,0.4811111111111111,0.43666666666666665,-0.6611111111111111,-0.0034613709057723977,0.00023769122197679843,0.0
1590503198.2600667,-0.05758629869553643,-4.368793149347768,8.706034253261159,0.4825861507971722,0.4351916269806056,-0.6608429220772818,0.0009591837983634202,0.0028775513950902607,-0.00013164698413303577
1590503198.2700667,-0.0474843769145938,-4.355010415390271,8.75498958460973,0.4933333333333334,0.4244444444444445,-0.6588888888888889,0.0005442792484163177,0.0,-0.001090830782496456
1590503198.2800667,-0.06667072701628414,-4.343329272983715,8.746695089113988,0.4933333333333334,0.4244444444444445,-0.6588888888888889,0.0014553268741986953,0.0,-0.0007276634370993476
1590503198.2900667,-0.056515829705479595,-4.36,8.65606331882192,0.4933333333333334,0.4244444444444445,-0.6588888888888889,-0.002181661564992912,0.00035538338081209775,0.0007354474016843583
1590503198.3000667,-0.06845618147969386,-4.361543818520307,8.708456181479695,0.4933333333333334,0.4244444444444445,-0.6588888888888889,-0.002013257088539105,0.0007540218295888418,0.0
1590503198.3100667,-0.06122612562918017,-4.36877387437082,8.70122612562918,0.4933333333333334,0.4244444444444445,-0.6588888888888889,-0.0012245803404482124,-0.000823331666592943,0.0
1590503198.3200667,-0.061392328542735124,-4.35,8.761392328542735,0.4744444444444445,0.43666666666666665,-0.6322222222222222,0.0049985154623531074,-0.00015187948337639078,0.0007870718157436744
1590503198.3300667,-0.06957138121331488,-4.35,8.769571381213314,0.4744444444444445,0.43666666666666665,-0.6322222222222222,0.0023219267349346377,-0.001044075725849214,-0.0009973206692019722
1590503198.3400667,-0.06718696632283626,-4.367604344559055,8.677604344559054,0.4744444444444445,0.43666666666666665,-0.6322222222222222,-0.0013521562524202945,0.0002613254699238384,0.0008295053125726175
1590503198.3500667,-0.08867562675046109,-4.360441457749847,8.670441457749845,0.4744444444444445,0.43666666666666665,-0.6322222222222222,-0.0021335059947225152,0.0010426752122260593,4.815557027039669e-05
1590503198.3600667,-0.059140919835773235,-4.359140919835774,8.731718160328453,0.4760671514213173,0.4373348401277319,-0.6339403825506758,9.371110877706667e-05,-0.001090830782496456,0.0018068171298846452
1590503198.3700666,-0.050443744038485464,-4.350443744038485,8.749112511923029,0.4924951501495275,0.44409931019228904,-0.6513347341452513,0.0010424258168235322,-0.001090830782496456,-0.001988041702301217
1590503198.3800666,-0.07,-4.35,8.712409212723813,0.4933333333333334,0.4444444444444444,-0.6522222222222223,0.0021780603447920264,-0.0019080535643185765,-0.0005436147811477852
1590503198.3900666,-0.07205760058701235,-4.351028800293506,8.636172801761038,0.4933333333333334,0.4444444444444444,-0.6522222222222223,-0.0012030554854162486,-0.001090830782496456,0.0008663813766568709
1590503198.4000666,-0.0829232036544726,-4.362358932115176,8.692358932115175,0.4933333333333334,0.4444444444444444,-0.6522222222222223,-0.0024389811414982352,-0.0005761916294858092,-0.001090830782496456
1590503198.4100666,-0.05964163280853225,-4.369283265617065,8.701791835957337,0.49265641752722766,0.44416571440663616,-0.6527796822978388,-0.0031943087547114035,0.0009344635969405267,-0.0011299225788854383
1590503198.4200666,-0.05512925109741498,-4.35,8.75,0.4744444444444445,0.43666666666666665,-0.6677777777777778,-0.0005313162836750574,-0.0029927350980786687,-0.0016221470661715134
1590503198.4300666,-0.07,-4.347925306082148,8.73547714257504,0.4744444444444445,0.43666666666666665,-0.6677777777777778,0.0015434587804665741,-0.001955347566007853,-0.00022631399898505905
1590503198.4400666,-0.06797792076968938,-4.34,8.682022079230311,0.4744444444444445,0.43666666666666665,-0.6677777777777778,0.0017284699591406645,-0.0008702561555894983,-0.000429106901775583
1590503198.4500666,-0.05954342951984393,-4.341369711440468,8.691369711440467,0.4744444444444445,0.43666666666666665,-0.6677777777777778,-0.00431351901657248,0.0001992164536533725,0.002082053338166226
1590503198.4600666,-0.05343694493783304,-4.359689165186501,8.709689165186502,0.4744444444444445,0.43666666666666665,-0.6677777777777778,-0.0036474048810827327,0.002863672995612366,0.000749825067186729
1590503198.4700665,-0.05,-4.376742167965877,8.726742167965877,0.4871796506022128,0.4419105750845712,-0.6535443120720367,-0.0010661230401072144,0.0028924102583977214,-0.0007354564357940512
1590503198.4800665,-0.07234633223758274,-4.365102445174945,8.707653667762417,0.4933333333333334,0.4444444444444444,-0.6466666666666666,0.0,0.0005565904262830343,-0.001090830782496456
1590503198.4900665,-0.06,-4.349492528745941,8.662029885016235,0.4933333333333334,0.4444444444444444,-0.6466666666666666,0.0008694046764328131,5.53565265159107e-05,-0.0001107130530318214
1590503198.5000665,-0.06,-4.341968715805335,8.69212513677866,0.4933333333333334,0.4444444444444444,-0.6466666666666666,-0.0024134780265107608,0.0008760772022518041,-0.0017521544045036083
1590503198.5100665,-0.05985400326162926,-4.369854003261629,8.700729983691852,0.4932360021744196,0.44433089142571164,-0.6467477759657615,-0.004331471582714047,0.0010589792352246794,-0.0010589792352246794
1590503198.5200665,-0.05171099635008154,-4.361710996350082,8.741445018249593,0.4878073309000544,0.43799744160561893,-0.6512716686943991,-0.0025549430624745174,-0.0007175492850148507,0.0007175492850148507
1590503198.5300665,-0.06858506850792967,-4.36,8.711510411047579,0.4866666666666667,0.43666666666666665,-0.6522222222222223,-0.0006277955344942653,-0.0006173803306695877,-0.00015434508266739692
1590503198.5400665,-0.061043262487862765,-4.36,8.666259574927176,0.4866666666666667,0.43666666666666665,-0.6522222222222223,0.0018402547141975493,-0.003908113995592007,-0.0009770284988980017
1590503198.5500665,-0.05612897132711269,-4.335806543009331,8.703871028672888,0.4866666666666667,0.43666666666666665,-0.6522222222222223,0.0017593978413617236,0.003061360485673774,0.0006685670588652677
1590503198.5600665,-0.04028408446979714,-4.359573873295305,8.719715915530204,0.4866666666666667,0.43666666666666665,-0.6522222222222223,3.098880844838985e-05,0.002197155969217107,-0.0010598419740480661
1590503198.5700665,-0.06,-4.353161512027491,8.733161512027491,0.4933333333333334,0.43666666666666665,-0.6377777777777778,-0.004764418984718197,0.0003448674638820411,-0.0009183970505554354
1590503198.5800664,-0.059048093886630355,-4.3680961877732605,8.741432844979673,0.4933333333333334,0.43666666666666665,-0.6377777777777778,-0.000883157084394423,0.0020778247159418954,0.00010383684905101648
1590503198.5900664,-0.05,-4.35,8.666553034089773,0.4933333333333334,0.43666666666666665,-0.6377777777777778,0.0012695370650932837,0.001090830782496456,0.0003760056521091452
1590503198.6000664,-0.05320365441606735,-4.35,8.706407308832134,0.4933333333333334,0.43666666666666665,-0.6377777777777778,0.0016574648369638658,0.0003919018117910612,-0.0029230278621366706
1590503198.6100664,-0.06903807312607359,-4.35,8.738076146252148,0.4933333333333334,0.43666666666666665,-0.6377777777777778,-0.0009334358658080267,-0.003062632458571462,-0.0011957607269554083
1590503198.6200664,-0.05,-4.35,8.736745155751779,0.5011111111111111,0.4444444444444444,-0.6522222222222223,-0.0023000110415993054,0.001090830782496456,-0.0009724813058900626
1590503198.6300664,-0.05,-4.35,8.711025876870249,0.5011111111111111,0.4444444444444444,-0.6522222222222223,-0.0032351904118521234,0.001090830782496456,-3.730193563724498e-05
1590503198.6400664,-0.05261833609463791,-4.3326183360946375,8.645236672189275,0.5011111111111111,0.4444444444444444,-0.6522222222222223,-0.0017532373233500244,-0.00014280808054762916,-0.0012336388630440852
1590503198.6500664,-0.06560720313395166,-4.345607203133952,8.671214406267904,0.5011111111111111,0.4444444444444444,-0.6522222222222223,0.0003720610760855323,-0.0008512408803594813,-0.0019420716628559373
1590503198.6600664,-0.052489828102822905,-4.358755085948589,8.74128560164012,0.5011111111111111,0.4444444444444444,-0.6522222222222223,-0.0008192326687280591,-0.00013579905688419845,-0.002181661564992912
1590503198.6700664,-0.056934082779764944,-4.36,8.743065917220235,0.4872429455515812,0.4390512689490717,-0.6522222222222223,-0.0026036129714056954,0.0,-0.0029380526594475318
1590503198.6800663,-0.0510261260618174,-4.36,8.731026126061817,0.4811111111111111,0.43666666666666665,-0.6522222222222223,-0.003272492347489368,0.0009788977930012275,-0.0003357989684856853
1590503198.6900663,-0.057978108599317936,-4.36,8.658197022606139,0.4811111111111111,0.43666666666666665,-0.6522222222222223,-0.0006616624136186618,-0.0006497225067506817,0.0008702766446235688
1590503198.7000663,-0.08556671698989664,-4.348522238996632,8.70591104401347,0.4811111111111111,0.43666666666666665,-0.6522222222222223,0.001413228220825742,0.001252029501661099,0.0006072346250025272
1590503198.7100663,-0.06121240274068052,-4.340404134246893,8.738383463012426,0.4811111111111111,0.43666666666666665,-0.6522222222222223,0.0031843239321348764,0.0021375773573156657,-0.002049408941961174
1590503198.7200663,-0.04241825258739754,-4.348790873706301,8.743954368531506,0.4666666666666667,0.43666666666666665,-0.6677777777777778,0.00013189521810924666,0.002049766346883665,0.0
1590503198.7300663,-0.05746479883768901,-4.341267600581156,8.706338002905778,0.4666666666666667,0.43666666666666665,-0.6677777777777778,0.000952557009112975,0.001229104555879937,0.0
1590503198.7400663,-0.06,-4.36,8.629395178516935,0.4666666666666667,0.43666666666666665,-0.6677777777777778,-0.0016692340683267404,0.00034161833111078107,0.00034161833111078107
1590503198.7500663,-0.05989801068259242,-4.36,8.68040795726963,0.4666666666666667,0.43666666666666665,-0.6677777777777778,0.001090830782496456,0.002159410947610114,0.002181661564992912
1590503198.7600663,-0.05107793245573453,-4.36,8.715688270177063,0.4666666666666667,0.43666666666666665,-0.6677777777777778,0.001090830782496456,0.00023516838083344552,0.002181661564992912
1590503198.7700663,-0.05760634671404665,-4.367606346714047,8.750425386856186,0.48695025790412444,0.4476536119202896,-0.6449587376356378,0.0002611070686941707,-0.0008297237138022853,-0.000307509576413944
1590503198.7800663,-0.06826423107287725,-4.361735768927123,8.73520730678137,0.4933333333333334,0.4511111111111111,-0.6377777777777778,0.0,-0.0019923185472922773,0.0025151202766868306
1590503198.7900662,-0.06110847228819279,-4.377783055423614,8.623301667458312,0.4933333333333334,0.4511111111111111,-0.6377777777777778,0.0009699152131459576,0.000728084074444961,0.0003627467080514952
1590503198.8000662,-0.04045200065865306,-4.36,8.71135600197596,0.4933333333333334,0.4511111111111111,-0.6377777777777778,0.002181661564992912,9.861124643348498e-05,0.000893608289629486
1590503198.8100662,-0.04908508974147868,-4.36,8.737255269224436,0.4933333333333334,0.4511111111111111,-0.6377777777777778,0.002181661564992912,0.0019820591103495416,-0.0028732874382026274
1590503198.8200662,-0.05974333560469966,-4.3602566643953,8.77,0.4811111111111111,0.4311111111111111,-0.6377777777777778,0.001090830782496456,0.001090830782496456,-0.0010068375555471222
1590503198.8300662,-0.05108261578806088,-4.368917384211939,8.77,0.4811111111111111,0.4311111111111111,-0.6377777777777778,0.001090830782496456,0.001090830782496456,0.0018273763768228742
1590503198.8400662,-0.05,-4.362863254511512,8.662948817672682,0.4811111111111111,0.4311111111111111,-0.6377777777777778,-0.0020231618837776525,0.0003123326159279289,-0.00015383293471266926
1590503198.8500662,-0.06,-4.340062539213504,8.680250156854013,0.4811111111111111,0.4311111111111111,-0.6377777777777778,0.001090830782496456,0.00108400881257617,6.821969920285876e-06
1590503198.8600662,-0.06,-4.348551478475581,8.714205913902326,0.4811111111111111,0.4311111111111111,-0.6377777777777778,0.001090830782496456,0.00015800918679445325,0.0009328215957020027
1590503198.8700662,-0.040561096410882694,-4.350561096410883,8.76607232512382,0.4811111111111111,0.4577777777777778,-0.6466666666666666,0.0009072124114147199,0.000968418535108632,-0.000968418535108632
1590503198.8800662,-0.0476753850329059,-4.357675385032906,8.716272304769658,0.4811111111111111,0.4577777777777778,-0.6466666666666666,-0.0014209330959254415,-0.0005836784697848092,0.0005836784697848092
1590503198.8900661,-0.050836674019372786,-4.36,8.611394456698955,0.4811111111111111,0.4577777777777778,-0.6466666666666666,-0.001090830782496456,-0.0011516754341795805,-0.001090830782496456
1590503198.9000661,-0.07497189987532368,-4.36,8.65161983312554,0.4811111111111111,0.4577777777777778,-0.6466666666666666,-0.001090830782496456,-0.0029068385879246214,-0.001090830782496456
1590503198.9100661,-0.06416660706196504,-4.352083303530982,8.715416875283122,0.4811111111111111,0.4577777777777778,-0.6466666666666666,-0.0019544084029049823,0.00018181813414473724,0.0006363244583205967
1590503198.920066,-0.04655178000081001,-4.33655178000081,8.750172329998785,0.5027776877764727,0.4398468177788578,-0.6309770766676116,-0.0007146883305028217,0.001090830782496456,-0.00037614245199363424
1590503198.930066,-0.03063455423389471,-4.350317277116947,8.756192674596631,0.5133333333333333,0.4311111111111111,-0.6233333333333333,0.0020778328712685408,3.4609564574790395e-05,0.0010562212179216655
1590503198.940066,-0.05018854291327026,-4.36,8.640942714566352,0.5133333333333333,0.4311111111111111,-0.6233333333333333,-0.0010291302584114282,0.001049697099773104,2.0566841361675902e-05
1590503198.950066,-0.05965926795673673,-4.36,8.688296339783683,0.5133333333333333,0.4311111111111111,-0.6233333333333333,0.002070157264580569,-0.0010164945822215604,0.0010536626823590082
1590503198.960066,-0.07661455016128038,-4.35169272491936,8.70661455016128,0.5133333333333333,0.4311111111111111,-0.6233333333333333,0.001275478427330107,-0.00018464764483365113,0.00018464764483365113
1590503198.970066,-0.040572373895470935,-4.368282878313587,8.738855252209058,0.4866666666666667,0.4511111111111111,-0.6466666666666666,0.0,-0.0009659581696410349,6.243630642771053e-05
1590503198.980066,-0.048882196774577016,-4.3433534096762685,8.722235606450846,0.4866666666666667,0.4511111111111111,-0.6466666666666666,0.0,0.0008469639490834115,0.0009688973657899337
1590503198.990066,-0.058513966742500645,-4.357027933485002,8.651888266059995,0.4866666666666667,0.4511111111111111,-0.6466666666666666,0.0,-0.0007666286182777002,0.002019560482883534
1590503199.000066,-0.07983494613193695,-4.359669892263875,8.660660215472252,0.4866666666666667,0.4511111111111111,-0.6466666666666666,-1.8004584005328308e-05,-0.0010728261984911276,0.0021636569809875836
1590503199.010066,-0.07241495214676173,-4.3448299042935234,8.690340191412952,0.4866666666666667,0.4511111111111111,-0.6466666666666666,-0.0008274003685020972,-0.0002634304139943588,0.0013542611964908148
1590503199.020066,-0.07998335500650196,-4.369975032509753,8.759975032509752,0.4866666666666667,0.4444444444444444,-0.6522222222222223,0.002181661564992912,0.003272492347489368,0.0
1590503199.030066,-0.06543875162548765,-4.348158127438231,8.738158127438231,0.4866666666666667,0.4444444444444444,-0.6522222222222223,0.002181661564992912,0.003272492347489368,0.0
1590503199.040066,-0.07,-4.36,8.650990777284719,0.4866666666666667,0.4444444444444444,-0.6522222222222223,0.0032076461258432423,-0.0010259845608503301,-0.0010259845608503301
1590503199.050066,-0.07,-4.36,8.693876403345534,0.4866666666666667,0.4444444444444444,-0.6522222222222223,0.00040078846381697356,0.0017808731011759386,0.0017808731011759386
1590503199.060066,-0.047278338353942406,-4.344852225569295,8.722721661646057,0.4866666666666667,0.4444444444444444,-0.6522222222222223,0.002478548795298872,0.000529295701460331,-0.0002968872303059601
1590503199.070066,-0.05704967638900563,-4.34,8.755574514583508,0.4923498921296686,0.4444444444444444,-0.6522222222222223,-0.00044717001985670503,-0.0018598311836730366,-0.001090830782496456
1590503199.080066,-0.06006232471174821,-4.330093487067622,8.74962605172951,0.4933333333333334,0.4444444444444444,-0.6522222222222223,0.004359923844281566,0.0032622944903765937,-3.3992857042581985e-06
1590503199.090066,-0.07748956061078217,-4.356234340916173,8.645062636335307,0.4933333333333334,0.4444444444444444,-0.6522222222222223,0.0034094155756568883,0.0004107696845025606,-0.0009539075543289357
1590503199.100066,-0.05101953503390378,-4.36,8.69762108492089,0.4933333333333334,0.4444444444444444,-0.6522222222222223,-0.0009425454226543476,0.0,-3.7071339960527026e-05
1590503199.110066,-0.0574805538699178,-4.352519446130082,8.722441661609754,0.4933333333333334,0.4444444444444444,-0.6522222222222223,-0.0002748289393535232,0.0008160018431429328,-0.0008160018431429328
1590503199.120066,-0.06,-4.358846912884128,8.738846912884128,0.5061122074992952,0.42675061867618963,-0.660086144785891,-0.001930096980814141,-0.0018043146887247558,0.0008392661983176849
1590503199.130066,-0.06,-4.344464970868268,8.708929941736535,0.5077777777777778,0.4244444444444445,-0.6611111111111111,0.002054860430975277,-0.0013343571657992743,0.0002435263833028183
1590503199.140066,-0.0687962252352122,-4.34,8.638426423353515,0.5077777777777778,0.4244444444444445,-0.6611111111111111,0.00039393437058689307,-0.00013131145686229762,-0.0009595193256341584
1590503199.150066,-0.04829380612479853,-4.354470795916801,8.651706193875201,0.5077777777777778,0.4244444444444445,-0.6611111111111111,-0.0015785189633270534,0.0,0.00048768818083059747
1590503199.160066,-0.04937968388063769,-4.355310158059681,8.688139051641913,0.5077777777777778,0.4244444444444445,-0.6611111111111111,-0.0011584967742843714,-0.0005115823953542703,0.0005792483871421857
1590503199.1700659,-0.048131843903873005,-4.357912104064084,8.723956052032042,0.49722830569233156,0.429279619150274,-0.6553968137314944,0.0008630766667418861,-0.000659292449125513,0.0012946150001128293
1590503199.1800659,-0.05024015083854322,-4.364939962290364,8.745180113128907,0.4811111111111111,0.43666666666666665,-0.6466666666666666,0.0010777325861401922,0.0005519644894263598,0.002720527858063008
1590503199.1900659,-0.07,-4.3538361165329285,8.679869514928072,0.4811111111111111,0.43666666666666665,-0.6466666666666666,-0.0013447507651205136,0.00041845539993619915,0.0008369107998723983
1590503199.2000659,-0.05389396302071731,-4.35,8.662212073958566,0.4811111111111111,0.43666666666666665,-0.6466666666666666,-0.00042476547289013256,0.0,-0.0005856320307009265
1590503199.2100658,-0.04,-4.35,8.71012887554401,0.4811111111111111,0.43666666666666665,-0.6466666666666666,-7.0290705258535795e-06,0.0005489299265111548,7.0290705258535795e-06
1590503199.2200658,-0.05201704231881499,-4.356008521159407,8.736008521159407,0.4811111111111111,0.44133996090176136,-0.6500047339774486,-0.0030571147338853523,-0.00022002518509614153,0.001090830782496456
1590503199.2300658,-0.05209579648216238,-4.36,8.716287389446489,0.4811111111111111,0.4444444444444444,-0.6522222222222223,-0.002638893428311013,0.0014958137700157605,-0.0006335989191783547
1590503199.2400658,-0.05,-4.36,8.67240592509192,0.4811111111111111,0.4444444444444444,-0.6522222222222223,-0.002181661564992912,0.0008147024266858636,0.0002761283558105924
1590503199.2500658,-0.05,-4.345183807752825,8.687040480617936,0.4811111111111111,0.4444444444444444,-0.6522222222222223,-0.0013735636358627238,0.0008080979291301882,0.0002827328533662678
1590503199.2600658,-0.06365058131528732,-4.346825290657644,8.706825290657644,0.4811111111111111,0.4444444444444444,-0.6522222222222223,-0.001835354497380774,-0.00039821664727217993,0.0
1590503199.2700658,-0.05393563046658574,-4.35,8.742128739066828,0.49092822582597545,0.4337348647555016,-0.6477598973518294,-0.003057837004415237,0.0006615200963481947,-0.0017523508788446507
1590503199.2800658,-0.058475741785042945,-4.35,8.75,0.4933333333333334,0.4311111111111111,-0.6466666666666666,-0.0004988123344044754,-0.0007582892262268058,0.0005920184480919808
1590503199.2900658,-0.06814844538200496,-4.358148445382005,8.66851554617995,0.4933333333333334,0.4311111111111111,-0.6466666666666666,0.0008888575052182096,-0.0002019732772782464,0.001090830782496456
1590503199.3000658,-0.05371887318527065,-4.343718873185271,8.690702817036822,0.4933333333333334,0.4311111111111111,-0.6466666666666666,-0.002461160078150595,0.0008879977151617627,-0.0006851646478270694
1590503199.3100657,-0.05460781012163746,-4.344607810121637,8.704607810121637,0.4933333333333334,0.4311111111111111,-0.6466666666666666,-0.0027698582354312804,8.556255838028035e-05,-8.556255838028035e-05
1590503199.3200657,-0.06086171171171171,-4.349138288288288,8.711723423423424,0.49400355355355363,0.4311111111111111,-0.6466666666666666,-0.0019936652328383427,-0.0009968326164191714,0.0009968326164191714
1590503199.3300657,-0.07,-4.34,8.73,0.5011111111111111,0.4311111111111111,-0.6466666666666666,-0.00048633078242976186,0.0,0.0
1590503199.3400657,-0.07,-4.345764877412424,8.695410735525458,0.5011111111111111,0.4311111111111111,-0.6466666666666666,-0.0017196813563754897,-0.0006288505738790336,0.0
1590503199.3500657,-0.061515442690459846,-4.3584845573095405,8.69545367192862,0.5011111111111111,0.4311111111111111,-0.6466666666666666,-0.002181661564992912,-0.001090830782496456,-0.0009255216289101709
1590503199.3600657,-0.06,-4.346563249345188,8.720155125982219,0.5011111111111111,0.4311111111111111,-0.6466666666666666,1.6921619656906552e-05,0.0003748913406034229,-0.001090830782496456
1590503199.3700657,-0.06,-4.353453279487537,8.750179919231305,0.5011111111111111,0.43484813319098237,-0.650403688746538,0.00035706821296980487,0.00035706821296980487,-0.00035706821296980487
1590503199.3800657,-0.06,-4.367617389549113,8.729530441803549,0.5011111111111111,0.43666666666666665,-0.6522222222222223,0.0,0.0008309283002439382,0.0
1590503199.3900657,-0.06,-4.362352311366818,8.708528467050227,0.5011111111111111,0.43666666666666665,-0.6522222222222223,0.0004171167088011344,0.001090830782496456,0.0
1590503199.4000657,-0.06,-4.352482557387079,8.693723836080618,0.5011111111111111,0.43666666666666665,-0.6522222222222223,0.0009554282816394723,0.001090830782496456,0.0
1590503199.4100657,-0.06603583857260964,-4.35603583857261,8.732250870008267,0.5011111111111111,0.43666666666666665,-0.6522222222222223,0.001090830782496456,0.001090830782496456,0.0
1590503199.4200656,-0.054726947179946285,-4.36,8.752363473589973,0.48074704068437285,0.4476972048144832,-0.6411916840744056,-0.000575200833384434,-0.0030742482572057687,-0.0024990474238213347
1590503199.4300656,-0.04398724055801293,-4.36,8.743987240558013,0.4744444444444445,0.4511111111111111,-0.6377777777777778,-0.001090830782496456,-0.002395652203866111,-0.0006489311126630839
1590503199.4400656,-0.06544129777288975,-4.36,8.695477728897442,0.4744444444444445,0.4511111111111111,-0.6377777777777778,0.0002967767553698772,0.0002967767553698772,0.00039702701356328937
1590503199.4500656,-0.05678014219413449,-4.344520094796089,8.708699763009776,0.4744444444444445,0.4511111111111111,-0.6377777777777778,0.0002465329271688322,0.001090830782496456,0.0008442978553276238
1590503199.4600656,-0.05537032790644347,-4.34,8.730740655812887,0.4744444444444445,0.4511111111111111,-0.6377777777777778,0.0005858118992448291,-0.0012524168144828604,0.0005050188832516269
1590503199.4700656,-0.07017255485310525,-4.350172554853105,8.734913722573447,0.48800785091525145,0.4477202594934093,-0.6530366100574356,-0.0005736496130636813,-0.0021628387504492768,0.0005548267985200457
1590503199.4800656,-0.056547576936682,-4.36,8.698730102582243,0.5011111111111111,0.4444444444444444,-0.6677777777777778,-0.002181661564992912,-0.0002380766157765523,0.0002380766157765523
1590503199.4900656,-0.05677004749930148,-4.36,8.656149762503492,0.5011111111111111,0.4444444444444444,-0.6677777777777778,-0.001443163943872791,0.0014769952422402418,0.0007384976211201209
1590503199.5000656,-0.07328297022044605,-4.36,8.673207425551116,0.5011111111111111,0.4444444444444444,-0.6677777777777778,-0.0018153044224687703,0.0014571879250205976,-0.0003581164974481726
1590503199.5100656,-0.06245859872611465,-4.354152866242038,8.695847133757962,0.5011111111111111,0.4444444444444444,-0.6677777777777778,-0.0015438382157370225,-0.0008226392652712126,-0.0004530074332405664
1590503199.5200655,-0.05,-4.354297502409252,8.725785014455509,0.4872636033479673,0.4411019425705821,-0.6711202796516401,-0.001090830782496456,-0.0007753071902336379,0.0004687847915864247
1590503199.5300655,-0.06464733881436607,-4.355117553728545,8.750235107457089,0.4688888888888889,0.43666666666666665,-0.6755555555555556,-0.001090830782496456,-0.0005069460235401098,0.0005582385138176007
1590503199.5400655,-0.07008804357531923,-4.35495597821234,8.685484239664257,0.4688888888888889,0.43666666666666665,-0.6755555555555556,-0.0016314441416367211,-0.0011004348467123816,-0.0005406133591402652
1590503199.5500655,-0.055149079320113314,-4.350298158640227,8.663956444759206,0.4688888888888889,0.43666666666666665,-0.6755555555555556,-0.0011233548447791052,0.0005291533601069034,-0.0005616774223895526
1590503199.5600655,-0.05,-4.34,8.716208446705311,0.4688888888888889,0.43666666666666665,-0.6755555555555556,-0.001178711506840486,0.0005014750290762129,0.000589355753420243
1590503199.5700655,-0.06266281441196465,-4.352662814411965,8.73,0.4766272754739784,0.4415910944935418,-0.6650032102122516,-0.00010971340195129213,0.00069064938768054,0.00040018139481591596
1590503199.5800655,-0.06421412385304061,-4.3542141238530405,8.741571752293918,0.4811111111111111,0.4444444444444444,-0.6588888888888889,-0.0001714515784666036,0.0017219719629779856,0.0006311411804815298
1590503199.5900655,-0.06,-4.370170047836866,8.676043157931492,0.4811111111111111,0.4444444444444444,-0.6588888888888889,-0.001090830782496456,0.002181661564992912,0.001090830782496456
1590503199.6000655,-0.05288949552303997,-4.3444474776152,8.66844201790784,0.4811111111111111,0.4444444444444444,-0.6588888888888889,-0.001090830782496456,0.0006303901324835382,0.0018664664987511428
1590503199.6100655,-0.055587514108901254,-4.346762542326704,8.691175028217803,0.4811111111111111,0.4444444444444444,-0.6588888888888889,-0.0017003340212587304,0.0006095032387622746,0.00035315184870608773
1590503199.6200655,-0.048120954318476045,-4.36,8.723758091363047,0.492990156792635,0.4444444444444444,-0.6430501613135237,-0.002829562999797308,0.0017387322173008518,-0.00044292934769206015
1590503199.6300654,-0.05419549020575319,-4.345804509794247,8.71870676469137,0.5011111111111111,0.4444444444444444,-0.6322222222222222,-0.0009497606941299874,0.002955905449446039,-0.0007742438844531267
1590503199.6400654,-0.041985554538580924,-4.352009630307613,8.66196147876955,0.5011111111111111,0.4444444444444444,-0.6322222222222222,-0.0006550237212973167,0.0019624449048947345,0.00021921666009817745
1590503199.6500654,-0.059740464660754125,-4.36,8.641896185864303,0.5011111111111111,0.4444444444444444,-0.6322222222222222,-0.00044199449574248365,0.00044199449574248365,0.00044199449574248365
1590503199.6600654,-0.05898698776461449,-4.349493493882307,8.702532530588464,0.5011111111111111,0.4444444444444444,-0.6322222222222222,0.0005730410144833295,-0.0005730410144833295,0.0005730410144833295
1590503199.6700654,-0.048759102169506796,-4.344379551084753,8.758759102169506,0.4977047936007474,0.4502838458907823,-0.6409813243917291,0.001090830782496456,0.00034237395853296934,0.001090830782496456
1590503199.6800654,-0.06,-4.35,8.77,0.4933333333333334,0.4577777777777778,-0.6522222222222223,0.001090830782496456,0.0015161359072014815,-0.00024022053308640485
1590503199.6900654,-0.0555576810109804,-4.35444231898902,8.721134491120784,0.4933333333333334,0.4577777777777778,-0.6522222222222223,0.0015754126123855672,0.0001216671227182338,-0.0001216671227182338
1590503199.7000654,-0.05405938204055359,-4.36,8.670148455101383,0.4933333333333334,0.4577777777777778,-0.6522222222222223,0.002181661564992912,-0.001090830782496456,0.0008694258381089994
1590503199.7100654,-0.06298009674094046,-4.35649004837047,8.713509951629531,0.4933333333333334,0.4577777777777778,-0.6522222222222223,0.002181661564992912,-0.001090830782496456,0.0
1590503199.7200654,-0.049591820400976434,-4.35,8.721632718396094,0.49256232742406664,0.45691606529095025,-0.6525850485324655,0.002092610590712518,-0.001090830782496456,0.0
1590503199.7300653,-0.05525968375252043,-4.35381492093813,8.73329555343309,0.4744444444444445,0.43666666666666665,-0.6611111111111111,0.0008322866384205157,-0.0006746874632861981,-0.00041614331921025784
1590503199.7400653,-0.07515974138908844,-4.36,8.660958448334531,0.4744444444444445,0.43666666666666665,-0.6611111111111111,0.0005976906385851502,0.0,0.0004931401439113058
1590503199.7500653,-0.05688178025034771,-4.36,8.662795549374131,0.4744444444444445,0.43666666666666665,-0.6611111111111111,0.0024866086961219634,-0.0007154878957236838,0.0007506857735455443
1590503199.7600653,-0.05,-4.36,8.70067324013503,0.4744444444444445,0.43666666666666665,-0.6611111111111111,0.0009806721230011238,3.671955316511067e-05,0.0011275503356615666
1590503199.7700653,-0.05831385308472031,-4.35168614691528,8.74494155925416,0.4822964168022359,0.43666666666666665,-0.6574160652956799,-0.0003678601917997057,0.0006373804391981544,0.0003678601917997057
1590503199.7800653,-0.05865171624713959,-4.3456741418764295,8.757303432494279,0.4933333333333334,0.43666666666666665,-0.6522222222222223,0.0015627087026866848,0.0,-0.0015627087026866848
1590503199.7900653,-0.056221569901629055,-4.362443139803258,8.67778430098371,0.4933333333333334,0.43666666666666665,-0.6522222222222223,0.0017694987789114984,-0.0006786679964150425,0.000266505210333629
1590503199.8000653,-0.04742050356103922,-4.338551258902598,8.690317985755843,0.4933333333333334,0.43666666666666665,-0.6522222222222223,0.0001233462734044669,-0.0017769358796926042,0.0024630409768887527
1590503199.8100653,-0.050314197788837806,-4.340628395577676,8.72,0.4933333333333334,0.43666666666666665,-0.6522222222222223,3.427366198566033e-05,-0.002181661564992912,0.0021473879030072516
1590503199.8200653,-0.06526317473522542,-4.36,8.730526349470452,0.4974269136829531,0.4407602470162864,-0.6416958727517714,0.0005167074810123039,-0.0004592916605404556,-0.0006315391219560004
1590503199.8300653,-0.05783631759406584,-4.36,8.7582455236089,0.5011111111111111,0.4444444444444444,-0.6322222222222222,0.0019902778795355303,-0.0008994470970390743,-0.00019138368545738166
1590503199.8400652,-0.05803330377377082,-4.36,8.721800177357375,0.5011111111111111,0.4444444444444444,-0.6322222222222222,0.002396194843331953,-0.0008672153087567892,0.001090830782496456
1590503199.8500652,-0.07214469278093608,-4.36,8.656434078342809,0.5011111111111111,0.4444444444444444,-0.6322222222222222,0.00038898171116355973,0.0006229314016078585,0.001090830782496456
1590503199.8600652,-0.0665935859340118,-4.36,8.69005481054949,0.5011111111111111,0.4444444444444444,-0.6322222222222222,-0.0007192486503855709,-0.00035962432519278547,0.00035962432519278547
1590503199.8700652,-0.04076303675078136,-4.36,8.709427722436915,0.5011111111111111,0.4444444444444444,-0.6322222222222222,0.002098427167400074,0.001049213583700037,-0.001049213583700037
