time,acc_x,acc_y,acc_z,mag_x,mag_y,mag_z,gyr_x,gyr_y,gyr_z
1590503282.985649,-0.14,-4.28,8.75,0.5155555555555555,0.3655555555555556,-0.6166666666666667,-0.001090830782496456,-0.001090830782496456,0.002181661564992912
1590503282.995649,-0.13684462210015205,-4.276844622100152,8.752087645298936,0.5155555555555555,0.3655555555555556,-0.6166666666666667,-0.0004024341137838218,-0.00355845490241818,0.001090830782496456
1590503283.005649,-0.13,-4.27222953111842,8.806688593355261,0.5155555555555555,0.3655555555555556,-0.6166666666666667,0.00011801431269393796,-0.006301780577528106,0.0006044225475951969
1590503283.015649,-0.13,-4.27889381444937,8.826681443348111,0.5155555555555555,0.3655555555555556,-0.6166666666666667,-0.002789827847577371,-0.005574820037460279,-0.0008494985325404577
1590503283.025649,-0.11331245708578681,-4.27,8.793375085828426,0.5344444444444445,0.3533333333333333,-0.6111111111111112,-0.0005419995232312139,-0.003453158855233106,0.00072949776700898
1590503283.035649,-0.13064998764952893,-4.270649987649529,8.752850135855182,0.5344444444444445,0.3533333333333333,-0.6111111111111112,-0.003130687040219636,-0.003867004554541761,-0.0010199281288615898
1590503283.045649,-0.1323841924906935,-4.268576288736041,8.646192096245347,0.5344444444444445,0.3533333333333333,-0.6111111111111112,-0.0006754529192604956,0.001195603031309566,-0.0012461335897078812
1590503283.055649,-0.12,-4.256230236605324,8.658690709815973,0.5344444444444445,0.3533333333333333,-0.6111111111111112,-0.0003398066935662119,-0.002181661564992912,-0.002932685653923156
1590503283.065649,-0.12,-4.27,8.704909654104284,0.5338989273217462,0.3533333333333333,-0.6095836631675559,-0.001090830782496456,-0.0019674374918583473,-0.0019674374918583473
1590503283.075649,-0.12,-4.27,8.748216830149715,0.5290870188722537,0.3533333333333333,-0.5961103195089772,-0.001090830782496456,-7.780546252437277e-05,-7.780546252437277e-05
1590503283.085649,-0.11830611603988381,-4.282768705346628,8.763387767920232,0.5288888888888889,0.3533333333333333,-0.5955555555555555,-0.0004867929785436017,0.0003020189019764271,0.0007888118805200288
1590503283.095649,-0.14,-4.288589988113995,8.73128009508804,0.5288888888888889,0.3533333333333333,-0.5955555555555555,0.0007832139087084458,0.0004755970349204356,0.0001538084368940051
1590503283.105649,-0.13790834199484162,-4.282091658005158,8.810458290025792,0.5288888888888889,0.3533333333333333,-0.5955555555555555,-0.0008626662886482636,-0.0023598343720965986,0.0015471597701928407
1590503283.115649,-0.13105617076405812,-4.289207871926957,8.85,0.5287128604282125,0.35348002371723025,-0.595966288630467,-8.640776857555444e-05,0.0011484359615468256,0.003128479399863444
1590503283.125649,-0.16128573227553206,-4.264357133862234,8.826035763757712,0.5222222222222223,0.3588888888888889,-0.6111111111111112,-0.0030348475604702434,0.0027972027734511186,-0.002181661564992912
1590503283.135649,-0.13,-4.28,8.731245671502107,0.5222222222222223,0.3588888888888889,-0.6111111111111112,-0.0020861666549370217,0.001090830782496456,-0.0017041870147134618
1590503283.145649,-0.13,-4.28,8.652737482452036,0.5222222222222223,0.3588888888888889,-0.6111111111111112,-0.0012297751619983442,0.001090830782496456,0.002577770449979927
1590503283.155649,-0.12838548895899055,-4.28,8.671301577287066,0.5222222222222223,0.3588888888888889,-0.6111111111111112,0.001266946616717808,-0.0019714099536032167,-0.0009147149482751039
1590503283.165649,-0.12,-4.2789339513325615,8.73159907300116,0.5214522981846273,0.359244238444702,-0.6111111111111112,0.0022979494352011087,-0.006254265019458243,5.814393510409846e-05
1590503283.175649,-0.11895793922318373,-4.26,8.757915878446367,0.5077777777777778,0.3655555555555556,-0.6111111111111112,0.00402230953821082,-0.0013181731770131253,0.001090830782496456
1590503283.185649,-0.11051700543368886,-4.26,8.741034010867377,0.5077777777777778,0.3655555555555556,-0.6111111111111112,0.001260020415032181,-0.0031596992591322185,0.001090830782496456
1590503283.195649,-0.12421376230157963,-4.2678931188492095,8.658961930357108,0.5077777777777778,0.3655555555555556,-0.6111111111111112,0.00022982508143430872,-0.0030426672660550593,0.002181661564992912
1590503283.205649,-0.13972087106188733,-4.260837386814338,8.730837386814338,0.5077777777777778,0.3655555555555556,-0.6111111111111112,0.001090830782496456,-0.0020598685898013595,0.002090316833599248
1590503283.215649,-0.12870276638450126,-4.288054149576752,8.765188934461994,0.5095074225984427,0.36476280167941744,-0.6105345628375561,0.0008785714285151772,0.002181661564992912,-0.0010200776645026965
1590503283.2256489,-0.11040143118945807,-4.260602146784187,8.838394275242168,0.5339092028585004,0.3535786523935577,-0.6024006360842036,-0.0021159775402156576,0.002181661564992912,-2.1894674925751305e-05
1590503283.2356489,-0.13739390692691109,-4.277393906926911,8.734363441561467,0.5344444444444445,0.3533333333333333,-0.6022222222222222,0.00028428065461761883,0.0010445389465224366,0.001897380910375293
1590503283.2456489,-0.13710249564712712,-4.267632501450957,8.69946999419617,0.5344444444444445,0.3533333333333333,-0.6022222222222222,0.001090830782496456,-0.00166515350603069,0.000832576753015345
1590503283.2556489,-0.16175960250761795,-4.2635192050152355,8.733519205015236,0.5344444444444445,0.3533333333333333,-0.6022222222222222,0.001090830782496456,-0.0005758285740802867,-0.00019194285802676223
1590503283.2656488,-0.16990023872833493,-4.2798004774566705,8.74980047745667,0.5344444444444445,0.3533333333333333,-0.6022222222222222,0.001090830782496456,-0.0032398455476793896,-0.0010799485158931297
1590503283.2756488,-0.13,-4.2534925373134325,8.783014925373134,0.5077777777777778,0.3588888888888889,-0.6111111111111112,-0.002181661564992912,-0.0056446422730077805,-0.003791858048409322
1590503283.2856488,-0.12906054471843945,-4.27062630352104,8.746242178873757,0.5077777777777778,0.3588888888888889,-0.6111111111111112,-0.0022158211229897492,-0.00661330381097241,-0.001090830782496456
1590503283.2956488,-0.10987395458552743,-4.282594534060855,8.627531511353618,0.5077777777777778,0.3588888888888889,-0.6111111111111112,-0.003272492347489368,-0.008188105579628381,-0.0018986418030113562
1590503283.3056488,-0.1362726780883679,-4.261863660955815,8.63863660955816,0.5077777777777778,0.3588888888888889,-0.6111111111111112,-0.002865904599741185,-0.005528515325608278,-0.0035501476344894575
1590503283.3156488,-0.12114445446348061,-4.2694277727682595,8.714277727682598,0.5077777777777778,0.3588888888888889,-0.6111111111111112,-0.0012156713982894676,-0.001402932321978986,-0.00024968123158602366
1590503283.3256488,-0.11876383576481737,-4.28,8.762472328470365,0.5077777777777778,0.3655555555555556,-0.6166666666666667,-0.0004045337999875156,-0.0006862969825089404,0.0
1590503283.3356488,-0.11166519987814372,-4.28,8.776669600243713,0.5077777777777778,0.3655555555555556,-0.6166666666666667,-0.002727556961662812,0.0016367261791663558,0.0
1590503283.3456488,-0.12111487722676938,-4.26888512277323,8.687804140587385,0.5077777777777778,0.3655555555555556,-0.6166666666666667,-0.001938433085460048,0.00206004732522648,-0.001212445022262888
1590503283.3556488,-0.12919248916706788,-4.260807510832932,8.744347424169476,0.5077777777777778,0.3655555555555556,-0.6166666666666667,-0.00017617153475234064,0.0011789165498726263,-0.0020935757976167416
1590503283.3656487,-0.148838735434289,-4.278838735434289,8.787677470868577,0.5077777777777778,0.3655555555555556,-0.6166666666666667,-0.0041099745030058355,0.001090830782496456,-0.001154167939241453
1590503283.3756487,-0.13886031228382253,-4.271139687716177,8.824301561419112,0.5155555555555555,0.3588888888888889,-0.5955555555555555,-0.0009665101381725071,0.0014357376990492192,-0.003148171703165419
1590503283.3856487,-0.1288400045789293,-4.277680009157859,8.768400045789292,0.5155555555555555,0.3588888888888889,-0.5955555555555555,0.00012653587128588645,-0.004489859001271711,-0.002181661564992912
1590503283.3956487,-0.12083775327202656,-4.261675506544053,8.688377532720265,0.5155555555555555,0.3588888888888889,-0.5955555555555555,0.0009994460767700864,-0.00536276920675591,-0.002181661564992912
1590503283.4056487,-0.13356859516503256,-4.263568595165032,8.708921487912582,0.5155555555555555,0.3588888888888889,-0.5955555555555555,0.0019870248921786352,-0.0045579598028001,-0.0008961941096821793
1590503283.4156487,-0.1492646508494873,-4.279264650849488,8.748161627123718,0.5155555555555555,0.3588888888888889,-0.5955555555555555,0.0011309378569595487,-0.005414046838019187,-4.0107074463092756e-05
1590503283.4256487,-0.13717311703360371,-4.287173117033603,8.738586558516802,0.5222222222222223,0.3533333333333333,-0.5955555555555555,-0.001090830782496456,-0.004837423720830286,-0.0025015796079243756
1590503283.4356487,-0.12110698769007965,-4.27110698769008,8.718930123099204,0.5222222222222223,0.3533333333333333,-0.5955555555555555,-0.0013323380321331622,-0.0008493235328597496,0.0018194006905378525
1590503283.4456487,-0.12928942062105123,-4.279289420621051,8.63639521441054,0.5222222222222223,0.3533333333333333,-0.5955555555555555,-0.0031949801614929133,0.0011683429684929106,-0.0010133185965000013
1590503283.4556487,-0.12,-4.271216105041463,8.722432210082928,0.5222222222222223,0.3533333333333333,-0.5955555555555555,-0.0019163486021973575,0.0027122874905840203,0.0001326564813977772
1590503283.4656487,-0.12,-4.2781173489535345,8.736234697907069,0.5222222222222223,0.3533333333333333,-0.5955555555555555,-0.0004107307428367923,0.00572352320930515,0.0008854654110780598
1590503283.4756486,-0.13086253715459983,-4.2882749256908,8.8165498513816,0.5077777777777778,0.3533333333333333,-0.5955555555555555,0.00028226462378532017,0.006356808279121855,-0.0009026543666395758
1590503283.4856486,-0.13855821804704416,-4.2728835639059115,8.785767127811823,0.5077777777777778,0.3533333333333333,-0.5955555555555555,0.002800670306709737,0.004677871157172244,0.0007762827553100353
1590503283.4956486,-0.14,-4.277642503292156,8.723536245061768,0.5077777777777778,0.3533333333333333,-0.5955555555555555,0.0009622492835689013,0.004939827916772061,-0.001090830782496456
1590503283.5056486,-0.14,-4.26449175393491,8.743262369097636,0.5077777777777778,0.3533333333333333,-0.5955555555555555,0.00024498717297993713,0.0020707794744162043,-0.001090830782496456
1590503283.5156486,-0.14,-4.26,8.75,0.5077777777777778,0.3533333333333333,-0.5955555555555555,0.0008410707945782742,-0.0005913108066600925,-0.001090830782496456
1590503283.5256486,-0.14,-4.267743075475595,8.73451384904881,0.528425979046031,0.36279709224794937,-0.5955555555555555,-0.003977000265486941,-0.007847938846474322,-0.001090830782496456
1590503283.5356486,-0.1293251598958241,-4.269325159895824,8.693926439062416,0.5344444444444445,0.3655555555555556,-0.5955555555555555,0.0,-0.006471371059088917,0.0
1590503283.5456486,-0.12189412327480821,-4.261894123274808,8.627047109473274,0.5344444444444445,0.3655555555555556,-0.5955555555555555,0.0,-0.005660770709882659,0.0
1590503283.5556486,-0.13,-4.2789331293530335,8.665334353234833,0.5344444444444445,0.3655555555555556,-0.5955555555555555,5.818876713264641e-05,-0.0009744532482311632,-0.0010326420153638095
1590503283.5656486,-0.13,-4.262047183864085,8.749764080679576,0.5344444444444445,0.3655555555555556,-0.5955555555555555,0.000979174223677774,0.000867517664859092,-0.00011165655881868199
1590503283.5756485,-0.12173550401427297,-4.270578501338091,8.802314005352365,0.5222222222222223,0.3533333333333333,-0.59,0.004174009009794311,0.005643468032673792,0.002118556858262408
1590503283.5856485,-0.14979727921498662,-4.279932426404995,8.839729705619982,0.5222222222222223,0.3533333333333333,-0.59,0.0011129441897509001,0.008704532852717203,0.0010982019182479374
1590503283.5956485,-0.14027943133272638,-4.289720568667273,8.76223545066181,0.5222222222222223,0.3533333333333333,-0.59,0.0021511803350597173,0.007666296707408387,0.0021511803350597173
1590503283.6056485,-0.13,-4.270539089455524,8.77,0.5222222222222223,0.3533333333333333,-0.59,0.002064050490471793,0.007165371179390715,-0.0021228560277323522
1590503283.6156485,-0.13,-4.277598417907936,8.77,0.5222222222222223,0.3533333333333333,-0.59,0.0005239439345431937,0.0010049449556763191,-0.001352802749768053
1590503283.6256485,-0.13,-4.298407609418651,8.779203804709326,0.5222222222222223,0.3533333333333333,-0.6032943845801368,0.0020079586986036266,-0.004102768830401896,-0.001090830782496456
1590503283.6356485,-0.13022590635817088,-4.27,8.718192749134634,0.5222222222222223,0.3533333333333333,-0.6044444444444445,0.0032971349084348154,-0.009817477042468105,-0.0021570190040474647
1590503283.6456485,-0.13871622031942674,-4.27,8.650270237444587,0.5222222222222223,0.3533333333333333,-0.6044444444444445,0.004223284490634545,-0.009817477042468105,-0.0012308694218477348
1590503283.6556485,-0.17355748613678373,-4.22536876155268,8.650401293900186,0.5222222222222223,0.3533333333333333,-0.6044444444444445,0.0030749128495654717,-0.011259692446897382,-0.0008565743678745738
1590503283.6656485,-0.12704029574861367,-4.264133086876154,8.79770573012939,0.5222222222222223,0.3533333333333333,-0.6044444444444445,-0.00622785740205629,-0.013796811606430589,0.0008348384051475651
1590503283.6756485,-0.11290879751374612,-4.255817595027492,8.749087975137462,0.53640462719473,0.35727289027014103,-0.5942015964087444,-0.0014475739119382807,-0.006445498215532787,0.001090830782496456
1590503283.6856484,-0.09058218065553028,-4.250776240874041,8.788835638688939,0.5422222222222223,0.3588888888888889,-0.59,0.001090830782496456,0.0033359984054920086,4.233737200176031e-05
1590503283.6956484,-0.11209619231624121,-4.279461589754988,8.745807615367518,0.5422222222222223,0.3588888888888889,-0.59,0.001090830782496456,0.0056828130229411265,0.0016068804503011724
1590503283.7056484,-0.16018787202380952,-4.269906063988095,8.799624255952383,0.5422222222222223,0.3588888888888889,-0.59,0.0010805839531593893,0.010877567336953359,1.0246829337066783e-05
1590503283.7156484,-0.17579166666666665,-4.262104166666666,8.768416666666667,0.5422222222222223,0.3588888888888889,-0.59,0.0002295289771502959,0.008324402408926079,0.0008613018053461601
1590503283.7256484,-0.13079806529625151,-4.26,8.826807738814994,0.5077777777777778,0.3388888888888889,-0.5955555555555555,0.0030983815091707076,0.004015101453348503,0.0010037753633371257
1590503283.7356484,-0.13880628738075232,-4.260795808412832,8.790397904206415,0.5077777777777778,0.3388888888888889,-0.5955555555555555,0.0005699753942845156,-0.0003906415411589553,8.680923136865672e-05
1590503283.7456484,-0.11,-4.276492044397031,8.7887745420705,0.5077777777777778,0.3388888888888889,-0.5955555555555555,-0.01069809938264223,-0.009817477042468105,0.0019520664076719497
1590503283.7556484,-0.10969722325523738,-4.230756941861907,8.641816660468576,0.5077777777777778,0.3388888888888889,-0.5955555555555555,0.00642938732728484,-0.009784449223126991,-0.0010743168728258995
1590503283.7656484,-0.09669889673980414,-4.2632527581504895,8.719806619561176,0.5077777777777778,0.3388888888888889,-0.5955555555555555,0.0014667461878937723,-0.008366551754729543,-0.0003653681386271754
1590503283.7756484,-0.1287353109318427,-4.260632344534079,8.688985263291622,0.5249934715252634,0.3482140563354436,-0.5862303881090009,-0.000386602956929364,-0.009044271128609376,0.0
1590503283.7856483,-0.14930745832252587,-4.297229833290103,8.786149166450517,0.5344444444444445,0.3533333333333333,-0.5811111111111111,-0.00022663373398515112,-0.0040611448180056225,0.001090830782496456
1590503283.7956483,-0.13940893651628955,-4.26118212696742,8.606501698320814,0.5344444444444445,0.3533333333333333,-0.5811111111111111,-0.003143542299001173,0.0001934250727322927,0.0011553058067405536
1590503283.8056483,-0.12853048345291312,-4.279510161150971,8.711959355396116,0.5344444444444445,0.3533333333333333,-0.5811111111111111,-0.0010373976529981133,0.003432791735984396,0.002181661564992912
1590503283.8156483,-0.10489707373877766,-4.271632357912925,8.743470568348297,0.5344444444444445,0.3533333333333333,-0.5811111111111111,-0.00017806262594712258,0.006010796817137368,0.002181661564992912
1590503283.8256483,-0.1115154453525419,-4.264242277323729,8.784546336057627,0.5235687460559326,0.34949485154915266,-0.5894278216435025,0.0,0.007173054808214159,0.002181661564992912
1590503283.8356483,-0.13306542826111384,-4.266532714130556,8.783869143477773,0.5155555555555555,0.3466666666666667,-0.5955555555555555,-0.0007126085666861047,0.004785381210730773,0.0007564444316207025
1590503283.8456483,-0.15,-4.279389941948773,8.759694970974387,0.5155555555555555,0.3466666666666667,-0.5955555555555555,-0.0010575572774270691,0.002148388059923525,0.002181661564992912
1590503283.8556483,-0.15,-4.261935873161191,8.750967936580595,0.5155555555555555,0.3466666666666667,-0.5955555555555555,-0.00010558550176179254,0.0011964162842582485,0.002181661564992912
1590503283.8656483,-0.12607979601982072,-4.26,8.785880305970268,0.5155555555555555,0.3466666666666667,-0.5955555555555555,0.0,-0.00021381395876223452,0.0015293391943635667
1590503283.8756483,-0.12221365758332428,-4.266106828791662,8.81,0.5155555555555555,0.3629515434444324,-0.592162872893521,-0.0006661516829380703,-0.0024231341483725967,-0.00024147258337968457
1590503283.8856483,-0.13,-4.27,8.763913339047676,0.5155555555555555,0.37333333333333335,-0.59,-8.53758139109928e-05,-0.003272492347489368,-8.53758139109928e-05
1590503283.8956482,-0.11028200817924079,-4.27985899591038,8.612115061344305,0.5155555555555555,0.37333333333333335,-0.59,0.002150899244709749,-0.004347941969844242,0.0010754496223548745
1590503283.9056482,-0.14657956614748158,-4.265368173541007,8.66852730583597,0.5155555555555555,0.37333333333333335,-0.59,-0.0010105077761301431,-0.001969196124143532,0.002686915453057984
1590503283.9156482,-0.13869516758219888,-4.252898389194066,8.704203221611868,0.5155555555555555,0.37333333333333335,-0.59,0.0009170007039758705,-0.001090830782496456,0.0017231612130049765
1590503283.9256482,-0.09279340329835083,-4.277904947526237,8.756508245877061,0.5083209395302348,0.37333333333333335,-0.6096368149258704,0.0011670090401406613,0.002967779316912547,7.617825764420533e-05
1590503283.9356482,-0.10980006997550856,-4.299800069975508,8.740199930024492,0.5077777777777778,0.37333333333333335,-0.6111111111111112,0.002170757073739886,0.002192566056245938,0.00107992629124343
1590503283.9456482,-0.10295642590708715,-4.271825703628348,8.711825703628348,0.5077777777777778,0.37333333333333335,-0.6111111111111112,0.00371833105286169,0.002949996308927301,0.001090830782496456
1590503283.9556482,-0.1405903203365687,-4.2681180640673135,8.773062576605822,0.5077777777777778,0.37333333333333335,-0.6111111111111112,0.005248866547876245,0.0006158620938181039,0.001976374200386877
1590503283.9656482,-0.15,-4.285095643486044,8.820191286972088,0.5077777777777778,0.37333333333333335,-0.6111111111111112,0.0038074746528654166,0.0032933585192337273,0.0005349823053760483
1590503283.9756482,-0.14095456590193434,-4.280954565901935,8.857136302294197,0.5027525366121858,0.36026770630279403,-0.5970404358474534,0.002285788551968057,0.0023899155389432024,0.0009867037955213107
1590503283.9856482,-0.13029495718363465,-4.270294957183634,8.869705042816365,0.5022222222222222,0.3588888888888889,-0.5955555555555555,0.002181661564992912,-0.0009943062698683203,0.001090830782496456
1590503283.9956481,-0.13,-4.276188141356488,8.746237172870241,0.5022222222222222,0.3588888888888889,-0.5955555555555555,0.002181661564992912,-0.001090830782496456,0.001090830782496456
1590503284.0056481,-0.13,-4.267907611623981,8.688138582564028,0.5022222222222222,0.3588888888888889,-0.5955555555555555,0.003500736512439325,-0.0017503682562196624,0.0004312933087732495
1590503284.0156481,-0.14505865554672162,-4.265019551848907,8.684941344453279,0.5022222222222222,0.3588888888888889,-0.5955555555555555,0.003268226795760828,-0.00272920973210541,0.0
1590503284.025648,-0.15104601178156346,-4.274476994109218,8.701338958764527,0.5081915477011799,0.3588888888888889,-0.5985402182950343,0.0007165686687757326,-0.0027841280487503083,0.0
1590503284.035648,-0.157626703510645,-4.274124432163118,8.710622160815591,0.5155555555555555,0.3588888888888889,-0.6022222222222222,-0.003013605860831445,-0.002822586591104575,0.000640925026111663
1590503284.045648,-0.126258112732565,-4.27,8.637509735279078,0.5155555555555555,0.3588888888888889,-0.6022222222222222,0.0004081765815949646,-0.0023181924051732103,0.0001365308401802982
1590503284.055648,-0.11337645249487355,-4.256752904989747,8.64987064251538,0.5155555555555555,0.3588888888888889,-0.6022222222222222,-0.00035420311908745147,-0.0029041785157848657,-0.0007225169507919537
1590503284.065648,-0.1218589794991046,-4.273717958998209,8.743012856493733,0.5155555555555555,0.3588888888888889,-0.6022222222222222,-0.001090830782496456,-0.0013320713644967147,-0.00044402378816557153
1590503284.075648,-0.11862967928664156,-4.29,8.834110962140075,0.5155555555555555,0.3519403595640587,-0.6104341205152033,0.00014947880160238948,0.0012403095840988454,0.0
1590503284.085648,-0.11812509374531273,-4.2818749062546875,8.900625468726563,0.5155555555555555,0.3466666666666667,-0.6166666666666667,0.001977141019302111,0.002181661564992912,0.0
1590503284.095648,-0.16471002565716222,-4.288942005131433,8.75798591276565,0.5155555555555555,0.3466666666666667,-0.6166666666666667,-0.0017200242168501994,0.006083347346836022,0.0009754214454607778
1590503284.105648,-0.15174477078930107,-4.271744770789301,8.758255229210699,0.5155555555555555,0.3466666666666667,-0.6166666666666667,0.0018010116279188622,0.004553648098522848,-0.0018961741121873747
1590503284.115648,-0.15692712002167433,-4.2561457599566515,8.739218639934977,0.5155555555555555,0.3466666666666667,-0.6166666666666667,-8.523316111405535e-05,0.0013407968285098675,8.523316111405535e-05
1590503284.125648,-0.1426235449919844,-4.2847529100160315,8.721311772495993,0.5387241622329098,0.35728561139378734,-0.5934980599893125,-0.0029863079838372696,-0.004738693003352033,0.00014309218182604927
1590503284.135648,-0.1308454621747992,-4.271690924349598,8.683381848699197,0.5422222222222223,0.3588888888888889,-0.59,-0.003272492347489368,-0.008449969410259443,0.000998605165925721
1590503284.145648,-0.13912452794337696,-4.279124527943377,8.643501888226492,0.5422222222222223,0.3588888888888889,-0.59,-0.0022771607518509013,-0.01071730945124858,-0.0008998324087804764
1590503284.155648,-0.12165615784804967,-4.26165615784805,8.69503152645585,0.5422222222222223,0.3588888888888889,-0.59,-0.0011811601805627396,-0.00690630228724387,-0.001090830782496456
1590503284.165648,-0.10565662964895282,-4.274343370351048,8.750201796228664,0.5422222222222223,0.3588888888888889,-0.59,-0.0003085212873129929,-0.0026334372190614207,-0.001090830782496456
1590503284.175648,-0.1,-4.28,8.77,0.5246102721021288,0.3588888888888889,-0.6134826001601246,0.0019211657330790082,0.0017909178171220564,-0.001090830782496456
1590503284.185648,-0.12358504958047294,-4.268207475209763,8.793585049580473,0.5222222222222223,0.3588888888888889,-0.6166666666666667,0.0015384791127657873,0.00475439137390141,0.00019553412195779329
1590503284.195648,-0.14,-4.280950685299651,8.7541315058676,0.5222222222222223,0.3588888888888889,-0.6166666666666667,0.0018526191971382857,0.008830349938904226,0.001090830782496456
1590503284.205648,-0.15105271329865694,-4.29,8.757631783246643,0.5222222222222223,0.3588888888888889,-0.6166666666666667,-0.0008324984090778212,0.010420309037282251,0.0016936627773106025
1590503284.215648,-0.14446384518392633,-4.29,8.774821281727975,0.5222222222222223,0.3588888888888889,-0.6166666666666667,-0.002142671286489119,0.008648665702964062,0.001051840503992663
1590503284.225648,-0.13,-4.279689246401355,8.780310753598645,0.5285232383102832,0.3588888888888889,-0.6057830934236522,-0.0005284664116895404,0.00598262032417182,-0.0005623643708069155
1590503284.235648,-0.13,-4.263050977246207,8.783050977246207,0.5344444444444445,0.3588888888888889,-0.5955555555555555,0.0,-0.0021260540156226504,-0.00033280998968596295
1590503284.245648,-0.13,-4.283723592171271,8.693013495372005,0.5344444444444445,0.3588888888888889,-0.5955555555555555,0.0008626141537271487,-0.008041996373663726,-0.0008626141537271487
1590503284.255648,-0.1385672082717873,-4.298567208271787,8.721403249630724,0.5344444444444445,0.3588888888888889,-0.5955555555555555,-0.0017127815683806982,-0.008726646259971648,-0.00015629333220407127
1590503284.265648,-0.14,-4.3,8.750327496697121,0.5344444444444445,0.3588888888888889,-0.5955555555555555,-0.0007034042897719093,-0.006509260347140144,0.0007391286376105013
1590503284.2756479,-0.12463420724094881,-4.292317103620475,8.736951310861423,0.5250542377583577,0.369986405881537,-0.6117750034678874,-0.0025142219608551277,-0.0029399319516271523,0.0019289047694481653
1590503284.2856479,-0.10787402957810799,-4.271811044367162,8.711811044367161,0.5222222222222223,0.37333333333333335,-0.6166666666666667,-0.003272492347489368,0.0037706602467356943,0.0015202924748008444
1590503284.2956479,-0.10692973740241306,-4.280789212207239,8.651491838183109,0.5222222222222223,0.37333333333333335,-0.6166666666666667,0.001263010176412149,0.007635815477475192,0.001090830782496456
1590503284.3056479,-0.12421963095848283,-4.282890184520759,8.67976870835469,0.5222222222222223,0.37333333333333335,-0.6166666666666667,0.002496931789226735,0.012289178827050986,0.0003152702242338232
1590503284.3156478,-0.13607310816588286,-4.286073108165883,8.760731081658829,0.5222222222222223,0.37333333333333335,-0.6166666666666667,0.004169081564825596,0.01020596017278856,0.0006624733332775612
1590503284.3256478,-0.16139434276206324,-4.29,8.807131447587356,0.5079593270475135,0.36778665187650217,-0.6127047513403587,0.003898313402073025,0.006079974967065937,0.0003129105272918286
1590503284.3356478,-0.16247246249101407,-4.259889849964057,8.802472462491014,0.5022222222222222,0.3655555555555556,-0.6111111111111112,0.002451365384369514,0.002169646060002864,0.0
1590503284.3456478,-0.1389164232756684,-4.278111435632442,8.715665693102673,0.5022222222222222,0.3655555555555556,-0.6111111111111112,0.002181661564992912,-0.002742271633507997,-0.0015332409664017812
1590503284.3556478,-0.13,-4.284113088404133,8.727095292766935,0.5022222222222222,0.3655555555555556,-0.6111111111111112,-0.0010291506263105199,-0.006289810444767883,-0.0008973366884715392
1590503284.3656478,-0.13,-4.28,8.75478427726926,0.5022222222222222,0.3655555555555556,-0.6111111111111112,-0.003272492347489368,-0.008773709659006703,-0.000568947090765755
1590503284.3756478,-0.13,-4.267551272078772,8.758299151947485,0.5132877581522025,0.3655555555555556,-0.6134164310965238,-0.003272492347489368,-0.009817477042468105,-0.001090830782496456
1590503284.3856478,-0.13,-4.258653576437587,8.72673211781206,0.5288888888888889,0.3655555555555556,-0.6166666666666667,-0.003272492347489368,-0.008873518286787441,-0.000618851404656124
1590503284.3956478,-0.13,-4.265056510435473,8.645282552177367,0.5288888888888889,0.3655555555555556,-0.6166666666666667,-0.0027332412884958053,-0.007635815477475192,0.0005392510589935629
1590503284.4056478,-0.12443383791987858,-4.26,8.653396972480728,0.5288888888888889,0.3655555555555556,-0.6166666666666667,-0.0033960097524651017,-0.003992770915058621,0.000483656688760361
1590503284.4156477,-0.12,-4.265936748089546,8.697810244268638,0.5288888888888889,0.3655555555555556,-0.6166666666666667,-0.00695371815558731,-0.001090830782496456,0.0006475987564003714
1590503284.4256477,-0.12693541944074568,-4.256129161118508,8.751612516644474,0.5196416629678946,0.35707893179464417,-0.5920073975440154,-0.012509330767716513,-0.005630052191790297,0.00033429388094748254
1590503284.4356477,-0.16969564690190372,-4.2261826118588575,8.730304353098097,0.5155555555555555,0.3533333333333333,-0.5811111111111111,-0.022841046886795256,-0.01629606219181652,0.0017320493428682664
1590503284.4456477,-0.172589351000421,-4.227410648999579,8.668125457002947,0.5155555555555555,0.3533333333333333,-0.5811111111111111,-0.03802313047264623,-0.029861392968264032,0.0029900379696946463
1590503284.4556477,-0.16389450531710958,-4.254421978731561,8.759898904292028,0.5155555555555555,0.3533333333333333,-0.5811111111111111,-0.04920246205982707,-0.036479778874376256,0.008600541581461604
1590503284.4656477,-0.1637167197399954,-4.288583598699977,8.856017038179967,0.5155555555555555,0.3533333333333333,-0.5811111111111111,-0.04858553357956728,-0.03412476508507675,0.016458882139990146
1590503284.4756477,-0.16574728208302705,-4.321417572638992,8.9,0.5182331927625385,0.3533333333333333,-0.5831587160340981,-0.037113442023193055,-0.026497603626893348,0.025544609085958132
1590503284.4856477,-0.14673345600763307,-4.309799631977101,8.819198527908403,0.5344444444444445,0.3533333333333333,-0.5955555555555555,-0.008639219217089085,-0.019613097324215567,0.03784460947417133
1590503284.4956477,-0.22353195164075995,-4.2558808290155445,8.721174438687392,0.5344444444444445,0.3533333333333333,-0.5955555555555555,-0.004363323129985824,-0.02977365159098919,0.0384677990064046
1590503284.5056477,-0.2928765014948609,-4.24,8.74287650149486,0.5344444444444445,0.3533333333333333,-0.5955555555555555,-0.000270859958305239,-0.04141604300479693,0.04227154055905655
1590503284.5156476,-0.33401082350538625,-4.219945882473069,8.78,0.5344444444444445,0.3533333333333333,-0.5955555555555555,0.00721010911604144,-0.05849686581264959,0.0523775874791046
1590503284.5256476,-0.3433655054358713,-4.169806967384773,8.78336550543587,0.5325747192022937,0.355203058575484,-0.5936858303134048,0.015292687546822004,-0.07821480983067731,0.07062110753694535
1590503284.5356476,-0.33931976744186043,-4.123591860465116,8.775047674418603,0.5288888888888889,0.3588888888888889,-0.59,0.01893593449861784,-0.08337955347194656,0.09681973027940084
1590503284.5456476,-0.2942688510705873,-4.134386893576476,8.679881957494112,0.5288888888888889,0.3588888888888889,-0.59,0.011986262167554353,-0.060582235084712596,0.15574703663291609
1590503284.5556476,-0.2644782243314054,-4.204663107420041,8.669141331751446,0.5288888888888889,0.3588888888888889,-0.59,0.006638650870726244,-0.04361306368343362,0.19293005138322694
1590503284.5656476,-0.19834537447965048,-4.291046375614959,8.736350500567655,0.5288888888888889,0.3588888888888889,-0.59,0.005966394417717955,-0.040806629685579444,0.20808328036872267
1590503284.5756476,-0.10278415277661446,-4.336740095485384,8.762784152776614,0.519068040316051,0.35630445505393155,-0.5925844338349573,0.007052437091828163,-0.04710947208900663,0.21220455018995946
1590503284.5856476,-0.05527179902755267,-4.347825607779578,8.762553808752026,0.5077777777777778,0.3533333333333333,-0.5955555555555555,0.005572748610845104,-0.050296810693199794,0.20027430403784696
1590503284.5956476,-0.07293974338151697,-4.374706837745655,8.783236966054897,0.5077777777777778,0.3533333333333333,-0.5955555555555555,0.005357773866083373,-0.055503567896782485,0.17969882481873323
1590503284.6056476,-0.10560598339771514,-4.240149584942878,8.647725651352017,0.5077777777777778,0.3533333333333333,-0.5955555555555555,0.0039335176913988254,-0.07050738565592397,0.16354191972395676
1590503284.6156476,-0.10555750518423991,-4.1236193970330195,8.600858191099059,0.5077777777777778,0.3533333333333333,-0.5955555555555555,-0.005970597645525745,-0.06932665502667698,0.1607768686766957
1590503284.6256475,-0.13529324187802416,-4.2499962779816025,8.979988833944807,0.5077777777777778,0.3533333333333333,-0.5955555555555555,-0.026243508224144015,-0.0433773294860456,0.16888603290814302
1590503284.6356475,-0.2820163671944494,-4.1539971535314,8.80000355808575,0.5288888888888889,0.3655555555555556,-0.5955555555555555,-0.01156311679601945,-0.017888538077492317,0.1908965513177186
1590503284.6456475,-0.5170360519380032,-3.99051067533912,8.726899194815871,0.5288888888888889,0.3655555555555556,-0.5955555555555555,-0.01815017188992513,-0.012696017977442853,0.2126209791317615
1590503284.6556475,-0.45852662021822005,-3.272387537794137,8.430550282634416,0.5288888888888889,0.3655555555555556,-0.5955555555555555,-0.0516440619820639,0.016382795614791126,0.25862758973001804
1590503284.6656475,-0.287442363545318,-2.9581518277416126,8.32,0.5288888888888889,0.3655555555555556,-0.5955555555555555,-0.12534647485403608,0.1498919044866902,0.3610793003566031
1590503284.6756475,-0.26530718744997595,-2.991480390587482,10.449326716824075,0.5242799566013909,0.3524969140743112,-0.6001644878430535,-0.3279452570795004,0.3835913518626807,0.5621646290675109
1590503284.6856475,-0.29,-3.01,11.4,0.5222222222222223,0.3466666666666667,-0.6022222222222222,-0.4003348971761993,0.4516039439535327,0.6261368691529657
1590503284.6956475,-0.3342640749852591,-2.669109651708924,9.681774800235853,0.5222222222222223,0.3466666666666667,-0.6022222222222222,-0.1217911692585969,-0.056924053902638994,0.7311446853954334
1590503284.7056475,-0.46218327470874077,-2.302407945834943,7.635067604660147,0.5222222222222223,0.3466666666666667,-0.6022222222222222,0.07728333045051505,-0.09785525945030688,0.8706828861261194
1590503284.7156475,-0.4538800110728037,-2.7892971286206807,9.27226841482749,0.5222222222222223,0.3466666666666667,-0.6022222222222222,-0.07570799909484036,-0.07411104940208676,1.0967674197829511
1590503284.7256474,-0.5053604951707251,-2.7836049517072508,8.721849408243775,0.5365168760108224,0.3424973926449916,-0.5909056213062471,-0.010063659639143607,-0.11037564817631344,1.2783475766900518
1590503284.7356474,-0.5141918092275791,-2.9180279937791602,9.011206842923794,0.5488888888888889,0.3388888888888889,-0.5811111111111111,-0.030471557740268548,-0.11679059789675302,1.411191779940266
1590503284.7456474,-0.5250933184023889,-3.044074654721911,9.230917506532288,0.5488888888888889,0.3388888888888889,-0.5811111111111111,-0.0331286815204045,-0.11346676029681127,1.5140044351185162
1590503284.7556474,-0.5872074672825249,-3.083441493456505,8.75818090839107,0.5488888888888889,0.3388888888888889,-0.5811111111111111,-0.025712283920198024,-0.12664255672220373,1.6831014706110548
1590503284.7656474,-0.6126730428842033,-3.063134490575412,8.842673042884202,0.5488888888888889,0.3388888888888889,-0.5811111111111111,-0.03718891887409602,-0.13308135546456762,1.7983416701309385
1590503284.7756474,-0.6275549298178249,-2.99502197192713,8.88008788770852,0.5513925508767439,0.3297087949334206,-0.5898739280686036,-0.029733527502090885,-0.14209389163011868,1.9336956325330252
1590503284.7856474,-0.6816942541545118,-2.9660126520043266,8.863719558163165,0.5555555555555556,0.3144444444444445,-0.6044444444444445,-0.04017592449385748,-0.16251573062340002,2.046438914673287
1590503284.7956474,-0.6811093699589805,-2.934437479835922,8.644453150205097,0.5555555555555556,0.3144444444444445,-0.6044444444444445,-0.04629894682502425,-0.17744066770468553,2.157897622583595
1590503284.8056474,-0.7012695885776826,-2.9305564399781106,8.752139445798717,0.5555555555555556,0.3144444444444445,-0.6044444444444445,-0.0391143232808909,-0.19247948205435966,2.2476730533129516
1590503284.8156474,-0.7194482638418188,-2.824413889265449,8.822758680790905,0.5555555555555556,0.3144444444444445,-0.6044444444444445,-0.019206159166116114,-0.21044381308864588,2.3208477661174
1590503284.8256474,-0.7910824474531667,-2.760360815817722,8.724188164410124,0.5583834466413503,0.29691151971251706,-0.6078379137473982,-0.0021029437648363057,-0.24140815358238232,2.396649395879738
1590503284.8356473,-0.8721460904939478,-2.8242921809878956,8.835022633457635,0.5611111111111111,0.28,-0.6111111111111112,-0.023183857518895006,-0.23244038435856235,2.4761534430466883
1590503284.8456473,-0.8804817518248175,-2.8552408759124086,8.88385401459854,0.5611111111111111,0.28,-0.6111111111111112,-0.05349688949954152,-0.19495614386442134,2.5485230854565923
1590503284.8556473,-0.8741497345780707,-2.8665989383122827,8.916192568185979,0.5611111111111111,0.28,-0.6111111111111112,-0.0774863249964442,-0.16196211378759937,2.617512059452566
1590503284.8656473,-0.8820052951111517,-2.883984114666545,9.025857031998905,0.5611111111111111,0.28,-0.6111111111111112,-0.08243099552123787,-0.1588757913496048,2.6640419547954712
1590503284.8756473,-0.888387273474232,-2.864838179577304,8.853543616195736,0.5611111111111111,0.28,-0.6111111111111112,-0.039268713120857036,-0.22013838572433891,2.6821422667698247
1590503284.8856473,-0.8981287602652497,-2.705321900663124,8.875673883448245,0.5877777777777777,0.20777777777777776,-0.6111111111111112,-0.041209053778763785,-0.21028782506571445,2.7348082691128845
1590503284.8956473,-0.8840058375453833,-2.6654196625614013,8.650603687620134,0.5877777777777777,0.20777777777777776,-0.6111111111111112,-0.06074111089743062,-0.2287146074262641,2.7683373374384876
1590503284.9056473,-1.0696695979260915,-2.867871702333147,9.035908605703248,0.5877777777777777,0.20777777777777776,-0.6111111111111112,-0.08090168428114772,-0.21916688409358265,2.8176858867105086
1590503284.9156473,-1.1265231535607176,-2.8039114522441926,8.879561327708025,0.5877777777777777,0.20777777777777776,-0.6111111111111112,-0.04989287999083521,-0.23467128623873892,2.85257079153711
1590503284.9256473,-1.1580068203198495,-2.856412276575729,8.795227735967387,0.5877777777777777,0.18821944357339465,-0.6242685359395144,-0.06942181016474536,-0.22357682597677037,2.919545222652969
1590503284.9356472,-1.2894653018993423,-3.0239280171458134,9.057316162885227,0.5877777777777777,0.14666666666666667,-0.6522222222222223,-0.0760070670459978,-0.23398348500554733,2.959463173469464
1590503284.9456472,-1.40220197169777,-3.028302957546655,8.728555422168867,0.5877777777777777,0.14666666666666667,-0.6522222222222223,-0.0489298062157494,-0.2444899044667272,2.997033864646997
1590503284.9556472,-1.4333211076471666,-3.0666422152943333,8.8199706583532,0.5877777777777777,0.14666666666666667,-0.6522222222222223,-0.05380738380265849,-0.23053157259854584,3.0259709919994764
1590503284.9656472,-1.4131657744138821,-2.942948310873177,8.634673804688942,0.5877777777777777,0.14666666666666667,-0.6522222222222223,-0.03969379570857558,-0.2267905260462427,3.0486838149006696
1590503284.9756472,-1.4903757516901355,-2.9390008590744405,8.763065775221305,0.5925695041023917,0.12462472557344256,-0.6498263590599153,-0.05522342550198863,-0.2343516276522251,3.044126782608008
1590503284.9856472,-1.57,-3.03,9.11,0.5988888888888889,0.09555555555555556,-0.6466666666666666,-0.06763150851478028,-0.26289021858164585,3.029237082992658
1590503284.9956472,-1.6117775445459532,-2.920333945566872,8.869779118860768,0.5988888888888889,0.09555555555555556,-0.6466666666666666,-0.060226020878505815,-0.2440916730434107,3.0070206200838343
1590503285.0056472,-1.7677168949771689,-2.9163138231631383,8.858679950186799,0.5988888888888889,0.09555555555555556,-0.6466666666666666,-0.05928749073600807,-0.23739901106788996,2.9534250228313104
1590503285.0156472,-1.829254581035403,-2.918509162070806,8.996344193966502,0.5988888888888889,0.09555555555555556,-0.6466666666666666,-0.06150175034392893,-0.24335301704046353,2.9054688890505855
1590503285.0256472,-1.7546361857320762,-2.7692723714641523,8.916395913284367,0.5988888888888889,0.09555555555555556,-0.6466666666666666,-0.05626914760938449,-0.23753901400208083,2.8705848708202892
1590503285.0356472,-1.6194231126716927,-2.5792921615201903,8.941743054838376,0.5844444444444444,0.015555555555555557,-0.6611111111111111,-0.05245137531481735,-0.21789880551168192,2.7797528288794475
1590503285.0456471,-2.0265946504182586,-2.778546318289786,9.063028193741609,0.5844444444444444,0.015555555555555557,-0.6611111111111111,-0.05339638647892451,-0.22640390598864646,2.704151935750874
1590503285.0556471,-2.0122285998123517,-2.6918571665102933,8.842148573320824,0.5844444444444444,0.015555555555555557,-0.6611111111111111,-0.03316188190633908,-0.19460483771581455,2.582175989592998
1590503285.0656471,-1.8013576267706837,-2.4417975774994867,8.981395401354957,0.5844444444444444,0.015555555555555557,-0.6611111111111111,-0.02687653870437265,-0.18519509627361905,2.486291300388079
1590503285.075647,-1.802446715893335,-2.266042627285332,9.03021313642666,0.5806714030317036,-0.015572036099556813,-0.6766749069386673,-0.04455927498610487,-0.19882943716122845,2.3779554967922905
1590503285.085647,-1.8265427494544735,-2.1865427494544734,8.694848641142631,0.5755555555555556,-0.057777777777777775,-0.6977777777777778,-0.03538740749549205,-0.18142201604603353,2.280572629966397
1590503285.095647,-1.822559333270196,-2.1795993938819964,8.719117151245383,0.5755555555555556,-0.057777777777777775,-0.6977777777777778,-0.03659056991091242,-0.17100714192358624,2.204360246310718
1590503285.105647,-1.9224243190520915,-2.2517249476193917,9.03792536666426,0.5755555555555556,-0.057777777777777775,-0.6977777777777778,-0.06089579984800459,-0.19202180113808134,2.1098472118173253
1590503285.115647,-1.919558067420226,-2.1838331499449835,9.136142042612784,0.5755555555555556,-0.057777777777777775,-0.6977777777777778,-0.027999794132183863,-0.1712604328519436,1.9910906011912246
1590503285.125647,-1.6992361883574343,-1.9784723767148684,9.159005067358795,0.5634773891429435,-0.06985594419038987,-0.7026845328829014,0.012211817579082334,-0.19534641065072597,1.8827235078089233
1590503285.135647,-1.62,-1.82,8.71,0.54,-0.09333333333333334,-0.7122222222222222,0.07199483164476607,-0.24216443371421326,1.802052452684145
1590503285.145647,-1.8705758688326712,-1.8891243776090128,8.895771764824222,0.54,-0.09333333333333334,-0.7122222222222222,-0.030270485636170838,-0.15450844747341017,1.671511010809401
1590503285.155647,-2.0797328362845606,-1.9059894377135758,9.19550792171482,0.54,-0.09333333333333334,-0.7122222222222222,-0.08801909856365703,-0.09527842662288008,1.449938782447512
1590503285.165647,-1.94,-1.82,9.26,0.54,-0.09333333333333334,-0.7122222222222222,0.001090830782496456,-0.160352125026979,1.3919000784654778
1590503285.175647,-2.1432785067873303,-1.8101683257918553,8.585378733031673,0.5304760683760684,-0.10369761186525893,-0.717544419306184,0.034438786454315994,-0.008424520684421385,1.268076593980186
1590503285.185647,-2.4300109843683986,-1.877508238276299,8.867662019433883,0.5022222222222222,-0.13444444444444445,-0.7333333333333333,-0.05401709238613206,-0.11455879991904415,1.133337236752291
1590503285.195647,-2.557059612518629,-1.922837555886736,9.307145305514158,0.5022222222222222,-0.13444444444444445,-0.7333333333333333,-0.09195801037200638,-0.14853018545870147,1.0146460876985928
1590503285.205647,-2.8228304108455586,-1.9651602329503866,9.252056137224328,0.5022222222222222,-0.13444444444444445,-0.7333333333333333,-0.03591295567237147,-0.07982508251073897,0.9551097435929732
1590503285.215647,-2.9358564468983435,-1.8255643607231786,8.843346541084768,0.5022222222222222,-0.13444444444444445,-0.7333333333333333,0.011003892802268081,-0.02821093650250134,0.8603134030663374
1590503285.225647,-2.8638903181684956,-1.8021262252906505,8.955969974272966,0.4979387255168022,-0.14551014426677958,-0.7426142428617434,-0.016791909528816873,-0.03026674428164166,0.7553390915277802
1590503285.235647,-2.930335025607765,-1.8133694898575359,9.086847449287678,0.4888888888888889,-0.1688888888888889,-0.7622222222222222,-0.011030825933561549,-0.030886102805980715,0.6434665945243538
1590503285.245647,-2.83,-1.75,8.77,0.4888888888888889,-0.1688888888888889,-0.7622222222222222,-0.008726646259971648,-0.014180800172453925,0.5945027764605685
1590503285.255647,-2.9540651913223592,-1.741728987245176,8.612850757658345,0.4888888888888889,-0.1688888888888889,-0.7622222222222222,0.0030023116500259486,0.0020592953952350505,0.5187156638113531
1590503285.265647,-2.9660677851783155,-1.744045190118877,8.898429306129332,0.4888888888888889,-0.1688888888888889,-0.7622222222222222,-0.005540419764769747,-0.035801432313614816,0.3835299780663058
1590503285.275647,-3.0066870415647924,-1.7664180929095354,9.034596577017115,0.4851806574300462,-0.1758774789459386,-0.7659304536810649,-0.034877247292680075,-0.039292578247259256,0.2935601662181202
1590503285.285647,-3.1291434485212077,-1.8054282757393962,8.90714137869698,0.46,-0.22333333333333333,-0.7911111111111111,-0.019790303233582676,-0.0020876618360117583,0.20314274550797803
1590503285.295647,-3.156273022751896,-1.791863488624052,8.83931744312026,0.46,-0.22333333333333333,-0.7911111111111111,0.002405027781560442,0.0208475135463028,0.15209348417314889
1590503285.305647,-3.159926893838195,-1.7943875840963739,8.826471716901853,0.46,-0.22333333333333333,-0.7911111111111111,-0.0006042449580160947,0.05523951928086849,0.0432005074475639
1590503285.315647,-3.120128955440749,-1.7681203584113658,8.70628370196965,0.46,-0.22333333333333333,-0.7911111111111111,-0.005263183678421966,0.02858539324398073,-0.03999755429282685
1590503285.3256469,-3.2418543570270164,-1.880927178513508,8.972781535540525,0.45907282148649187,-0.22590882920418937,-0.7911111111111111,-0.02948129730332655,0.03406860297324114,-0.11158269923223342
1590503285.3356469,-3.275035797634587,-1.8975178988172936,9.02255369645188,0.44248210118270637,-0.27199416338137117,-0.7911111111111111,-0.010478745471610523,0.038593020076030674,-0.1758294220918447
1590503285.3456469,-3.293900233826968,-1.906950116913484,9.141201870615744,0.44,-0.2788888888888889,-0.7911111111111111,0.0037362867292912525,0.06504667317187635,-0.23320406229281657
1590503285.3556468,-2.49130655602847,-1.6467044601022924,8.907897635823886,0.44,-0.2788888888888889,-0.7911111111111111,0.046679512521165895,0.16149566557689038,-0.3157087608533406
1590503285.3656468,-3.004262263213599,-1.7813933948203988,8.421327731818476,0.44,-0.2788888888888889,-0.7911111111111111,0.08993634380408363,0.1703520394357748,-0.41370736999147883
1590503285.3756468,-3.0847245492929427,-1.9145218148917633,8.817884525165873,0.4403349492512417,-0.27930757545294105,-0.7889339409780399,0.008426176149653273,0.06716662057523903,-0.5300269351749591
1590503285.3856468,-2.892111158372324,-1.9118687083510564,9.000138947965405,0.4444444444444444,-0.28444444444444444,-0.7622222222222222,-0.053299758272325415,-6.418471214178836e-05,-0.6756771045753089
1590503285.3956468,-2.622811450786358,-1.7895709489309066,8.656481003710903,0.4444444444444444,-0.28444444444444444,-0.7622222222222222,-0.03230123624041282,0.01575854358201984,-0.7520155416313586
1590503285.4056468,-2.8822221240501857,-1.9081586852800847,8.938126877540201,0.4444444444444444,-0.28444444444444444,-0.7622222222222222,-0.036343709779045864,0.03192843773655204,-0.8207375917881206
1590503285.4156468,-2.696900103825248,-1.8709484741760145,8.849516296492334,0.4444444444444444,-0.28444444444444444,-0.7622222222222222,-0.02485511268064633,-0.005402766879834395,-0.9348926792146465
1590503285.4256468,-2.961600130290507,-2.0929549479855867,9.276451823049204,0.4444444444444444,-0.28444444444444444,-0.7622222222222222,-0.038826545115933336,0.02626581330681614,-1.0056812702201008
1590503285.4356468,-2.7624519379718557,-1.9483302623640484,8.68112984492964,0.4533333333333333,-0.2911111111111111,-0.8122222222222222,0.021118506716646536,0.08990720976316086,-1.0737113186673974
1590503285.4456468,-2.9402721476674225,-2.078275800218501,9.125680369168554,0.4533333333333333,-0.2911111111111111,-0.8122222222222222,0.003959466542893971,0.09885975246251001,-1.1192200773890892
1590503285.4556468,-2.6821160558464223,-1.990110529377545,8.756154741128563,0.4533333333333333,-0.2911111111111111,-0.8122222222222222,0.0052444275753007336,0.08312492269165184,-1.1962339726089888
1590503285.4656467,-2.842238765270506,-2.1426083478766724,8.969651687027342,0.4533333333333333,-0.2911111111111111,-0.8122222222222222,0.01688887960306913,0.088115402132124,-1.2361578081327662
1590503285.4756467,-2.703099234393404,-2.1010330781311346,8.98,0.4533333333333333,-0.2911111111111111,-0.8122222222222222,0.01424841497802386,0.10972314366167579,-1.2883026862902152
1590503285.4856467,-2.5199955864179366,-2.0639113164244103,8.850434590713823,0.38,-0.3055555555555556,-0.6977777777777778,0.0398392675311007,0.1237853498433677,-1.3228923373169104
1590503285.4956467,-2.7980117518447662,-2.2080117518447664,8.866445750204974,0.38,-0.3055555555555556,-0.6977777777777778,0.02390849260965779,0.12940366474633677,-1.3728324020995797
1590503285.5056467,-2.979256626968882,-2.411801767191702,8.904346907414523,0.38,-0.3055555555555556,-0.6977777777777778,0.005623666417868303,0.10396794934793538,-1.408621261351529
1590503285.5156467,-2.8622034589378544,-2.391017294689273,8.944575787435019,0.38,-0.3055555555555556,-0.6977777777777778,0.0014237396910752728,0.09148197447080536,-1.4338139475564669
1590503285.5256467,-2.8693291087628694,-2.4266455438143457,8.894696238659916,0.38,-0.3055555555555556,-0.6977777777777778,0.013083056952699627,0.10158671609754646,-1.4423641135483247
1590503285.5356467,-2.8762762343943313,-2.5174475312113374,9.427027780902035,0.4622222222222222,-0.2222222222222222,-0.6533333333333333,0.014910482659892844,0.10997080912466879,-1.4597346868877314
1590503285.5456467,-2.6099857728878666,-2.452879567495791,9.513913167192278,0.4622222222222222,-0.2222222222222222,-0.6533333333333333,0.047761746333585715,0.09034069497168037,-1.461976043242099
1590503285.5556467,-2.1482008357975513,-2.0882008357975512,7.336254551675261,0.4622222222222222,-0.2222222222222222,-0.6533333333333333,0.10069587206283132,0.060656978708768385,-1.4648200329295935
1590503285.5656466,-2.532093329635279,-2.476863125780058,8.847114824573568,0.4622222222222222,-0.2222222222222222,-0.6533333333333333,0.006486063797768591,0.13180771106389796,-1.4870213244469357
1590503285.5756466,-2.247083344889752,-2.209302731937318,8.4341411732076,0.4622222222222222,-0.2222222222222222,-0.6533333333333333,-0.0855142655460961,0.18700790867021677,-1.5117662406152856
1590503285.5856466,-2.136019437551696,-2.258204094292804,8.90679693961952,0.4889212848083816,-0.1634842845326716,-0.6310841145115338,0.0761677781865743,0.11289027166618126,-1.4957143041855652
1590503285.5956466,-2.238524880926284,-2.3013882301361126,9.101127563323303,0.4955555555555556,-0.14888888888888888,-0.6255555555555555,-0.02365513040247646,0.10940252978014212,-1.5078310062432345
1590503285.6056466,-2.113144741824269,-2.1927254429143663,8.290335997130272,0.4955555555555556,-0.14888888888888888,-0.6255555555555555,0.061141349050146045,0.13037370211788746,-1.4841244636005655
1590503285.6156466,-2.2653296953160527,-2.407844474761255,8.807485220554797,0.4955555555555556,-0.14888888888888888,-0.6255555555555555,0.011881572943317468,0.08221064298388935,-1.4904602856877938
1590503285.6256466,-2.142526203858423,-2.3553681831991495,8.750420590915995,0.4961871065201614,-0.1472047529832734,-0.6249240045909498,0.00972557334768729,0.12144968664505036,-1.4707384730698756
1590503285.6356466,-2.2062403159653656,-2.4907606714264015,9.013241303357132,0.5121156345468969,-0.104728678245312,-0.6089954765642142,0.034919799950247236,0.10320559151905867,-1.4507568450747417
1590503285.6456466,-2.169030837004405,-2.491013215859031,8.99409691629956,0.5155555555555555,-0.09555555555555556,-0.6055555555555555,0.024872864009698924,0.10505132923416312,-1.4280080189926951
1590503285.6556466,-2.068377414765423,-2.447876034899467,8.677757589262757,0.5155555555555555,-0.09555555555555556,-0.6055555555555555,0.018598815361590613,0.0909347197759194,-1.4233024825066138
1590503285.6656466,-2.087139496006439,-2.4814302519967804,9.012133614017708,0.5155555555555555,-0.09555555555555556,-0.6055555555555555,0.019092746820873203,0.07433635925286278,-1.4105976515566507
1590503285.6756465,-2.0525137762367653,-2.498743111881617,8.916912884651106,0.5155555555555555,-0.09555555555555556,-0.6055555555555555,0.05214219768787236,0.11588424034280455,-1.3860466309125945
1590503285.6856465,-2.1779103492183265,-2.7012834539838244,9.32605932702964,0.5422222222222223,-0.03666666666666667,-0.6177777777777778,0.035294056447076734,0.08618864698796073,-1.3784486680098118
1590503285.6956465,-2.005108640360439,-2.481239008792966,8.663282464937142,0.5422222222222223,-0.03666666666666667,-0.6177777777777778,0.007953528563460644,0.07184303010792424,-1.371748206457959
1590503285.7056465,-2.0367826920671974,-2.5779665680103383,8.783050147984492,0.5422222222222223,-0.03666666666666667,-0.6177777777777778,0.04598200292052977,0.09760200355085029,-1.3366748659564027
1590503285.7156465,-1.923134978531827,-2.5604823043895117,8.809276543415733,0.5422222222222223,-0.03666666666666667,-0.6177777777777778,0.019280680766897523,0.08329772382569017,-1.3214169675828982
1590503285.7256465,-1.978778455090961,-2.6809772359272315,8.812687398799886,0.543036585494915,-0.0356894307394355,-0.6185378501656242,0.044137762615202816,0.0907788047292225,-1.2818842510635449
1590503285.7356465,-1.928157938329744,-2.7186184537473084,8.92368412334051,0.5755555555555556,0.0033333333333333327,-0.6488888888888888,0.020801136526426605,0.1000801425733628,-1.2438090545795226
1590503285.7456465,-1.8521098802586926,-2.663938443149559,9.080562634735651,0.5755555555555556,0.0033333333333333327,-0.6488888888888888,0.02419774248383085,0.0883726368644367,-1.208410354772717
1590503285.7556465,-1.9863962348722546,-2.914606305094875,9.116372329299267,0.5755555555555556,0.0033333333333333327,-0.6488888888888888,0.03689299555491227,0.08934919479298141,-1.193761985844546
1590503285.7656465,-1.9012418780129952,-2.841241878012995,8.68546426325718,0.5755555555555556,0.0033333333333333327,-0.6488888888888888,0.013401545505834025,0.08190713620076184,-1.1879689092892278
1590503285.7756464,-1.6838514496688022,-2.6238514496688023,9.085278531870996,0.5755555555555556,0.0033333333333333327,-0.6488888888888888,0.02782631265828591,0.07690019426445804,-1.1584420356019838
1590503285.7856464,-1.557764705882353,-2.4427149321266968,8.414352941176471,0.6061387631975867,0.017314228255404726,-0.6427722473604827,0.043178142620463794,0.09694672201434114,-1.135459088392474
1590503285.7956464,-1.699045261788508,-2.723818952845968,8.906082042271368,0.6144444444444445,0.021111111111111112,-0.6411111111111111,-0.005289835419912065,0.042191389973452814,-1.1531616558339612
1590503285.8056464,-1.691958978864316,-2.752164084542736,8.580113027758536,0.6144444444444445,0.021111111111111112,-0.6411111111111111,0.020218951885807107,0.08006807415467218,-1.1462047138414924
1590503285.8156464,-1.7365750354152096,-2.912568723438593,8.899143758853803,0.6144444444444445,0.021111111111111112,-0.6411111111111111,0.0203821654445461,0.08280973804977942,-1.1238693391373178
1590503285.8256464,-1.7064905768644538,-2.9351320673516597,8.891622644216113,0.6144444444444445,0.021111111111111112,-0.6411111111111111,0.026945576136926726,0.08198931171323184,-1.107460812406366
1590503285.8356464,-1.777467453662842,-3.021409973521624,9.05230803177405,0.6411111111111111,0.05111111111111112,-0.6411111111111111,0.024529732282828513,0.0791726642733015,-1.0794679217295797
1590503285.8456464,-1.5075342012356576,-2.86716240070609,9.237405119152692,0.6411111111111111,0.05111111111111112,-0.6411111111111111,0.037990372327032354,0.09347459432026807,-1.0575943816577482
1590503285.8556464,-1.254847085099363,-2.5003923758280244,7.979145960762417,0.6411111111111111,0.05111111111111112,-0.6411111111111111,0.09590750573338475,0.15304991811093838,-1.017645037500763
1590503285.8656464,-1.3077579792441747,-2.933095750930096,9.674535931074994,0.6411111111111111,0.05111111111111112,-0.6411111111111111,-0.013412284575151746,0.027833592963993185,-1.0567996174608894
1590503285.8756464,-1.2913322890150774,-2.7359874681809284,8.828612884276483,0.6411111111111111,0.05111111111111112,-0.6411111111111111,-0.07970758412005904,-0.008001704087308055,-1.0791966781179527
1590503285.8856463,-1.1101478222178278,-2.599597814801997,8.420739111089137,0.8066666666666666,0.024444444444444446,-0.6533333333333333,0.07480158934857922,0.07047501913194047,-1.0605803844103723
1590503285.8956463,-1.2010908390699466,-2.9046363067443317,8.933363500698022,0.8066666666666666,0.024444444444444446,-0.6533333333333333,0.00032725448594415397,0.08725653784075572,-1.0773639873377026
1590503285.9056463,-1.043729414856342,-2.7841890767344077,8.662324369306237,0.8066666666666666,0.024444444444444446,-0.6533333333333333,0.013443801414097659,0.07191819829792288,-1.0915914305731957
1590503285.9156463,-0.9224085041761579,-2.7444729363271505,8.681720360125826,0.8066666666666666,0.024444444444444446,-0.6533333333333333,0.03212440450457955,0.07948051737966275,-1.097938753726104
1590503285.9256463,-0.9861032649962035,-2.862763206421521,8.727216617854431,0.8066666666666666,0.024444444444444446,-0.6533333333333333,0.016243214610578424,0.07551021990616248,-1.1128273692517303
1590503285.9356463,-1.0061414224226275,-3.144404181184669,8.907555646648904,1.2729744255425746,-0.05984965042927741,-0.857791350686616,0.017912765022732487,0.09111412839894809,-1.12430276520001
1590503285.9456463,-0.922471176593897,-3.1823558829694845,8.793204264366784,1.3844444444444444,-0.08,-0.9066666666666666,0.009522760325800449,0.08556911383025834,-1.156457648941657
1590503285.9556463,-0.9475920103015602,-3.307960051507801,8.724121971670709,1.3844444444444444,-0.08,-0.9066666666666666,0.028704565409006032,0.07940353362494225,-1.180434905295664
1590503285.9656463,-0.9153716228054806,-3.39231418859726,8.727190314328766,1.3844444444444444,-0.08,-0.9066666666666666,0.020329007927939614,0.09258549064696678,-1.2271668173938886
1590503285.9756463,-0.8580929332042594,-3.3221725902364816,8.775920342967778,1.3844444444444444,-0.08,-0.9066666666666666,0.02397655412922441,0.09948087095225043,-1.2757545836879172
1590503285.9856462,-0.7489161104095254,-3.202430092007938,8.847298935594443,1.1141648124761963,-0.2128874857177221,-0.8390967586746045,0.03570277540247439,0.0885632582923628,-1.34744298752502
1590503285.9956462,-0.7528850283037283,-3.227180037738304,8.812819962261695,0.9844444444444445,-0.2766666666666667,-0.8066666666666666,0.03739940557101031,0.10005591942977479,-1.4160840999811217
1590503286.0056462,-0.7429042883583775,-3.222904288358378,8.519042883583776,0.9844444444444445,-0.2766666666666667,-0.8066666666666666,0.01639846117224893,0.1088718724401413,-1.4994675189139641
1590503286.0156462,-0.7674007474790212,-3.3022022424370636,8.818808969748254,0.9844444444444445,-0.2766666666666667,-0.8066666666666666,0.04805565616111958,0.10609412036829274,-1.5612348717857414
1590503286.0256462,-0.7518827447947087,-3.3039609149315696,8.874156340273721,0.9844444444444445,-0.2766666666666667,-0.8066666666666666,0.034141235061360964,0.11635077772737006,-1.603982437042235
1590503286.0356462,-0.6398082497212931,-3.1559743589743587,8.771022296544036,0.7715369751021925,-0.04566902019075936,-0.7530919113093026,0.0372520536354283,0.11984849575471793,-1.667545720675359
1590503286.0456462,-0.49094601011088457,-2.980946010110885,8.851391782811495,0.6444444444444445,0.09222222222222222,-0.7211111111111111,0.029300611174071355,0.12558115118763127,-1.7471305562851085
1590503286.0556462,-0.5349241658240648,-3.056309403437816,8.665995955510617,0.6444444444444445,0.09222222222222222,-0.7211111111111111,0.03497386580604663,0.12995996910009344,-1.8036980740466175
1590503286.0656462,-0.5867363358111062,-3.282049846961084,8.894706602536074,0.6444444444444445,0.09222222222222222,-0.7211111111111111,0.0420973873472397,0.13490700649346288,-1.8734264599535297
1590503286.0756462,-0.4761383752337419,-3.243069187616871,8.806138375233742,0.6444444444444445,0.09222222222222222,-0.7211111111111111,0.024799005483062478,0.15389358181557483,-1.9218819252929304
1590503286.0856462,-0.4770250102501025,-3.344856293562936,8.874587535875358,0.6196715183818505,0.17404794770169923,-0.7211111111111111,0.027358720310003824,0.1493265495385579,-1.9760808854183647
1590503286.0956461,-0.38015979814970563,-3.2443930473787495,8.782699747687131,0.6077777777777778,0.21333333333333332,-0.7211111111111111,0.04552039607664143,0.1580606770165372,-2.053225796973509
1590503286.1056461,-0.397822200323784,-3.250866650242838,8.860422151052298,0.6077777777777778,0.21333333333333332,-0.7211111111111111,0.04462952520610012,0.15698509580323505,-2.1069565866507585
1590503286.1156461,-0.42631488347457624,-3.2028979078389828,8.908157441737288,0.6077777777777778,0.21333333333333332,-0.7211111111111111,0.04986210328727693,0.16043799617372084,-2.1735926382732074
1590503286.125646,-0.38765602871277527,-3.2111719856436123,8.874713357260646,0.6077777777777778,0.21333333333333332,-0.7211111111111111,0.046650036044008344,0.16760163678724227,-2.235422179746701
1590503286.135646,-0.28707103035308695,-3.385857939293826,8.841571340078463,0.5617061279739373,0.2522382820565765,-0.7211111111111111,0.05175995441525435,0.18223113178298941,-2.264969908794196
1590503286.145646,-0.060206932602700214,-3.631034663013501,8.809793067397301,0.5577777777777778,0.25555555555555554,-0.7211111111111111,0.05129161962262618,0.17353238579810748,-2.2631804266913407
1590503286.155646,-0.06776736305135463,-3.668836815256773,8.802232636948647,0.5577777777777778,0.25555555555555554,-0.7211111111111111,0.05211633464885775,0.17683124590303376,-2.2524591313503297
1590503286.165646,-0.05124079715663875,-3.5236733096386565,8.718710121012101,0.5577777777777778,0.25555555555555554,-0.7211111111111111,0.048267254376503185,0.17234858663582006,-2.2383794116854876
1590503286.175646,-0.047245328150695175,-3.603887875616684,8.778679922260428,0.5577777777777778,0.25555555555555554,-0.7211111111111111,0.041863179376817945,0.17144979937977062,-2.2097101854547634
1590503286.185646,-0.0696274012033502,-3.571862993983249,8.891967137745617,0.5170690938004588,0.2751829567589058,-0.6593211443598235,0.04464277363497335,0.1687829013989363,-2.1841683803474305
1590503286.195646,8.155972404992623,-16.17863061769749,6.020873708976352,0.4955555555555556,0.2855555555555556,-0.6266666666666667,-1.7413280601505536,1.667812755595496,-3.955845785866467
1590503286.205646,7.850883860953008,4.49366386001223,2.3184905216614142,0.4955555555555556,0.2855555555555556,-0.6266666666666667,-4.174222618667352,-0.7608134472619206,-2.848478946250159
1590503286.215646,-0.07399002670574006,-0.7468338335736053,0.05316900243423994,0.4955555555555556,0.2855555555555556,-0.6266666666666667,-4.0076322994315285,0.09785623226504869,-0.9750682250893192
1590503286.225646,-0.257868097383206,-0.4951188608256989,-0.32115030959491153,0.4955555555555556,0.2855555555555556,-0.6266666666666667,-4.003062879667818,0.0966142296114634,-0.7637053522838666
1590503286.235646,-0.27315416285452887,-0.5114756785605368,-0.06134377859103385,0.4561821015892379,0.4145036172952459,-0.6463533936498255,-4.0595228897510625,0.048955730353489345,-0.6281796818317603
1590503286.245646,-0.19567033125646516,-0.39008058890038255,0.036849815968630475,0.4511111111111111,0.4311111111111111,-0.6488888888888888,-4.050263486294668,0.12240399862992642,-0.42845835637383023
1590503286.255646,0.38806802721088424,-0.6382857142857143,1.5282176870748299,0.4511111111111111,0.4311111111111111,-0.6488888888888888,-4.040443154860927,0.15446015467798457,-0.3055914203149629
1590503286.265646,2.2339719626168226,-4.15981530930129,10.926991544281265,0.4511111111111111,0.4311111111111111,-0.6488888888888888,-2.3587582095347406,-0.3676262366435459,-0.3004797036301958
1590503286.275646,0.47979031452820786,-0.7927886741316597,2.1706911061978467,0.4511111111111111,0.4311111111111111,-0.6488888888888888,1.7331388037160775,-0.6566987252114306,-0.38288541684571065
1590503286.285646,-0.2593468923698838,0.11922372410308246,-0.4703657150075795,0.44132425186682384,0.5334967155128852,-0.5796280388523946,2.837104107468411,-0.5174142776803553,-0.30098013888005326
1590503286.295646,0.51649219721033,-0.7726225659439305,2.232565943930396,0.43666666666666665,0.5822222222222222,-0.5466666666666666,3.4456842181900047,0.08712681336129996,-0.2157133313645574
1590503286.305646,1.8631626794258374,-3.1440031897926635,9.044416267942584,0.43666666666666665,0.5822222222222222,-0.5466666666666666,4.623638500787414,0.9015638128042598,-0.15042887045408704
1590503286.315646,1.4025420059049833,-3.1563244162118638,7.369186901673078,0.43666666666666665,0.5822222222222222,-0.5466666666666666,6.115553845919665,0.29374188393367673,-0.3426838901057018
1590503286.325646,2.5700509626274064,1.590014156285391,9.037318799546998,0.43666666666666665,0.5822222222222222,-0.5466666666666666,6.6666374463957325,0.02820779691068273,-0.3583566484791547
1590503286.335646,1.5431771372630232,1.417798821469586,3.872483385733381,0.4263046356784708,0.5848127299692711,-0.5738669980106809,3.4174721311643985,0.3180948362746342,0.07787123402231427
1590503286.345646,-0.1456594888154647,-0.17971326573240667,0.06760928183509929,0.4188888888888889,0.5866666666666667,-0.5933333333333334,0.525109143934794,0.06661595172612361,0.471199210374133
1590503286.355646,0.7408539799683713,-0.11303637322087506,1.503890353189246,0.4188888888888889,0.5866666666666667,-0.5933333333333334,-0.7137627251312062,-0.41376183379786097,0.5800660882026054
1590503286.365646,0.16924237757930405,-1.2150477363720356,4.969836772405298,0.4188888888888889,0.5866666666666667,-0.5933333333333334,-1.431451177077281,0.18582791187584619,0.732186651703455
1590503286.3756459,0.3040944698673699,-1.5707519584270533,6.971029434576902,0.4188888888888889,0.5866666666666667,-0.5933333333333334,-0.688776809445429,-0.051578664030769106,0.6729150485976751
1590503286.3856459,0.6183240550835043,-3.607986375622619,14.003601670084969,0.4345825601458475,0.45274733860728583,-0.6665704658658071,0.8359202803363126,0.12907367896605645,0.7251888906149329
1590503286.3956459,0.2693240811836028,-2.999400061884734,11.089180027275123,0.4355555555555555,0.4444444444444444,-0.6711111111111111,0.31632578812937673,-0.04517473812195838,0.7722178862848175
1590503286.4056458,-0.10560045382138239,-2.239937542259251,7.64756506492167,0.4355555555555555,0.4444444444444444,-0.6711111111111111,-0.2971430477155349,-0.24861568539360435,0.8152131380277943
1590503286.4156458,0.1867577413479052,-2.968933598277861,10.860145719489982,0.4355555555555555,0.4444444444444444,-0.6711111111111111,-0.4240586152274528,-0.09654872990405955,0.9088016696047556
1590503286.4256458,0.1737457827825815,-3.124261232879773,11.087835645820766,0.4355555555555555,0.4444444444444444,-0.6711111111111111,-0.008783165610790677,-0.12310638465539278,0.9501061048877238
1590503286.4356458,-0.005246976942142545,-2.5163886037603587,8.432512580427108,0.44483310940312165,0.44057879700795854,-0.6765230175221914,0.1301739389977185,-0.14744881733990725,0.9809471754250563
1590503286.4456458,0.03775942686828361,-2.7425038965300375,9.380748680648601,0.4488888888888889,0.4388888888888889,-0.6788888888888889,-0.1638572141982333,0.017261828168603555,1.0635465009615943
1590503286.4556458,0.007328873133955763,-3.122134155474562,10.425717958959508,0.4488888888888889,0.4388888888888889,-0.6788888888888889,0.0213890027941315,-0.10072097719126366,1.0808800627803958
1590503286.4656458,-0.025983788730553018,-2.868981566217806,9.460254935285658,0.4488888888888889,0.4388888888888889,-0.6788888888888889,0.03210691913498671,-0.1080010893430172,1.0915005545934617
1590503286.4756458,-0.07822402257521278,-2.286794410814255,7.373703063128669,0.4488888888888889,0.4388888888888889,-0.6788888888888889,-0.03886556945553756,-0.07832076643703789,1.1273125210298334
1590503286.4856458,-0.07964815208909697,-2.556451372632475,8.528826346031071,0.4659596210383612,0.43062885720366034,-0.6750342074357822,-0.02419018048090708,-0.07762169849663492,1.1469270089069796
1590503286.4956458,1.6717894778543698,-4.251321606845734,8.015119245701609,0.4833333333333333,0.4222222222222222,-0.6711111111111111,-0.07102811408655178,-0.0834855900396731,0.9859148316810298
1590503286.5056458,0.4148848643620555,-2.3783398826812463,5.249553505324904,0.4833333333333333,0.4222222222222222,-0.6711111111111111,-0.40858635893504247,-0.1564696396586267,-1.8127736852145966
1590503286.5156457,-3.029209560200794,-3.601544916460627,11.918699333183486,0.4833333333333333,0.4222222222222222,-0.6711111111111111,-0.07982638696820521,0.46136167743550005,-4.783592516334834
1590503286.5256457,-9.542269094138543,-16.45073383330044,9.852857377804092,0.4833333333333333,0.4222222222222222,-0.6711111111111111,0.44588472483462677,0.6940886266694292,-3.9384171635872107
1590503286.5356457,-3.1335577125089316,-6.9780579015925035,9.670942476574647,0.5010999061585221,0.4133389358096279,-0.6526042644182062,0.3296591553708998,0.0938213935226796,-0.7348461617380346
1590503286.5456457,1.31284554265258,1.2328394307168429,8.945709421112372,0.51,0.4088888888888889,-0.6433333333333333,0.2241291996871492,-0.12582299239179282,0.5606481626066309
1590503286.5556457,1.1341328993152993,-0.4721270625210462,8.498768660904704,0.51,0.4088888888888889,-0.6433333333333333,-0.009127641973595613,-0.124923449690026,0.7604736166944146
1590503286.5656457,0.9212582080067783,-1.981071806820589,9.630421520864223,0.51,0.4088888888888889,-0.6433333333333333,-0.2216179508351765,0.019810328065854393,0.9072717582316892
1590503286.5756457,0.36183896419178635,-2.3267408456402996,9.288106413109448,0.51,0.4088888888888889,-0.6433333333333333,-0.12186629975619821,0.002777282095431502,0.9568803815895515
1590503286.5856457,-0.08345000937910335,-2.479393734758957,8.959603076345902,0.5021315992413348,0.4205645803372309,-0.6466329852643865,-0.010117450392147299,-0.06308001656326308,0.9991907657520989
1590503286.5956457,0.47465249537892784,-3.0751386321626617,8.895336105976586,0.4755555555555556,0.46,-0.6577777777777778,-0.03147251800348031,-0.08346243388479807,1.0918698273813605
1590503286.6056457,6.012119991946849,-15.263335011073082,7.52815280853634,0.4755555555555556,0.46,-0.6577777777777778,-0.14826557940292176,-0.12950864856510066,0.20544744731424824
1590503286.6156456,0.4765049216926567,-11.85902496363698,8.190747556066706,0.4755555555555556,0.46,-0.6577777777777778,-0.009355618337177407,0.08134524729140696,-0.9006969624484351
1590503286.6256456,-3.646,-5.423774086378738,8.00931561461794,0.4755555555555556,0.46,-0.6577777777777778,0.16286574705601406,0.20558427506848986,-1.128991014966659
1590503286.6356456,0.19679623443668381,-1.5311489017106994,9.635412491142828,0.487602096478501,0.433126947171891,-0.6512911788192687,-0.051100657573637964,-0.08417914316671712,0.27180137524120784
1590503286.6456456,0.009249968722632285,-2.184301263605655,8.69322281996747,0.49,0.42777777777777776,-0.65,-0.040566745341231426,-0.044162542846200345,0.5789150734310201
1590503286.6556456,-0.8471575424336601,-5.230868754482429,8.512037293808271,0.49,0.42777777777777776,-0.65,-0.04231427267406082,-0.039568185064211274,0.2748004843393161
1590503286.6656456,-1.1071136086426208,-3.7840024394493814,8.383091130859034,0.49,0.42777777777777776,-0.65,0.04555696336984369,0.012986403189815844,-0.11981074514327808
1590503286.6756456,-0.2000445811600019,-3.697054522758682,8.758134724265526,0.49,0.42777777777777776,-0.65,0.017255901313748587,0.014383054428813557,-0.05348898054712442
1590503286.6856456,0.02857236698051241,-4.1904961056023025,8.903236572930025,0.48494656281606136,0.43704241261499854,-0.6609491138985336,-0.009044727043056259,-0.004099359073137234,0.03971205478939724
1590503286.6956456,-0.07807855392014498,-4.17768578431942,8.774497508160918,0.4833333333333333,0.44,-0.6644444444444444,-0.00174818555313366,-0.0030628950944080677,0.018391652072145055
1590503286.7056456,-0.06346104250647645,-4.236155829974094,8.681919935874351,0.4833333333333333,0.44,-0.6644444444444444,-0.001216677839349563,-0.001468371953055777,0.006166974655110829
1590503286.7156456,-0.06,-4.25,8.66,0.4833333333333333,0.44,-0.6644444444444444,-0.001090830782496456,-0.001090830782496456,0.003272492347489368
1590503286.7256455,-0.06,-4.262115570838521,8.750866781288908,0.4833333333333333,0.44,-0.6644444444444444,0.0022131786220473144,-0.0004300289015877019,0.0012900867047631057
1590503286.7356455,-0.0745210272661253,-4.337764793908585,8.75675623335754,0.4833333333333333,0.44376471077269913,-0.6612175494964165,0.0022513253252711787,0.0,-0.0005279994511786613
1590503286.7456455,-0.06268121935369528,-4.377217463224434,8.716391268387783,0.4833333333333333,0.4477777777777778,-0.6577777777777778,0.0,0.0,-0.001090830782496456
1590503286.7556455,-0.05077818093365496,-4.3715563618673094,8.643774552530761,0.4833333333333333,0.4477777777777778,-0.6577777777777778,-0.0029392928854368046,0.001175717154174722,-0.001090830782496456
1590503286.7656455,-0.063708726984679,-4.378873819045963,8.610795996831468,0.4833333333333333,0.4477777777777778,-0.6577777777777778,-0.0014085603537191725,0.0013725428532402905,-0.001090830782496456
1590503286.7756455,-0.06716624875381409,-4.357166248753814,8.697002507477116,0.4833333333333333,0.4477777777777778,-0.6577777777777778,0.005763268221410009,0.0,-0.000472602164640998
1590503286.7856455,-0.06560495839805601,-4.344395041601944,8.737197520800972,0.4799080809789657,0.44372975226807065,-0.6577777777777778,0.006544984694978735,-0.0003057030577605761,0.001396533840257032
1590503286.7956455,-0.07850632872456591,-4.331493671275434,8.730746835637717,0.47202391022387635,0.4344120959211469,-0.6577777777777778,0.006544984694978735,-0.0010093636521877436,0.0021001944346841998
1590503286.8056455,-0.06782443578535119,-4.36086516209427,8.642175564214648,0.4711111111111111,0.43333333333333335,-0.6577777777777778,-0.0027506705923481057,0.0,0.0013281480239601211
1590503286.8156455,-0.08468886737657308,-4.405836979670862,8.62885188770571,0.4711111111111111,0.43333333333333335,-0.6577777777777778,-0.004170204898133982,0.0,-0.0007045943187927738
1590503286.8256454,-0.06448991992361278,-4.344489919923612,8.723879039083354,0.4711111111111111,0.43333333333333335,-0.6577777777777778,-0.0013133952020409905,-0.0004897742863620944,0.0015806050688585505
1590503286.8356454,-0.07517298496734069,-4.355172984967341,8.758962090195956,0.47743364829341634,0.43333333333333335,-0.6577777777777778,0.0027836861544264504,-0.001090830782496456,0.0016173764410162472
1590503286.8456454,-0.08886799083014006,-4.36,8.73443399541507,0.4833333333333333,0.43333333333333335,-0.6577777777777778,0.002428627654703209,-0.00012348304485514843,0.0006071569136758022
1590503286.8556454,-0.0879857434513305,-4.353992871725666,8.715971486902662,0.4833333333333333,0.43333333333333335,-0.6577777777777778,-0.0006552760436049163,0.00010791671708908148,0.0006552760436049163
1590503286.8656454,-0.05226091448317629,-4.34,8.68321725655047,0.4833333333333333,0.43333333333333335,-0.6577777777777778,-0.002181661564992912,-0.0004932550229681523,0.0009153566584743421
1590503286.8756454,-0.0466953324239369,-4.353390664847874,8.713304667576063,0.4833333333333333,0.43333333333333335,-0.6577777777777778,-0.0012078649373826482,0.0009644157804800822,-0.0006039324686913241
1590503286.8856454,-0.06550137127185465,-4.373008227631128,8.712493143640726,0.4833333333333333,0.43333333333333335,-0.6607768635965413,0.0026723858345612953,-0.0018003195387842179,0.0006001065129280725
1590503286.8956454,-0.07617194183062446,-4.334609352723125,8.77234388366125,0.4833333333333333,0.43333333333333335,-0.6644444444444444,0.0038605207462089433,0.0011760567974391503,0.0
1590503286.9056454,-0.07414296766933158,-4.33,8.731286193233771,0.4833333333333333,0.43333333333333335,-0.6644444444444444,0.00205701126527454,0.001605083598815091,0.0
1590503286.9156454,-0.05482987237468331,-4.371361021002533,8.649319489498733,0.4833333333333333,0.43333333333333335,-0.6644444444444444,-0.0005639734363130755,0.0005268573461833805,0.0
1590503286.9256454,-0.054150212856124674,-4.389248935719377,8.659051489992873,0.4833333333333333,0.43333333333333335,-0.6644444444444444,0.0002673231987155417,-0.0009054359874746651,0.0009054359874746651
1590503286.9356453,-0.06,-4.368254002210575,8.708254002210575,0.486084667403525,0.43333333333333335,-0.6644444444444444,0.0026318475494973683,-0.001281289595984,0.0008311036114795438
1590503286.9456453,-0.06,-4.359337646271472,8.740662353728528,0.49,0.43333333333333335,-0.6644444444444444,0.002709014060341642,-0.0005634782871477261,0.0005996040789467225
1590503286.9556453,-0.06,-4.34,8.71436097806907,0.49,0.43333333333333335,-0.6644444444444444,0.0011859725648871225,-9.514178239066655e-05,0.0016838170649400171
1590503286.9656453,-0.06843984261751915,-4.352659763926279,8.65578007869124,0.49,0.43333333333333335,-0.6644444444444444,-0.0009206440126615356,0.00017018676983492033,0.001090830782496456
1590503286.9756453,-0.07671658905295674,-4.37,8.663133643788173,0.49,0.43333333333333335,-0.6644444444444444,-0.001823496991730848,-0.0014489953557585197,0.0018071599290205838
1590503286.9856453,-0.0660361034606634,-4.373963896539337,8.709819482696682,0.482512639870142,0.4390589616679307,-0.6618018467515534,-0.001090830782496456,-0.0017492675286189575,0.0011105221656195958
1590503286.9956453,-0.0637540720823207,-4.372491855835358,8.74,0.4711111111111111,0.4477777777777778,-0.6577777777777778,0.00013768643363534045,-0.0002718193050752584,-0.0005436386101505169
1590503287.0056453,-0.06781797323135756,-4.355635946462716,8.724725812619504,0.4711111111111111,0.4477777777777778,-0.6577777777777778,0.0017056171714996211,0.0013288529792431015,0.0019436393682462664
1590503287.0156453,-0.06745225137786405,-4.351178377066796,8.67,0.4711111111111111,0.4477777777777778,-0.6577777777777778,0.0004064572600937867,0.0029945760851804856,-0.0001285409977849043
1590503287.0256453,-0.07505225680486964,-4.373298495463421,8.67494774319513,0.4711111111111111,0.4477777777777778,-0.6577777777777778,0.0005511157243828999,0.003463798033129897,-0.0018218515262505412
1590503287.0356452,-0.05,-4.372745155922924,8.713803875261661,0.4753289618855074,0.4408758401469474,-0.6527930450444003,-0.0006758923596768337,-0.0007143884811674365,0.0
1590503287.0456452,-0.0634056863344543,-4.34893712422297,8.735531437888515,0.4833333333333333,0.42777777777777776,-0.6433333333333333,0.0036439950964043946,0.0004874445104704942,-0.0004874445104704942
1590503287.0556452,-0.06632208775606788,-4.3554406959186895,8.684406959186893,0.4833333333333333,0.42777777777777776,-0.6433333333333333,0.003962125140885646,0.0015881737063620004,0.00040119798910017725
1590503287.0656452,-0.0629988072925541,-4.354332935764185,8.65599761458511,0.4833333333333333,0.42777777777777776,-0.6433333333333333,0.001236361622962417,0.0007637116519471695,0.0007637116519471695
1590503287.0756452,-0.06878455805753667,-4.356261519352512,8.701215441942463,0.4833333333333333,0.42777777777777776,-0.6433333333333333,-0.002039024885023476,-0.0002752208284870656,-0.0006830258054917608
1590503287.0856452,-0.056608545106040936,-4.3466957274469795,8.729912817659061,0.4792947779907527,0.4259420708038775,-0.6550818579662949,-0.004372833248104417,0.0007303905610371681,-0.0007208804429185755
1590503287.0956452,-0.06529525002319325,-4.363523749884034,8.73588575006958,0.4711111111111111,0.4222222222222222,-0.6788888888888889,-0.0016684529551278826,-0.0005132086098650294,-0.0016684529551278826
1590503287.1056452,-0.06,-4.376584932147871,8.693169864295742,0.4711111111111111,0.4222222222222222,-0.6788888888888889,-0.00011525951833771632,-0.00011525951833771632,0.00037252611374165366
1590503287.1156452,-0.06737794070254592,-4.363688970351273,8.671066911053819,0.4711111111111111,0.4222222222222222,-0.6788888888888889,0.0002860222995193938,-0.00011638194196913728,0.0017792573235043809
1590503287.1256452,-0.07503904240894001,-4.368346347469647,8.693307305060706,0.4711111111111111,0.4222222222222222,-0.6788888888888889,-0.0012712162908627127,-0.0016405050398941418,0.0009104452741301993
1590503287.1356452,-0.05542759620330107,-4.361809198734434,8.706381602531133,0.4711111111111111,0.4222222222222222,-0.6788888888888889,-0.001984308597875522,0.0004987718811442863,0.0001973529671173901
1590503287.1456451,-0.05105046960470637,-4.377899060790587,8.72,0.5022222222222222,0.42777777777777776,-0.6644444444444444,0.002296250023081971,0.0008616538663183379,0.00022917691617811806
1590503287.1556451,-0.05970832903292393,-4.360583341934152,8.72,0.5022222222222222,0.42777777777777776,-0.6644444444444444,0.00324067598056466,-0.0010271980486470393,0.0021180288311434953
1590503287.1656451,-0.052673977657066724,-4.36,8.6560438659424,0.5022222222222222,0.42777777777777776,-0.6644444444444444,0.0045790967704714405,0.00021577364048561652,0.0
1590503287.175645,-0.06154157761320145,-4.358458422386799,8.704624732839603,0.5022222222222222,0.42777777777777776,-0.6644444444444444,0.0016771814707666444,-0.0018453415021754003,0.0
1590503287.185645,-0.0652779602316833,-4.3523610198841585,8.73236101988416,0.49487682702706287,0.4290894554911991,-0.6694288197554454,-0.001090830782496456,-0.0005150946335452305,-0.00025754731677261525
1590503287.195645,-0.057875869706526716,-4.363937934853263,8.732124130293474,0.4711111111111111,0.43333333333333335,-0.6855555555555556,-0.0015203928382369891,-3.385128629024509e-05,-0.0006612687267559227
1590503287.205645,-0.07,-4.365924286999441,8.683318582994968,0.4711111111111111,0.43333333333333335,-0.6855555555555556,-0.0008478876045036154,0.0019387183870000716,0.00044459132016309887
1590503287.215645,-0.0655967232827296,-4.36,8.643209830151811,0.4711111111111111,0.43333333333333335,-0.6855555555555556,0.00013018482508675574,0.0,0.0006105078037916059
1590503287.225645,-0.06,-4.36,8.683362732411632,0.4711111111111111,0.43333333333333335,-0.6855555555555556,-0.001090830782496456,0.0,-0.0010922051861929883
1590503287.235645,-0.05901464200644528,-4.360985357993555,8.730985357993555,0.473738732427257,0.4339902386623698,-0.6828184500179036,-0.001090830782496456,0.0,-0.0028425488150299973
1590503287.245645,-0.05,-4.362812735577136,8.74,0.4977777777777778,0.44,-0.6577777777777778,-0.0006988263187763868,-0.0003920044637200692,0.0003068218550563176
1590503287.255645,-0.06013934574840064,-4.353379781916133,8.712961744670931,0.4977777777777778,0.44,-0.6577777777777778,0.000737354030448665,-0.0007221537672721234,-0.0007221537672721234
1590503287.265645,-0.08,-4.356166284457341,8.679168577713297,0.4977777777777778,0.44,-0.6577777777777778,0.0025998550575196924,0.0012545804775803415,0.0
1590503287.275645,-0.08208215373110411,-4.35,8.712082153731105,0.4977777777777778,0.44,-0.6577777777777778,0.002818236870733726,0.002591109132355905,0.0
1590503287.285645,-0.08768321670850916,-4.35,8.71768321670851,0.4977777777777778,0.44,-0.6577777777777778,0.0015962744886427892,0.0007581655592195,0.0
1590503287.295645,-0.06,-4.360068980468673,8.749448156250615,0.49,0.44,-0.6644444444444444,-0.001105879986220367,7.52460186195549e-06,0.0010983553843584115
1590503287.305645,-0.06,-4.368335402747394,8.683316778020851,0.49,0.44,-0.6644444444444444,-0.002909333562768934,0.0009092513901362387,0.002000082172632695
1590503287.315645,-0.07895062839857395,-4.368950628398574,8.642098743202853,0.49,0.44,-0.6644444444444444,0.0003434060535339414,0.0009763620979851422,0.0009763620979851422
1590503287.325645,-0.07139850192660882,-4.361398501926609,8.657202996146783,0.49,0.44,-0.6644444444444444,0.0028148336622117217,0.00015255289509254872,0.00015255289509254872
1590503287.335645,-0.052053347490983656,-4.36,8.724106694981968,0.49079852402427143,0.4393155508363388,-0.6659274176323771,0.0006428598524310897,0.0006428598524310897,0.00271252868490766
1590503287.345645,-0.0674106145762774,-4.36,8.754821229152554,0.4967707945574412,0.43419646180790755,-0.6770187771939781,-0.0027075760819005182,-0.0027075760819005182,-0.0014755162330068496
1590503287.355645,-0.07,-4.37,8.715070072289157,0.4977777777777778,0.43333333333333335,-0.6788888888888889,-0.002181661564992912,-0.0017632872180329217,0.0015092051294564462
1590503287.365645,-0.06999459167117361,-4.370005408328827,8.610048674959437,0.4977777777777778,0.43333333333333335,-0.6788888888888889,-0.0021804816506797737,-5.899571565692028e-07,0.0032719023903327988
1590503287.375645,-0.06430225281602002,-4.3735466207759695,8.70645337922403,0.4977777777777778,0.43333333333333335,-0.6788888888888889,0.000938605961159341,-0.0013254822727862912,0.001477707094123406
1590503287.385645,-0.07888402169378389,-4.351673967459324,8.728326032540677,0.4977777777777778,0.43333333333333335,-0.6788888888888889,0.004119854432182067,-0.0021207943905419725,-0.0009082292591436393
1590503287.395645,-0.057241585054728004,-4.362758414945272,8.755516829890544,0.4755555555555556,0.4477777777777778,-0.6577777777777778,0.0,-0.00018814160253616556,-0.0004890379958562624
1590503287.405645,-0.05371608780675903,-4.368141956096621,8.742129341449306,0.4755555555555556,0.4477777777777778,-0.6577777777777778,0.0,0.001776299267985663,0.0008881496339928315
1590503287.415645,-0.07306743298815836,-4.36,8.63840459792895,0.4755555555555556,0.4477777777777778,-0.6577777777777778,0.0003346050326728216,0.0013384201306912865,-0.0003346050326728216
1590503287.4256449,-0.07753239406742209,-4.36,8.69233802966289,0.4755555555555556,0.4477777777777778,-0.6577777777777778,0.0013600048335291421,0.0027482788237897064,-1.4134578365711074e-05
1590503287.4356449,-0.07011790910215843,-4.36,8.729410454489209,0.4755555555555556,0.4477777777777778,-0.6577777777777778,0.002168799677175819,-0.0021044902380903544,0.0032210447962209955
1590503287.4456449,-0.061151793178846274,-4.342303586357692,8.774241034105769,0.47162301919059835,0.4300813641354703,-0.6695753868726494,0.0012164719279519525,-0.000251282290910993,0.003272492347489368
1590503287.4556448,-0.06,-4.36,8.7290863296856,0.4711111111111111,0.42777777777777776,-0.6711111111111111,-0.0011007973795364619,-0.00108086418545645,0.0021517617738728945
1590503287.4656448,-0.0537913168181713,-4.36,8.639313024772743,0.4711111111111111,0.42777777777777776,-0.6711111111111111,-0.002181661564992912,-0.0003386311366753391,-0.001090830782496456
1590503287.4756448,-0.042373647445555405,-4.357626352554445,8.676615532118888,0.4711111111111111,0.42777777777777776,-0.6711111111111111,-0.001145962484830546,-0.001090830782496456,-0.0013497555525370474
1590503287.4856448,-0.05191499661148224,-4.35,8.731914996611483,0.4715366659136627,0.42969277438926,-0.6704727789072837,0.0018683209771657278,-0.0011952776451055174,-0.0018683209771657278
1590503287.4956448,-0.07274425938701094,-4.355488518774021,8.752744259387011,0.4755555555555556,0.4477777777777778,-0.6644444444444444,-0.0007914785210458171,-0.0015829570420916343,0.0004921262595951784
1590503287.5056448,-0.07598429510591673,-4.368661431701972,8.743937180423666,0.4755555555555556,0.4477777777777778,-0.6644444444444444,-0.0002920303007925136,0.0002920303007925136,-0.0009448156321001991
1590503287.5156448,-0.055168703192747345,-4.36,8.646891604256997,0.4755555555555556,0.4477777777777778,-0.6644444444444444,-0.0019937222133850283,0.002181661564992912,-0.00037587870321576736
1590503287.5256448,-0.07996748127709893,-4.36,8.679956641702798,0.4755555555555556,0.4477777777777778,-0.6644444444444444,-0.0010920131966280545,0.002181661564992912,-0.002179296736729715
1590503287.5356448,-0.08,-4.368127595172494,8.72063797586247,0.4755555555555556,0.4477777777777778,-0.6644444444444444,0.0006823354178687715,-0.00047808773555492977,-0.0004084953646276844
1590503287.5456448,-0.05,-4.3409825807245435,8.745087096377283,0.4833333333333333,0.43333333333333335,-0.6788888888888889,0.002181661564992912,0.00021436586012392784,-0.002288844495054876
1590503287.5556448,-0.05,-4.348355100103706,8.708224499481464,0.4833333333333333,0.43333333333333335,-0.6788888888888889,0.002181661564992912,0.001822800076792605,-0.0030930616033892147
1590503287.5656447,-0.06828650109643532,-4.36,8.64685399561426,0.4833333333333333,0.43333333333333335,-0.6788888888888889,-0.002181661564992912,0.001247092890101767,-0.0009039170475182269
1590503287.5756447,-0.06386369679491113,-4.36,8.68,0.4833333333333333,0.43333333333333335,-0.6788888888888889,-0.001970929595086814,-0.002640296437771075,-0.0002107319699060978
1590503287.5856447,-0.07853582737187757,-4.36,8.685124604198428,0.48382139087604076,0.43333333333333335,-0.6773433733369819,-0.0009311143251319871,-0.0001597164573644688,-0.0009311143251319871
1590503287.5956447,-0.06240340552234293,-4.357596594477657,8.75,0.49,0.43333333333333335,-0.6577777777777778,0.0005664890371777287,-0.0011329780743554573,0.0005664890371777287
1590503287.6056447,-0.07336260433452228,-4.351681302167261,8.731505676160127,0.49,0.43333333333333335,-0.6577777777777778,-0.001090830782496456,0.0019982599491202664,-0.001090830782496456
1590503287.6156447,-0.08855081385453821,-4.359275406927269,8.64797052380004,0.49,0.43333333333333335,-0.6577777777777778,-0.001090830782496456,0.0011698716253483112,-0.001090830782496456
1590503287.6256447,-0.06,-4.346722042820077,8.706722042820077,0.49,0.43333333333333335,-0.6577777777777778,0.001090830782496456,0.0025392312245494097,0.0
1590503287.6356447,-0.06,-4.369892910319551,8.73010708968045,0.4901308873872154,0.43333333333333335,-0.6580752491123583,0.001090830782496456,-2.3363343984290145e-05,0.0
1590503287.6456447,-0.0614834062362053,-4.358516593763795,8.74296681247241,0.5022222222222222,0.43333333333333335,-0.6855555555555556,0.001090830782496456,-0.0016962180093729252,-0.0004854435556199867
1590503287.6556447,-0.06989927364661504,-4.350100726353385,8.75979854729323,0.5022222222222222,0.43333333333333335,-0.6855555555555556,0.001090830782496456,0.001057868160432175,-0.003239529725425087
1590503287.6656446,-0.050753314910712215,-4.359623342544644,8.654143232008918,0.5022222222222222,0.43333333333333335,-0.6855555555555556,4.108695467592259e-05,0.001090830782496456,-0.00012326086402776777
1590503287.6756446,-0.06322247182802769,-4.344833707742041,8.68,0.5022222222222222,0.43333333333333335,-0.6855555555555556,-0.0005272757198610343,0.002181661564992912,-0.0030967337742023567
1590503287.6856446,-0.07854327616751594,-4.367814914251274,8.68,0.5022222222222222,0.43333333333333335,-0.6855555555555556,-0.003034136467778894,0.002181661564992912,-0.0022611135248964036
1590503287.6956446,-0.06,-4.3680887061440465,8.73713305921607,0.4711111111111111,0.4477777777777778,-0.65,-0.0007780960566258718,-0.000986585873872928,0.0002084898172470561
1590503287.7056446,-0.06,-4.353952681069057,8.715929021603587,0.4711111111111111,0.4477777777777778,-0.65,0.0015349056374651018,-0.00021558530917593671,0.0017504909466410385
1590503287.7156446,-0.05125313485963919,-4.358746865140361,8.662506269719279,0.4711111111111111,0.4477777777777778,-0.65,-0.0008174391665936956,-0.00013669580795138016,0.00013669580795138016
1590503287.7256446,-0.06,-4.355265577402381,8.688775962337303,0.4711111111111111,0.4477777777777778,-0.65,0.0007079071879540833,-0.001090830782496456,0.0012822925797676423
1590503287.7356446,-0.06,-4.378496261423428,8.727493769039048,0.4711111111111111,0.4477777777777778,-0.65,-0.0009814758272863433,-0.001090830782496456,0.002126984087387856
1590503287.7456446,-0.08574916856292665,-4.362833887624716,8.712833887624717,0.5102117004103701,0.43538002995118347,-0.6747954956531886,0.0007817015969789061,0.0007817015969789061,0.0003091291855175499
1590503287.7556446,-0.0800441832821226,-4.363982326687151,8.730088366564246,0.5166666666666667,0.43333333333333335,-0.6788888888888889,0.0028380878938592275,-0.0006564263288663156,0.0
1590503287.7656446,-0.04,-4.375640559440559,8.655812587412587,0.5166666666666667,0.43333333333333335,-0.6788888888888889,0.0012493445143865003,0.0009323170506064115,0.0
1590503287.7756445,-0.03896840911756656,-4.3510315908824335,8.694126363529733,0.5166666666666667,0.43333333333333335,-0.6788888888888889,0.0018440742381425894,0.0,0.00011252910895010749
1590503287.7856445,-0.030769050318645658,-4.359230949681355,8.726923798725418,0.5166666666666667,0.43333333333333335,-0.6788888888888889,-0.0008391596542362384,0.0,0.0010069404064097169
1590503287.7956445,-0.07,-4.35,8.718590104079235,0.4833333333333333,0.43333333333333335,-0.6711111111111111,0.001090830782496456,0.001090830782496456,-0.002964900773391933
1590503287.8056445,-0.06974503890310972,-4.35025496109689,8.70872519451555,0.4833333333333333,0.43333333333333335,-0.6711111111111111,0.0011186427237791544,0.001035206899931059,-0.001090830782496456
1590503287.8156445,-0.06,-4.36,8.661469789759455,0.4833333333333333,0.43333333333333335,-0.6711111111111111,0.0020213323736518077,-0.001170995378167008,-0.0008503369954847997
1590503287.8256445,-0.06,-4.36,8.679123682050633,0.4833333333333333,0.43333333333333335,-0.6711111111111111,9.559145944220467e-05,-0.0021338658352718096,0.002038274375829605
1590503287.8356445,-0.06627258135582552,-4.36,8.698817744067476,0.4833333333333333,0.43333333333333335,-0.6711111111111111,0.0,-0.003550126530722478,0.00012896411639856274
1590503287.8456445,-0.05488929354798659,-4.367555353226007,8.73266605967802,0.47409901272376953,0.43333333333333335,-0.6610373068097688,-0.002472483561468605,-0.001890839568517219,-0.001090830782496456
1590503287.8556445,-0.05716706443914081,-4.362832935560859,8.73283293556086,0.4711111111111111,0.43333333333333335,-0.6577777777777778,-0.0024906868964543185,0.000472780119573643,0.000472780119573643
1590503287.8656445,-0.06,-4.36,8.654125321006678,0.4711111111111111,0.43333333333333335,-0.6577777777777778,0.0019566602079047883,0.0041945721121697315,-0.002012910547176819
1590503287.8756444,-0.07792658598217848,-4.377926585982179,8.703779757946537,0.4711111111111111,0.43333333333333335,-0.6577777777777778,0.0012039179742714243,0.0014300923578213606,-0.0012039179742714243
1590503287.8856444,-0.06260914203047344,-4.388695428984763,8.718695428984764,0.4711111111111111,0.43333333333333335,-0.6577777777777778,0.0001423066221372865,0.0001423066221372865,-0.001090830782496456
1590503287.8956444,-0.05899478633728012,-4.37050260683136,8.77949739316864,0.4833333333333333,0.44,-0.6644444444444444,5.4825900314042506e-05,-0.000981178981868371,-0.0021268356646788693
1590503287.9056444,-0.041560577835576956,-4.378959614776282,8.763237496045832,0.4833333333333333,0.44,-0.6644444444444444,0.0012043192052650586,0.0010340865711121548,-0.0010340865711121548
1590503287.9156444,-0.06367386032125409,-4.364217426452497,8.667413271941232,0.4833333333333333,0.44,-0.6644444444444444,0.002812442487759483,0.00023002492986494286,-0.00023002492986494286
1590503287.9256444,-0.06951114195389005,-4.36048885804611,8.700488858046109,0.4833333333333333,0.44,-0.6644444444444444,5.332614049678102e-05,-0.0009308523610061128,-0.0020750092839993497
1590503287.9356444,-0.06142590022361015,-4.3685740997763896,8.70857409977639,0.4833333333333333,0.44,-0.6644444444444444,0.0009352891968282031,0.0017150368079881537,-0.0003110831713365057
1590503287.9456444,-0.05048070904584262,-4.350480709045843,8.74807716381663,0.4755555555555556,0.43333333333333335,-0.6711111111111111,0.0010383935600334932,0.001090830782496456,0.001090830782496456
1590503287.9556444,-0.06088749094858798,-4.36,8.702900072411296,0.4755555555555556,0.43333333333333335,-0.6711111111111111,-0.00029043073377202437,0.000994020537905781,0.001090830782496456
1590503287.9656444,-0.06983396848080664,-4.36,8.631826346711128,0.4755555555555556,0.43333333333333335,-0.6711111111111111,-0.003272492347489368,0.0,0.001090830782496456
1590503287.9756444,-0.06567146996943353,-4.36,8.677613830336231,0.4755555555555556,0.43333333333333335,-0.6711111111111111,-0.003272492347489368,0.0,0.001090830782496456
1590503287.9856443,-0.06150897145806042,-4.36,8.723401313961336,0.4755555555555556,0.43333333333333335,-0.6711111111111111,-0.003272492347489368,0.0,0.001090830782496456
1590503287.9956443,-0.06,-4.367592140382759,8.74,0.492426978628353,0.43333333333333335,-0.6609882572674327,-0.0016161442605798194,0.0,-0.001393691347867867
1590503288.0056443,-0.04969774217042972,-4.36,8.757279679533868,0.4977777777777778,0.43333333333333335,-0.6577777777777778,0.0,-0.0010578595680218726,0.0010248883535472894
1590503288.0156443,-0.040605858451088606,-4.3609087876766335,8.671211716902176,0.4977777777777778,0.43333333333333335,-0.6577777777777778,6.608890482830733e-05,6.608890482830733e-05,-0.0010577863300823022
1590503288.0256443,-0.05332433743707926,-4.3799865061556185,8.69664867487416,0.4977777777777778,0.43333333333333335,-0.6577777777777778,0.0014534597432735996,0.0014534597432735996,-0.00036410091085965616
1590503288.0356443,-0.07425719906993382,-4.3686142013951,8.724257199069934,0.4977777777777778,0.43333333333333335,-0.6577777777777778,0.002181661564992912,-0.0009287767585398191,-0.0007776095808831828
1590503288.0456443,-0.06614231138531941,-4.36,8.757715377229362,0.47930085962487035,0.4379525628715602,-0.6623970073160046,-8.579743227872614e-05,8.579743227872614e-05,-0.001090830782496456
1590503288.0556443,-0.06,-4.36957310565635,8.7125613660619,0.4711111111111111,0.44,-0.6644444444444444,-0.001090830782496456,0.001090830782496456,-0.002135094615900214
1590503288.0656443,-0.06,-4.362915862500652,8.63915862500652,0.4711111111111111,0.44,-0.6644444444444444,-0.0026363498328417037,0.0018635903076690797,-0.0014089020398202882
1590503288.0756443,-0.07008195173533745,-4.360040975867669,8.680081951735337,0.4711111111111111,0.44,-0.6644444444444444,-0.00216825224365515,0.001090830782496456,8.93954755850791e-06
1590503288.0856442,-0.0859220514369878,-4.367961025718494,8.695922051436987,0.4711111111111111,0.44,-0.6644444444444444,0.00042357800920082194,0.001090830782496456,0.0017368263827958225
1590503288.0956442,-0.060252856162925465,-4.36,8.730252856162926,0.49,0.44,-0.6644444444444444,-0.002154079236386608,0.001090830782496456,-0.001063248453890152
1590503288.1056442,-0.06964952435448109,-4.36017523782276,8.738598097417924,0.49,0.44,-0.6644444444444444,-0.0010717153013640884,0.0010525998202317206,3.8230962264735245e-05
1590503288.1156442,-0.050161435568538734,-4.37,8.660645742274156,0.49,0.44,-0.6644444444444444,3.5219777510373395e-05,-0.0010556110049860826,0.0020936121212169786
1590503288.1256442,-0.059373805706253155,-4.37,8.697495222825012,0.49,0.44,-0.6644444444444444,0.002045047162704375,0.0009542163802079191,-0.002930956341768027
1590503288.1356442,-0.07496573638068987,-4.362517131809655,8.729931472761379,0.49,0.44,-0.6644444444444444,-0.00026710132402462923,0.0019070850788356361,-0.000823729458471827
1590503288.1456442,-0.060004027195413735,-4.340008054390827,8.759991945609173,0.4755555555555556,0.44,-0.6644444444444444,0.0010899521847515699,0.002181222266120469,-0.001090830782496456
1590503288.1556442,-0.06994006585648971,-4.35988013171298,8.740119868287021,0.4755555555555556,0.44,-0.6644444444444444,-0.0010777551807637385,0.0010973685833628147,-0.001090830782496456
1590503288.1656442,-0.07,-4.36,8.633342385956626,0.4755555555555556,0.44,-0.6644444444444444,-0.00019586610106462124,0.00019586610106462124,-0.00019586610106462124
