time,acc_x,acc_y,acc_z,mag_x,mag_y,mag_z,gyr_x,gyr_y,gyr_z
1590503613.035657,-0.23,-4.3,8.81,0.5044444444444445,0.25,-0.6855555555555556,-0.004363323129985824,-0.003272492347489368,-0.002181661564992912
1590503613.045657,-0.20389331507531433,-4.3,8.792595543383543,0.5044444444444445,0.25,-0.6855555555555556,-0.004363323129985824,-0.004221758198982145,-0.002181661564992912
1590503613.055657,-0.23899652687007508,-4.296505209694887,8.741487844045263,0.5044444444444445,0.25,-0.6855555555555556,-0.003272492347489368,-0.001800439080674212,-0.00010946193795301857
1590503613.065657,-0.2553394686236804,-4.28,8.801357874494721,0.5044444444444445,0.25,-0.6855555555555556,-0.0038549380211778234,0.0,-7.406056488045462e-05
1590503613.075657,-0.25654308788598573,-4.28,8.813086175771971,0.5136628767484824,0.25,-0.6782576299815255,-0.00398623251535066,-0.0011312718439054933,-0.0003366495532261272
1590503613.085657,-0.25,-4.282726348653163,8.810905394612648,0.5311111111111111,0.25,-0.6644444444444444,-0.0029750938440206835,-0.002677695340551999,0.001090830782496456
1590503613.0956569,-0.2381207071072229,-4.29,8.784563299833707,0.5311111111111111,0.25,-0.6644444444444444,-0.002181661564992912,-0.0002269442250476142,0.0015227740612208769
1590503613.1056569,-0.22593505273050016,-4.29,8.70296752636525,0.5311111111111111,0.25,-0.6644444444444444,-0.0015342477435759906,0.0014145376932049166,0.0028290753864098333
1590503613.1156569,-0.23278490465837992,-4.29360754767081,8.731645286024861,0.5311111111111111,0.25,-0.6644444444444444,-0.0019676120243214863,0.0013946167552643174,0.005937412749443012
1590503613.1256568,-0.21509911973090962,-4.3,8.772450440134545,0.5278438575983841,0.25068067781515146,-0.6652612578226261,-0.005320503136010947,-0.0002673015529426655,0.008726646259971648
1590503613.1356568,-0.18,-4.3,8.775095925569458,0.5044444444444445,0.25555555555555554,-0.6711111111111111,-0.0023310952333041044,0.0002570119110251517,0.008726646259971648
1590503613.1456568,-0.18,-4.3,8.714852261866836,0.5044444444444445,0.25555555555555554,-0.6711111111111111,0.001090830782496456,0.004363323129985824,0.005988058067773134
1590503613.1556568,-0.19471068323395183,-4.295096438922016,8.699614244311936,0.5044444444444445,0.25555555555555554,-0.6711111111111111,0.001090830782496456,0.004898218666757463,0.000598014663631173
1590503613.1656568,-0.216391369257204,-4.29,8.739174107771612,0.5044444444444445,0.25555555555555554,-0.6711111111111111,0.0007422356660934732,0.006499939261691228,-0.0011358762157839633
1590503613.1756568,-0.2376465404208671,-4.29,8.810586161683467,0.5069932912514001,0.25555555555555554,-0.6630397628890847,-0.00041705408353426185,0.00914370034350591,0.0006737766989621942
1590503613.1856568,-0.24506427984154272,-4.294935720158457,8.840257119366171,0.5111111111111111,0.25555555555555554,-0.65,-1.4023685969757936e-05,0.007663862849414707,0.0
1590503613.1956568,-0.24650834403080873,-4.3,8.754916559691914,0.5111111111111111,0.25555555555555554,-0.65,0.0018007809836847785,0.0033243033089173125,-0.0007099502011883225
1590503613.2056568,-0.2220997519258389,-4.286049875962919,8.733950124037081,0.5111111111111111,0.25555555555555554,-0.65,0.003703384036922033,0.002181661564992912,-0.001090830782496456
1590503613.2156568,-0.1994375924154127,-4.274718796207706,8.75584361137688,0.5111111111111111,0.25555555555555554,-0.65,0.0060915930295671016,0.0016055715984658195,-0.001090830782496456
1590503613.2256567,-0.1947222487809542,-4.284166746342862,8.784166746342862,0.5111111111111111,0.25555555555555554,-0.6568210260169338,0.00609046317761383,0.001090830782496456,-0.0005757133492093352
1590503613.2356567,-0.21920190634692488,-4.306400635448974,8.8,0.5111111111111111,0.25555555555555554,-0.6644444444444444,0.005759725165041806,0.003185433835080429,-0.0006982010175279911
1590503613.2456567,-0.23653850698300918,-4.296922986033982,8.747691944135926,0.5111111111111111,0.25555555555555554,-0.6644444444444444,0.004405263288388398,0.00507656359884927,-0.001090830782496456
1590503613.2556567,-0.23411720332772964,-4.28411720332773,8.743531186689081,0.5111111111111111,0.25555555555555554,-0.6644444444444444,6.39244988492574e-05,0.0022455860638421698,0.0008343099266876102
1590503613.2656567,-0.23,-4.289744720187727,8.779489440375453,0.5111111111111111,0.25555555555555554,-0.6644444444444444,-0.000764349465314661,0.0007086560498391254,0.0011186774902342237
1590503613.2756567,-0.23,-4.3076397639195045,8.81527952783901,0.5111111111111111,0.25555555555555554,-0.6644444444444444,0.0018383791422512262,0.002010020353622069,-0.0008333689654401928
1590503613.2856567,-0.23768034094726234,-4.303041022841787,8.807680340947263,0.5311111111111111,0.25,-0.6577777777777778,0.002940768214879753,0.0022603501476402463,-0.0019286260150306314
1590503613.2956567,-0.23,-4.28407899242799,8.775526045432061,0.5311111111111111,0.25,-0.6577777777777778,0.00545415391248228,-0.0008683562573953942,-0.001090830782496456
1590503613.3056567,-0.22206417516043792,-4.3,8.707775386938467,0.5311111111111111,0.25,-0.6577777777777778,0.00545415391248228,-0.00043283210097471683,-0.00195649498444589
1590503613.3156567,-0.21826481624544752,-4.3,8.75,0.5311111111111111,0.25,-0.6577777777777778,0.00545415391248228,-0.001391347981570154,-0.0026714579493419717
1590503613.3256567,-0.24308800945067927,-4.2969119905493205,8.762352037802717,0.5273368773380587,0.25377423377305247,-0.6581208899389643,0.006464702642114555,-0.0011711128353606368,-0.0017645299355846394
1590503613.3356566,-0.24499963431580488,-4.282499451473707,8.792500182842097,0.5188888888888888,0.26222222222222225,-0.6588888888888889,0.007635735697559848,0.001090830782496456,-0.003545219988092318
1590503613.3456566,-0.2243282792199201,-4.27134344156016,8.76029795453944,0.5188888888888888,0.26222222222222225,-0.6588888888888889,0.00560070065331302,-0.0001465467408307403,-0.0025072568449950295
1590503613.3556566,-0.22,-4.275115684178375,8.744652947464875,0.5188888888888888,0.26222222222222225,-0.6588888888888889,0.004946596080079855,0.0010403540373687184,-0.0016236269874627496
1590503613.3656566,-0.21643982134461684,-4.273560178655383,8.767120357310766,0.5188888888888888,0.26222222222222225,-0.6588888888888889,0.0036608475943372483,0.003272492347489368,-0.0029583720586886723
1590503613.3756566,-0.2144197350832422,-4.288839470166485,8.797678940332968,0.5154513171574783,0.26222222222222225,-0.6613442972684679,0.002434849898273776,0.0018261374237053321,-0.002434849898273776
1590503613.3856566,-0.22475149145436957,-4.3,8.80574552563689,0.5111111111111111,0.26222222222222225,-0.6644444444444444,0.0015549219423585507,0.0010366146282390339,-0.0005183073141195169
1590503613.3956566,-0.23,-4.290873245903521,8.753492983614084,0.5111111111111111,0.26222222222222225,-0.6644444444444444,0.0027747051318536275,0.004172810427535873,-0.0005930435668607156
1590503613.4056566,-0.23,-4.290252546641999,8.720252546642,0.5111111111111111,0.26222222222222225,-0.6644444444444444,0.0016224718911892542,0.004867415673567762,-0.0005591896738036577
1590503613.4156566,-0.2244299723967653,-4.297214986198383,8.74114005520647,0.5111111111111111,0.26222222222222225,-0.6644444444444444,0.000787032904048287,0.002361098712144861,-0.001090830782496456
1590503613.4256566,-0.2127941686432802,-4.29139708432164,8.764411662713439,0.5111111111111111,0.26222222222222225,-0.6644444444444444,0.0001523982583788205,0.00045719477513646127,-0.001090830782496456
1590503613.4356565,-0.2126747649812372,-4.282674764981238,8.812674764981237,0.5111111111111111,0.25,-0.6588888888888889,0.002181661564992912,-0.0015218627610031218,-0.0007990591847487483
1590503613.4456565,-0.22530847676618523,-4.284691523233815,8.761606755571963,0.5111111111111111,0.25,-0.6588888888888889,0.002181661564992912,0.002114362374544951,-0.0005790649864722084
1590503613.4556565,-0.22622398518181977,-4.27622398518182,8.71755202963636,0.5111111111111111,0.25,-0.6588888888888889,0.0038292588445264127,-0.0001448671771536699,-0.0019146294222632068
1590503613.4656565,-0.22171721011049875,-4.2717172101104985,8.735151630331497,0.5111111111111111,0.25,-0.6588888888888889,0.006732303259833352,-0.002181661564992912,-0.0034598109123439844
1590503613.4756565,-0.22538901993991814,-4.277694509969959,8.764610980060082,0.5082932899632833,0.24846300664663937,-0.660169716683356,0.007635815477475192,-0.002181661564992912,-0.004111833180635092
1590503613.4856565,-0.20840420590346692,-4.2731915881930655,8.783191588193066,0.4988888888888889,0.2433333333333333,-0.6644444444444444,0.007287667212870309,-0.0018335133003880297,-0.003098418215186927
1590503613.4956565,-0.20381893788443212,-4.282362124231136,8.769448496924543,0.4988888888888889,0.2433333333333333,-0.6644444444444444,0.004204409412248144,0.00041658150007804534,-0.0013484985648368213
1590503613.5056565,-0.21511588052880692,-4.280231761057613,8.72767382079321,0.4988888888888889,0.2433333333333333,-0.6644444444444444,0.002181661564992912,0.0013698587805162977,0.0002790279980198418
1590503613.5156565,-0.22188427629889584,-4.301884276298896,8.766231447402207,0.4988888888888889,0.2433333333333333,-0.6644444444444444,0.0017390175032228872,0.0026243056267629366,-0.00023710140281361816
1590503613.5256565,-0.21553582363747703,-4.2955358236374765,8.798303735456216,0.500426617677077,0.2433333333333333,-0.6644444444444444,0.001090830782496456,0.0026686276644662227,-0.0024835939065044844
1590503613.5356565,-0.24235366638078903,-4.305882111206404,8.811764222412808,0.5044444444444445,0.2433333333333333,-0.6644444444444444,0.001090830782496456,0.001090830782496456,-0.003272492347489368
1590503613.5456564,-0.24270211542148656,-4.288468076947657,8.76828721160606,0.5044444444444445,0.2433333333333333,-0.6644444444444444,0.002977737279527777,-0.00048159129836297795,-0.003586976763661255
1590503613.5556564,-0.2085572593800979,-4.277114518760196,8.72850766721044,0.5044444444444445,0.2433333333333333,-0.6644444444444444,0.006702363282913461,-0.0038965970327049584,-0.0029631448381432276
1590503613.5656564,-0.21552979848506504,-4.295529798485065,8.777764899242532,0.5044444444444445,0.2433333333333333,-0.6644444444444444,0.004722718900014276,-0.002541057335021364,-0.0013346424533191238
1590503613.5756564,-0.20354094611976561,-4.283540946119766,8.771770473059883,0.5044444444444445,0.2433333333333333,-0.6644444444444444,0.002761047518983169,-0.000579385953990257,-0.0019885329136628263
1590503613.5856564,-0.20955575673316304,-4.289555756733163,8.836890297132141,0.5044444444444445,0.2613830960515302,-0.6708149489332198,-0.0009454525133816968,0.0020847427189164057,-9.691884607650626e-05
1590503613.5956564,-0.22409872135503156,-4.281802557289937,8.772296164065095,0.5044444444444445,0.26222222222222225,-0.6711111111111111,-0.000768965962395428,0.005525546088196564,-0.001412695602597484
1590503613.6056564,-0.21307242248696087,-4.303855155026078,8.736144844973921,0.5044444444444445,0.26222222222222225,-0.6711111111111111,-0.00016757465128056182,0.01007043456856175,-0.0016789376111512266
1590503613.6156564,-0.22921707500144345,-4.2715658499971125,8.768434150002886,0.5044444444444445,0.26222222222222225,-0.6711111111111111,-0.0010481288480558818,0.005667663584685151,0.0009627249791747342
1590503613.6256564,-0.22,-4.28,8.77,0.5044444444444445,0.2607450354205477,-0.6696339243094366,-0.00013183861375342103,0.009421961201207842,-0.00026367722750684206
1590503613.6356564,-0.22,-4.28,8.77,0.5044444444444445,0.25100020276521057,-0.6598890916540994,-0.001001562894448567,0.006812788359122402,-0.002003125788897134
1590503613.6456563,-0.2176549245994345,-4.294690150801131,8.75320776390198,0.5044444444444445,0.25,-0.6588888888888889,-0.008888349586088067,0.004201619803869404,0.002181661564992912
1590503613.6556563,-0.2158876535461311,-4.279408230969246,8.719408230969247,0.5044444444444445,0.25,-0.6588888888888889,-0.009368889632451069,0.002181661564992912,0.0026948009624974093
1590503613.6656563,-0.20668503649635037,-4.286657481751825,8.756740145985402,0.5044444444444445,0.25,-0.6588888888888889,-0.009094264195941438,0.003275498103842597,0.002907880167872806
1590503613.6756563,-0.22185304598676395,-4.283706091973528,8.813706091973529,0.5106212644003243,0.25,-0.6560063729094783,-0.01220127456783538,0.00545415391248228,0.001777389644244183
1590503613.6856563,-0.23,-4.296948437473419,8.836103125053162,0.5377777777777778,0.25,-0.6433333333333333,-0.012424221722216069,0.006452775414094383,0.0003328738338707012
1590503613.6956563,-0.23,-4.289600756308632,8.845608319394954,0.5377777777777778,0.25,-0.6433333333333333,-0.010734104901659911,0.008552443336667,0.0012214829749749422
1590503613.7056563,-0.22107313149882232,-4.285951245667452,8.74,0.5377777777777778,0.25,-0.6433333333333333,-0.005895804498153227,0.004363323129985824,0.0030649627363348074
1590503613.7156563,-0.20380249114607177,-4.297465005902619,8.745069988194762,0.5377777777777778,0.25,-0.6433333333333333,-0.004225060650242314,0.004501585609729334,-0.0002765249594870193
1590503613.7256563,-0.23119052097047207,-4.278809479029528,8.78119052097047,0.5355290159446638,0.25,-0.6450529747351263,-0.0028828952709498215,0.005324288220302431,-0.0019219301806332142
1590503613.7356563,-0.23995548868409503,-4.270044511315905,8.789955488684095,0.5189729658189316,0.25,-0.657713483654804,-1.4566294067566016e-05,0.004368178561341679,-9.710862711710677e-06
1590503613.7456563,-0.24609679300291545,-4.288290379008746,8.728774344023323,0.5188888888888888,0.25,-0.6577777777777778,0.002420944678914292,0.0009043400621302979,0.000665056948208918
1590503613.7556562,-0.23590934976185546,-4.278181300476289,8.708634551667013,0.5188888888888888,0.25,-0.6577777777777778,0.001090830782496456,-0.0015370515025159087,-0.0008924414400389053
1590503613.7656562,-0.23,-4.286524032079143,8.770855807525141,0.5188888888888888,0.25,-0.6577777777777778,0.002228338624608729,-0.002940000126401094,-0.0006649844421765482
1590503613.7756562,-0.23,-4.28,8.811932176405032,0.5160979674149552,0.25,-0.6590658953811318,0.006049465129842788,-0.004574090879967944,0.001760126065028671
1590503613.7856562,-0.22346670600963903,-4.28326664699518,8.81020005901446,0.5044444444444445,0.25,-0.6644444444444444,0.012377297570378986,-0.006523161641850008,-0.0003563359097892426
1590503613.7956562,-0.2076496755126291,-4.29,8.773547728588403,0.5044444444444445,0.25,-0.6644444444444444,0.009626404675124874,-0.008726646259971648,-0.0008344501525285189
1590503613.8056562,-0.2153051762695224,-4.286938964746096,8.72612207050781,0.5044444444444445,0.25,-0.6644444444444444,0.005788061060608865,-0.007391017667465306,0.0
1590503613.8156562,-0.2474991173874669,-4.280833627537511,8.742500882612534,0.5044444444444445,0.25,-0.6644444444444444,0.006181246063357234,-0.004272388472080449,0.0
1590503613.8256562,-0.21985894685004748,-4.29,8.770141053149953,0.5046481878832648,0.25,-0.6646638604554816,0.002181661564992912,-0.00324171932390211,-3.0773023587258e-05
1590503613.8356562,-0.21237627651217594,-4.292376276512176,8.787128829536528,0.5188888888888888,0.25,-0.68,0.0011448153381109704,-0.001090830782496456,-0.0014040268948314555
1590503613.8456562,-0.21953891867891662,-4.299538918678916,8.80861675603675,0.5188888888888888,0.25,-0.68,-0.001980476885684163,-0.001090830782496456,0.0009399422730148946
1590503613.8556561,-0.22744494884477268,-4.297444948844772,8.725330306931365,0.5188888888888888,0.25,-0.68,0.0,0.0019029487198954028,0.002181661564992912
1590503613.8656561,-0.2203403008333898,-4.29034030083339,8.767958194999661,0.5188888888888888,0.25,-0.68,0.0,0.0011279518449335347,0.002181661564992912
1590503613.8756561,-0.22061225435669263,-4.299387745643307,8.801836763070078,0.5184126910559057,0.25122450871338525,-0.6790476043340338,-0.001090830782496456,0.002181661564992912,0.0021148749750931244
1590503613.885656,-0.23,-4.289544833719785,8.828179334879142,0.5111111111111111,0.27,-0.6644444444444444,-0.0009915289045739314,0.0020823596870703873,0.001090830782496456
1590503613.895656,-0.23248635878995674,-4.287459076369871,8.765136412100432,0.5111111111111111,0.27,-0.6644444444444444,0.0013620504529379995,0.0,0.0008196111120549125
1590503613.905656,-0.23359406680183545,-4.306797033400917,8.69,0.5111111111111111,0.27,-0.6644444444444444,0.0023563562930722587,-0.001048168368476079,0.00017469472807934652
1590503613.915656,-0.20408297071048062,-4.287958514644759,8.704290397486682,0.5111111111111111,0.27,-0.6644444444444444,0.003049800840738184,-0.006322293188227551,-2.2626751259463476e-05
1590503613.925656,-0.21926534496431405,-4.280367327517843,8.760367327517843,0.5111111111111111,0.2694694158075602,-0.6642403736011983,0.002141592348620798,-0.005494223128854394,-0.004203046264497368
1590503613.935656,-0.2022114815168593,-4.292211481516859,8.776634444550577,0.5111111111111111,0.25555555555555554,-0.6588888888888889,0.0006083603597940403,-0.005580043849573904,-0.00024123521135120782
1590503613.945656,-0.21110922146636432,-4.3003697404887875,8.797781557067273,0.5111111111111111,0.25555555555555554,-0.6588888888888889,-0.001090830782496456,-0.0022623264263339827,-0.0010504983518259206
1590503613.955656,-0.23719153878468877,-4.301574616354066,8.759659228507179,0.5111111111111111,0.25555555555555554,-0.6588888888888889,0.0010536583790797802,-0.004363323129985824,-0.0006127111890217818
1590503613.965656,-0.22780989903124574,-4.277809899031245,8.807809899031247,0.5111111111111111,0.25555555555555554,-0.6588888888888889,0.006544984694978735,-0.004841129040684316,-0.002181661564992912
1590503613.975656,-0.22065629690271524,-4.270656296902715,8.800656296902716,0.5111111111111111,0.25555555555555554,-0.6588888888888889,0.006544984694978735,-0.006401802922190962,-0.002181661564992912
1590503613.985656,-0.20194519691602417,-4.281945196916024,8.808328818503854,0.5255555555555556,0.25,-0.65,0.003938946995182556,-0.0052419658450806456,-0.00130301884989809
1590503613.995656,-0.2110159122508883,-4.29,8.752888614243782,0.5255555555555556,0.25,-0.65,0.0022924804005513347,-0.004474141965544246,-0.002181661564992912
1590503614.005656,-0.2177861518342625,-4.287786151834262,8.69885539266295,0.5255555555555556,0.25,-0.65,0.002789505602097414,-0.005937140657874234,-0.002181661564992912
1590503614.015656,-0.21056903434510288,-4.2805690343451035,8.72772386261959,0.5255555555555556,0.25,-0.65,0.001214974818483646,-0.007511671441488002,-0.002181661564992912
1590503614.025656,-0.22,-4.28,8.752013155566043,0.525140142502245,0.2503515033528012,-0.6502556388020373,-0.00012548640350823487,-0.008758017860848706,-0.002087546762361736
1590503614.035656,-0.22218983775381326,-4.282189837753814,8.817810162246188,0.5111111111111111,0.26222222222222225,-0.6588888888888889,-0.004124448886932583,-0.007906483098042176,0.0003742080533367323
1590503614.045656,-0.22771715805187537,-4.29,8.794020106363128,0.5111111111111111,0.26222222222222225,-0.6588888888888889,-0.0035215117743482224,-0.0015888696362141652,-0.0019326421381340574
1590503614.055656,-0.21575074354792287,-4.2878753717739615,8.744249256452077,0.5111111111111111,0.26222222222222225,-0.6588888888888889,-0.004363323129985824,-0.0025772093863922554,-0.0006273088084317142
1590503614.065656,-0.208908034736348,-4.278218393052731,8.767126427789078,0.5111111111111111,0.26222222222222225,-0.6588888888888889,-0.004557666300024946,0.0003886863400782435,0.0008964876124573343
1590503614.075656,-0.24992567673290567,-4.270014864653419,8.799940541386325,0.5111111111111111,0.26222222222222225,-0.6588888888888889,-0.005452532430330235,0.002178418600688823,1.6214821520444626e-06
1590503614.085656,-0.24841300191204588,-4.27,8.793365200764818,0.5044444444444445,0.25,-0.6644444444444444,-0.010735193188354225,0.007279157611687631,0.00382312203502104
1590503614.095656,-0.29260145572603025,-4.267398544273969,8.794391265643819,0.5044444444444445,0.25,-0.6644444444444444,-0.014562193958636513,0.01090830782496456,0.007254421691292606
1590503614.105656,-0.31,-4.252073106925419,8.706584855403348,0.5044444444444445,0.25,-0.6644444444444444,-0.010495899697364053,0.010003744285103295,0.012903702147322279
1590503614.115656,-0.308262343374831,-4.26,8.771737656625168,0.5044444444444445,0.25,-0.6644444444444444,-0.012710871522728824,0.006355435761364412,0.017878853206361425
1590503614.125656,-0.29900893355667224,-4.260396426577331,8.780792853154662,0.5045765866368882,0.25,-0.6645765866368881,-0.010843442677931688,0.005346045334094161,0.025197216575806602
1590503614.1356559,-0.257189718433437,-4.277124112626625,8.81424822525325,0.5101524819866529,0.25,-0.6701524819866528,-0.008106381448555711,0.0007842766184675311,0.029758985291433237
1590503614.1456559,-0.2353039118200859,-4.294696088179914,8.82,0.5111111111111111,0.25,-0.6711111111111111,-0.008437362745921823,0.0,0.03294790371524066
1590503614.1556559,-0.1993057294663102,-4.28861145893262,8.701388541067379,0.5111111111111111,0.25,-0.6711111111111111,-0.006544984694978735,-0.00225739473194582,0.03716397977183241
1590503614.1656559,-0.1922085349758029,-4.274417069951605,8.715582930048395,0.5111111111111111,0.25,-0.6711111111111111,-0.006544984694978735,-0.0030315785539067807,0.03793816359379337
1590503614.1756558,-0.18981148542503054,-4.300565543724908,8.80962297085006,0.5112577335583095,0.2501047303194275,-0.6708807044083707,-0.009838040792600696,0.004383886880118416,0.03706768285474691
1590503614.1856558,-0.18,-4.329265878626774,8.79146824274645,0.5188888888888888,0.25555555555555554,-0.6588888888888889,-0.010668067167363677,0.005293993474081692,0.03559701472638156
1590503614.1956558,-0.18314830697451026,-4.318425846512745,8.794258465127449,0.5188888888888888,0.25555555555555554,-0.6588888888888889,-0.007635815477475192,0.003272492347489368,0.029684694369764744
1590503614.2056558,-0.19753747984493467,-4.311231260077532,8.722312600775327,0.5188888888888888,0.25555555555555554,-0.6588888888888889,-0.007635815477475192,0.003272492347489368,0.02576065619433429
1590503614.2156558,-0.24418534567658065,-4.28,8.755580460902108,0.5188888888888888,0.25555555555555554,-0.6588888888888889,-0.00748363201416177,0.0034246758108027893,0.02493692453410506
1590503614.2256558,-0.26896947015954303,-4.28,8.788625960212723,0.5188888888888888,0.25555555555555554,-0.6588888888888889,-0.0065824558173871225,0.004325852007577437,0.024035748337330416
1590503614.2356558,-0.2570572166694901,-4.277983652380146,8.80294278333051,0.4988888888888889,0.2433333333333333,-0.6577777777777778,-0.011018282527562087,0.006435009992381208,0.02956240583000184
1590503614.2456558,-0.31922920548873457,-4.260220227003218,8.740770794511265,0.4988888888888889,0.2433333333333333,-0.6577777777777778,-0.01198712708774862,0.005466165432194674,0.030531250390188374
1590503614.2556558,-0.3579969186850035,-4.250003851643745,8.709996148356254,0.4988888888888889,0.2433333333333333,-0.6577777777777778,-0.018980287555775896,0.006108400292486498,0.03861440134239991
1590503614.2656558,-0.3962301490349377,-4.2062619105790375,8.753738089420963,0.4988888888888889,0.2433333333333333,-0.6577777777777778,-0.0211335471682437,0.008182963192223598,0.051126196716395705
1590503614.2756557,-0.4356435941288128,-4.182613843522712,8.777386156477288,0.4988888888888889,0.2433333333333333,-0.6577777777777778,-0.023713151117401673,0.004743491260012968,0.06402421646218556
1590503614.2856557,-0.533863927036377,-4.1408900304015095,8.826931963518188,0.4988888888888889,0.24854799594646537,-0.6473484525515137,-0.027411265914164738,0.005216570304796502,0.08422128479562227
1590503614.2956557,-0.56,-4.111416372202591,8.852389085198272,0.4988888888888889,0.25,-0.6444444444444445,-0.027010160794783168,-0.004681642713452841,0.10836827786645495
1590503614.3056557,-0.5437536910334894,-4.051261073100468,8.73815268275117,0.4988888888888889,0.25,-0.6444444444444445,-0.02529384008378404,-0.018883196090142645,0.13771335999722814
1590503614.3156557,-0.49165418423176965,-3.792831868328998,8.772756973719616,0.4988888888888889,0.25,-0.6444444444444445,-0.041503547836327453,-0.025149255833416304,0.16670849647942862
1590503614.3256557,-0.5198694950219751,-3.6705655215714414,8.819782491703291,0.4988888888888889,0.25,-0.6444444444444445,-0.0609963632165124,-0.026175193485004987,0.18209756125325882
1590503614.3356557,-0.57,-3.4,8.84,0.5188888888888888,0.23777777777777775,-0.65,-0.07417649320975901,-0.031634092692397225,0.19853120241435496
1590503614.3456557,-0.6231582627612462,-3.2617885168207597,8.765578432134255,0.5188888888888888,0.23777777777777775,-0.65,-0.08461409369527945,-0.03511329285423737,0.20375000265711518
1590503614.3556557,-0.6097763149056223,-2.9325628624526994,8.773606726226461,0.5188888888888888,0.23777777777777775,-0.65,-0.11643932880164992,-0.03598928240283196,0.20980854277985245
1590503614.3656557,0.026733907279997138,-2.458130831021937,8.350056554158712,0.5188888888888888,0.23777777777777775,-0.65,-0.10414241364466895,0.04942515335492686,0.23081265785094834
1590503614.3756557,-0.05221770458054554,-2.5705923829130213,8.488967061245496,0.5188888888888888,0.23777777777777775,-0.65,-0.15702107701782503,0.14335116516861957,0.2962552682830977
1590503614.3856556,-0.25458238141335915,-2.891076863504356,9.005021878025168,0.5113589760137679,0.23562637409917175,-0.663984123910939,-0.19156906206369628,-0.007958228308561188,0.35668008157702435
1590503614.3956556,-0.33405302651325663,-3.0234217108554278,8.814297148574287,0.5111111111111111,0.23555555555555555,-0.6644444444444444,-0.01875945188011513,-0.05277536458223749,0.37664100485896446
1590503614.4056556,-0.33150347213878945,-3.105621260542567,8.611371795179855,0.5111111111111111,0.23555555555555555,-0.6644444444444444,0.014123869484043365,-0.022672148647038096,0.3892127061019576
1590503614.4156556,-0.21568295362673354,-2.893054167789548,9.046739774870955,0.5111111111111111,0.23555555555555555,-0.6644444444444444,-0.0459878148365701,-0.03497546438157038,0.39311091051380787
1590503614.4256556,-0.2939364414685213,-2.7974110159829184,8.864148303240116,0.5111111111111111,0.23555555555555555,-0.6644444444444444,-0.0033071581488029744,-0.035923923419076305,0.48890527330190736
1590503614.4356556,-0.3395462094693002,-2.8888655236732506,8.919205866571275,0.5308842158457612,0.24983613119724726,-0.658951915351486,0.012941466786049632,-0.02413440460183755,0.6494686963374747
1590503614.4456556,-0.3468529955743444,-2.9311179734460664,8.926852995574345,0.5311111111111111,0.25,-0.6588888888888889,-0.012326589594385854,-0.0464246527893426,0.7386888418906246
1590503614.4556556,-0.4039318958406975,-3.0129205451474803,8.885056753466086,0.5311111111111111,0.25,-0.6588888888888889,-0.03282286303613585,-0.07339186279655294,0.8710210750573695
1590503614.4656556,-0.41,-3.049921714676598,8.690495807048212,0.5311111111111111,0.25,-0.6588888888888889,-0.019671959035856196,-0.08070724523130698,0.9727819490732019
1590503614.4756556,-0.43514624569276383,-3.0667641637951757,8.723528327590351,0.5311111111111111,0.25,-0.6588888888888889,-0.02237798397152478,-0.08895056756450345,1.041596805151553
1590503614.4856555,-0.46121958257189577,-3.1424391651437915,8.75,0.5255555555555556,0.2433333333333333,-0.68,-0.027037956875447886,-0.11000761425573953,1.1300143432840073
1590503614.4956555,-0.5004791143911439,-3.220718671586716,8.749281328413284,0.5255555555555556,0.2433333333333333,-0.68,-0.019582690812316526,-0.1049288082101385,1.1978434236688646
1590503614.5056555,-0.512860811808118,-3.2392912177121773,8.730708782287824,0.5255555555555556,0.2433333333333333,-0.68,-0.018232057144117297,-0.1103313428829354,1.2289079980374469
1590503614.5156555,-0.5399158909947293,-3.2433613696684236,8.86604986729468,0.5255555555555556,0.2433333333333333,-0.68,-0.026143239303101112,-0.1134464013796314,1.2736135869748524
1590503614.5256555,-0.5937848252646498,-3.24,8.794050582451167,0.5255555555555556,0.2433333333333333,-0.68,-0.01541868076167971,-0.10230197316515274,1.3230016997494993
1590503614.5356555,-0.5608179516225762,-3.1814723129206373,8.908200506430333,0.5455555555555556,0.21666666666666667,-0.68,-0.028432980089587768,-0.09179039015523212,1.3836552454820954
1590503614.5456555,-0.5957541480642367,-3.244357466515626,8.83134087425868,0.5455555555555556,0.21666666666666667,-0.68,-0.03148173836974029,-0.09865009628557528,1.404234363873125
1590503614.5556555,-0.6652286370710739,-3.389662046987327,8.827614318535536,0.5455555555555556,0.21666666666666667,-0.68,-0.04276577304030239,-0.10445951764179301,1.4367239022898914
1590503614.5656555,-0.6983161976591127,-3.2017866163862108,8.660102814045324,0.5455555555555556,0.21666666666666667,-0.68,-0.02896134577619646,-0.12479707215203903,1.448844460629015
1590503614.5756555,-0.7172071614142098,-3.1488286456568395,8.799007681012087,0.5455555555555556,0.21666666666666667,-0.68,-0.02054890837491333,-0.1299366380545513,1.4726410860978814
1590503614.5856555,-0.7069115335143633,-2.9963941689295415,8.794924967843361,0.5615525701491115,0.1912168707223731,-0.6741829037841615,-0.037481581757693366,-0.1337150880829538,1.5023871901619097
1590503614.5956554,-0.780341604233968,-3.11980479758059,8.948828785483538,0.57,0.17777777777777778,-0.6711111111111111,-0.05339215182015094,-0.14836363305991354,1.5514009221188598
1590503614.6056554,-0.8476087703622242,-3.081366416935872,8.718198501615232,0.57,0.17777777777777778,-0.6711111111111111,-0.04186146539009305,-0.15046012150174226,1.5985719120600057
1590503614.6156554,-0.8977028301886792,-3.2421896226415092,8.633675471698114,0.57,0.17777777777777778,-0.6711111111111111,-0.016474426255499306,-0.13076107606334617,1.6460401876344717
1590503614.6256554,-0.8844821231109473,-3.234482123110947,8.932598599336528,0.57,0.17777777777777778,-0.6711111111111111,-0.04066269763930394,-0.15181445424351803,1.6702509034785846
1590503614.6356554,-0.9870311199334059,-3.278650509060639,8.71836684382404,0.5775678569649882,0.16047981900066166,-0.7197616201717502,-0.021461817996110154,-0.1348198954003003,1.7264922171924728
1590503614.6456554,-1.0356180074587107,-3.270876398508258,8.910719232818327,0.5777777777777777,0.16,-0.7211111111111111,-0.03366378182818245,-0.1311864946407372,1.775647025175616
1590503614.6556554,-1.0597761873780092,-3.2205595315549775,8.653133376707872,0.5777777777777777,0.16,-0.7211111111111111,-0.03059209024941655,-0.1395286834805148,1.842796011496032
1590503614.6656554,-1.0936963006554516,-3.287392601310903,8.784785202621807,0.5777777777777777,0.16,-0.7211111111111111,-0.024110793557936896,-0.14973450471263244,1.8940448451844414
1590503614.6756554,-1.1277685695250166,-3.26667771656998,8.771124002664976,0.5777777777777777,0.16,-0.7211111111111111,-0.025936527474803687,-0.15223129497548302,1.9362137907139993
1590503614.6856554,-1.1834702965751538,-3.24,8.840410889725462,0.5777777777777777,0.12876105652985645,-0.7032602862710291,-0.029822017537046393,-0.15928818691412727,1.9879618785735487
1590503614.6956553,-1.2382586032853078,-3.297387904927962,8.992022942094154,0.5777777777777777,0.11333333333333333,-0.6944444444444444,-0.045845604701509855,-0.1729672021317054,2.011712631674216
1590503614.7056553,-1.277456261057598,-3.2950874778848043,8.875437389424022,0.5777777777777777,0.11333333333333333,-0.6944444444444444,-0.043116442979469705,-0.1741357916021883,2.0399350485637036
1590503614.7156553,-1.3857114246700044,-3.3604742831133363,8.920474283113336,0.5777777777777777,0.11333333333333333,-0.6944444444444444,-0.036646849897715474,-0.18305153409123617,2.0498526633878718
1590503614.7256553,-1.4302017646695873,-3.339798235330413,8.899798235330413,0.5777777777777777,0.11333333333333333,-0.6944444444444444,-0.04917542165730289,-0.17611414859507613,2.046643744269925
1590503614.7356553,-1.3799237012059211,-3.18410041721438,8.82992370120592,0.6044783550195907,0.07328246747061402,-0.7068411410210005,-0.04408884033903547,-0.16595260001430379,2.0322011019762476
1590503614.7456553,-1.484601797334986,-3.221708660103454,8.837631045743844,0.6088888888888889,0.06666666666666668,-0.7088888888888889,-0.0329261568048677,-0.1608689506719672,2.007918725687168
1590503614.7556553,-1.581377792450754,-3.2869644547155277,8.807448883019699,0.6088888888888889,0.06666666666666668,-0.7088888888888889,-0.05027566690594412,-0.16922906512866803,1.9747653818827433
1590503614.7656553,-1.5090607854853604,-3.109027649519257,8.736342549839753,0.6088888888888889,0.06666666666666668,-0.7088888888888889,-0.02378975782095141,-0.1474526021650754,1.9440509009367388
1590503614.7756553,-1.51445467819836,-3.0610906436032796,8.513179827024599,0.6088888888888889,0.06666666666666668,-0.7088888888888889,-0.015995502488477177,-0.13956183129658056,1.9125087181734663
1590503614.7856553,-1.6642711864406778,-3.185254237288136,9.025118644067797,0.6088888888888889,0.02659133709981168,-0.7329340866290018,-0.06237703210146684,-0.1649853825539894,1.8423022596925316
1590503614.7956553,-1.7834508961956916,-3.2376185077075244,8.760838057559164,0.6088888888888889,0.022222222222222227,-0.7355555555555555,-0.023518425350911643,-0.13618548520026985,1.8009880946724302
1590503614.8056552,-1.8360478734572943,-3.249209574691459,9.025496815435224,0.6088888888888889,0.022222222222222227,-0.7355555555555555,-0.03679952497486242,-0.14321366505749328,1.754577175041224
1590503614.8156552,-1.8770489597847497,-3.166639840484313,8.818444001345314,0.6088888888888889,0.022222222222222227,-0.7355555555555555,-0.02403412635993849,-0.13893789506544738,1.7123899674037673
1590503614.8256552,-1.9080146444117732,-3.1712058577647095,8.82241171552942,0.6088888888888889,0.022222222222222227,-0.7355555555555555,-0.022296261702724484,-0.12997892316123466,1.6836620775245004
1590503614.8356552,-1.9473596933935415,-3.18,8.935478313664479,0.596833546254485,0.008720238471689921,-0.7423065474308217,-0.03175827181232624,-0.12941823699882155,1.635585623612741
1590503614.8456552,-1.9166061422413794,-3.0732122844827585,8.880402478448277,0.5811111111111111,-0.008888888888888889,-0.7511111111111111,-0.03784072001588716,-0.13214980008188612,1.574271998130268
1590503614.8556552,-1.87637707948244,-2.9436229205175604,8.711836105976587,0.5811111111111111,-0.008888888888888889,-0.7511111111111111,-0.032925211566812315,-0.12296344628422158,1.5139460977514816
1590503614.8656552,-1.9246880790611487,-2.9126559604694258,8.643279802347129,0.5811111111111111,-0.008888888888888889,-0.7511111111111111,-0.02670817308101267,-0.10800909167317904,1.4459807601133228
1590503614.8756552,-2.005264731850417,-2.944211785480334,8.740267722366209,0.5811111111111111,-0.008888888888888889,-0.7511111111111111,-0.02856276605698283,-0.11433671887938936,1.3681587652049298
1590503614.8856552,-2.1144128550735313,-2.928469715941175,8.87,0.5753855239934639,-0.033938332528595475,-0.7740134595817,-0.039122396546048044,-0.1110783952469969,1.2794474255088
1590503614.8956552,-2.0680792571712816,-2.7634654286188027,8.797181561930028,0.5722222222222222,-0.04777777777777778,-0.7866666666666666,-0.013650161911852352,-0.09161611190991176,1.1778056816371467
1590503614.9056551,-2.124891505689336,-2.84084810796507,9.010631119343742,0.5722222222222222,-0.04777777777777778,-0.7866666666666666,-0.014447590421388129,-0.07992110715793513,1.1131250515566355
1590503614.9156551,-2.0499893786510888,-2.732841969501555,8.823541840528033,0.5722222222222222,-0.04777777777777778,-0.7866666666666666,-0.006076492694393618,-0.06217619599286359,1.011816681108954
1590503614.9256551,-2.305236665524815,-2.975236665524815,9.164198117959982,0.5722222222222222,-0.04777777777777778,-0.7866666666666666,-0.0008790697701731068,-0.0660851299867574,0.9224489498038312
1590503614.935655,-2.216681895691902,-2.785420031530517,8.878130047295775,0.5527881270801382,-0.0835774267237219,-0.8132606915979395,-0.04820053462700211,-0.06570980588308908,0.8113077898101039
1590503614.945655,-2.183575084259144,-2.7271501685182873,8.774300337036575,0.5511111111111111,-0.08666666666666667,-0.8155555555555556,-0.00040114685872358335,-0.0502205638132562,0.7439209943382653
1590503614.955655,-2.3034503727989,-2.9228113267410505,9.112715350854,0.5511111111111111,-0.08666666666666667,-0.8155555555555556,-0.03526202363550518,-0.037286904593083064,0.6625630089873473
1590503614.965655,-1.9683978418953787,-2.4929171944639927,7.894232230823364,0.5511111111111111,-0.08666666666666667,-0.8155555555555556,0.02758535257062185,-0.0005201085265076968,0.6016299469862617
1590503614.975655,-1.9628193615843532,-2.4920880742973126,7.983339073743772,0.5511111111111111,-0.08666666666666667,-0.8155555555555556,0.03381863916566538,0.009267734288806995,0.5753522186023143
1590503614.985655,-2.138945710661009,-2.734209282995757,9.006837131983026,0.5488306089019156,-0.0950869825160039,-0.8166080950367227,-0.0010888265437780133,0.009015304355396693,0.4833547596912945
1590503614.995655,-2.2177374100719423,-2.7506330935251797,9.228370503597121,0.5366666666666666,-0.14,-0.8222222222222222,-0.052028704473345344,-0.05516817824699792,0.3101361401744699
1590503615.005655,-2.1111989970366993,-2.6100273535445635,8.614251196717573,0.5366666666666666,-0.14,-0.8222222222222222,-0.009564847893843438,0.0064052429808772945,0.233194109732143
1590503615.015655,-2.1382816970741163,-2.6112112728055874,8.65166200043073,0.5366666666666666,-0.14,-0.8222222222222222,0.01923242433675104,0.04775380825103605,0.13123154433729817
1590503615.025655,-2.1509398034398033,-2.6214619164619166,8.705116707616707,0.5366666666666666,-0.14,-0.8222222222222222,0.022121485432506447,0.05041474134263873,0.11646561729236425
1590503615.035655,-2.24,-2.76,9.042674475462304,0.5370659228307254,-0.1679479314841157,-0.8122408181207523,-0.03668112466098546,0.0004222750653169599,-0.038738094220413404
1590503615.045655,-2.2298156127479527,-2.7549078063739763,8.917489227902644,0.5377777777777778,-0.21777777777777774,-0.7944444444444444,-0.015392312129210502,0.05118859266116002,-0.134461482311115
1590503615.055655,-2.1733678756476684,-2.687823834196891,8.853108808290155,0.5377777777777778,-0.21777777777777774,-0.7944444444444444,-0.016729839980256525,0.04916651283386876,-0.21902525639016923
1590503615.065655,-2.135286372139876,-2.656431860699381,8.818018419916534,0.5377777777777778,-0.21777777777777774,-0.7944444444444444,-0.015459061082206214,0.05876554547261469,-0.2938277273630735
1590503615.075655,-2.107394106119988,-2.625656843533313,8.91195979047332,0.5377777777777778,-0.21777777777777774,-0.7944444444444444,-0.020915290818115082,0.053594009371410706,-0.3687446662732551
1590503615.085655,-2.1373162663598446,-2.6373162663598446,8.841789155760104,0.5222103967911533,-0.22273103536443103,-0.7852455374978027,-0.01873928992021993,0.05058015882020098,-0.4480677256538822
1590503615.095655,-2.217125071683593,-2.746578241485839,9.020281554655272,0.5133333333333333,-0.2255555555555556,-0.78,-0.02857126295715304,0.05903951852155666,-0.5190429220560482
1590503615.105655,-2.152733890145583,-2.6684046749028476,8.667947914854127,0.5133333333333333,-0.2255555555555556,-0.78,-0.01149921404230263,0.06092910911144058,-0.5901892781227186
1590503615.115655,-2.1818161392997566,-2.7609052611870437,8.75180911814267,0.5133333333333333,-0.2255555555555556,-0.78,0.011106571068197743,0.07804362210906235,-0.6667941604918137
1590503615.125655,-2.2273292491762375,-2.861552832784158,8.955093413097028,0.5133333333333333,-0.2255555555555556,-0.78,-0.007642498163896635,0.07499636984750695,-0.7320082622670768
1590503615.135655,-2.233495432563138,-2.8852431488447072,8.907411337990329,0.5231230969013075,-0.22033434831930268,-0.785656307839274,-0.026386337914405297,0.06248984743460235,-0.7962677851226574
1590503615.145655,-2.3232309023206827,-3.036769097679317,8.938770827848197,0.5633333333333334,-0.1988888888888889,-0.8088888888888889,0.0020140592124710775,0.07805329768706334,-0.8933894672038611
1590503615.155655,-2.1924245756633995,-2.9363449677265123,8.756477647621326,0.5633333333333334,-0.1988888888888889,-0.8088888888888889,0.015862447646517192,0.08983235320485529,-0.958916587283674
1590503615.165655,-2.1740632790028767,-2.9557056567593483,8.712968360498563,0.5633333333333334,-0.1988888888888889,-0.8088888888888889,0.023793916395267373,0.09879716102742662,-0.9927595520981097
1590503615.175655,-2.1129091255477235,-2.962076586016384,8.521234520861116,0.5633333333333334,-0.1988888888888889,-0.8088888888888889,0.029952438531231036,0.1069922326594957,-1.072198960472314
1590503615.1856549,-2.0033826920742808,-2.9427903871829106,8.657408666100254,0.5504663456999905,-0.21579978692128224,-0.8041097220536473,0.028738671114242713,0.10292324062910334,-1.1437105887470083
1590503615.1956549,-2.01070294255021,-3.07619803829986,9.197826950023353,0.5244444444444445,-0.25,-0.7944444444444444,0.0025057009753935364,0.08127555472676712,-1.2300250701088014
1590503615.2056549,-2.0218055711467837,-3.0580555511009186,8.82152781564219,0.5244444444444445,-0.25,-0.7944444444444444,-0.012680923153173877,0.0697222573101301,-1.310466517589585
1590503615.2156549,-1.9817100669188246,-3.0802604015129473,8.697769130055281,0.5244444444444445,-0.25,-0.7944444444444444,0.024444273711024193,0.10025510882199516,-1.3548809410845981
1590503615.2256548,-2.0112889669586873,-3.189609107484324,8.828436429937296,0.5244444444444445,-0.25,-0.7944444444444444,0.00684751354164744,0.1035522794918596,-1.4320689385029106
1590503615.2356548,-2.034729579491204,-3.259459158982408,8.907560656595383,0.517417217099383,-0.21193585188091763,-0.7528666826528313,0.010451387338280249,0.09933965014787667,-1.5020011513045042
1590503615.2456548,-2.050505186180136,-3.37986617914086,8.758350620600451,0.5111111111111111,-0.17777777777777778,-0.7155555555555555,0.027656520407740158,0.12210334278473568,-1.5599139310510526
1590503615.2556548,-1.9905797101449276,-3.3914057971014495,8.887188405797101,0.5111111111111111,-0.17777777777777778,-0.7155555555555555,0.02657674823847525,0.12232639631482359,-1.6104171979121809
1590503615.2656548,-1.887367989007263,-3.3129319913628494,8.89368399450363,0.5111111111111111,-0.17777777777777778,-0.7155555555555555,0.031962215962196824,0.1307439248912135,-1.6434063895705366
1590503615.2756548,-1.7058963941086847,-3.031792788217369,9.25302353140342,0.5111111111111111,-0.17777777777777778,-0.7155555555555555,0.05280751152237795,0.14302212882537782,-1.6771322916671223
1590503615.2856548,-1.6884877287853577,-3.023779534109817,10.040171381031612,0.5240167775929007,-0.1395571501201701,-0.6996716583471991,0.14632113258449236,0.049196264100135875,-1.7211884952179666
1590503615.2956548,-1.5352524947081947,-2.936074992440278,9.323565920774115,0.54,-0.09222222222222222,-0.68,0.010814628979416041,0.11064634398473674,-1.75102246838326
1590503615.3056548,-1.4945725722068128,-3.0505891145841986,9.957368997990333,0.54,-0.09222222222222222,-0.68,-0.17888900136778513,0.2337863119566064,-1.761849226442883
1590503615.3156548,-1.6159986900040026,-3.3702834685782905,10.204835340780903,0.54,-0.09222222222222222,-0.68,0.008730933211847841,0.17294234697136934,-1.7477909944152337
1590503615.3256547,-1.4548013871374526,-3.194560739806642,8.656004623791508,0.54,-0.09222222222222222,-0.68,0.09014897950352646,0.022812875667864885,-1.7594483805651668
1590503615.3356547,-1.6104288706406462,-3.494198610326141,9.43548522224808,0.5502708792771627,-0.0542989756603906,-0.6641986472659035,-0.0029597747093542265,0.0967588917249162,-1.754203644010739
1590503615.3456547,-1.5461030546127739,-3.432132498787852,8.88730462379336,0.5544444444444444,-0.03888888888888889,-0.6577777777777778,0.01090830782496456,0.1538071403320003,-1.7409659288643438
1590503615.3556547,-1.5109853346844564,-3.4313501379271516,8.657517874232957,0.5544444444444444,-0.03888888888888889,-0.6577777777777778,0.011366136806060472,0.1327470072015883,-1.7322671782235213
1590503615.3656547,-1.5358048241576137,-3.5242316332167185,8.82026219849015,0.5544444444444444,-0.03888888888888889,-0.6577777777777778,0.012656971231072208,0.10497319100280358,-1.7194107028627923
1590503615.3756547,-1.382995863775175,-3.3339669102013993,8.758099269395801,0.5544444444444444,-0.03888888888888889,-0.6577777777777778,0.04395100549974587,0.1434600396230528,-1.6850112728357742
1590503615.3856547,-1.3943443496801704,-3.4073773987206826,8.650820895522388,0.5597542051646529,-0.02054607912816868,-0.6626048329779674,0.04909610720687008,0.1148233135826973,-1.6713940672998882
1590503615.3956547,-1.3476696057713329,-3.4232522043284996,8.724562413466442,0.5788888888888889,0.045555555555555564,-0.68,0.04041383776186444,0.12159063000910308,-1.6225788740353158
1590503615.4056547,-1.3176215407629022,-3.4849618548990273,8.72258339566193,0.5788888888888889,0.045555555555555564,-0.68,0.05004147460430114,0.11609393009257157,-1.577318956393809
1590503615.4156547,-1.3237521728333748,-3.5429202880556243,8.857079711944376,0.5788888888888889,0.045555555555555564,-0.68,0.04435918771830634,0.11444459145499757,-1.5359842786169646
1590503615.4256546,-1.287360524002846,-3.538111580797723,8.984141589586908,0.5788888888888889,0.045555555555555564,-0.68,0.03606062493042165,0.11457937156748696,-1.4947073757077933
1590503615.4356546,-1.275195889778325,-3.6116660252463055,8.951962746305417,0.5734859058565955,0.059738386015325676,-0.68,0.027302717000276228,0.09415375926361746,-1.4553823662590903
1590503615.4456546,-1.3036453093445934,-3.742709381310813,8.708620892234258,0.5611111111111111,0.09222222222222222,-0.68,0.04612117459768575,0.08414981466473652,-1.4013413821020635
1590503615.4556546,-1.2278465731095434,-3.680477803530041,8.82664875327917,0.5611111111111111,0.09222222222222222,-0.68,0.029734314048200195,0.09941168246063153,-1.3170240177467851
1590503615.4656546,-1.2130538836683715,-3.6681436897823243,8.640179612227906,0.5611111111111111,0.09222222222222222,-0.68,0.028185240501971107,0.08633239900544556,-1.259916093318489
1590503615.4756546,-1.1455781901828532,-3.690540956762447,8.765970213263676,0.5611111111111111,0.09222222222222222,-0.68,0.0281926957305882,0.0887887518518775,-1.2050118115622135
1590503615.4856546,-0.9971256808138937,-3.5736440242523893,8.833481656561505,0.5746782904577581,0.11361662042270407,-0.6758254832779548,0.043681769962772725,0.09189478665148029,-1.144648165126065
1590503615.4956546,-1.0205007431119242,-3.558400594489539,8.974951411912656,0.59,0.13777777777777778,-0.6711111111111111,0.03322101640421469,0.08066685530467675,-1.0980736394972368
1590503615.5056546,-1.020133813856522,-3.697638702587391,8.998173958013478,0.59,0.13777777777777778,-0.6711111111111111,0.02072578486743266,0.07679302740501232,-1.0664560199608009
1590503615.5156546,-0.9441572892700272,-3.76692407446141,8.824943735620163,0.59,0.13777777777777778,-0.6711111111111111,0.02353406380557936,0.07723296410046786,-1.033513134929268
1590503615.5256546,-0.8863063736689791,-3.4372978025173433,8.663876265248756,0.59,0.13777777777777778,-0.6711111111111111,0.028715317168243847,0.06913500892450204,-1.0059228398734004
1590503615.5356545,-0.8979218765144906,-3.5244140738586798,9.076226616264417,0.59,0.13777777777777778,-0.6711111111111111,0.01731182391599057,0.055830933463539886,-1.0002210932472737
1590503615.5456545,-0.9364153255452986,-3.627673392696675,8.947673392696675,0.6166666666666667,0.17555555555555555,-0.7,0.02882124458770801,0.07298273704912486,-0.9703797521790457
1590503615.5556545,-0.784714483303695,-3.3795534479351907,8.667071724955543,0.6166666666666667,0.17555555555555555,-0.7,0.02895971443726661,0.07519145510558509,-0.9639885652774773
1590503615.5656545,-0.7238119330386465,-3.4619312634251123,8.665298325966164,0.6166666666666667,0.17555555555555555,-0.7,0.0020305591063853974,0.04836384397648109,-0.9723460445942794
1590503615.5756545,-0.7320647549105321,-3.548582794194789,8.764251617415633,0.6166666666666667,0.17555555555555555,-0.7,0.01868539660189228,0.06299431736616627,-0.9703183001291757
1590503615.5856545,-0.74,-3.6397351983138533,8.662772561793448,0.6320162653552192,0.18244721210959955,-0.7,0.02646369273092417,0.07521465310565092,-0.9602386280514444
1590503615.5956545,-0.74,-3.683736899295454,8.92651337235795,0.6711111111111111,0.2,-0.7,0.00491445478195063,0.056144768635498825,-0.9591431240427193
1590503615.6056545,-0.7315002139088272,-3.6924989304558635,8.81274967913676,0.6711111111111111,0.2,-0.7,0.01778058842235893,0.06354077641125183,-0.946704823693695
1590503615.6156545,-0.6970861303315088,-3.6629272952597334,8.697099555922751,0.6711111111111111,0.2,-0.7,0.01927085565583071,0.06831346081694306,-0.9405692083337741
1590503615.6256545,-0.6821894626657362,-3.5721894626657362,8.702526168876481,0.6711111111111111,0.2,-0.7,0.02266861310513439,0.059892357183345624,-0.9321482070952343
1590503615.6356544,-0.6840911008013496,-3.6249995782370306,8.901818641923239,0.754897980224003,0.23358545386381743,-0.7208583345048971,0.01656084479666762,0.05711978277944536,-0.9101001349700866
1590503615.6456544,-0.6032197279238571,-3.6021867038407924,8.637131663702352,0.9344444444444444,0.3055555555555556,-0.7655555555555555,0.019697300756108066,0.06225286276587029,-0.8512123896726967
1590503615.6556544,-0.5315790211096582,-3.5247363627872224,8.558419577806838,0.9344444444444444,0.3055555555555556,-0.7655555555555555,0.014410637790389317,0.05689536875582761,-0.7776478494058847
1590503615.6656544,-0.5396392785571142,-3.632732130928524,8.848917835671342,0.9344444444444444,0.3055555555555556,-0.7655555555555555,-0.003131857517147476,0.0583481523564604,-0.691145137309037
1590503615.6756544,-0.5781443927304964,-3.7074224290780142,8.99041167996454,0.9344444444444444,0.3055555555555556,-0.7655555555555555,0.015744155060533123,0.03724575464007376,-0.5962353648477051
1590503615.6856544,-0.528532352698124,-3.675206801090819,9.00483988926535,1.106938338429331,0.28280594349410976,-0.9083885629286836,-0.001578756930579895,0.03316773262383328,-0.47052101491772635
1590503615.6956544,-0.4190196805159186,-3.510294281160817,8.733626996775508,1.6,0.21777777777777774,-1.3166666666666669,0.022137424450904223,0.04124833018319528,-0.3769888705455409
1590503615.7056544,-0.4835287557750518,-3.7045353785930493,8.78428093493252,1.6,0.21777777777777774,-1.3166666666666669,0.0005043903823022944,0.011889333091837496,-0.3096221848688648
1590503615.7156544,-0.4728598699095023,-3.8096956306561087,8.938883979072399,1.6,0.21777777777777774,-1.3166666666666669,-0.0031839548942720376,0.004763823996325197,-0.2666870331205098
1590503615.7256544,-0.37529305200341007,-3.7582371589940324,8.745888213981246,1.6,0.21777777777777774,-1.3166666666666669,0.013538989701667633,0.011357328136674723,-0.22085978433387166
1590503615.7356544,-0.3283780046098123,-3.817094501152453,8.861551531116232,1.379827753997,0.171289796217027,-1.1710688910840377,0.009994409292536512,0.005277221662413872,-0.1616783626237159
1590503615.7456543,-0.2535731578620647,-3.7931175119498417,8.66577937798746,0.8422222222222222,0.057777777777777775,-0.8155555555555556,0.01308996938995747,-0.003803518171335492,-0.10875086546058807
1590503615.7556543,-0.19947416459611583,-3.762894376552913,8.648157294254855,0.8422222222222222,0.057777777777777775,-0.8155555555555556,0.013865072668448563,-0.009673828771987737,-0.07437700340632863
1590503615.7656543,-0.22783175295370417,-3.741626185284722,8.61271030880787,0.8422222222222222,0.057777777777777775,-0.8155555555555556,0.0161850724407851,-0.0027138294549781256,-0.04885700591062673
1590503615.7756543,-0.2974621368709835,-3.8493941899357362,8.831477695516554,0.8422222222222222,0.057777777777777775,-0.8155555555555556,-0.0013181059848024561,-0.007912653399764588,-0.03438595100863007
1590503615.7856543,-0.29081554320807135,-3.736524345664571,8.648757493785642,0.8233741125245732,0.0719138600510146,-0.8102998326590958,0.00683515780523706,-0.008548722332807618,-0.04113810940509473
1590503615.7956543,-0.2921086711711712,-3.817891328828829,8.832380349099099,0.6111111111111112,0.2311111111111111,-0.7511111111111111,-0.00046004068473527336,-0.004392958594656687,-0.07465910598416586
1590503615.8056543,-0.24915858378326727,-3.860841416216733,8.782289645945816,0.6111111111111112,0.2311111111111111,-0.7511111111111111,0.007228076492742534,-0.0015113653598089246,-0.10600695003675681
1590503615.8156543,-0.14864250016960268,-3.851305714479546,8.718642500169603,0.6111111111111112,0.2311111111111111,-0.7511111111111111,0.015671790538715053,0.004220891775241821,-0.1382506466675619
1590503615.8256543,-0.06565495985075838,-3.7895847189553087,8.731789277313652,0.6111111111111112,0.2311111111111111,-0.7511111111111111,0.01050228767240748,0.008177736034113264,-0.1720724731570577
1590503615.8356543,-0.07853597130316602,-3.8475431677918146,8.951935253882317,0.6042789771925525,0.2346898479255942,-0.7532258192287602,-0.0018081110196423219,-0.0066234619045387275,-0.20691411898253134
1590503615.8456542,-0.07774058959678402,-3.601105798513826,8.737740589596784,0.5644444444444444,0.25555555555555554,-0.7655555555555555,0.011521858614400759,0.011275395172588687,-0.24213835556327337
1590503615.8556542,-0.15307903586005084,-3.5478745796647586,8.705176990014632,0.5644444444444444,0.25555555555555554,-0.7655555555555555,0.003902624440035,0.008307556896785969,-0.3029180829198936
1590503615.8656542,-0.20373657892253985,-3.4467036512878573,8.658353618265874,0.5644444444444444,0.25555555555555554,-0.7655555555555555,0.007707652432488166,0.017093716655438518,-0.3549877266978123
1590503615.8756542,-0.26125672476866796,-3.504973100925328,8.973554981708629,0.5644444444444444,0.25555555555555554,-0.7655555555555555,-0.004619892539339952,0.024683714246316404,-0.4015980261713819
1590503615.8856542,-0.26522567483266174,-3.482731533779569,8.735914417224462,0.5647980981605435,0.2601530538648442,-0.7667933435619025,0.015320865565810813,0.02962603048934365,-0.4557962241694349
1590503615.8956542,-0.244010554534572,-3.5393051879078077,8.806631484884761,0.5663695885529947,0.28058242896670843,-0.7722935599354813,0.010692444310706482,0.03039743403186104,-0.4889665764976826
1590503615.9056542,-0.16500453010460425,-3.5666696867364025,8.74,0.5666666666666667,0.28444444444444444,-0.7733333333333333,0.013816531034615078,0.03926990816987242,-0.5434104285168492
1590503615.9156542,-0.14,-3.55484555701947,8.747268335529204,0.5666666666666667,0.28444444444444444,-0.7733333333333333,0.01798186079546127,0.04006276058314938,-0.5771452969210816
1590503615.9256542,-0.12764654985939866,-3.5754904222847115,8.779608238998245,0.5666666666666667,0.28444444444444444,-0.7733333333333333,0.019335498003082808,0.04254240051736178,-0.5976470653200292
1590503615.9356542,-0.04396767864862169,-3.607989226216207,8.837989226216207,0.5510273150149451,0.2701456086485847,-0.755683207897819,0.017453292519943295,0.04320042469936119,-0.6220163921669899
1590503615.9456542,-0.0025599844259502624,-3.5825599844259504,8.84744001557405,0.4888888888888889,0.21333333333333332,-0.6855555555555556,0.01967277153407225,0.04518075600367145,-0.6482443800901659
1590503615.9556541,0.03826641358835839,-3.5417335864116417,8.88826641358836,0.4888888888888889,0.21333333333333332,-0.6855555555555556,0.024868485564859256,0.043696266280589445,-0.666800501628691
1590503615.9656541,1.8130938712179987,-1.6495554693560899,5.895560124127231,0.4888888888888889,0.21333333333333332,-0.6855555555555556,-1.0107094730874098,0.23103931375078815,-0.9351771000640621
1590503615.9756541,6.381594414274632,3.276876027928627,-1.4387705197827767,0.4888888888888889,0.21333333333333332,-0.6855555555555556,-3.493921247406269,0.7506822579478737,-1.4392023601459347
1590503615.985654,-0.177289552238806,-1.0083605051664752,1.1654913892078071,0.47942803929072586,0.2403643321852277,-0.6974942467151423,-4.197596177362968,-1.7133701643673076,0.6129449803495989
1590503615.995654,0.0032579469066879307,-0.5402854050358893,-0.11502962287797652,0.44222222222222224,0.3466666666666667,-0.7444444444444445,-4.3500710335871196,-1.2661625980080555,0.6668336068543922
1590503616.005654,1.0253229308005425,-1.1935235187697872,4.912293758480326,0.44222222222222224,0.3466666666666667,-0.7444444444444445,-4.263896518997611,-1.0543620300896956,0.781050109924956
1590503616.015654,2.184445355415266,-1.6117955234893824,10.011115028285644,0.44222222222222224,0.3466666666666667,-0.7444444444444445,-3.469112695554389,-0.19662973867190536,0.875415000601913
1590503616.025654,0.5681177149451819,-1.1204808617041737,3.7047978457395647,0.44222222222222224,0.3466666666666667,-0.7444444444444445,-1.93587047036786,1.338133849574831,0.9046831006848558
1590503616.035654,2.333967852744831,-3.235279668157366,11.925231058396525,0.4427324446748907,0.3714124556210887,-0.7276071035063841,-0.6793516514909372,1.115972067116953,0.8151202090941084
1590503616.045654,1.1702593834592543,-0.9718807320916327,5.774228516019555,0.4444444444444444,0.4544444444444444,-0.6711111111111111,1.9500150476418494,-0.22701871700699394,0.5180625592674493
1590503616.055654,1.1297262920624698,-1.3570157784575754,7.056310578006762,0.4444444444444444,0.4544444444444444,-0.6711111111111111,2.9613080592073016,-0.12816919218077383,0.48050981810216886
1590503616.065654,1.2274082684242063,-1.78342312762133,6.671295865787897,0.4444444444444444,0.4544444444444444,-0.6711111111111111,4.448790669490427,0.011583825538300112,0.37956908685812546
1590503616.075654,1.045458845235829,-2.1215893748810237,8.276745691233105,0.4444444444444444,0.4544444444444444,-0.6711111111111111,5.5333315416106075,-0.030500948709876855,0.28185023799168196
1590503616.085654,1.0331752353897292,-1.4766998579607855,12.37947137983043,0.4444444444444444,0.4544444444444444,-0.6711111111111111,6.260915689509016,-0.009731972112408453,0.22691294505644294
1590503616.095654,2.1784522600820373,3.259463509726678,4.087078747512488,0.48,0.4444444444444444,-0.65,5.086522939967225,-0.3010644671278858,0.27600814208863844
1590503616.105654,-0.2829714088453885,0.04002355521260581,-1.2190352515940388,0.48,0.4444444444444444,-0.65,1.1333530480753193,-0.7916105782721695,0.3744889901592712
1590503616.115654,0.2918762896975188,-0.8087404163940476,3.2317820054691566,0.48,0.4444444444444444,-0.65,-0.20060697797757754,-0.13298840783183488,0.5447285962671635
1590503616.125654,2.170645729528411,-3.8978032781384733,14.391813209857904,0.48,0.4444444444444444,-0.65,-0.6918536088524624,0.24235472107100692,0.6629348168214328
1590503616.135654,-0.06453393836263945,-4.090260708808638,13.793662107938909,0.48,0.42964830337364524,-0.6591053175820303,-0.8437765275276827,1.2497038774708498,0.8488055871981258
1590503616.145654,-0.6196502174324069,-0.5657129051910679,2.8146956996701746,0.48,0.30237296602078856,-0.7374286021068652,0.3336583267832528,0.08284190756597165,0.6623383531276592
1590503616.155654,-0.32385637939551803,-2.7984703821799077,10.122287241208964,0.48,0.3,-0.7388888888888889,-0.11109553293797157,-0.49261329293690054,0.6806012511177565
1590503616.165654,-0.5960519030308866,-2.87553287272202,9.428078432316617,0.48,0.3,-0.7388888888888889,-0.06468488147892572,0.1406376544488822,0.8932401225916918
1590503616.175654,-0.5923910572186435,-2.5157067070860175,8.864537703675634,0.48,0.3,-0.7388888888888889,-0.006974662072168989,0.15039741576784216,0.9969273648155897
1590503616.185654,-0.4190071996968549,-2.645744600227359,8.626134899583175,0.48,0.3,-0.7388888888888889,0.08680351054348455,-0.46585914713502397,0.9409756819944854
1590503616.195654,-0.6255262711145064,-2.6928683897801546,8.951815847551142,0.4988888888888889,0.32,-0.7233333333333334,-0.05833657654667077,0.01731271414497298,1.147665996813224
1590503616.205654,-0.5466969996360044,-2.6845905049139414,9.106151006187927,0.4988888888888889,0.32,-0.7233333333333334,-0.1913236986855476,0.09274597147864751,1.2502623010235172
1590503616.215654,-0.5668304741928235,-2.887901715484306,9.193570804304942,0.4988888888888889,0.32,-0.7233333333333334,-0.028580654485114022,-0.1817985113964204,1.2785998402935492
1590503616.225654,-0.6783398678008804,-2.841581718588555,8.736091633522527,0.4988888888888889,0.32,-0.7233333333333334,0.02719659720704328,-0.07412089482264814,1.3533288788238795
1590503616.2356539,-0.6724032214689106,-2.9187581209041626,9.258516510735872,0.4988888888888889,0.32,-0.7233333333333334,-0.07058913890493781,-0.12463273201956553,1.379232385078709
1590503616.2456539,-0.6607441255723681,-3.0582552902824625,8.968446362283064,0.5111111111111111,0.2855555555555556,-0.7155555555555555,0.015802339277573307,-0.12003619587140003,1.46986437668581
1590503616.2556539,3.8995662251031673,-15.237524355084888,5.000897322353916,0.5111111111111111,0.2855555555555556,-0.7155555555555555,-0.0273044796847671,-0.12348474138838725,1.5095226501311632
1590503616.2656538,-0.2303292066064891,-5.377760109549227,7.733041108906464,0.5111111111111111,0.2855555555555556,-0.7155555555555555,-0.4137152324718461,-0.03803037346213163,-0.3993819482825671
1590503616.2756538,-1.2867819324950363,-0.9820284579748512,8.5576993712773,0.5111111111111111,0.2855555555555556,-0.7155555555555555,-0.10941751065202246,0.24404063017341937,-3.693516391768465
1590503616.2856538,0.033106375854976805,-3.8492313579184008,14.665594537714641,0.5148816451693478,0.2838231480152847,-0.7178994010512162,0.8072857897469029,0.4633449187540491,-3.48224819709035
1590503616.2956538,0.34153707817624035,-2.1287834549878344,6.300858986565112,0.5522222222222222,0.26666666666666666,-0.7411111111111112,0.6587082016227285,0.3472556459679951,-3.266977149518498
1590503616.3056538,-0.8659818070703271,-3.2979087532907108,11.69767769838285,0.5522222222222222,0.26666666666666666,-0.7411111111111112,-0.3384181481604304,0.02820645233191224,-3.098642422251954
1590503616.3156538,-1.4344253580745188,-2.195328050401142,9.202211940739282,0.5522222222222222,0.26666666666666666,-0.7411111111111112,-0.21136147064297295,0.3950281238070036,-2.8084554453328345
1590503616.3256538,-0.35382453370176653,-2.526874568242376,8.080435211684595,0.5522222222222222,0.26666666666666666,-0.7411111111111112,0.26305283665921814,0.1944037648474409,-2.551006102814637
1590503616.3356538,-0.7986497127048309,-2.9395115982123854,10.265949138114491,0.5520913433118158,0.26677839256579416,-0.7410344990659952,-0.07838938894092429,0.2006909266503532,-2.4136042480303264
1590503616.3456538,-3.8054066671529654,-8.136956014297178,8.34297651178058,0.5066666666666667,0.3055555555555556,-0.7144444444444444,-0.006371680336945521,0.19830422781321183,-2.1640708145856853
1590503616.3556538,-13.69099090102086,-23.40459082334665,7.017165168664003,0.5066666666666667,0.3055555555555556,-0.7144444444444444,0.040763052402582205,0.2027730901268375,-1.7552259510460235
1590503616.3656538,1.4665068541799842,0.2575348627980206,13.762567890711935,0.5066666666666667,0.3055555555555556,-0.7144444444444444,-0.26816025589852677,-0.2218228944225076,1.5848224266717055
1590503616.3756537,0.28878752550276854,-3.8383415913727776,7.764523462547363,0.5066666666666667,0.3055555555555556,-0.7144444444444444,0.37946667797750505,-0.22778333526342276,2.3530339105337035
1590503616.3856537,10.551538843796587,-12.50771326817956,3.2830354480702337,0.5062416027092191,0.3062137191025712,-0.7144170209633188,0.3500656129828568,0.09971254007424805,2.1141615994315286
1590503616.3956537,-0.5892100932528799,-1.2200932528798685,12.426527701590786,0.4722222222222222,0.3588888888888889,-0.7122222222222222,-0.24004859298634298,-0.2996038847861728,0.02152820070908254
1590503616.4056537,-0.9164168662155127,-1.8971662675689744,8.257087142113484,0.4722222222222222,0.3588888888888889,-0.7122222222222222,-0.0634731093893688,0.2300835481002722,-0.5527628094649981
1590503616.4156537,-0.5932745445080687,-2.5434509109838626,9.383718479958354,0.4722222222222222,0.3588888888888889,-0.7122222222222222,-0.023460323310650386,0.12433547060651635,-0.49750705726105365
1590503616.4256537,-0.13089778258518125,-4.3272976383630795,8.269003064719668,0.4722222222222222,0.3588888888888889,-0.7122222222222222,-0.012853003265402178,-0.04994596952753423,-0.49740605441332486
1590503616.4356537,-5.593573846850538,-10.91893494059043,8.408007676880944,0.47207858020831084,0.35851541965271944,-0.7131989879168193,-0.046454458951696864,0.08729466664319464,-0.7265787365770956
1590503616.4456537,-0.12152869126431387,-3.1857141008776653,9.737578979147349,0.46705374535469635,0.34545084903332157,-0.7473678649213982,-0.03066847469007951,0.08828129065954574,-0.615090222729423
1590503616.4556537,1.6813933197908688,-3.0656831729328315,7.582705051783276,0.4666666666666667,0.34444444444444444,-0.75,0.12091529929589674,-0.06828123375956803,0.3341667416615885
1590503616.4656537,0.7385871990409272,-3.93166805421426,8.609316161044324,0.4666666666666667,0.34444444444444444,-0.75,0.0096912081757074,-0.03323802696827549,0.10943313289134282
1590503616.4756536,-0.1445511182108626,-4.449091853035144,8.713178514376997,0.4666666666666667,0.34444444444444444,-0.75,-0.05122178034766055,0.053602701497283606,-0.17850905567786812
1590503616.4856536,-0.04404872204472843,-4.4323414536741215,8.771804912140574,0.4666666666666667,0.34444444444444444,-0.75,-0.010110115052908195,-0.00395362991536969,-0.010408024250436243
1590503616.4956536,-0.17,-4.424635775197781,8.71690948320148,0.4922222222222222,0.34444444444444444,-0.7355555555555555,-0.008220961631324365,-0.0020131000221104843,0.010313523178636737
1590503616.5056536,-0.16907961131455265,-4.448389319800468,8.69884951414319,0.4922222222222222,0.34444444444444444,-0.7355555555555555,-0.0051529574194980506,-0.0011661299057425132,0.0011159304902451418
1590503616.5156536,-0.1349465049199108,-4.368458155186874,8.66813718470634,0.4922222222222222,0.34444444444444444,-0.7355555555555555,0.006736515505407046,-0.003823743146744936,0.0020018015705792827
1590503616.5256536,-0.16,-4.312091893911094,8.75979081060889,0.4922222222222222,0.34444444444444444,-0.7355555555555555,0.0021132044968347483,-0.001090830782496456,0.001068011759777068
1590503616.5356536,-0.16,-4.390431453119163,8.751956854688084,0.4922222222222222,0.34444444444444444,-0.7355555555555555,-0.00045045158330620384,-0.001090830782496456,0.0002134597330634174
1590503616.5456536,-0.15328008542445273,-4.376400427122264,8.736560170848906,0.4787823930711277,0.35415098772023496,-0.7549686421071365,-0.0025568887174471657,-0.0025568887174471657,-0.0014660579349507093
1590503616.5556536,-0.15687067093972915,-4.401224025638375,8.750612012819188,0.4722222222222222,0.3588888888888889,-0.7644444444444445,-0.002523018411743328,0.0004748773312408328,-0.0014321876292468718
1590503616.5656536,-0.15927144680393032,-4.379635723401965,8.64364276598035,0.4722222222222222,0.3588888888888889,-0.7644444444444445,0.005613099563074078,0.001090830782496456,7.947282529589914e-05
1590503616.5756536,-0.14637245706026172,-4.373186228530131,8.708137714698692,0.4722222222222222,0.3588888888888889,-0.7644444444444445,0.008427222578174035,0.001090830782496456,0.001486534332845877
1590503616.5856535,-0.15292487590974146,-4.376462437954871,8.74,0.4722222222222222,0.3588888888888889,-0.7644444444444445,0.004882878666665597,-0.0010239970928474756,0.001476718939878268
1590503616.5956535,-0.15107117857642846,-4.437322053558929,8.7862508749825,0.4922222222222222,0.34444444444444444,-0.7355555555555555,-0.009700629585996214,0.002064814108521021,-0.0009155595977886196
1590503616.6056535,-0.16784804303913922,-4.395379892402151,8.727531849363013,0.4922222222222222,0.34444444444444444,-0.7355555555555555,-0.007870557567026638,0.00023474208955144614,0.0018295484306657427
1590503616.6156535,-0.14926287928915777,-4.369262879289158,8.671613385008035,0.4922222222222222,0.34444444444444444,-0.7355555555555555,-0.003111677555128892,-0.0007540229870577166,0.0006736155908774787
1590503616.6256535,-0.17906646836746368,-4.399066468367464,8.718366319643062,0.4922222222222222,0.34444444444444444,-0.7355555555555555,0.0021052871869025524,-0.0032215760954291284,0.0010653726564663363
1590503616.6356535,-0.15661656545845434,-4.361027609097424,8.758972390902576,0.4922222222222222,0.34444444444444444,-0.7355555555555555,0.0038821529115535057,-0.003272492347489368,0.0002405851092161591
1590503616.6456535,-0.18,-4.42,8.738960808654017,0.4722222222222222,0.32666666666666666,-0.7266666666666667,-0.007654708509293568,-0.0010530447188597046,0.001090830782496456
1590503616.6556535,-0.18,-4.42,8.68937400248271,0.4722222222222222,0.32666666666666666,-0.7266666666666667,-0.008556222085582682,0.0007499824337185246,0.001090830782496456
1590503616.6656535,-0.13077746816203395,-4.3992225318379665,8.613498606729152,0.4722222222222222,0.32666666666666666,-0.7266666666666667,0.00029683017124514945,-0.0010484264723185776,0.0
1590503616.6756535,-0.1501608973119319,-4.379839102688068,8.700402243279829,0.4722222222222222,0.32666666666666666,-0.7266666666666667,0.007635815477475192,0.0,1.316338055072111e-05
1590503616.6856534,-0.18260568555405143,-4.347394314445949,8.78151421388513,0.4722222222222222,0.32666666666666666,-0.7266666666666667,0.007635815477475192,0.0,0.00266754641150695
1590503616.6956534,-0.1712738890334519,-4.377452221933096,8.762547778066903,0.46077848774266505,0.349554135625781,-0.7349893826517991,0.004571762735661919,0.0010213509139377578,0.0022511414335516103
1590503616.7056534,-0.1598028209556707,-4.439704231433506,8.748915515256188,0.46,0.3511111111111111,-0.7355555555555555,-0.007603552131792546,-2.150889712176374e-05,0.001090830782496456
1590503616.7156534,-0.1404624250700118,-4.4092292915499804,8.641695558590044,0.46,0.3511111111111111,-0.7355555555555555,-0.004312880379889129,-0.002181661564992912,0.001074016532464224
1590503616.7256534,-0.16958478950170114,-4.360692017497165,8.748477561506238,0.46,0.3511111111111111,-0.7355555555555555,-0.0011361232217724677,-0.002181661564992912,1.5097479758670665e-05
1590503616.7356534,-0.15396859247770453,-4.384047111283443,8.758015703761147,0.46,0.3511111111111111,-0.7355555555555555,0.003281057420519827,-0.0030560392055961685,0.0
1590503616.7456534,-0.15919125746420082,-4.3532349701431965,8.778382514928401,0.4538724950238661,0.3511111111111111,-0.7273855489207104,-0.0006497301559144639,-0.0002646603759491953,0.00401044262872023
1590503616.7556534,-0.16,-4.412733882112599,8.693740912095175,0.4533333333333333,0.3511111111111111,-0.7266666666666667,-0.005367833889616941,0.000855400621424097,0.0017971212657135328
1590503616.7656534,-0.16,-4.423013606509605,8.621095245567236,0.4533333333333333,0.3511111111111111,-0.7266666666666667,-0.008831276618365372,-0.0004333638330946332,0.0026150253980875456
1590503616.7756534,-0.16,-4.401625995293511,8.682683021179201,0.4533333333333333,0.3511111111111111,-0.7266666666666667,-0.0028024515664175085,-0.002092977279075112,0.0012681993543320548
1590503616.7856534,-0.16,-4.388261445693441,8.719346385766396,0.4533333333333333,0.3511111111111111,-0.7266666666666667,0.0023000101678672022,-0.00026094510805286316,-0.00018964685546357662
1590503616.7956533,-0.16,-4.38,8.775138791503403,0.46114195366742283,0.340048898971151,-0.744236062418368,0.00545415391248228,-0.0001868517318914327,-0.00045198952530251164
1590503616.8056533,-0.15426488303935848,-4.3857351169606416,8.777059532157434,0.4666666666666667,0.3322222222222222,-0.7566666666666667,0.003577341275916691,-0.001090830782496456,0.0012512084243770593
1590503616.8156533,-0.15,-4.39,8.677738404243314,0.4666666666666667,0.3322222222222222,-0.7566666666666667,-0.0015572334712018214,-0.00034305177525750937,-6.167545672392796e-05
1590503616.8256533,-0.15,-4.408676936766587,8.64,0.4666666666666667,0.3322222222222222,-0.7566666666666667,-0.003272492347489368,0.0,-0.001090830782496456
1590503616.8356533,-0.15,-4.37244589566406,8.752662313007821,0.4666666666666667,0.3322222222222222,-0.7566666666666667,0.0008240249543833809,0.0,-0.001090830782496456
1590503616.8456533,-0.16263520028048034,-4.385270400560961,8.79,0.4750901335203202,0.3490691559295293,-0.7566666666666667,0.003559948105888491,0.0006891432704477895,0.00028745575839912306
1590503616.8556533,-0.16148787755654884,-4.374463632669647,8.781487877556549,0.48,0.3588888888888889,-0.7566666666666667,-0.0012078479814314688,-0.003551811810351287,0.001090830782496456
1590503616.8656533,-0.1666937036508842,-4.383387407301768,8.679594445236738,0.48,0.3588888888888889,-0.7566666666666667,-0.00583251056063961,-0.0036331533308564846,0.001090830782496456
1590503616.8756533,-0.16109368457116754,-4.4256252617153296,8.66562526171533,0.48,0.3588888888888889,-0.7566666666666667,-0.005692758871796476,0.0006136208638680622,0.001090830782496456
1590503616.8856533,-0.16,-4.415495247995248,8.691757128007128,0.48,0.3588888888888889,-0.7566666666666667,-0.003871930914556213,0.001090830782496456,0.001090830782496456
1590503616.8956532,-0.16817549249954816,-4.3936490150009035,8.765403939996384,0.48,0.33708757555676044,-0.7321401891680221,0.0020783549808562514,0.00019902289443885282,-0.0006927849936187503
1590503616.9056532,-0.1526314643176923,-4.381315732158846,8.727894392953077,0.48,0.3322222222222222,-0.7266666666666667,0.00043057234211697337,-0.0009473066684574648,-0.00014352411403899116
1590503616.9156532,-0.15954180715648605,-4.399083614312972,8.653207349904598,0.48,0.3322222222222222,-0.7266666666666667,0.0010408496966939967,0.0009908686108915374,0.0
1590503616.9256532,-0.16810756288959272,-4.4,8.690537814447962,0.48,0.3322222222222222,-0.7266666666666667,-0.003331158803000363,0.0002064328653970922,0.0
1590503616.9356532,-0.16493773611305443,-4.394937736113055,8.735435847208619,0.48,0.3322222222222222,-0.7266666666666667,-0.0021544938191856685,0.0,0.0
1590503616.9456532,-0.15189847231063017,-4.385949236155315,8.77,0.47459898154042013,0.33987366503996036,-0.72756683640993,0.0013256093683217992,-0.0008837395788811994,0.0008837395788811994
1590503616.9556532,-0.14,-4.38,8.774788425030605,0.4666666666666667,0.3511111111111111,-0.7288888888888889,0.002750156205183301,-0.0011369892803807782,9.231699576864446e-05
1590503616.9656532,-0.15454913763167036,-4.38,8.731502874561098,0.4666666666666667,0.3511111111111111,-0.7288888888888889,-0.0009924678724878046,0.0005290215729134528,-0.0005945968462525537
1590503616.9756532,-0.15479070262220096,-4.402813946066699,8.687604648688898,0.4666666666666667,0.3511111111111111,-0.7288888888888889,-0.005192861617978116,0.001090830782496456,0.0002612922945041641
1590503616.9856532,-0.1569987250318742,-4.41,8.70399745006375,0.4666666666666667,0.3511111111111111,-0.7288888888888889,-0.006217596382781966,-0.0011994966284026058,0.0007634424702996871
1590503616.9956532,-0.16,-4.3921011431145045,8.727898856885496,0.4666666666666667,0.34713358735877875,-0.7275630476381114,-0.004592522288759019,-0.00022919915877319514,0.002392472386642934
1590503617.0056531,-0.15154175197426148,-4.388458248025739,8.731541751974262,0.4666666666666667,0.34444444444444444,-0.7266666666666667,0.0022634180399899043,-0.0025997761424897256,0.0005045371537497319
1590503617.0156531,-0.1626347165008875,-4.383682641749556,8.692095850497338,0.4666666666666667,0.34444444444444444,-0.7266666666666667,0.0012051416943967678,0.0015513258430600325,0.0013782337687284
1590503617.0256531,-0.15409455096264998,-4.4118108980747,8.68590544903735,0.4666666666666667,0.34444444444444444,-0.7266666666666667,-0.0017350153419370027,0.0017608001170803197,0.0004466462230559092
1590503617.035653,-0.14330854815838273,-4.399925644475148,8.710074355524853,0.4666666666666667,0.34444444444444444,-0.7266666666666667,-0.002181661564992912,-0.00036901754718928945,-0.0007299241648428727
1590503617.045653,-0.15508225878168075,-4.397541129390841,8.742623388172522,0.47672150585445383,0.3553371868978806,-0.7375594091201028,-0.0005364423501294268,-0.0002682211750647134,-0.001090830782496456
1590503617.055653,-0.14597744977449775,-4.3789661746617465,8.764022550225501,0.48,0.3588888888888889,-0.7411111111111112,0.000764811471754024,0.0022944344152620723,-0.0018556422542504798
1590503617.065653,-0.14,-4.37,8.688008030203152,0.48,0.3588888888888889,-0.7411111111111112,0.002879618073934883,-0.0003050822353874846,0.0005015193721647276
1590503617.075653,-0.14809356488050995,-4.37809356488051,8.69428069464153,0.48,0.3588888888888889,-0.7411111111111112,-0.0011418625084068813,-0.0002079598113172062,-0.0006749111598620436
1590503617.085653,-0.15481587502517333,-4.389631750050347,8.719263500100693,0.48,0.3588888888888889,-0.7411111111111112,-0.0032323225094159063,0.0005253304722114971,-0.0005655003102849589
1590503617.095653,-0.16175166889185583,-4.4,8.743503337783713,0.48,0.35635870048954166,-0.7426681501260941,-0.004363323129985824,0.0007086759129009019,0.0003821548695955541
1590503617.105653,-0.16176114185843288,-4.402746286047189,8.75725371395281,0.48,0.34444444444444444,-0.75,-0.0034646031226415255,-0.0004916841109335905,0.0015825148934300465
1590503617.115653,-0.14546602095903463,-4.4081779930136555,8.73906795808193,0.48,0.34444444444444444,-0.75,-0.0008920806518335975,0.0012895809131593145,0.0005962503919885758
1590503617.125653,-0.1611049516505502,-4.391104951650551,8.69889504834945,0.48,0.34444444444444444,-0.75,-0.0009702992551374152,0.0012113623098554968,0.0023021930923519526
1590503617.135653,-0.15,-4.388708025042686,8.736124075128059,0.48,0.34444444444444444,-0.75,-0.0026566106535585287,-0.0014248472656968507,0.0006158816939308392
1590503617.145653,-0.15468830204687667,-4.395311697953123,8.75593509385937,0.47635354285242926,0.34444444444444444,-0.7531255346979178,-0.002761077928451948,-0.001738249090377108,-0.0005114144190374201
1590503617.155653,-0.16,-4.396728105095542,8.726543789808918,0.4722222222222222,0.34444444444444444,-0.7566666666666667,-0.002181661564992912,0.0,-0.001090830782496456
1590503617.165653,-0.1483984381719043,-4.3941992190859525,8.696796876343809,0.4722222222222222,0.34444444444444444,-0.7566666666666667,0.001614940665143884,0.0,0.0014402373709280745
1590503617.175653,-0.14628360455946662,-4.383716395440533,8.6988508136784,0.4722222222222222,0.34444444444444444,-0.7566666666666667,0.003677888202135696,-0.0020563047835503844,0.0019016224917891116
1590503617.185653,-0.14383541585318235,-4.392329168293635,8.734658336587271,0.4722222222222222,0.34444444444444444,-0.7566666666666667,-0.0014346703565574727,-0.001927588717761699,-0.00025407284723121286
1590503617.195653,-0.14,-4.385886001835617,8.757056999082192,0.4777109992861488,0.34444444444444444,-0.7370638914383574,-0.002823724763805112,0.00044876758368425575,-0.001090830782496456
1590503617.205653,-0.14,-4.392796801191713,8.74080479821243,0.48,0.34444444444444444,-0.7288888888888889,-0.0014837043321225243,-0.00030508368324431924,0.001003040916114707
1590503617.215653,-0.16201656598368314,-4.407338855327895,8.693305723360528,0.48,0.34444444444444444,-0.7288888888888889,-0.00029028585250092515,0.0013108040074901364,0.0005805717050018503
1590503617.225653,-0.15711684604405354,-4.39067526906608,8.712207884889866,0.48,0.34444444444444444,-0.7288888888888889,-0.0014053340910787386,0.0007763274739141734,0.0007026670455393693
1590503617.235653,-0.15407457509538675,-4.3840745750953865,8.738149150190774,0.48,0.34444444444444444,-0.7288888888888889,-0.003515063146885302,0.00044446719396413,0.000646363588532326
1590503617.245653,-0.15751874421720957,-4.394962511565581,8.75,0.47807013439116297,0.34444444444444444,-0.7269590232800519,-0.004912827875059255,0.0013614938012079685,-0.00027066301871151257
1590503617.255653,-0.14384210702677344,-4.41,8.756157892973226,0.4722222222222222,0.34444444444444444,-0.7211111111111111,8.611725776770576e-05,0.0015099396439414972,-0.0017625527035478707
1590503617.265653,-0.14645275348817513,-4.42290550697635,8.695472465118248,0.4722222222222222,0.34444444444444444,-0.7211111111111111,0.0028855477786691943,0.001090830782496456,-7.000292396406498e-05
1590503617.275653,-0.1571258027101191,-4.401496789159523,8.688503210840476,0.4722222222222222,0.34444444444444444,-0.7211111111111111,0.0009405788636309932,-0.0004637782067424606,0.001090830782496456
1590503617.2856529,-0.15395300608828005,-4.38395300608828,8.7302349695586,0.4722222222222222,0.34444444444444444,-0.7211111111111111,0.0013192494200945533,0.0015476680576926507,-0.00022841863759809735
1590503617.2956529,-0.14540748134004514,-4.3983700746398195,8.754592518659955,0.47783530058438933,0.34138276533780787,-0.7277447491754904,0.0006787633479524682,0.0007676619857552953,-0.0005898647101496414
1590503617.3056529,-0.14,-4.3947584621658695,8.753689615541468,0.4844444444444445,0.3377777777777778,-0.7355555555555555,0.00028588154085446363,-0.0014933054033174522,0.0006883561616754598
1590503617.3156528,-0.14,-4.390051528576366,8.69974235711817,0.4844444444444445,0.3377777777777778,-0.7355555555555555,0.002735508299832874,-0.0005426049433843165,0.0005426049433843165
1590503617.3256528,-0.14,-4.396028587985319,8.66191423604404,0.4844444444444445,0.3377777777777778,-0.7355555555555555,0.0034968954348679124,-0.00043321384755895564,0.0008664276951179113
1590503617.3356528,-0.14403690817405698,-4.385963091825943,8.716332173566512,0.4844444444444445,0.3377777777777778,-0.7355555555555555,-2.0130286193549476e-05,-0.001090830782496456,0.0013009448245183274
1590503617.3456528,-0.15123833204255493,-4.38247666408511,8.771238332042554,0.4854075915886539,0.339428887167851,-0.7381698120898381,-0.003272492347489368,-0.000820668640302331,-0.00013508107109706246
1590503617.3556528,-0.16,-4.4,8.774238539348003,0.4922222222222222,0.3511111111111111,-0.7566666666666667,-0.0026440144843554035,-0.000166124943771473,-0.001090830782496456
1590503617.3656528,-0.16668339586076675,-4.4066833958607665,8.696482645531566,0.4922222222222222,0.3511111111111111,-0.7566666666666667,0.0007345200096205858,-0.001090830782496456,-0.0018198761761498304
1590503617.3756528,-0.1750123582309324,-4.394962925307203,8.685061791154663,0.4922222222222222,0.3511111111111111,-0.7566666666666667,0.002181661564992912,-0.001090830782496456,-0.001088134634752806
1590503617.3856528,-0.16959185248051847,-4.38,8.723877530025977,0.4922222222222222,0.3511111111111111,-0.7566666666666667,0.002181661564992912,-0.001090830782496456,0.0
1590503617.3956528,-0.16022709717287192,-4.38,8.760227097172871,0.48199512504935027,0.3511111111111111,-0.7413260209073588,0.002739463185580471,2.4772458678661837e-05,0.0
1590503617.4056528,-0.16359905926161836,-4.399202822215145,8.737995296308092,0.4722222222222222,0.3511111111111111,-0.7266666666666667,0.0011777893891806832,-0.0003056378563760006,0.0
1590503617.4156528,-0.16,-4.404436096365864,8.692180481829318,0.4722222222222222,0.3511111111111111,-0.7266666666666667,0.001213855470991973,-0.001090830782496456,0.0006069277354959865
1590503617.4256527,-0.15417031952935747,-4.3941703195293575,8.681659360941286,0.4722222222222222,0.3511111111111111,-0.7266666666666667,0.002181661564992912,-0.001090830782496456,0.00045491129154692723
1590503617.4356527,-0.15537808219178081,-4.384621917808219,8.733024657534246,0.4722222222222222,0.3511111111111111,-0.7266666666666667,0.0010083460438748062,-0.0005041730219374031,0.0
1590503617.4456527,-0.15372377772069526,-4.373723777720695,8.773138111139652,0.4722222222222222,0.34692696292490793,-0.724923271589082,0.0006846296460055674,0.0,0.0010269444690083512
1590503617.4556527,-0.1420677853830868,-4.362067785383087,8.778621476411274,0.4722222222222222,0.3377777777777778,-0.7211111111111111,0.0018809143719972746,0.0,0.0031221187509915494
1590503617.4656527,-0.17,-4.400646791632013,8.69611925020792,0.4722222222222222,0.3377777777777778,-0.7211111111111111,-0.002181661564992912,-0.0011613848047025794,0.001090830782496456
1590503617.4756527,-0.16351336593704002,-4.40351336593704,8.69189307250368,0.4722222222222222,0.3377777777777778,-0.7211111111111111,-0.0007664975428595532,-5.891553179287372e-05,0.0017984127935631354
1590503617.4856527,-0.1560470094805365,-4.392094018961073,8.735811962077854,0.4722222222222222,0.3377777777777778,-0.7211111111111111,0.00043120437415474394,-0.0006339867141225198,0.001750457190838168
1590503617.4956527,-0.15017488341105928,-4.380174883411059,8.76,0.47212506477163374,0.3377777777777778,-0.7214608779332298,0.0011099076033096018,-0.0032343387058630766,0.0010526771408701642
1590503617.5056527,-0.16,-4.38591426344505,8.776342946219797,0.4666666666666667,0.3377777777777778,-0.7411111111111112,0.002627346285323888,-0.0001994613418345039,-0.001090830782496456
1590503617.5156527,-0.1499516687348965,-4.3900483312651035,8.714589184246622,0.4666666666666667,0.3377777777777778,-0.7411111111111112,0.0021763894418197205,0.0005427793296616322,-0.001090830782496456
1590503617.5256526,-0.15820170730460564,-4.395449573173849,8.666403414609212,0.4666666666666667,0.3377777777777778,-0.7411111111111112,0.0020835799135891773,0.0019854982621854422,-9.808165140373485e-05
1590503617.5356526,-0.18,-4.3926813837663214,8.718044151298963,0.4666666666666667,0.3377777777777778,-0.7411111111111112,0.002979998752290426,0.004070829534786882,0.000505843592098572
1590503617.5456526,-0.17302370653997967,-4.3895355598099695,8.74697629346002,0.46860452596111674,0.3401032089311179,-0.7287088116266306,0.0018011637822969678,0.0021309989994015358,-0.000710332999800512
1590503617.5556526,-0.14644480723345474,-4.383555192766545,8.746444807233456,0.4722222222222222,0.34444444444444444,-0.7055555555555556,0.00010506934700173069,-0.0004928807177473626,0.0004928807177473626
1590503617.5656526,-0.1418329668205215,-4.388167033179479,8.682668132717914,0.4722222222222222,0.34444444444444444,-0.7055555555555556,-0.0017362190053006592,0.0008453338859161538,0.0017362190053006592
1590503617.5756526,-0.16257089795713497,-4.386285448978567,8.681427244892838,0.4722222222222222,0.34444444444444444,-0.7055555555555556,-0.00149602544222968,0.00012475319670321623,0.000810389319466448
1590503617.5856526,-0.17,-4.39,8.727379287155346,0.4722222222222222,0.34444444444444444,-0.7055555555555556,-9.529180810106909e-05,-0.0015886002696941493,0.0004977694871976934
1590503617.5956526,-0.17235931320773257,-4.39,8.767077939623197,0.4722222222222222,0.34444444444444444,-0.7160413920343669,0.0005761084879874309,-0.0019243004177383993,0.0013481919297509684
1590503617.6056526,-0.16917779035318398,-4.393607403215605,8.782785193568788,0.4722222222222222,0.34444444444444444,-0.75,-0.001090830782496456,-0.001090830782496456,0.002181661564992912
1590503617.6156526,-0.15568034773050884,-4.4,8.701835827233893,0.4722222222222222,0.34444444444444444,-0.75,-0.001090830782496456,0.0007680586654204272,-0.00029685769889626484
1590503617.6256526,-0.16,-4.3953214143369586,8.673392928315208,0.4722222222222222,0.34444444444444444,-0.75,-7.012173053797758e-05,0.0016713070390136728,-0.0016713070390136728
1590503617.6356525,-0.16,-4.392181587122281,8.708726348489126,0.4722222222222222,0.34444444444444444,-0.75,0.00037690806619158814,0.001090830782496456,-0.0006148823049598774
1590503617.6456525,-0.16,-4.398762119928457,8.735048479713829,0.4722222222222222,0.34444444444444444,-0.75,-0.001776566258869546,0.001090830782496456,0.0008207672450808784
1590503617.6556525,-0.15733909299334564,-4.384678185986691,8.74,0.48,0.3377777777777778,-0.7422222222222222,0.004873634058038463,0.002181661564992912,-0.001090830782496456
1590503617.6656525,-0.15,-4.374892907248636,8.705749649259548,0.48,0.3377777777777778,-0.7422222222222222,0.002205025578946928,0.002181661564992912,-0.001090830782496456
1590503617.6756525,-0.15,-4.38,8.678266472633196,0.48,0.3377777777777778,-0.7422222222222222,0.00018909850140099447,0.0008290631433497198,-0.0006399646419487252
1590503617.6856525,-0.1516806223647485,-4.383361244729497,8.703444978917988,0.48,0.3377777777777778,-0.7422222222222222,-0.001090830782496456,-0.0009075033215744908,0.0003666549218439302
1590503617.6956525,-0.16,-4.394405608452855,8.77,0.47782440328722114,0.3377777777777778,-0.7384926278574585,-0.0007857040570482387,0.00030512672544821725,0.0015714081140964773
1590503617.7056525,-0.16481087704043318,-4.38,8.77,0.4722222222222222,0.3377777777777778,-0.7288888888888889,-0.00026239263832549827,0.0003036528675199613,0.0
1590503617.7156525,-0.16026997699552933,-4.3849325057511175,8.725607448239941,0.4722222222222222,0.3377777777777778,-0.7288888888888889,-0.001090830782496456,-0.0011055557433609204,-0.0005380529108159958
1590503617.7256525,-0.15519780938368483,-4.395065936461228,8.695197809383686,0.4722222222222222,0.3377777777777778,-0.7288888888888889,-0.001090830782496456,0.0,-0.001090830782496456
1590503617.7356524,-0.17,-4.4,8.722268702814002,0.4722222222222222,0.3377777777777778,-0.7288888888888889,-0.0006447281594693364,0.0,-0.0006447281594693364
1590503617.7456524,-0.16733060352501336,-4.394661207050027,8.742669396474987,0.4775610151721955,0.34133697307775995,-0.7321514845805392,0.0005823719691205933,0.0,-0.00029118598456029664
1590503617.7556524,-0.16,-4.38,8.753912461983804,0.4922222222222222,0.3511111111111111,-0.7411111111111112,0.0013280947715367608,-0.0004267833967280755,-0.00023726398904030499
1590503617.7656524,-0.15720021843178825,-4.385599563136424,8.732002184317883,0.4922222222222222,0.3511111111111111,-0.7411111111111112,0.0009162263756614736,-0.001090830782496456,0.0013962395743836139
1590503617.7756524,-0.15,-4.396195300627363,8.679023496863188,0.4922222222222222,0.3511111111111111,-0.7411111111111112,0.0028574640281075576,-0.001090830782496456,0.0017666332456111016
1590503617.7856524,-0.15161755795784304,-4.391617557957843,8.718087789789216,0.4922222222222222,0.3511111111111111,-0.7411111111111112,0.0020052133637041823,-0.0009143825812077263,0.001090830782496456
1590503617.7956524,-0.15830511177014572,-4.398305111770146,8.751525558850728,0.4922222222222222,0.3511111111111111,-0.7411111111111112,0.0012757144078980524,-0.00018488362540159645,0.001090830782496456
1590503617.8056524,-0.14267508968959602,-4.388662455155202,8.738662455155202,0.48,0.3644444444444445,-0.7355555555555555,0.0009449272735289453,-0.0006531202555939239,0.0029806853295543468
1590503617.8156524,-0.15903096240836062,-4.38048451879582,8.73048451879582,0.48,0.3644444444444445,-0.7355555555555555,5.2852801717822705e-05,0.002023103159839444,0.0011965363859321016
1590503617.8256524,-0.1549318999312937,-4.387534050034353,8.664931899931293,0.48,0.3644444444444445,-0.7355555555555555,0.0027345055213646354,-0.00028385054330935745,0.002181661564992912
1590503617.8356524,-0.16870602282509095,-4.382587954349818,8.689057840224363,0.48,0.3644444444444445,-0.7355555555555555,0.0006673777422248747,0.0016170575112974704,0.0017582085247213307
1590503617.8456523,-0.1566340347085373,-4.396634034708537,8.743268069417075,0.477382026995529,0.35771251386151903,-0.7333115786945804,-0.0010801519991702558,-0.0014473218544444745,-0.0007236609272222372
1590503617.8556523,-0.15,-4.398390475052762,8.742585712579142,0.4722222222222222,0.34444444444444444,-0.7288888888888889,0.0006332013591304141,0.0004576294233660419,0.0
1590503617.8656523,-0.15344643579032474,-4.399660692629026,8.725535642096752,0.4722222222222222,0.34444444444444444,-0.7288888888888889,0.001127843474995123,0.001090830782496456,0.0
1590503617.8756523,-0.16442864321608042,-4.38,8.682143216080403,0.4722222222222222,0.34444444444444444,-0.7288888888888889,0.001823222244050986,0.001090830782496456,-0.0009661800689589212
1590503617.8856523,-0.15858712595015878,-4.38,8.717608582699896,0.4722222222222222,0.34444444444444444,-0.7288888888888889,0.0008299676220214543,0.0006758469714857288,-0.0013516939429714576
1590503617.8956523,-0.14303455790784558,-4.38,8.745172789539229,0.4722222222222222,0.34646748304967484,-0.7373182164106822,0.0015196237295637119,0.0003310189177146001,0.0003310189177146001
1590503617.9056523,-0.15345723068225983,-4.38,8.766171077270961,0.4722222222222222,0.3511111111111111,-0.7566666666666667,0.0007542507300800496,0.0007137054174564312,0.0007137054174564312
1590503617.9156523,-0.15823094671569687,-4.3817690532843026,8.725847573725575,0.4722222222222222,0.3511111111111111,-0.7566666666666667,0.002181661564992912,0.00038594755567886,0.0
1590503617.9256523,-0.15948580504268414,-4.39,8.678971610085368,0.4722222222222222,0.3511111111111111,-0.7566666666666667,0.0011469207512609153,0.00011217993752891866,0.0005173704068659983
1590503617.9356523,-0.16732556042257152,-4.387325560422571,8.713372197887143,0.4722222222222222,0.3511111111111111,-0.7566666666666667,-0.0002917361016985819,-0.0013064532598971662,0.0005073585790992921
1590503617.9456522,-0.16192192733831487,-4.381921927338315,8.740390363308425,0.4722222222222222,0.3511111111111111,-0.7566666666666667,-0.0008811810322609222,0.0004618815317898547,-0.0006715312820253885
1590503617.9556522,-0.15005327573794097,-4.400053275737942,8.77,0.48,0.3377777777777778,-0.7422222222222222,-0.002164227120521046,5.811481490621868e-06,0.0021584156390304244
1590503617.9656522,-0.16370051457088924,-4.413700514570889,8.732994854291107,0.48,0.3377777777777778,-0.7422222222222222,0.0014944943029967218,0.0002835037414959243,-0.0009706710034921144
