time,acc_x,acc_y,acc_z,mag_x,mag_y,mag_z,gyr_x,gyr_y,gyr_z
1590505524.5729418,-0.51,-4.39,8.68,0.5455555555555556,0.2488888888888889,-0.6166666666666667,0.0,-0.004363323129985824,0.001090830782496456
1590505524.5829418,-0.47697736035590704,-4.39,8.671864162135442,0.5455555555555556,0.2488888888888889,-0.6166666666666667,0.0007611119456793858,-0.0022833358370381576,-0.0008627862177246314
1590505524.5929418,-0.47,-4.394330145097274,8.636495217645912,0.5455555555555556,0.2488888888888889,-0.6166666666666667,0.00047234555647822986,0.00047234555647822986,0.001709316008514682
1590505524.6029418,-0.47,-4.41,8.676890805576047,0.5455555555555556,0.2488888888888889,-0.6166666666666667,0.002550161778263197,0.003655662418074052,0.0003685002132702851
1590505524.6129417,-0.467769198597304,-4.405538397194608,8.72115400701348,0.5497692915384258,0.2488888888888889,-0.6102221292811004,0.0037591777154287838,0.007031670062918151,0.0008474880985267483
1590505524.6229417,-0.46,-4.393718004972941,8.76,0.5644444444444444,0.2488888888888889,-0.5877777777777777,0.004643011057690415,0.00750993197778385,0.0008111428547918652
1590505524.6329417,-0.46608426174926365,-4.360452298629786,8.686988859008835,0.5644444444444444,0.2488888888888889,-0.5877777777777777,0.001945112346516859,0.004126773911509771,0.002181661564992912
1590505524.6429417,-0.4360379837849899,-4.27366350135125,8.48336498648749,0.5644444444444444,0.2488888888888889,-0.5877777777777777,-0.005886342837290584,-0.0009072992403344313,0.0005831575467282022
1590505524.6529417,-0.39841623083859334,-4.318416230838594,8.496832461677187,0.5644444444444444,0.2488888888888889,-0.5877777777777777,-0.006122029567410224,-0.0040409723057840755,-0.00024755661978242364
1590505524.6629417,-0.4835885852448064,-4.412747749180798,8.691906913116789,0.5644444444444444,0.2488888888888889,-0.589914916029509,0.01159130469546094,-0.00337240332712247,0.00416350117071962
1590505524.6729417,-0.42668324986273104,-4.422178000366051,8.76098950100664,0.5644444444444444,0.2488888888888889,-0.6111111111111112,-0.002057443234592324,-0.004363323129985824,0.001938651742413503
1590505524.6829417,-0.4476195071629424,-4.366347980898821,8.607456947471755,0.5644444444444444,0.2488888888888889,-0.6111111111111112,0.0017488757542971165,-0.004363323129985824,0.001177387944635615
1590505524.6929417,-0.46740327115757796,-4.385552453368184,8.56035899568334,0.5644444444444444,0.2488888888888889,-0.6111111111111112,0.0028687065439966597,-0.0011721970562611414,0.0037576444247467613
1590505524.7029417,-0.5020543302570519,-4.406713071588717,8.648972834871474,0.5644444444444444,0.2488888888888889,-0.6111111111111112,0.0010684215156783943,0.00329490161430743,0.001023602982042271
1590505524.7129416,-0.5798138175103862,-4.253844987140879,8.595193766073901,0.5626287560723627,0.24931610968231988,-0.6096158383341027,-0.0009437018246040715,0.004677890404853848,-0.0019719500484142293
1590505524.7229416,-0.39194280511246754,-4.293885610224935,8.55666104609989,0.5455555555555556,0.2533333333333333,-0.5955555555555555,-0.009333072100509,0.0075449895508578595,0.00012110123548977618
1590505524.7329416,-0.4528866426776124,-4.422886642677613,8.759175451602987,0.5455555555555556,0.2533333333333333,-0.5955555555555555,0.003756080910396725,0.0035873762165701305,0.003070078274293002
1590505524.7429416,-0.43013398911451456,-4.400133989114515,8.66058061949623,0.5455555555555556,0.2533333333333333,-0.5955555555555555,-0.008653566534655675,0.001105446727559651,-0.0010664708740577974
1590505524.7529416,-0.4939627213420317,-4.372792544268407,8.63234035414725,0.5455555555555556,0.2533333333333333,-0.5955555555555555,-0.003272492347489368,-0.00248628088993908,0.0007862114575502882
1590505524.7629416,-0.5309903834522802,-4.38099038345228,8.69594230071368,0.5474262798543069,0.2514626090345819,-0.5983066207007781,-0.0035965945743560573,-0.003812662725600517,0.0002160681512444595
1590505524.7729416,-0.5337456567060459,-4.393127171646977,8.743745656706047,0.5644444444444444,0.2344444444444445,-0.6233333333333333,-0.005180498657109646,-0.007021038712635285,0.0018405400555256393
1590505524.7829416,-0.49543463743753885,-4.4,8.684378612384,0.5644444444444444,0.2344444444444445,-0.6233333333333333,-0.002181661564992912,-0.002889683009399102,0.0007080214444061898
1590505524.7929416,-0.45,-4.4,8.616619949739029,0.5644444444444444,0.2344444444444445,-0.6233333333333333,-0.00254425262057046,-0.001819070509415364,-0.00036259105557754804
1590505524.8029416,-0.45,-4.398055080024999,8.655834759925002,0.5644444444444444,0.2344444444444445,-0.6233333333333333,-0.0022117030583778787,-0.0006665150668518603,-0.0004543572090295623
1590505524.8129416,-0.45,-4.392356457704953,8.672930626885138,0.5644444444444444,0.2344444444444445,-0.6233333333333333,0.0008964132638857054,0.000576731462053573,0.001410512584328588
1590505524.8229415,-0.46920371599203714,-4.39,8.708805573988057,0.5527088402270883,0.24831379488313798,-0.6030627442306274,8.686111074955203e-05,0.0052804316909831756,0.001134261337871232
1590505524.8329415,-0.54,-4.3750150313152405,8.7074624217119,0.5522222222222222,0.2488888888888889,-0.6022222222222222,-0.00027352752669237854,0.004360043805712766,0.0013610789849157763
1590505524.8429415,-0.5351155097759729,-4.39,8.673256326816018,0.5522222222222222,0.2488888888888889,-0.6022222222222222,-0.0005580155531792778,0.00038041047674021845,-0.001090830782496456
1590505524.8529415,-0.51,-4.387878734380823,8.69,0.5522222222222222,0.2488888888888889,-0.6022222222222222,0.0017188731979430806,-0.0035038865310142837,-0.0015536191495462873
1590505524.8629415,-0.5085946885867847,-4.379648672146696,8.689648672146696,0.551988003653353,0.24861563389187483,-0.6025345136473812,0.00011497177113966362,-0.004439970977412266,-0.0031575205763497045
1590505524.8729415,-0.47544340815681313,-4.371360852039204,8.681360852039203,0.5464627902483578,0.242169551586047,-0.6099014648540415,0.0028271545590535622,-0.006248092836021532,-0.00044533778843580587
1590505524.8829415,-0.47161155427487084,-4.391611554274871,8.665496011526162,0.5455555555555556,0.2411111111111111,-0.6111111111111112,0.0025332481671314893,-0.004575187407135837,0.0009150374814271673
1590505524.8929415,-0.4789810942826018,-4.398981094282602,8.599170151456583,0.5455555555555556,0.2411111111111111,-0.6111111111111112,0.0041410323857859095,-0.0005557268604997846,0.00011114537209995696
1590505524.9029415,-0.5343629152206247,-4.38,8.645637084779375,0.5455555555555556,0.2411111111111111,-0.6111111111111112,0.004158352943289663,-6.597984901565083e-05,0.001295800969192617
1590505524.9129415,-0.5103689790625834,-4.38,8.669631020937416,0.5455555555555556,0.2411111111111111,-0.6111111111111112,0.0032859088048081244,0.004296240843392043,0.0021682451076741557
1590505524.9229414,-0.4995378319025754,-4.387846626073069,8.70307771012178,0.5455555555555556,0.2488888888888889,-0.5955555555555555,0.003272492347489368,0.0035578037227974473,-0.00023489665657221788
1590505524.9329414,-0.4671199403096437,-4.41,8.708319343406082,0.5455555555555556,0.2488888888888889,-0.5955555555555555,0.0026441607943558003,0.00404915735341904,0.0009249984587257768
1590505524.9429414,-0.4654317754339182,-4.399136449132164,8.649011214018714,0.5455555555555556,0.2488888888888889,-0.5955555555555555,0.001387088174842759,0.002087462778104156,-0.001885404172646609
1590505524.9529414,-0.4836424032351242,-4.371821201617562,8.701821201617562,0.5455555555555556,0.2488888888888889,-0.5955555555555555,0.001982999286436004,-0.0014881553396102719,-0.000892168503939548
1590505524.9629414,-0.49710379356826495,-4.378551896784132,8.708551896784133,0.5455555555555556,0.2488888888888889,-0.5955555555555555,0.0012487943389064954,-0.002956565234669289,-0.00015796355641003958
1590505524.9729414,-0.5178804248545108,-4.374239150290978,8.716820637281767,0.5644444444444444,0.2411111111111111,-0.5955555555555555,0.0,-0.0036193070196664685,-0.0008596210010450555
1590505524.9829414,-0.4953088755951654,-4.40687258373011,8.675926626785495,0.5644444444444444,0.2411111111111111,-0.5955555555555555,0.0003411481936875947,-0.005692114210759749,0.0007496825888088613
1590505524.9929414,-0.4702723471578709,-4.390136173578935,8.6,0.5644444444444444,0.2411111111111111,-0.5955555555555555,0.002181661564992912,-0.0010165596166636936,-0.001090830782496456
1590505525.0029414,-0.49,-4.398668043659517,8.606659781702417,0.5644444444444444,0.2411111111111111,-0.5955555555555555,0.002181661564992912,0.004363323129985824,-0.001090830782496456
1590505525.0129414,-0.49,-4.390720078829682,8.646399605851588,0.5644444444444444,0.2411111111111111,-0.5955555555555555,0.002181661564992912,0.004363323129985824,-0.001090830782496456
1590505525.0229414,-0.49,-4.39,8.65794546515019,0.5547333203719905,0.2411111111111111,-0.5955555555555555,-0.0004184858251309676,0.004363323129985824,-0.00022411498578849606
1590505525.0329413,-0.508945170660857,-4.39,8.694725853304284,0.5522222222222222,0.2411111111111111,-0.5955555555555555,-0.002066597533651147,0.0029273002534640734,0.0
1590505525.0429413,-0.5013302469135803,-4.39,8.656651234567901,0.5522222222222222,0.2411111111111111,-0.5955555555555555,-0.0012359382106618797,0.00043532228449627087,0.0
1590505525.0529413,-0.4785142801251956,-4.3929714397496085,8.717428599374022,0.5522222222222222,0.2411111111111111,-0.5955555555555555,-0.0014149645772171362,-0.00561622080984262,0.001090830782496456
1590505525.0629413,-0.4703094679186228,-4.409381064162754,8.758452660406885,0.5522222222222222,0.2411111111111111,-0.5955555555555555,-0.0032049769211235863,-0.0065112269817958444,0.001090830782496456
1590505525.0729413,-0.47821186278471317,-4.383576274430574,8.767483039492992,0.5455555555555556,0.2533333333333333,-0.5811111111111111,-0.004363323129985824,-0.005844264936034744,-0.0007007197589439921
1590505525.0829413,-0.47170541841647035,-4.4,8.702325617125885,0.5455555555555556,0.2533333333333333,-0.5811111111111111,-0.0039912585488413805,-0.00744978318690297,0.0009978146372103451
1590505525.0929413,-0.48846765850534507,-4.3984676585053455,8.623064682989309,0.5455555555555556,0.2533333333333333,-0.5811111111111111,0.0,-0.004451238749482557,0.0
1590505525.1029413,-0.48,-4.392768133174791,8.648304399524376,0.5455555555555556,0.2533333333333333,-0.5811111111111111,0.00015097824385563313,0.0016947437579189885,0.00030195648771126626
1590505525.1129413,-0.48,-4.4081136010244215,8.694340803073263,0.5455555555555556,0.2533333333333333,-0.5811111111111111,0.0009879436789649143,0.005042605498356113,0.0019758873579298285
1590505525.1229413,-0.4579780101368879,-4.41,8.7,0.5594212528767742,0.2443614115372506,-0.5917142914155724,0.005094541521581055,0.00785638035593304,-0.00022056487845784805
1590505525.1329412,-0.4615814395855677,-4.398418560414433,8.7,0.5644444444444444,0.2411111111111111,-0.5955555555555555,0.007808323775534762,0.008726646259971648,-0.0004591612422184426
1590505525.1429412,-0.46158460374955224,-4.398415396250448,8.657923018747761,0.5644444444444444,0.2411111111111111,-0.5955555555555555,0.00964462358766102,0.01148057824303976,0.0009179773276893712
1590505525.1529412,-0.4960128210124313,-4.3753162386500914,8.761329059662522,0.5644444444444444,0.2411111111111111,-0.5955555555555555,0.011564204849964718,0.004508301049151256,0.00057991167666173
1590505525.1629412,-0.4714952651884182,-4.408006313082109,8.769501578270527,0.5644444444444444,0.2411111111111111,-0.5955555555555555,0.008889754389523843,0.005399784535964881,0.00414584562391623
1590505525.1729412,-0.40250214224507286,-4.41,8.692859591137225,0.5526591042015206,0.2528964513540349,-0.6019839229607867,0.006622967945924742,0.0044023147554588275,0.0022596448159389187
1590505525.1829412,-0.5197167796928649,-4.24,8.468605080200202,0.5522222222222222,0.2533333333333333,-0.6022222222222222,0.0007270279742516224,0.003211858546115229,-0.001151464583870595
1590505525.1929412,-0.2546220597529937,-4.24,8.174851471618183,0.5522222222222222,0.2533333333333333,-0.6022222222222222,-0.008651571402646385,0.001648758649965561,-0.002714564480020263
1590505525.2029412,-0.2605094283148758,-4.493789883268483,8.769490571685123,0.5522222222222222,0.2533333333333333,-0.6022222222222222,0.01625478260183854,-0.0009345034018740964,0.0006739577675034973
1590505525.2129412,-0.44463513917988623,-4.384988326848249,8.585364860820114,0.5522222222222222,0.2533333333333333,-0.6022222222222222,-0.004743171239041909,0.001804360142588571,-0.006629678351063616
1590505525.2229412,-0.2832175154688244,-4.390318895763921,8.567724892908139,0.5455555555555556,0.2411111111111111,-0.6166666666666667,0.0013722350110129144,0.0013722350110129144,-0.011189712053481017
1590505525.2329412,-0.4489983579638752,-4.452126436781609,8.855131362889985,0.5455555555555556,0.2411111111111111,-0.6166666666666667,0.0027817080545435077,0.003027100201016438,-0.013458057609666866
1590505525.2429411,-0.5196362258431224,-4.390318302387268,8.581409624857901,0.5455555555555556,0.2411111111111111,-0.6166666666666667,-0.0010709899800865168,0.0011007511837014257,-0.01634758113563938
1590505525.2529411,-0.5283196092114445,-4.423278436845778,8.76303140265178,0.5455555555555556,0.2411111111111111,-0.6166666666666667,0.0007242263827404942,0.0029058879477334067,-0.016362461737446838
1590505525.2629411,-0.3544587718860678,-4.463436424402653,8.74984536339602,0.5455555555555556,0.2411111111111111,-0.6166666666666667,0.002002667807372216,0.0005369812728620877,-0.01545062471257108
1590505525.272941,-0.33554939981532783,-4.462225300092336,8.724450600184673,0.5714712219144352,0.2411111111111111,-0.589023289217195,0.002181661564992912,0.00254426459518564,-0.019512071946926446
1590505525.282941,-0.40607347221373735,-4.443926527786263,8.652994277801536,0.5788888888888889,0.2411111111111111,-0.5811111111111111,0.002181661564992912,0.003404994956437,-0.03457996000016053
1590505525.292941,-0.4487791964485715,-4.401220803551428,8.533418249943999,0.5788888888888889,0.2411111111111111,-0.5811111111111111,0.002181661564992912,0.00433668932812024,-0.04762368120372588
1590505525.302941,-0.5391829326237765,-4.38,8.627353606386011,0.5788888888888889,0.2411111111111111,-0.5811111111111111,0.002181661564992912,0.006366728245907092,-0.05035647244390861
1590505525.312941,-0.5312112515442364,-4.38,8.699098736101872,0.5788888888888889,0.2411111111111111,-0.5811111111111111,0.002181661564992912,0.004627577223945718,-0.05209562346586999
1590505525.322941,-0.5209378770949721,-4.361875754189945,8.718124245810056,0.5522222222222222,0.2411111111111111,-0.6022222222222222,0.0009885242619570678,0.0063403716538999585,-0.04997360295375819
1590505525.332941,-0.5302240526120666,-4.379775947387933,8.698879736939666,0.5522222222222222,0.2411111111111111,-0.6022222222222222,2.4440348614098773e-05,0.0043144424327576265,-0.04789879303538767
1590505525.342941,-0.536984799883944,-4.373015200116056,8.66507600058028,0.5522222222222222,0.2411111111111111,-0.6022222222222222,0.0007619234722983756,0.0028394761853890726,-0.04494886054065056
1590505525.352941,-0.54,-4.36065623869074,8.678031283927782,0.5522222222222222,0.2411111111111111,-0.6022222222222222,7.158453645237923e-05,0.004220154057081066,-0.04057549256172601
1590505525.362941,-0.5841094541361845,-4.372602701181767,8.717808103545302,0.5522222222222222,0.2411111111111111,-0.6022222222222222,0.00206211215875139,0.004363323129985824,-0.03761125607403368
1590505525.372941,-0.6172260869565217,-4.358321739130434,8.732773913043479,0.5474048309178744,0.2555632850241546,-0.6022222222222222,0.00011951711182135076,0.005939810747819832,-0.035997415822383035
1590505525.382941,-0.641789539357388,-4.35,8.671894561713632,0.5455555555555556,0.2611111111111111,-0.6022222222222222,-0.0018831207914116836,0.003375824659317825,-0.031243675768891678
1590505525.392941,-0.6375833729538817,-4.36,8.573020783807648,0.5455555555555556,0.2611111111111111,-0.6022222222222222,0.0,0.0020498550064069446,-0.021553002532757184
1590505525.402941,-0.6090952930788562,-4.36,8.60863088365143,0.5455555555555556,0.2611111111111111,-0.6022222222222222,0.0,0.0004960712833121659,-0.018445435086567628
1590505525.412941,-0.5530162909330262,-4.383491854533487,8.674814327244802,0.5455555555555556,0.2611111111111111,-0.6022222222222222,-0.000854187935435215,-0.00170837587087043,-0.01147397697189679
1590505525.422941,-0.5097605402283532,-4.382440135057088,8.705119729885824,0.5363157206253301,0.2518712761808857,-0.6022222222222222,-0.0035647907998696323,-0.0005323548867441276,-0.005694210346846144
1590505525.432941,-0.49930461927378583,-4.39,8.780264669833,0.5333333333333333,0.2488888888888889,-0.6022222222222222,-0.003272492347489368,-0.003908197508960319,-7.585427017091756e-05
1590505525.442941,-0.49127202390072006,-4.39,8.667808334610081,0.5333333333333333,0.2488888888888889,-0.6022222222222222,-0.003272492347489368,0.0013491238688069012,-0.0009520744997987874
1590505525.452941,-0.4695379487667841,-4.399537948766785,8.710924102466432,0.5333333333333333,0.2488888888888889,-0.6022222222222222,-0.0022320635358211455,0.0011412327533246896,-0.0020808576233364447
1590505525.462941,-0.46154956670793257,-4.3915495667079325,8.726900866584135,0.5333333333333333,0.2488888888888889,-0.6022222222222222,-0.003103460841034913,0.0020126300585384567,-0.00033806301290891026
1590505525.472941,-0.45021588135911395,-4.399568237281772,8.737841186408861,0.5522222222222222,0.2533333333333333,-0.6022222222222222,-0.0032489433443005015,0.002111014555426312,0.0021345635586151788
1590505525.482941,-0.46005838691376705,-4.380116773827534,8.639474517776097,0.5522222222222222,0.2533333333333333,-0.6022222222222222,-0.002175292540709709,-0.001090830782496456,-6.369024283203116e-06
1590505525.492941,-0.469973052193646,-4.3999461043872925,8.550242530257187,0.5522222222222222,0.2533333333333333,-0.6022222222222222,-0.0010937703321656266,-0.001090830782496456,-0.0010878912328272853
1590505525.502941,-0.47,-4.391060842433697,8.567878315132605,0.5522222222222222,0.2533333333333333,-0.6022222222222222,-0.004016163255369167,-0.003041052431078264,-0.001090830782496456
1590505525.512941,-0.47759774814571304,-4.397597748145714,8.638379733311417,0.5522222222222222,0.2533333333333333,-0.6022222222222222,-0.001048180107986157,-0.0041012781029892845,-0.001090830782496456
1590505525.5229409,-0.45,-4.4,8.68,0.5455555555555556,0.2611111111111111,-0.5877777777777777,-0.002181661564992912,-0.00545415391248228,0.001090830782496456
1590505525.5329409,-0.43603183812597457,-4.406984080937013,8.735872647496102,0.5455555555555556,0.2611111111111111,-0.5877777777777777,-0.0014198165176388944,-0.0046923088651282625,0.0003289857351424384
1590505525.5429409,-0.4369470900564015,-4.403052909943598,8.718317459661591,0.5455555555555556,0.2611111111111111,-0.5877777777777777,-0.0026064507189560073,0.00018353667939282996,0.0007578099682297756
1590505525.5529408,-0.45790338525076335,-4.394032204916412,8.705967795083588,0.5455555555555556,0.2611111111111111,-0.5877777777777777,-0.0019705214313276527,0.002181661564992912,-0.00021114013366525949
1590505525.5629408,-0.47,-4.396878572261752,8.723757144523505,0.5455555555555556,0.2611111111111111,-0.5877777777777777,0.0026608483988762267,0.002181661564992912,0.0011601767263271538
1590505525.5729408,-0.4872852189309823,-4.4,8.741523479287322,0.549396715317996,0.2540689848799702,-0.6012218369463196,0.002477798240775223,0.0015531532685893782,0.0015531532685893782
1590505525.5829408,-0.47243103761584593,-4.4,8.681077594039616,0.5522222222222222,0.2488888888888889,-0.6111111111111112,0.0040981380635086734,0.001090830782496456,0.001090830782496456
1590505525.5929408,-0.443214617839998,-4.4,8.591251162439994,0.5522222222222222,0.2488888888888889,-0.6111111111111112,0.00545415391248228,0.0020063313603013084,0.001090830782496456
1590505525.6029408,-0.44,-4.4,8.609643095396931,0.5522222222222222,0.2488888888888889,-0.6111111111111112,0.0032984471826521702,0.0032595149299079673,0.0021686841474115107
1590505525.6129408,-0.46090347594031655,-4.4,8.630903475940316,0.5522222222222222,0.2488888888888889,-0.6111111111111112,0.003272492347489368,0.0017523486796979454,0.0014215897310972006
1590505525.6229408,-0.47,-4.4,8.734577358789512,0.5637816771853846,0.24153287209414911,-0.6027042347742657,0.00533585023338558,0.003154188668392668,0.001090830782496456
1590505525.6329408,-0.48710864202736603,-4.391445678986317,8.757108642027365,0.5644444444444444,0.2411111111111111,-0.6022222222222222,0.004521022243974106,0.005138755684505716,-0.0007754325545198922
1590505525.6429408,-0.47185222541184985,-4.399073887294075,8.678335014353324,0.5644444444444444,0.2411111111111111,-0.6022222222222222,0.007332745803169985,0.0024847312392981187,0.0008887843329596515
1590505525.6529408,-0.37489046159394157,-4.417292643346556,8.67,0.5644444444444444,0.2411111111111111,-0.6022222222222222,0.006692648093817396,0.005011163715966296,0.001090830782496456
1590505525.6629407,-0.3498657680268464,-4.4352013479597305,8.680134231973152,0.5644444444444444,0.2411111111111111,-0.6022222222222222,0.005992248085314948,0.00545415391248228,-0.0011201156561586937
1590505525.6729407,-0.3507909429280397,-4.45,8.68190679280397,0.5632454507857734,0.24650658257513097,-0.6022222222222222,0.005159876594530576,0.004865599276578873,-0.006509542844958109
1590505525.6829407,-0.4406973537330094,-4.434825661566747,8.705523015299757,0.56,0.2611111111111111,-0.6022222222222222,-0.0014300992834679225,0.0016172288007882975,-0.0252032122351568
1590505525.6929407,-0.5032037965988801,-4.40119746893408,8.61919114126928,0.56,0.2611111111111111,-0.6022222222222222,-0.0017015579724635617,-0.0012655707800422534,-0.036216272220036885
1590505525.7029407,-0.5329212769816797,-4.3706180845274805,8.612303192454199,0.56,0.2611111111111111,-0.6022222222222222,0.0003186618855814515,-0.0014769152309539583,-0.04138414717198927
1590505525.7129407,-0.5274962013295347,-4.366251899335233,8.667511396011395,0.56,0.2611111111111111,-0.6022222222222222,0.00040885435810236346,0.00027312206629172904,-0.0411784476685736
1590505525.7229407,-0.5304983042003653,-4.343754239499087,8.731993216801461,0.5483352175551498,0.2570284372554135,-0.5987227874887671,0.0005725936692885128,0.001090830782496456,-0.03005405290517564
1590505525.7329407,-0.5255863674016804,-4.341620448897479,8.741172734803362,0.5377777777777778,0.2533333333333333,-0.5955555555555555,0.001090830782496456,0.001090830782496456,-0.02072578486743266
1590505525.7429407,-0.49175931176384813,-4.366944412941691,8.696111174116618,0.5377777777777778,0.2533333333333333,-0.5955555555555555,0.00047471454155885657,0.002323063264371655,-0.014564622458056668
1590505525.7529407,-0.4754001217372623,-4.390800243474525,8.686200365211787,0.5377777777777778,0.2533333333333333,-0.5955555555555555,0.0011781238040468008,0.003272492347489368,-0.0045159199242575014
1590505525.7629406,-0.47327213448331673,-4.386544268966634,8.67981640344995,0.5377777777777778,0.2533333333333333,-0.5955555555555555,0.0007138690037740119,0.0003369072250515681,0.0
1590505525.7729406,-0.46193312434691747,-4.388066875653082,8.653866248693836,0.549429931498897,0.24347381864623244,-0.5892813189364913,-0.0017599192561907292,-0.00021087115440109137,0.0
1590505525.7829406,-0.46643474613364455,-4.383565253866355,8.65,0.5522222222222222,0.2411111111111111,-0.5877777777777777,-0.002181661564992912,-0.0021057657480388708,0.0
1590505525.7929406,-0.46199842784149786,-4.388001572158502,8.593988994890484,0.5522222222222222,0.2411111111111111,-0.5877777777777777,-0.0030544976868789892,-0.001526820103717214,0.0
1590505525.8029406,-0.4513911519514968,-4.415826544145509,8.674697328533535,0.5522222222222222,0.2411111111111111,-0.5877777777777777,-0.002333412702175182,-0.0020299104278106417,0.0
1590505525.8129406,-0.445183736146348,-4.42,8.699632527707305,0.5522222222222222,0.2411111111111111,-0.5877777777777777,-0.002181661564992912,-0.002707034451811775,0.0
1590505525.8229406,-0.43883184913567314,-4.418831849135673,8.715840754321635,0.5536499621675106,0.2425388510563995,-0.588686339561143,-0.0020542360728521523,-0.0030176413632078494,0.0001274254921407594
1590505525.8329406,-0.4539381281816995,-4.3980309359091505,8.712123743636601,0.5644444444444444,0.2533333333333333,-0.5955555555555555,0.00021479157230073153,0.0008676027496993253,0.001090830782496456
1590505525.8429406,-0.46404704039207023,-4.38404704039207,8.67404704039207,0.5644444444444444,0.2533333333333333,-0.5955555555555555,0.001090830782496456,0.0034803958824504797,0.0004414636237676721
1590505525.8529406,-0.465093246085534,-4.390186492171068,8.67,0.5644444444444444,0.2533333333333333,-0.5955555555555555,-0.0005759301013825646,0.003807736168692817,0.0005555869612930067
1590505525.8629405,-0.47532514744763066,-4.378699410209478,8.685975442342892,0.5644444444444444,0.2533333333333333,-0.5955555555555555,-0.0033434285164345053,0.0026916088717685712,0.001090830782496456
1590505525.8729405,-0.4722852183027087,-4.390859126789166,8.676855654908126,0.5498720790162276,0.24990454146787056,-0.6006987433537497,-0.003521770994421266,-0.0003429948417007626,-0.0014338256241972186
1590505525.8829405,-0.45546867532467533,-4.407265662337663,8.655468675324675,0.5455555555555556,0.2488888888888889,-0.6022222222222222,-0.002479931534174644,-0.004261074035755351,-0.0013891007516781883
1590505525.8929405,-0.4659902227654019,-4.41,8.602029331703795,0.5455555555555556,0.2488888888888889,-0.6022222222222222,-0.003053792925566713,-0.00545415391248228,-0.001090830782496456
1590505525.9029405,-0.47,-4.402819330424533,8.661806695754668,0.5455555555555556,0.2488888888888889,-0.6022222222222222,-0.002489202806303871,-0.0046708643712967835,0.00047574829987453754
1590505525.9129405,-0.4577312126202652,-4.412268787379735,8.726806362139204,0.5455555555555556,0.2488888888888889,-0.6022222222222222,-0.002181661564992912,-0.003025006036213952,0.001090830782496456
1590505525.9229405,-0.44236103188185333,-4.389444127527414,8.772916904354439,0.5599847175564993,0.2582254054777348,-0.6022222222222222,0.0003181849059421117,0.0003181849059421117,0.001090830782496456
1590505525.9329405,-0.46960213521910027,-4.39776128113146,8.79184085408764,0.5644444444444444,0.2611111111111111,-0.6022222222222222,0.001090830782496456,0.0036741044084658185,0.00044501237600411527
1590505525.9429405,-0.46831145584725536,-4.388311455847255,8.691557279236278,0.5644444444444444,0.2611111111111111,-0.6022222222222222,0.0026680662217862805,0.007820007071417015,-0.000788617719644912
1590505525.9529405,-0.4657232148700831,-4.391446429740166,8.661446429740167,0.5644444444444444,0.2611111111111111,-0.6022222222222222,0.0038967982430021804,0.007478034468946022,0.00015778100852916876
1590505525.9629405,-0.47,-4.404826543699994,8.679653087399988,0.5644444444444444,0.2611111111111111,-0.6022222222222222,0.0017308519094769849,0.0054919962067752,0.001090830782496456
1590505525.9729404,-0.47,-4.404655865253078,8.673967595759233,0.5579127241982064,0.25695456186350507,-0.6022222222222222,-0.0016737854512716012,0.002031504454885243,0.0005078761137213108
1590505525.9829404,-0.47,-4.4,8.66,0.5522222222222222,0.2533333333333333,-0.6022222222222222,-0.0013805454566616045,-0.004806696649987844,-0.0008011161083313074
1590505525.9929404,-0.47,-4.408154754900807,8.586607205892735,0.5522222222222222,0.2533333333333333,-0.6022222222222222,-0.00286992231639932,-0.007434530461930168,-0.0002012850155450242
1590505526.0029404,-0.47,-4.394010315320595,8.593984527019106,0.5522222222222222,0.2533333333333333,-0.6022222222222222,-0.003272492347489368,-0.007635815477475192,-0.0008721020125353216
1590505526.0129404,-0.4586337718924991,-4.39,8.662514254591255,0.5522222222222222,0.2533333333333333,-0.6022222222222222,-0.0020326291974355265,-0.007635815477475192,-0.0023306939325502974
1590505526.0229404,-0.44388440116557853,-4.383884401165578,8.734462395337687,0.548145156332608,0.2533333333333333,-0.6076583100750413,-0.005093480859688276,-0.005634490438879282,-0.0012711673088934578
1590505526.0329404,-0.45413935902052577,-4.38,8.757069679510263,0.5455555555555556,0.2533333333333333,-0.6111111111111112,-0.007635815477475192,-0.0028209583235499812,-0.0007711824032179212
1590505526.0429404,-0.46,-4.3876686286986954,8.69098234171174,0.5455555555555556,0.2533333333333333,-0.6111111111111112,-0.009308850726289754,-0.0030181791894001928,-0.004436901280125578
1590505526.0529404,-0.4733076413560547,-4.3966538206780275,8.69661528271211,0.5455555555555556,0.2533333333333333,-0.6111111111111112,-0.009091657800787738,-0.003998311589169734,-0.007631611637523378
1590505526.0629404,-0.4651933442699789,-4.414806655730021,8.719871103820015,0.5455555555555556,0.2533333333333333,-0.6111111111111112,-0.007649875869562678,-0.004363323129985824,-0.007649875869562678
1590505526.0729403,-0.4611145048766096,-4.418885495123391,8.724442747561696,0.5387633581309608,0.2533333333333333,-0.6111111111111112,-0.009575995707881924,-0.006788131940308376,-0.007757389100140011
1590505526.0829403,-0.5267144929587432,-4.332662055056259,8.565324110112519,0.5333333333333333,0.2533333333333333,-0.6111111111111112,-0.018185730080768573,-0.015475655139943529,-0.009289063666635972
1590505526.0929403,-0.75266958335037,-4.1111469109048535,8.14611031606493,0.5333333333333333,0.2533333333333333,-0.6111111111111112,-0.05777197179909411,-0.05039435722115164,-0.00916798291584941
1590505526.1029403,-0.7705322051064247,-4.156584118790532,8.452103827368214,0.5333333333333333,0.2533333333333333,-0.6111111111111112,-0.12526462284096168,-0.1137852490552763,0.003836804875886385
1590505526.1129403,-0.6760904694864419,-4.223537981269511,8.92345718308135,0.5333333333333333,0.2533333333333333,-0.6111111111111112,-0.14533602503882878,-0.1239546867269112,0.04469762093710962
1590505526.1229403,-0.6603862005800641,-3.7739032208823082,8.734075713631507,0.5461517325599146,0.2511969334622365,-0.6068383113689174,-0.07726615359278781,-0.04913400902841425,0.1146591201384349
1590505526.1329403,-0.5827205814133293,-3.360753672491109,8.719871346837792,0.56,0.2488888888888889,-0.6022222222222222,-0.05102240803136678,-0.022213646343579984,0.12603907877748188
1590505526.1429403,-0.4635767996551559,-3.343284640068969,8.66087647875856,0.56,0.2488888888888889,-0.6022222222222222,-0.05963739438763983,0.03432519872121133,0.09497398482794489
1590505526.1529403,-0.400633151030711,-3.3353165755153555,8.525316575515355,0.56,0.2488888888888889,-0.6022222222222222,-0.1109605393708239,0.17407636639643076,0.10110193245503596
1590505526.1629403,-0.42736340695240516,-3.4420902208572155,8.71927150374616,0.56,0.2488888888888889,-0.6022222222222222,-0.19026530887363963,0.2932792845324254,0.13407285297973648
1590505526.1729403,-0.5451513487320303,-3.736899370053303,9.432866095945728,0.5404817746190707,0.2521419264523771,-0.6193006694305353,-0.22769121829920863,0.2839441160452932,0.16490612770353533
1590505526.1829402,-0.58,-3.82,9.65,0.5333333333333333,0.2533333333333333,-0.6255555555555555,-0.2279836335417593,0.26289021858164585,0.17016960206944715
1590505526.1929402,-0.23246972468566923,-3.0295389816379927,8.886796258133234,0.5333333333333333,0.2533333333333333,-0.6255555555555555,-0.06742502180241525,0.06962522296947249,0.21476921644148717
1590505526.2029402,-0.12497474107160274,-2.7534570598217245,8.793878757143693,0.5333333333333333,0.2533333333333333,-0.6255555555555555,-0.03014411260955097,0.014655417626766445,0.2829942794775689
1590505526.2129402,-0.17484545618046812,-2.825154543819532,8.825872665142212,0.5333333333333333,0.2533333333333333,-0.6255555555555555,-0.019330499040352077,-0.009751053544754362,0.3439944864154023
1590505526.2229402,-0.20488126599071355,-2.8407343883255947,8.613412489339524,0.5384017393684787,0.2533333333333333,-0.607124988155027,0.00880435748732698,-0.044827677052161806,0.3906800369239353
1590505526.2329402,-0.2423590520275603,-2.9006676763582844,8.648976300689007,0.5455555555555556,0.2533333333333333,-0.5811111111111111,-0.013408802201701885,-0.018555455340048824,0.43147698862998
1590505526.2429402,-0.2522726597876921,-3.0181812783015367,8.801364783609234,0.5455555555555556,0.2533333333333333,-0.5811111111111111,-0.00942085547223073,-0.03396446710217187,0.4623633769812573
1590505526.2529402,-0.2638263956816288,-3.087652791363258,8.70443756113466,0.5455555555555556,0.2533333333333333,-0.5811111111111111,-0.008537273325518038,-0.034422522211396966,0.47919742206827054
1590505526.2629402,-0.27,-3.1094500210374467,8.757637494740639,0.5455555555555556,0.2533333333333333,-0.5811111111111111,-0.013725374878517499,-0.031196403151701475,0.48194948991556924
1590505526.2729402,-0.29467311481282465,-3.1794769837005195,8.774673114812826,0.5488453041972655,0.2511401675721934,-0.591528648476526,-0.009803213985487584,-0.03766931963857903,0.47455417955689994
1590505526.2829401,-0.28235681270096463,-3.1509874899517687,8.705892031752413,0.5522222222222222,0.2488888888888889,-0.6022222222222222,-0.0081708179944934,-0.042434682073682284,0.46234205608943774
1590505526.2929401,-0.28990755245681,-3.145889062948172,8.638036979017276,0.5522222222222222,0.2488888888888889,-0.6022222222222222,-0.012417318887801591,-0.043643315762446025,0.44531342948036934
1590505526.3029401,-0.32135298057602146,-3.1813529805760212,8.601617548559947,0.5522222222222222,0.2488888888888889,-0.6022222222222222,-0.010170371394742576,-0.03773631552924277,0.4244197540613999
1590505526.3129401,-0.31596876592075873,-3.19,8.654833248422621,0.5522222222222222,0.2488888888888889,-0.6022222222222222,-0.009025484390827213,-0.03337601483488162,0.40278132577694853
1590505526.32294,-0.30984674840085286,-3.2096934968017057,8.764616871002131,0.5522222222222222,0.2488888888888889,-0.5951106817104951,-0.009330571697855646,-0.03055997906608242,0.3738519417696701
1590505526.33294,-0.3470457767875228,-3.2732732428600366,8.827864087502531,0.5522222222222222,0.2488888888888889,-0.5877777777777777,-0.00486410659535512,-0.025322099907514196,0.33950102982789565
1590505526.34294,-0.3651451811931804,-3.2905807247727217,8.767758442670427,0.5522222222222222,0.2488888888888889,-0.5877777777777777,0.0009324626679357243,-0.023405351389305582,0.3075598064278906
1590505526.35294,-0.36,-3.2570125374816365,8.639695920790485,0.5522222222222222,0.2488888888888889,-0.5877777777777777,0.005600509768208747,-0.025089107997418484,0.27552162677912245
1590505526.36294,-0.3667927880502731,-3.253585576100546,8.649813779035336,0.5522222222222222,0.2488888888888889,-0.5877777777777777,-0.002799466430752404,-0.019902260384470113,0.2484414660955077
1590505526.37294,-0.38749243271698364,-3.294984865433967,8.80161117325788,0.5522222222222222,0.2488888888888889,-0.5877777777777777,-0.024626615700299302,-0.004096393672039605,0.22435633586704215
1590505526.38294,-0.3738736872186897,-3.2938736872186896,8.66312281203115,0.5644444444444444,0.2344444444444445,-0.6111111111111112,0.0005863692796673098,-0.030864385596353343,0.16881352569373595
1590505526.39294,-0.41882224762449094,-3.3388222476244906,8.738037079374152,0.5644444444444444,0.2344444444444445,-0.6111111111111112,-0.0010480064976510033,-0.007165936825237803,0.14674945269993872
1590505526.40294,-0.412767269379744,-3.2419120073645633,8.651069077518976,0.5644444444444444,0.2344444444444445,-0.6111111111111112,0.0,-0.02297741739242001,0.10815416780944873
1590505526.41294,-0.4491931982005454,-3.1617749639588,8.796772792802182,0.5644444444444444,0.2344444444444445,-0.6111111111111112,0.0,-0.03251370325772121,0.09305504852272184
1590505526.42294,-0.47512370597628145,-3.1435515007983925,8.601237059762814,0.5664369967685539,0.2344444444444445,-0.6125343627711893,0.00445385873828603,-0.024061824365840923,0.08897017991691447
1590505526.43294,-0.49,-3.268479206678948,8.754182181632894,0.5722222222222222,0.2344444444444445,-0.6166666666666667,-0.017577712132574686,0.0009871477719702966,0.09727056906113167
1590505526.44294,-0.5091754680975683,-3.2219591134959473,8.832575811967427,0.5722222222222222,0.2344444444444445,-0.6166666666666667,-0.011796582540985017,-0.0029688437386787368,0.11247933424988102
1590505526.45294,-0.5540975508653149,-3.308438978893917,8.591219385816435,0.5722222222222222,0.2344444444444445,-0.6166666666666667,0.013510339979944358,0.001340920385019133,0.12658957651296118
1590505526.46294,-0.5578975528649386,-3.355795105729877,8.79,0.5722222222222222,0.2344444444444445,-0.6166666666666667,0.005627619073580156,-0.003576335411841371,0.13966359098904754
1590505526.47294,-0.5221460325582883,-3.2932190488374324,8.696266670931013,0.5682546739018418,0.2344444444444445,-0.6300571422479504,-0.004129227292503775,-0.01854412330243975,0.15006645630954682
1590505526.48294,-0.5281104698555544,-3.3202367211190453,8.612126251263492,0.5633333333333334,0.2344444444444445,-0.6466666666666666,-0.0069830384925341285,-0.019420230897550534,0.15533602491205212
1590505526.49294,-0.57,-3.41,8.665708938953488,0.5633333333333334,0.2344444444444445,-0.6466666666666666,-0.007220649721084644,-0.019480287598261016,0.15723429916616483
1590505526.50294,-0.5739504882851746,-3.3941980468593016,8.63864365229273,0.5633333333333334,0.2344444444444445,-0.6466666666666666,-0.0011448396851221699,-0.015042663017925947,0.16382658086017998
1590505526.51294,-0.5915516736605836,-3.395991265736313,8.635085878793793,0.5633333333333334,0.2344444444444445,-0.6466666666666666,0.0007288084556129953,-0.0179375768897366,0.16801144015266697
1590505526.52294,-0.6278899648430272,-3.4389600937519273,8.843669894529082,0.5633333333333334,0.2344444444444445,-0.6466666666666666,-0.010334533390058633,-0.024398600607005785,0.1763109665914661
1590505526.53294,-0.65,-3.382229863194089,8.887701368059112,0.5633333333333334,0.2344444444444445,-0.6466666666666666,-0.002645637727801779,-0.025796324501514152,0.18970168975021054
1590505526.54294,-0.6381607091792966,-3.370267848632161,8.727124964255076,0.5633333333333334,0.2344444444444445,-0.6466666666666666,0.01811363454010138,-0.0162163729709415,0.21566698841657533
1590505526.55294,-0.62,-3.374168979972054,8.64176208663251,0.5633333333333334,0.2344444444444445,-0.6466666666666666,0.012897755555940676,-0.027134037200890467,0.23144833972326542
1590505526.56294,-0.62,-3.5148255239869584,8.813675640428505,0.5633333333333334,0.2344444444444445,-0.6466666666666666,-0.00585510408496244,-0.004119164005236639,0.2502011993641686
1590505526.5729399,-0.6308219857122029,-3.3522373523837294,8.871872576177285,0.5677523772496801,0.2344444444444445,-0.6555047544993601,0.0009512922304389573,-0.01855420621126178,0.2642001697391422
1590505526.5829399,-0.6060442244368363,-3.3839557755631637,8.668796039863054,0.5777777777777777,0.2344444444444445,-0.6755555555555556,0.02247593825713095,0.012503008848314973,0.2775025269293945
1590505526.5929399,-0.6182568521404345,-3.416081217343478,8.635635530296087,0.5777777777777777,0.2344444444444445,-0.6755555555555556,0.012428051391257909,-0.009814597225203836,0.27617033590596907
1590505526.6029398,-0.6693566788147679,-3.4925732847409288,8.840350182221517,0.5777777777777777,0.2344444444444445,-0.6755555555555556,-0.014250975627642257,-0.044589933626132665,0.2715084904317578
1590505526.6129398,-0.6496415851659223,-3.5023775604424596,8.644755120884918,0.5777777777777777,0.2344444444444445,-0.6755555555555556,-0.009245349483547799,-0.015428018928516498,0.28391445205425814
1590505526.6229398,-0.6453720772981245,-3.480744154596249,8.596364283426455,0.5794857863664582,0.23245176775765058,-0.677263564144236,-0.00033358870116345944,-0.024557221718512334,0.27726931633184254
1590505526.6329398,-0.6729099325915698,-3.5631639730366276,8.783926094371802,0.5844444444444444,0.22666666666666666,-0.6822222222222222,-0.008008662909556291,-0.01648590554580634,0.26461589817331715
1590505526.6429398,-0.6377666889316727,-3.5410667557266904,8.843399866409964,0.5844444444444444,0.22666666666666666,-0.6822222222222222,-0.007143139360827643,0.00181623689595968,0.2560352701045362
1590505526.6529398,-0.5496249723801298,-3.318035674828757,8.649008697748227,0.5844444444444444,0.22666666666666666,-0.6822222222222222,0.03690515233537907,0.012906875120457031,0.2217493350180643
1590505526.6629398,-0.49924513599727277,-3.280754376993693,8.255659044975285,0.5844444444444444,0.22666666666666666,-0.6822222222222222,0.04034025947898867,0.025706626541053948,0.18577060458070685
1590505526.6729398,-0.62,-3.5569614808236665,9.264921463062663,0.5780297928499627,0.22666666666666666,-0.6886368738167039,-0.045290486425233395,-0.03342984342830469,0.11783460831111615
1590505526.6829398,-0.5744300002457425,-3.458860000491485,8.751010001720198,0.5633333333333334,0.22666666666666666,-0.7033333333333334,-0.0075124526568168815,-0.014072609745644508,0.0702498991267452
1590505526.6929398,-0.5520500197385226,-3.409895037503193,8.63640015790818,0.5633333333333334,0.22666666666666666,-0.7033333333333334,0.015949565707103104,0.0069147672870620396,0.023003425761196884
1590505526.7029397,-0.5966718970657461,-3.5244427009780845,8.842323343271092,0.5633333333333334,0.22666666666666666,-0.7033333333333334,-0.020609336014089118,-0.010911731113156926,-0.03877672645095932
1590505526.7129397,-0.58,-3.53,8.52,0.5633333333333334,0.22666666666666666,-0.7033333333333334,-0.00545415391248228,0.0,-0.06544984694978735
1590505526.7229397,-0.5884501300118776,-3.615350390035633,8.865977015184104,0.5629028138921882,0.22632225111375057,-0.7033333333333334,0.016362461737446838,0.03675011742649724,-0.11725844368367774
1590505526.7329397,-0.5252575966119639,-3.4537367919534145,8.675077607199576,0.5577777777777778,0.2222222222222222,-0.7033333333333334,0.013922142192519669,0.03455516313358906,-0.19331607268265139
1590505526.7429397,-0.41157826597884756,-3.168952138148067,8.773221263967176,0.5577777777777778,0.2222222222222222,-0.7033333333333334,0.012284192481748536,0.03703180072337044,-0.2500824785992337
1590505526.7529397,-0.4199322803593124,-3.1104740374848125,7.996297926583943,0.5577777777777778,0.2222222222222222,-0.7033333333333334,0.03688879579954722,0.025185139866652544,-0.3093157828828232
1590505526.7629397,-0.4649580873781018,-3.430027941747932,8.924902203882239,0.5577777777777778,0.2222222222222222,-0.7033333333333334,-0.04115981221501551,0.06133256176150967,-0.3889314654959424
1590505526.7729397,-0.42,-3.447326619798594,8.806224586737603,0.5588798108387696,0.22001815610023856,-0.7052925032195411,-0.01910290722598344,0.03561003928191452,-0.44576241350058193
1590505526.7829397,-0.4342993502578873,-3.295777011186282,8.544261169535803,0.5777777777777777,0.18222222222222226,-0.7388888888888889,0.00779075597411152,0.08914032560678412,-0.5117712369702533
1590505526.7929397,-0.46941807890682563,-3.457323162971398,8.481047457967714,0.5777777777777777,0.18222222222222226,-0.7388888888888889,0.005492240558967394,0.09910055907240865,-0.5523783426377995
1590505526.8029397,-0.4634074337542237,-3.34,8.70062244353548,0.5777777777777777,0.18222222222222226,-0.7388888888888889,-0.022960794905693672,0.03918261066816098,-0.6471664493263541
1590505526.8129396,-0.4200495971539186,-3.3250743957308777,8.449851208538243,0.5777777777777777,0.18222222222222226,-0.7388888888888889,0.004889802785457535,0.08586640520259835,-0.6833594984471437
1590505526.8229396,-0.4062107803700724,-3.3448431214802894,8.586605993563957,0.5791286761419504,0.17411683203718606,-0.733260145704836,0.009068134215111576,0.09605607515787327,-0.7249261643205616
1590505526.8329396,-0.3945212249988452,-3.4406559194420065,8.740647143055106,0.5844444444444444,0.14222222222222222,-0.7111111111111111,-0.026038754066877157,0.054118942341008405,-0.7985219929327168
1590505526.8429396,-0.29379015520664137,-3.2427409312398483,8.552183946940985,0.5844444444444444,0.14222222222222222,-0.7111111111111111,-0.022503331130355624,0.06646126718059829,-0.84022936524427
1590505526.8529396,-0.29325803811528117,-3.2833709809423595,8.444839237694376,0.5844444444444444,0.14222222222222222,-0.7111111111111111,-0.01652262370361766,0.08446024844009184,-0.8764403569862506
1590505526.8629396,-0.28812843817268596,-3.298128438172686,8.6531009327912,0.5844444444444444,0.14222222222222222,-0.7111111111111111,-0.045019620434767524,0.0856912674671352,-0.9149174689054758
1590505526.8729396,-0.28574514806083895,-3.2888151903639358,8.505197468272677,0.5844444444444444,0.1479971869696415,-0.7086086263872294,-0.04543692230599214,0.0413056653495164,-0.9589097578994387
1590505526.8829396,-0.17,-3.1640900954025653,8.399225196386075,0.5844444444444444,0.17555555555555555,-0.6966666666666667,-0.015102595028458607,0.03117417162031713,-1.00549047486015
1590505526.8929396,-0.20340541955130492,-3.3204948492850854,8.394116527490306,0.5844444444444444,0.17555555555555555,-0.6966666666666667,0.015163671588376858,0.028499949235101,-1.0394333782606917
1590505526.9029396,-0.2748430282627417,-3.6316143427542475,8.921804783527753,0.5844444444444444,0.17555555555555555,-0.6966666666666667,-0.045622889396069524,0.0888696798213645,-1.0658101663402306
1590505526.9129395,-0.17816519508995868,-3.592660780359835,8.280885882652361,0.5844444444444444,0.17555555555555555,-0.6966666666666667,-0.01129862702094897,0.042352227488952246,-1.1081606173771812
1590505526.9229395,-0.12889680690694805,-3.395587227627792,9.110237083733042,0.5844444444444444,0.17555555555555555,-0.6966666666666667,0.007511589030955449,0.06653679098425792,-1.1341366300202875
1590505526.9329395,-0.1348974163460004,-3.5808118028833364,8.316521022112674,0.6288888888888889,0.18222222222222226,-0.7244444444444444,-0.00013331452047178876,0.092787757356737,-1.1815916059215796
1590505526.9429395,-0.15721029205752488,-3.7667524338127074,8.71071515968294,0.6288888888888889,0.18222222222222226,-0.7244444444444444,-0.010680462245069435,0.07818401435344795,-1.2124217300396345
1590505526.9529395,-0.038030968870073394,-3.7915707613372294,8.305575086855486,0.6288888888888889,0.18222222222222226,-0.7244444444444444,-0.008753199856545312,0.10900585195790913,-1.2645383375853771
1590505526.9629395,-0.04027966120052856,-3.9556177024890062,8.897412429868076,0.6288888888888889,0.18222222222222226,-0.7244444444444444,0.01730579418265276,0.10318139613947902,-1.3107565454818635
1590505526.9729395,0.03613896236435965,-3.9301776602170246,8.673166225813842,0.6201579201929107,0.17949379450472908,-0.7148949474332184,-0.0009198666344889181,0.0946150355890509,-1.3628670945275108
1590505526.9829395,0.07981775769062546,-3.860291587694999,8.411093453856248,0.5580369668399994,0.16008099658194425,-0.6469501547034715,0.03910291993228367,0.10033257652716125,-1.4124191159911337
1590505526.9929395,0.13410988688832973,-4.007670339335011,8.8989670925659,0.5577777777777778,0.16,-0.6466666666666666,-0.004356127852061557,0.10670002885030566,-1.4994727879312872
1590505527.0029395,0.1425312035180754,-3.9486095841686604,8.844563150746945,0.5577777777777778,0.16,-0.6466666666666666,0.03299715499462813,0.09453283613138981,-1.5720835536776627
1590505527.0129395,0.22299107417666975,-3.781964296706679,8.20447460757156,0.5577777777777778,0.16,-0.6466666666666666,0.08660679367960289,0.11706652259514073,-1.6272146051958039
1590505527.0229394,0.3289810941944119,-4.199810941944119,8.960320394846914,0.556589054337925,0.16452847024705816,-0.6440627962746082,0.04371745723362469,0.17064283683923354,-1.6658922423926217
1590505527.0329394,0.31964014043300176,-4.050488589818607,8.772287887653597,0.5344444444444445,0.2488888888888889,-0.5955555555555555,-0.026953860560942993,0.10427391234518711,-1.7648745268955672
1590505527.0429394,0.373312740149175,-4.206687259850825,8.693405409477888,0.5344444444444445,0.2488888888888889,-0.5955555555555555,0.019863508323324112,0.1358596742646185,-1.838875079979974
1590505527.0529394,0.4566014599933203,-4.1913726799942745,8.47509781001002,0.5344444444444445,0.2488888888888889,-0.5955555555555555,0.04756163256172385,0.15850556122395487,-1.914315433560298
1590505527.0629394,0.56,-4.271156911681829,8.424348442154416,0.5344444444444445,0.2488888888888889,-0.5955555555555555,0.03496605775592448,0.15886818767104963,-1.9965162552761948
1590505527.0729394,0.56,-4.237389099106353,8.822808630545044,0.5344444444444445,0.2488888888888889,-0.5955555555555555,0.026862364484646198,0.14487089929338715,-2.0642925989996135
1590505527.0829394,0.6881110940616848,-4.119194414607948,8.85310418904404,0.5011111111111111,0.32,-0.6022222222222222,0.034333133104819405,0.1728383462763097,-2.1781254454423493
1590505527.0929394,0.8138694471917678,-4.335695376780792,8.733131457671345,0.5011111111111111,0.32,-0.6022222222222222,0.08636037132475419,0.19402546826240816,-2.2755018893130146
1590505527.1029394,0.7912241935961613,-4.242049998519001,8.824925801960841,0.5011111111111111,0.32,-0.6022222222222222,0.04810598969124969,0.16732024647524035,-2.371507995401438
1590505527.1129394,0.8146583875575306,-4.006645968893826,8.205217425805428,0.5011111111111111,0.32,-0.6022222222222222,0.10309593032484607,0.15933582251806847,-2.468927224924302
1590505527.1229393,0.8637517053206003,-4.080231923601637,8.83549795361528,0.49777626193724417,0.32558587236622705,-0.5990541155070487,0.09907362689484182,0.15050786087116177,-2.531711097720877
1590505527.1329393,0.9046238549990255,-3.646987137010329,8.78645137400117,0.46144546222308835,0.38643996188743795,-0.5645398557786007,0.07321455946554507,0.16209985661532927,-2.578079080697548
1590505527.1429393,1.0573211637596216,-3.724392698255773,8.666255561047949,0.4566666666666666,0.3944444444444444,-0.56,0.1245144322204498,0.22644086404018177,-2.6386180594550637
1590505527.1529393,1.0943445025068852,-3.746606701504131,7.8887654473554125,0.4566666666666666,0.3944444444444444,-0.56,0.12532215617197603,0.22967175984628652,-2.682235152837477
1590505527.1629393,1.179785923160392,-3.737514759163555,8.479429128427713,0.4566666666666666,0.3944444444444444,-0.56,0.046425800634475774,0.17813100364239498,-2.786731495075875
1590505527.1729393,1.2954950067128905,-3.999788681882552,8.78798668456771,0.4566666666666666,0.3944444444444444,-0.56,0.06998668626313279,0.12007024977177592,-2.8532068509567283
1590505527.1829393,1.4091466736511262,-3.9600078575170246,8.604282346778419,0.4155555555555556,0.44,-0.6022222222222222,0.05030347011087847,0.2542871121934268,-2.8850307963664865
1590505527.1929393,1.5450030294951649,-4.1550575604081335,8.455015147475825,0.4155555555555556,0.44,-0.6022222222222222,0.05864025099230874,0.2127120025868089,-2.952054691497858
1590505527.2029393,1.5542600154508333,-3.8613357087675597,8.402527157204347,0.4155555555555556,0.44,-0.6022222222222222,0.02931857746918037,0.21970594651960543,-2.9889472522547123
1590505527.2129393,1.6468392009711952,-3.8282717139388587,8.488493543758967,0.4155555555555556,0.44,-0.6022222222222222,0.0704352120898338,0.24639569179967874,-3.014194308600728
1590505527.2229393,1.7721376991556184,-4.048307798112559,8.76234019791388,0.4155555555555556,0.44,-0.6022222222222222,0.06040463475731636,0.2465189211690419,-3.0427934259911487
1590505527.2329392,1.90113204807029,-4.131226445920924,8.716037831753985,0.368008407056441,0.486698092275916,-0.5971278848830314,0.048572841643150746,0.2388301977226069,-3.0959423972410387
1590505527.2429392,2.005872642325662,-4.146802560996712,8.69907008132895,0.3533333333333333,0.5011111111111111,-0.5955555555555555,0.05979281625498509,0.2451610944260455,-3.131195029738188
1590505527.2529392,2.083309284071989,-4.0845326250693725,8.698920954570681,0.3533333333333333,0.5011111111111111,-0.5955555555555555,0.05297988595432105,0.24810515021944307,-3.169687362331214
1590505527.2629392,2.058836361401856,-3.86857766125233,8.480517400299052,0.3533333333333333,0.5011111111111111,-0.5955555555555555,0.07941905441602386,0.27810540991928845,-3.1950433619321195
1590505527.2729392,2.3512784685313006,-4.008401914335875,8.776164594406099,0.3518417867134829,0.50327740501137,-0.596230302835964,0.06175897675377935,0.2458901687309311,-3.1947295785457306
1590505527.2829392,2.3854631092562233,-3.9468934267402,8.664032791772247,0.30666666666666664,0.5688888888888889,-0.6166666666666667,0.05029713589859579,0.25895786222347184,-3.1851708962220946
1590505527.2929392,2.308589014506572,-3.691410985493428,8.685030307157938,0.30666666666666664,0.5688888888888889,-0.6166666666666667,0.0721487462857548,0.24727728975740526,-3.179450473399616
1590505527.3029392,2.3442961247701426,-3.6557038752298574,8.45650480147109,0.30666666666666664,0.5688888888888889,-0.6166666666666667,0.06825370478280506,0.2503933229597651,-3.1599752658848677
1590505527.3129392,2.522393315515874,-3.5829645510881374,8.583571911069342,0.30666666666666664,0.5688888888888889,-0.6166666666666667,0.052940389580119346,0.24639525145148838,-3.11219859403529
1590505527.3229392,2.6394183382771885,-3.6507158800552144,8.706756145554936,0.30666666666666664,0.5688888888888889,-0.6166666666666667,0.061674644648303946,0.23430166751092507,-3.0954019496733967
1590505527.3329391,2.7196250167403244,-3.588178652738717,8.847750100441944,0.2644444444444444,0.6344444444444445,-0.5955555555555555,0.05463503473226859,0.2442350692453642,-3.0476468063593947
1590505527.3429391,2.668233762293631,-3.2585090890703614,8.466467524587262,0.2644444444444444,0.6344444444444445,-0.5955555555555555,0.07279042961239073,0.223885509734315,-3.0188467081208272
1590505527.3529391,2.8012950934705554,-3.304458878353335,8.733885280411666,0.2644444444444444,0.6344444444444445,-0.5955555555555555,0.07416036008567954,0.22707342701826919,-2.9844181848329896
1590505527.3629391,2.8088416488241963,-3.2139002141096458,8.756524946472588,0.2644444444444444,0.6344444444444445,-0.5955555555555555,0.048641113952828746,0.23448224041167753,-2.9457277148896353
1590505527.372939,2.906738597351643,-3.1903261402648355,8.566522805296714,0.2644444444444444,0.6344444444444445,-0.5955555555555555,0.06266338685629408,0.21768012424529512,-2.908131326873938
1590505527.382939,3.0591803154764903,-3.065573753968654,8.738852492062692,0.3111111111111111,0.7622222222222222,-0.5955555555555555,0.056854338966872864,0.2303798825158877,-2.853821949840925
1590505527.392939,2.98,-2.939323798316285,8.864114239159953,0.3111111111111111,0.7622222222222222,-0.5955555555555555,0.05937547866735303,0.21754594212933917,-2.8074535195153665
1590505527.402939,2.9833657815725276,-2.8232684368549448,8.438048179771064,0.3111111111111111,0.7622222222222222,-0.5955555555555555,0.06640767579928944,0.2245781392612755,-2.759014486779513
1590505527.412939,2.996292219478508,-2.7477248566525763,8.666853890260747,0.3111111111111111,0.7622222222222222,-0.5955555555555555,0.056910111551722556,0.21554785216847586,-2.705511624759246
1590505527.422939,2.8558561084836565,-2.5195161762859413,8.737071945758172,0.3111111111111111,0.7622222222222222,-0.5955555555555555,0.05882501196231349,0.222250003605544,-2.6633838157262457
1590505527.432939,2.8587496190517654,-2.422503809482346,8.827496190517655,0.5006861905660286,1.2035918943890558,-0.4633390898844336,0.07226695757030507,0.22157504424959867,-2.6158142110667937
1590505527.442939,2.640880901372689,-2.1800518924065697,8.819067206220742,0.5277777777777778,1.2666666666666666,-0.4444444444444444,0.05199249357670012,0.1991585577803544,-2.5329430404574493
1590505527.452939,2.5676645243196066,-2.100179481075934,8.972155994604458,0.5277777777777778,1.2666666666666666,-0.4444444444444444,0.057800979240145184,0.21295371123103643,-2.480666669486444
1590505527.462939,2.617946488091631,-1.9896577480152717,8.665590115750561,0.5277777777777778,1.2666666666666666,-0.4444444444444444,0.03643297798941373,0.19860587021441736,-2.3738052659940045
1590505527.472939,2.5035634203987636,-1.970593903399794,8.976966244470033,0.5277777777777778,1.2666666666666666,-0.4444444444444444,0.060694311285255056,0.2027649559222759,-2.321816694645773
1590505527.482939,2.2183361831834065,-1.8145331202141104,8.803650286224073,0.31842861745099504,1.1843124013910573,-0.5660516772813257,0.07417649320975901,0.2171660728467935,-2.2279431689687037
1590505527.492939,2.534152497059138,-1.7590033151534594,9.00112929098492,0.2255555555555556,1.1477777777777778,-0.62,0.07417649320975901,0.23038635428040535,-2.0959933777167956
1590505527.502939,2.209766689143628,-1.6444187457855697,8.791629130141605,0.2255555555555556,1.1477777777777778,-0.62,0.04784429416553067,0.1988103830101045,-1.9773212289387427
1590505527.512939,2.436026972353338,-1.6019949426837492,8.423956169925827,0.2255555555555556,1.1477777777777778,-0.62,0.06327002427687553,0.15947477122617512,-1.9248737465601704
1590505527.522939,2.6415310629622857,-1.5664114895062857,8.642376310080762,0.2255555555555556,1.1477777777777778,-0.62,0.04190043515499612,0.1500683913101703,-1.8362822898532465
1590505527.532939,2.687091462774336,-1.524542686128321,8.673268297805313,0.09160570315143454,0.8026599227601012,-0.6554573138716792,0.031038792096299977,0.10798892560505816,-1.6963316716054142
1590505527.542939,2.761134888658351,-1.5198581389177062,9.047162778354123,0.03666666666666667,0.6611111111111111,-0.67,0.029189362187216746,0.09081749853093385,-1.645607017215604
1590505527.552939,2.8436059269893352,-1.5086131050041018,8.851664273995077,0.03666666666666667,0.6611111111111111,-0.67,0.011876543187278887,0.11023442374228669,-1.5350759251678432
1590505527.562939,2.9887369115210785,-1.46,8.900954594438101,0.03666666666666667,0.6611111111111111,-0.67,0.04496914942252958,0.11024121199133104,-1.414362423549711
1590505527.572939,3.184376015312113,-1.46,8.80650813053898,0.03666666666666667,0.6611111111111111,-0.67,0.03613842569803525,0.08816440268009519,-1.2502581410028581
1590505527.582939,3.2382172389628594,-1.409235959555511,8.878471919111023,-0.08333333333333333,0.5577777777777778,-0.6911111111111111,0.018821936247746685,0.08080482178832982,-1.0464066142468065
1590505527.592939,3.1794323756131746,-1.3840424466913603,8.828084893382721,-0.08333333333333333,0.5577777777777778,-0.6911111111111111,0.027982556031558654,0.0835530077234734,-0.9483879825600183
1590505527.602939,3.1578111424566018,-1.38,8.783433427369806,-0.08333333333333333,0.5577777777777778,-0.6911111111111111,0.02679323492504375,0.06537959683570317,-0.8661804139754559
1590505527.612939,3.2906338454094595,-1.3331220515301803,8.720935042941818,-0.08333333333333333,0.5577777777777778,-0.6911111111111111,0.021680047383341016,0.058564299263442546,-0.7409075208934456
1590505527.6229389,3.0325497431805717,-1.2835775195731312,8.849619508302997,-0.08333333333333333,0.5577777777777778,-0.6911111111111111,0.010130914780898493,0.07125274250424764,-0.6581705106459134
1590505527.6329389,3.2354610046952255,-1.282815057963186,8.86394980678938,-0.12220343208542819,0.5425677391356537,-0.7020961390193119,0.029819017713552626,0.016321397513034075,-0.5540551499605184
1590505527.6429389,3.1908715106184053,-1.225570099283202,8.582280397132807,-0.13444444444444445,0.5377777777777778,-0.7055555555555556,0.015337388707476998,0.04065383203693172,-0.43853539197041735
1590505527.6529388,3.3086003045412475,-1.3388627474397636,9.10483862299585,-0.13444444444444445,0.5377777777777778,-0.7055555555555556,-0.021539877550658455,0.022074268363043183,-0.30531514301049767
1590505527.6629388,3.4144226044226045,-1.3121539721539721,9.082153972153971,-0.13444444444444445,0.5377777777777778,-0.7055555555555556,0.034377697387767095,0.008907111303431341,-0.23447858832369972
1590505527.6729388,3.2607245161506726,-1.2362318451682153,8.767101264549021,-0.13444444444444445,0.5377777777777778,-0.7055555555555556,0.019777212498458707,-0.018465090850482806,-0.09877545364865191
1590505527.6829388,3.292131516879642,-1.245271235962967,8.854263033759285,-0.12321278401645917,0.5188243508055527,-0.7146812796532936,-0.014992500847654059,0.013905855672764596,0.013461758865654691
1590505527.6929388,3.267062565051463,-1.2762083188774527,9.112083188774527,-0.11666666666666667,0.5077777777777778,-0.72,-0.002931631381338628,-0.010855997062332985,0.1490187712304068
1590505527.7029388,3.2047648136835676,-1.2528588882101406,8.878588882101404,-0.11666666666666667,0.5077777777777778,-0.72,0.004259371021207908,-0.017869100955054958,0.27664854672227157
1590505527.7129388,3.296763042111879,-1.298082966687618,8.845801382778127,-0.11666666666666667,0.5077777777777778,-0.72,0.014330266615310136,-0.08367926797116747,0.37020232517121077
1590505527.7229388,6.641526162790697,-3.1517078488372094,5.599898255813954,-0.11666666666666667,0.5077777777777778,-0.72,0.10419653686642746,-2.216205861030182,-0.9175813275273006
1590505527.7329388,9.40912078882498,-10.74702136400986,-5.395731306491372,-0.15998219665844973,0.4744581393225601,-0.6555820323199124,-0.21911716016422858,0.667329400189276,-14.34118859875181
1590505527.7429388,-0.13967949470520402,-2.1749785155791397,8.648858390664255,-0.16,0.4744444444444445,-0.6555555555555556,-0.8228035241848183,-3.4670106122043536,-13.077225656696978
1590505527.7529387,-0.868801261829653,-0.07207570977917976,0.17833438485804365,-0.16,0.4744444444444445,-0.6555555555555556,0.4967388741602723,-3.5689402373357,-4.678908389907159
1590505527.7629387,1.1945646523018754,1.024910954048422,-1.2778248727147736,-0.16,0.4744444444444445,-0.6555555555555556,0.25643967303795845,-2.487340803850776,-3.857578251694398
1590505527.7729387,0.31776739955183797,-0.1394040778292991,3.088432099039336,-0.16,0.4744444444444445,-0.6555555555555556,-0.6360966747697878,-1.5110755619338647,-3.624532794908104
1590505527.7829387,-0.22828131698533824,-0.5570910143187859,4.715537811883735,-0.3032802690369355,0.42227173778425603,-0.6508833728695685,-0.850624428851432,-0.24407960727380207,-3.385704084165811
1590505527.7929387,0.6094948178084871,-0.08832800990808953,2.9762825109184536,-0.3644444444444445,0.4,-0.6488888888888888,-0.4417193432386393,1.6947536268838304,-2.990420046294901
1590505527.8029387,1.1962503568952156,1.136593588122527,3.3582866990251663,-0.3644444444444445,0.4,-0.6488888888888888,-0.32044467886722705,2.67448455913694,-2.553647764745724
1590505527.8129387,0.1332443900609841,-0.19464939114646018,3.7919291874716294,-0.3644444444444445,0.4,-0.6488888888888888,-0.26882620327316575,3.642488676337146,-1.5813088104518889
1590505527.8229387,0.06949908475462707,-0.04077083999186448,5.280690356509864,-0.3644444444444445,0.4,-0.6488888888888888,-0.14172844844377494,4.517842858529548,-0.8170410354758102
1590505527.8329387,-6.702698710527366,3.8252453191744182,13.58060760908619,-0.4234890725289544,0.3711642514005882,-0.629665056489281,-0.2907270670031603,4.175307607733254,-0.5367184446406841
1590505527.8429387,-3.330936792879771,0.7664214059435803,7.46091567355559,-0.46,0.3533333333333333,-0.6177777777777778,-0.2466135307988493,1.086233133972855,-0.12068448899448875
1590505527.8529387,-2.6379546008086123,1.587310146621852,0.3549510448633635,-0.46,0.3533333333333333,-0.6177777777777778,0.24997017840608865,-0.14492491160180854,0.21768904755116725
1590505527.8629386,-0.2967896620458461,1.4619334964211288,20.195139077647912,-0.46,0.3533333333333333,-0.6177777777777778,0.04986592528495268,-1.58294727441585,0.4254116756329712
1590505527.8729386,0.4127651046148035,1.522945793372647,5.271972466474995,-0.46,0.3533333333333333,-0.6177777777777778,0.4285670885598377,-1.2367621982913484,0.6141779977245022
1590505527.8829386,4.951501949290003,1.4700933382658432,14.073759141743263,-0.37121482029538144,0.31979226544492184,-0.6809139055677287,-0.17102703150725818,-0.22232429504510742,1.074713611013791
1590505527.8929386,2.4107239205336857,-0.35777765559709707,11.442260831317352,-0.36,0.31555555555555553,-0.6888888888888889,-0.1106136879257964,0.5346008448111732,1.5667102095081424
1590505527.9029386,0.9323197987782968,-0.967599712540424,7.9066374416097736,-0.36,0.31555555555555553,-0.6888888888888889,-0.2824906407973985,0.522559840610126,1.8738205733966098
1590505527.9129386,1.0473014440433213,-0.9669735258724428,8.250719013237063,-0.36,0.31555555555555553,-0.6888888888888889,-0.11565136288011088,-0.3353366095395032,1.9090254100157846
1590505527.9229386,1.713569667460893,-0.47105272972133017,8.397848958872888,-0.36,0.31555555555555553,-0.6888888888888889,0.06253677616935573,-0.6291647071293679,1.9882525097740622
1590505527.9329386,1.9721187321106752,-0.09821901833987068,8.074616134845755,-0.3761583094809004,0.32565449898111826,-0.6814829970434761,0.1739925401420169,-0.4299056510065243,2.1088215447524594
1590505527.9429386,2.2620171234129742,0.07127584062054078,8.089287256229191,-0.38666666666666666,0.3322222222222222,-0.6766666666666666,-0.06913598571452426,-0.08219793698552116,2.316794748773215
1590505527.9529386,2.5151076872489844,-0.811772553256453,9.877874204382648,-0.38666666666666666,0.3322222222222222,-0.6766666666666666,-0.19259518398917352,-0.14368247722470534,2.669838174870042
1590505527.9629385,2.0508440515952833,-0.8442152755992693,8.21605045118193,-0.38666666666666666,0.3322222222222222,-0.6766666666666666,-0.0988440720341366,-0.10304239470419138,2.8779664045314637
1590505527.9729385,2.249147903572281,-0.9097971198981621,8.820384809186624,-0.38666666666666666,0.3322222222222222,-0.6766666666666666,-0.08646989894851008,-0.16236559261818898,3.0200125663699753
1590505527.9829385,2.449405282364418,-0.9864867940889547,9.353997723741735,-0.37195178106169186,0.36812654309836085,-0.6766666666666666,-0.08051483607966173,-0.21958736590065087,3.0983078323097084
1590505527.9929385,2.5972829353155147,-1.085495808951447,9.3939047920291,-0.3588888888888889,0.4,-0.6766666666666666,-0.03460347106157784,-0.23206523491501307,3.185673223845687
1590505528.0029385,2.6460375320642635,-1.0970281490481977,8.794619279060347,-0.3588888888888889,0.4,-0.6766666666666666,-0.031623857409639904,-0.23964835821654124,3.250153640374905
1590505528.0129385,17.89850199873764,0.20805245809664075,11.85768988007574,-0.3588888888888889,0.4,-0.6766666666666666,0.13354495280953768,-0.5661880713586419,2.612808090330853
1590505528.0229385,9.085863696121699,-0.5918461827401633,9.47948962343882,-0.3588888888888889,0.4,-0.6766666666666666,0.34160683780716294,-0.2142468380670921,-0.21042980102622755
1590505528.0329385,-1.4184061342557164,-1.4256469435856622,10.785716122317794,-0.2978929736311352,0.44574693644331526,-0.6766666666666666,-0.4303576362335996,0.5706905839115637,-1.0540350691336546
1590505528.0429385,-0.6698315435550828,-1.710701959035235,10.554292036916321,-0.2877777777777778,0.4533333333333333,-0.6766666666666666,-0.4763285684366707,0.5105543151880483,-0.5339216418364588
1590505528.0529385,1.1420070687567496,-1.7429119350721602,10.516099420754657,-0.2877777777777778,0.4533333333333333,-0.6766666666666666,-0.05450366330389045,-0.011416757700119073,0.059772793295644944
1590505528.0629385,1.9197415318388267,-0.990010944311694,9.131820221439906,-0.2877777777777778,0.4533333333333333,-0.6766666666666666,0.17783241821036372,-0.17307914740010927,0.3897593521333968
1590505528.0729384,2.349208146133838,-0.51,8.681168420430362,-0.2877777777777778,0.4533333333333333,-0.6766666666666666,0.11749516595221492,-0.14963401614934085,0.6370029714478319
1590505528.0829384,8.08666011304989,-0.10358073236667492,9.390143769968052,-0.30283034324567876,0.4501973821941873,-0.668513193704887,0.02852097584262084,-0.1679692193568395,0.7554332017586154
1590505528.0929384,3.1663776941498476,-0.15076873075607253,8.81016695176189,-0.3144444444444445,0.4477777777777778,-0.6622222222222223,0.087991941573775,-0.06392152696909707,0.15427526832842986
1590505528.1029384,2.7062493773866843,-0.4267142619956832,8.745508882616637,-0.3144444444444445,0.4477777777777778,-0.6622222222222223,0.003548143094784656,0.12013355810918756,-0.0725285653847656
1590505528.1129384,4.694054862353836,-1.1674654965312676,9.484938347265462,-0.3144444444444445,0.4477777777777778,-0.6622222222222223,-0.07230603917171174,0.018497541113752763,0.02789318461630269
1590505528.1229384,4.087999162829636,-0.8630828798660528,8.943215989953956,-0.3144444444444445,0.4477777777777778,-0.6622222222222223,-0.02648531660634175,-0.009955645897546977,0.011475503303414583
1590505528.1329384,4.024140254074169,-0.7531040677531118,8.86189817785192,-0.30327576742660795,0.4589464547956143,-0.6672988935939661,-0.0033665210371008137,-0.013710656724396697,-0.0002820860688343362
1590505528.1429384,3.9233447601379283,-0.76,8.71376499768103,-0.3022222222222222,0.46,-0.6677777777777778,-0.0015454994174141173,0.0013621361982233283,0.0008634964650376253
1590505528.1529384,3.937124540304145,-0.7678540900506908,8.87420634131796,-0.3022222222222222,0.46,-0.6677777777777778,-0.001947579102075722,0.01145139214953714,0.001947579102075722
1590505528.1629384,3.87633713332127,-0.8034831212176046,8.84964050907775,-0.3022222222222222,0.46,-0.6677777777777778,0.0007402919804649533,0.007976550685406206,0.0007206847922639793
1590505528.1729383,3.7949471119037947,-0.829010577619241,8.945158664288616,-0.3022222222222222,0.46,-0.6677777777777778,0.0016902107932358248,0.002505449281939758,-0.001474352315271261
1590505528.1829383,3.888586459286368,-0.7949738002162522,8.893874241038011,-0.29221640004805605,0.46300174665224986,-0.6752821444084024,0.001090830782496456,-0.006984746551650141,-0.003272492347489368
1590505528.1929383,3.9691963502368837,-0.7778013686611687,8.825307071416038,-0.28,0.4666666666666667,-0.6844444444444444,-0.00028366576937352995,-0.005933820861234009,-0.0039597406234243605
1590505528.2029383,3.9918152156180327,-0.7727282614606559,8.755915764859427,-0.28,0.4666666666666667,-0.6844444444444444,0.000396611812049122,0.001140333109321911,9.900465365091007e-05
1590505528.2129383,3.836134224111752,-0.7906103856665654,8.904679623443668,-0.28,0.4666666666666667,-0.6844444444444444,0.0005343182666768246,0.00997283678646775,0.0016251490491732807
1590505528.2229383,3.8014516282461868,-0.8077201382503092,9.02357453150268,-0.28,0.4666666666666667,-0.6844444444444444,0.0004465083733787852,0.00852312505236759,0.00019781403573888552
1590505528.2329383,3.875540754050621,-0.8044459245949379,8.906114811487344,-0.2904331677630107,0.46185135846835407,-0.6788265848797463,0.0003029278210074113,-0.0051512260914748685,-0.0018787337439855006
1590505528.2429383,3.8444803761982276,-0.8030056068005065,8.878033640803038,-0.29444444444444445,0.46,-0.6766666666666666,-0.00019074248517228677,-0.006980093793860573,-0.0018001765946483385
1590505528.2529383,3.9410386521308225,-0.7737922695738355,8.710338156590684,-0.29444444444444445,0.46,-0.6766666666666666,-0.00067715834383001,-0.006321023837791453,0.0012410173159993377
1590505528.2629383,3.9059344149383945,-0.7921967551848168,8.80472143567766,-0.29444444444444445,0.46,-0.6766666666666666,0.0,0.006988471228384446,0.002829005814083657
1590505528.2729383,3.914375158612189,-0.7956248413878114,8.913125475836566,-0.29444444444444445,0.46,-0.6766666666666666,0.0010453910344962955,0.008681206511971488,0.0016589660477447643
1590505528.2829382,3.863909751867663,-0.7976240661686232,8.968812033084312,-0.29150710008300723,0.4693015904778845,-0.6703024205502194,0.0017010397177556961,0.003569393028384298,0.0006102089352592402
1590505528.2929382,3.924314528514385,-0.794229548479574,8.876918193918296,-0.2877777777777778,0.4811111111111111,-0.6622222222222223,0.0022152788543889843,-0.007736667345663407,0.0
1590505528.3029382,3.9407400963181605,-0.7870371290974056,8.797037129097406,-0.2877777777777778,0.4811111111111111,-0.6622222222222223,0.003272492347489368,-0.005332920365519725,-0.0006194874954938705
1590505528.3129382,3.895774929588963,-0.7885562676027593,8.82144373239724,-0.2877777777777778,0.4811111111111111,-0.6622222222222223,0.00140001601265505,0.004526598222006499,0.0007816455523378622
1590505528.3229382,3.8831464939705227,-0.7908123475452641,8.898478201120005,-0.2877777777777778,0.4811111111111111,-0.6622222222222223,-0.00039314805111413307,0.009512942362199914,0.002574809616107045
1590505528.3329382,3.824659685863874,-0.8043093032621829,9.001031010873943,-0.2905177428737638,0.4747881147357587,-0.6596930236720813,-0.0008839112099810187,0.008011433809748437,0.0026517336299430564
1590505528.3429382,3.9421315272579034,-0.784043842419301,8.867430048549085,-0.3022222222222222,0.4477777777777778,-0.6488888888888888,0.0004411147790538517,-0.005245552688093527,-0.001323344337161555
1590505528.3529382,3.951798476859988,-0.79,8.74899238429994,-0.3022222222222222,0.4477777777777778,-0.6488888888888888,0.0006435070872723675,-0.006992308390202824,-0.0023778449570411907
1590505528.3629382,3.9446310309844166,-0.7853689690155837,8.717786185906498,-0.3022222222222222,0.4477777777777778,-0.6488888888888888,0.0005051671152496186,-0.0030893114402286244,-0.001090830782496456
1590505528.3729382,3.9197793260344094,-0.7827473339968719,8.804946679937437,-0.3022222222222222,0.4477777777777778,-0.6488888888888888,0.00019176783442039207,0.0045791627598624155,-0.0004914554837790801
1590505528.3829381,3.850553831667701,-0.7970358877784673,8.964071775556935,-0.29284103851759913,0.45207748697573,-0.6535794807412004,-0.0014141652678986347,0.008222070785134589,0.00032333448540217873
1590505528.3929381,3.8744926362865293,-0.8055073637134706,8.963044182280823,-0.27555555555555555,0.46,-0.6622222222222223,0.0,0.00082213936953594,-0.00011068959131508497
1590505528.4029381,3.9524426497871876,-0.7698155625886719,8.760967150496562,-0.27555555555555555,0.46,-0.6622222222222223,0.0006585222696122882,-0.00613279518266664,0.0004323085128841678
1590505528.412938,3.9245146958304855,-0.7848393711551607,8.760324675324675,-0.27555555555555555,0.46,-0.6622222222222223,0.0004574331408486505,-0.003659465126789204,0.001266795283295611
1590505528.422938,3.8741920576884015,-0.7932317692463945,8.865152346130408,-0.27555555555555555,0.46,-0.6622222222222223,0.00045728255685091633,0.0032009778979564143,0.002181661564992912
1590505528.432938,3.8663230708576752,-0.7809415433138598,8.935560015770044,-0.28284991776479534,0.4639511128633383,-0.6603986316699123,0.001090830782496456,0.007635815477475192,0.0018832772586235003
1590505528.442938,3.877611097686884,-0.81,8.977627792544428,-0.3022222222222222,0.4744444444444445,-0.6555555555555556,5.211776359048811e-05,0.002961606892398337,0.001090830782496456
1590505528.452938,3.93,-0.7905236672855952,8.84209466914238,-0.3022222222222222,0.4744444444444445,-0.6555555555555556,-0.001090830782496456,-0.0053684690532452535,-0.0005025729616297148
1590505528.462938,3.93,-0.7654463841391803,8.741785536556721,-0.3022222222222222,0.4744444444444445,-0.6555555555555556,-0.001090830782496456,-0.006739756518913151,-0.0006914942591990394
1590505528.472938,3.93,-0.7622209360768845,8.755534977230152,-0.3022222222222222,0.4744444444444445,-0.6555555555555556,-0.001090830782496456,-0.0021829242352256325,0.001090830782496456
1590505528.482938,3.93,-0.7686091353549508,8.857746165679213,-0.3022222222222222,0.4744444444444445,-0.6555555555555556,-0.001090830782496456,0.004088675740287103,0.001090830782496456
1590505528.492938,3.8680914192341596,-0.7938171615316807,8.95572574229752,-0.3022222222222222,0.46,-0.6844444444444444,-0.001090830782496456,0.009450950769783048,0.0004662491874186653
1590505528.502938,3.8706019847453454,-0.8029320101697696,8.939359058476175,-0.3022222222222222,0.46,-0.6844444444444444,-0.0008980812605667738,0.0026942437817003215,-0.0016034129992038653
1590505528.512938,3.9308607758406597,-0.77,8.75,-0.3022222222222222,0.46,-0.6844444444444444,0.0007898179072523553,-0.0019745447681308883,0.0006959218288702784
1590505528.522938,3.94790611279973,-0.7720938872002702,8.757328605200946,-0.3022222222222222,0.46,-0.6844444444444444,0.0016106424117104036,-0.004768930928543269,0.00011420383065650164
1590505528.532938,3.9080198615708697,-0.7954950346072827,8.863960276858261,-0.2961166282141305,0.46,-0.6798652489383756,-0.0023733694124132942,0.0028890766526486035,0.000791123137471098
1590505528.542938,3.8531132111275572,-0.800660366617329,8.98,-0.28,0.46,-0.6677777777777778,-0.00033959865303497016,0.006277420865335311,0.00033959865303497016
1590505528.552938,3.8977268197671786,-0.790779091362051,8.882988177741542,-0.28,0.46,-0.6677777777777778,8.498568401023266e-05,-0.00025495705203069756,-8.498568401023266e-05
1590505528.562938,3.9409196681505465,-0.7890803318494537,8.794540165924726,-0.28,0.46,-0.6677777777777778,0.0004952552748333515,-0.005059218870478681,-0.0004952552748333515
1590505528.572938,3.9459514368155513,-0.775951436815551,8.802145689553347,-0.28,0.46,-0.6677777777777778,-0.00044162973464788264,-0.004336836021739322,0.0
1590505528.582938,3.934743392807909,-0.7752566071920911,8.838398125172318,-0.28204423613025764,0.4585398313355303,-0.6677777777777778,-0.0013775342293277156,0.0006293898984911016,0.0
1590505528.592938,3.9032610262323435,-0.7844203420774479,8.884420342077448,-0.2877777777777778,0.4544444444444444,-0.6677777777777778,-0.0003557227796768853,0.004845507650710271,0.0012172925235440176
1590505528.602938,3.8733719451899984,-0.78,8.868914630126666,-0.2877777777777778,0.4544444444444444,-0.6677777777777778,0.001090830782496456,0.002549483726007044,-0.0002367909736454613
1590505528.612938,3.899284198717167,-0.7856120283881668,8.815103772894666,-0.2877777777777778,0.4544444444444444,-0.6677777777777778,0.001090830782496456,-0.0019700558765316572,-0.0009573069013816666
1590505528.622938,3.93,-0.781678913266281,8.796642173467438,-0.2877777777777778,0.4544444444444444,-0.6677777777777778,0.001090830782496456,-0.0039094782523376465,0.0
1590505528.632938,3.93,-0.7769921907800823,8.830488286170123,-0.2889431429077915,0.45541558205278915,-0.6677777777777778,0.0005187835119963306,-0.002319080229989159,0.00019068242350004177
1590505528.642938,3.9254961527500716,-0.81,8.88450384724993,-0.29444444444444445,0.46,-0.6677777777777778,-0.0020178970576634355,0.002591072833316603,0.0011727130361611942
1590505528.652938,3.8723018318573335,-0.81,8.921585345141331,-0.29444444444444445,0.46,-0.6677777777777778,0.0,0.006631451859031045,0.0016794797557708385
1590505528.6629379,3.8818745526948413,-0.8043763419154755,8.850627236525792,-0.29444444444444445,0.46,-0.6677777777777778,0.0004089639565889673,0.0026590464126059173,0.00020448197829448365
1590505528.6729379,3.889571504596921,-0.7812854862092379,8.812142477015398,-0.29444444444444445,0.46,-0.6677777777777778,0.0020881783698254875,0.00014022479275113686,0.0010440891849127438
1590505528.6829379,3.935787010803005,-0.7778935054015026,8.832638967590984,-0.29444444444444445,0.46,-0.6677777777777778,0.0006312649522557497,-0.004075456421760161,-0.0004014820371353965
1590505528.6929379,3.9204533240718735,-0.7702266620359369,8.87864002778438,-0.29444444444444445,0.46,-0.6677777777777778,-0.001041380797291798,0.0009424808268824825,0.0021074865871859253
1590505528.7029378,3.9117669350088358,-0.8054887099941096,8.909812095032397,-0.29444444444444445,0.46,-0.6677777777777778,-0.0007914680916079233,0.005261411202651421,-0.001283573492327314
1590505528.7129378,3.89,-0.8122237805828268,8.84166432912576,-0.29444444444444445,0.46,-0.6677777777777778,0.0,0.006999625014097759,0.0008787672947039784
1590505528.7229378,3.9102700770513943,-0.7766216538247677,8.869729922948606,-0.29444444444444445,0.46,-0.6677777777777778,0.0003685204001872609,0.0017836803286749975,-0.0007370408003745218
1590505528.7329378,3.9498993417023884,-0.7701006582976118,8.830201316595224,-0.2943773389127033,0.46,-0.6676547509695857,0.0010798506655415965,-0.003294452581399087,-0.002137741097173474
1590505528.7429378,3.932999216232692,-0.7764996081163459,8.857000783767308,-0.2877777777777778,0.46,-0.6555555555555556,0.0003818335217490643,-0.00278131926023883,0.0017998280432438476
1590505528.7529378,3.905790185130767,-0.7877622685865413,8.866447546282691,-0.2877777777777778,0.46,-0.6555555555555556,0.0007033181956730749,0.0029566867386396738,0.0003158056088496939
1590505528.7629378,3.8887936340455465,-0.8112063659544535,8.86,-0.2877777777777778,0.46,-0.6555555555555556,-0.0004796183353445466,0.0038837047946412772,-0.001090830782496456
1590505528.7729378,3.8965996362584217,-0.8034003637415782,8.873601454966312,-0.2877777777777778,0.46,-0.6555555555555556,-0.001090830782496456,0.001046959482890411,-0.001090830782496456
1590505528.7829378,3.903910892465049,-0.8044356430139804,8.883306929041941,-0.28963256343978433,0.45845434528166124,-0.6614290434852429,-0.0013943193767539262,-0.002969003753231898,-0.001090830782496456
1590505528.7929378,3.9318893120081237,-0.7859446560040619,8.864332063975628,-0.29444444444444445,0.4544444444444444,-0.6766666666666666,-0.0004121839392403465,-0.0012969227521166292,-0.0006484613760583146
1590505528.8029377,3.911087003584057,-0.7933694946239146,8.864348014336228,-0.29444444444444445,0.4544444444444444,-0.6766666666666666,0.0007232759367742237,0.0014583856282186882,0.00048612854273956266
1590505528.8129377,3.9,-0.81,8.854666238620469,-0.29444444444444445,0.4544444444444444,-0.6766666666666666,-0.00014545577748209981,0.0018544298399678337,0.001090830782496456
1590505528.8229377,3.896614468720528,-0.8032289374410563,8.9,-0.29444444444444445,0.4544444444444444,-0.6766666666666666,0.0014601349559717081,-0.0007386083469505043,0.001090830782496456
1590505528.8329377,3.900823390971791,-0.7791766090282091,8.886470761285262,-0.297751591685825,0.4544444444444444,-0.6748627681713681,0.0018864993639173175,-0.00336231036929529,0.0007956685814208615
1590505528.8429377,3.917077490289025,-0.7629225097109751,8.828462483815041,-0.30666666666666664,0.4544444444444444,-0.67,0.001090830782496456,-0.004195606131671909,-0.0004698757126613654
1590505528.8529377,3.9,-0.7833975883152174,8.796602411684782,-0.30666666666666664,0.4544444444444444,-0.67,-2.102739365036476e-05,2.102739365036476e-05,-0.0007202113904475158
1590505528.8629377,3.8903477641613007,-0.7996522358386992,8.82217411946233,-0.30666666666666664,0.4544444444444444,-0.67,-0.0014797311668083434,0.0032345571622697648,0.0
1590505528.8729377,3.8796958561243673,-0.8167680479585443,8.896463904082912,-0.30666666666666664,0.4544444444444444,-0.67,0.00035255127743721295,0.004043948802733428,0.0007051025548744259
1590505528.8829377,3.900748126844774,-0.8077556194656778,8.909251873155226,-0.30467166174726906,0.4533638167797707,-0.6687531219253766,0.0011724387616456082,0.0008460068450489996,0.0020184456066946075
1590505528.8929377,3.9158472182763173,-0.78,8.87953473603289,-0.28,0.44,-0.6533333333333333,0.002181661564992912,-0.002819494133771193,0.0006378325687782809
1590505528.9029377,3.929866303457727,-0.78,8.830467937897955,-0.28,0.44,-0.6533333333333333,0.002181661564992912,-0.0043487390996033316,0.00216707753461042
1590505528.9129376,3.8930885790279683,-0.7861771580559362,8.77544289513984,-0.28,0.44,-0.6533333333333333,-0.001090830782496456,0.0002568160486557708,0.0018447498572048552
1590505528.9229376,3.898221027395666,-0.798221027395666,8.831347671252008,-0.28,0.44,-0.6533333333333333,-0.0007027191668913812,0.003272492347489368,0.001090830782496456
1590505528.9329376,3.8919310726885734,-0.7919310726885734,8.926137854622853,-0.2827893272168282,0.4438621453771467,-0.655049842389843,0.0008801834293030563,0.00200860822832897,0.001090830782496456
1590505528.9429376,3.9,-0.8,8.896054875516137,-0.29444444444444445,0.46,-0.6622222222222223,0.0,-0.003272492347489368,0.0007105365061779061
1590505528.9529376,3.911131370025978,-0.7888686299740222,8.836605889922065,-0.29444444444444445,0.46,-0.6622222222222223,0.000404748035856499,-0.002058248239919871,0.0
1590505528.9629376,3.9104821945817005,-0.7817106832509797,8.811228488669279,-0.29444444444444445,0.46,-0.6622222222222223,0.00023920586421416576,0.0012774373774234354,0.0004258124591411451
1590505528.9729376,3.8831908826528685,-0.7968091173471316,8.88233617857008,-0.29444444444444445,0.46,-0.6622222222222223,-4.6616876171572987e-05,0.002924421045381074,4.6616876171572987e-05
1590505528.9829376,3.893763788087093,-0.7881181059564537,8.926236211912906,-0.2931898484154135,0.46125459602903096,-0.663685917589425,0.001565813179363778,0.0013605303841540666,-0.0017710959745734893
1590505528.9929376,3.906221953390701,-0.772443906781402,8.879775627125607,-0.2877777777777778,0.4666666666666667,-0.67,-0.001090830782496456,-0.002181661564992912,0.0
1590505529.0029376,3.9030117936621886,-0.7690353809865655,8.808917444364681,-0.2877777777777778,0.4666666666666667,-0.67,-0.00043375933504786774,-0.002510197288717206,0.0003285357237242941
1590505529.0129375,3.91,-0.7921166980371068,8.774816886259748,-0.2877777777777778,0.4666666666666667,-0.67,0.0008599348448838692,-0.0028107004722641945,0.0008599348448838692
1590505529.0229375,3.9061971746136934,-0.7942957619205399,8.847112714238381,-0.2877777777777778,0.4666666666666667,-0.67,0.00020741194959212258,-0.0006760068833122107,0.00020741194959212258
1590505529.0329375,3.893563360342179,-0.7753450405132685,8.903964878460194,-0.2877777777777778,0.4666666666666667,-0.67,0.000896479624977659,0.000702128467458862,0.000896479624977659
1590505529.0429375,3.9,-0.808672255489022,8.946016766467066,-0.3022222222222222,0.46,-0.6622222222222223,7.24172291932777e-05,0.0008735790949166228,-7.24172291932777e-05
1590505529.0529375,3.9,-0.7919285429141717,8.895785628742516,-0.3022222222222222,0.46,-0.6622222222222223,0.0009856450836892628,-0.0018661044685713325,-0.0009856450836892628
1590505529.0629375,3.917944465714228,-0.7720555342857719,8.776444274286174,-0.3022222222222222,0.46,-0.6622222222222223,-0.001508989542973869,-0.000642382767817094,-0.003914875115306462
1590505529.0729375,3.9093821948405783,-0.7806178051594217,8.84308902579711,-0.3022222222222222,0.46,-0.6622222222222223,0.001090830782496456,0.0011582228710446895,-0.001777309033703511
1590505529.0829375,3.9,-0.791061873625903,8.897433115381322,-0.30068840476258457,0.46,-0.6645819413908955,0.000859165894845237,0.002413326452644131,0.004015825798508996
1590505529.0929375,3.905144335380301,-0.7948556646196993,8.934278323098496,-0.2877777777777778,0.46,-0.6844444444444444,-0.00137141075191234,0.002960423282906404,0.0005296708436646879
1590505529.1029375,3.9160322512200296,-0.7819838743899852,8.838177381710162,-0.2877777777777778,0.46,-0.6844444444444444,-0.001965254439672694,-0.001090830782496456,-0.001090830782496456
1590505529.1129375,3.9011998726925525,-0.7894000636537237,8.75659929980904,-0.2877777777777778,0.46,-0.6844444444444444,-0.0011562736859021155,-0.001090830782496456,-0.001090830782496456
1590505529.1229374,3.925117395944504,-0.7975586979722519,8.82464781216649,-0.2877777777777778,0.46,-0.6844444444444444,-0.000824526042372588,0.000532609480247736,-0.001915356824869044
1590505529.1329374,3.9086623662219617,-0.7893311831109808,8.874012901334115,-0.286960334913421,0.459628435061656,-0.6848903223704572,-7.295660503956651e-05,0.0022546181700324784,-0.001090830782496456
1590505529.1429374,3.89204871234208,-0.7861461370262391,8.92795128765792,-0.27555555555555555,0.4544444444444444,-0.6911111111111111,-0.0013143106312185494,0.0028255326500451813,-0.0004203912363301756
1590505529.1529374,3.9007587167173425,-0.80696513313063,8.909377965957205,-0.27555555555555555,0.4544444444444444,-0.6911111111111111,-0.002016135254898539,0.001256357092590829,0.0020988984099457255
1590505529.1629374,3.912456396485648,-0.77,8.78,-0.27555555555555555,0.4544444444444444,-0.6911111111111111,-0.00026795129005609427,0.0027365897673771794,0.0008228794924403617
1590505529.1729374,3.92,-0.7771058669288758,8.808423467715503,-0.27555555555555555,0.4544444444444444,-0.6911111111111111,-0.0008324541697517474,0.0013492073952411645,-0.0002583766127447085
1590505529.1829374,3.919979432845123,-0.8,8.900020567154877,-0.2755681243724248,0.4544570132613136,-0.6910871160970881,-1.1217642824052058e-06,0.0021805398007105066,-0.001090830782496456
1590505529.1929374,3.9017173928149536,-0.7965652143700924,8.92,-0.2877777777777778,0.4666666666666667,-0.6677777777777778,-0.0009034922876774725,0.0012781692773154395,-0.0012781692773154395
1590505529.2029374,3.9090037176012786,-0.7819925647974428,8.92,-0.2877777777777778,0.4666666666666667,-0.6677777777777778,-0.00010867755085847359,0.0020729840141344383,-0.0020729840141344383
1590505529.2129374,3.9118160373206585,-0.7572641492826335,8.785448111961975,-0.2877777777777778,0.4666666666666667,-0.6677777777777778,-0.0008927318413427998,-0.0016851276059574247,0.0019835626238392558
1590505529.2229373,3.9191997183346534,-0.7867988733386146,8.807599155003961,-0.2877777777777778,0.4666666666666667,-0.6677777777777778,-8.729718752273374e-05,-0.0041014315674176224,0.0011781279700191897
1590505529.2329373,3.9001957975167145,-0.7999347341610953,8.880065265838905,-0.2878212883370477,0.4666231561073968,-0.6679300647352223,1.4238797224563737e-05,-0.0021531839705437846,0.002181661564992912
1590505529.2429373,3.9252334049665714,-0.791588865011143,8.888411134988857,-0.2933852011036825,0.461059243340762,-0.6874037594184442,0.0018350249923156515,0.001488388419638391,0.002181661564992912
1590505529.2529373,3.8950948495665476,-0.7884914159442461,8.861508584055754,-0.29444444444444445,0.46,-0.6911111111111111,0.00037050791595859565,0.0007203228665378604,0.0014613386984550516
1590505529.2629373,3.9164834268230493,-0.8241390447050824,8.825860955294917,-0.29444444444444445,0.46,-0.6911111111111111,0.0019259291469716452,-0.0008350983644751892,0.0030167599294681014
1590505529.2729373,3.9054630673086774,-0.7863579551275485,8.840926134617355,-0.29444444444444445,0.46,-0.6911111111111111,-0.0008921880495912772,-0.001090830782496456,0.0017843760991825544
1590505529.2829373,3.926948058600553,-0.7720346275996313,8.883896117201108,-0.29444444444444445,0.46,-0.6911111111111111,-0.00011097172082972866,-0.001090830782496456,0.00022194344165945732
1590505529.2929373,3.8974361878015085,-0.81,8.910255248793966,-0.29444444444444445,0.46,-0.6533333333333333,0.0,0.003272492347489368,-0.0010629874583310878
1590505529.3029373,3.892143075583994,-0.8057138488320121,8.912140017408078,-0.29444444444444445,0.46,-0.6533333333333333,-0.00023377328162372003,0.002337399220994488,0.0019478882833691919
1590505529.3129373,3.9041272371567275,-0.7879363814216361,8.822381711470184,-0.29444444444444445,0.46,-0.6533333333333333,-0.0008657249156353657,-0.001090830782496456,0.0008657249156353657
1590505529.3229373,3.9224628899101224,-0.7824628899101225,8.87,-0.29444444444444445,0.46,-0.6533333333333333,-0.00013432980639307288,-0.0009565009761033831,0.0
1590505529.3329372,3.9338346415063645,-0.7938346415063646,8.87,-0.29444444444444445,0.46,-0.6533333333333333,-0.0007545626409972842,-0.0003362681414991718,0.0
1590505529.3429372,3.917955458615544,-0.7926518195385146,8.906740902307428,-0.30342555389737114,0.46,-0.6655803007691425,-0.0018923929267691932,0.0008015621442727372,0.0008015621442727372
1590505529.3529372,3.9171725903922976,-0.7971725903922975,8.912827409607702,-0.30666666666666664,0.46,-0.67,-0.001399253325977273,0.0018732390215120947,0.0018732390215120947
1590505529.3629372,3.9088409523044376,-0.7728976192389063,8.811738571543344,-0.30666666666666664,0.46,-0.67,-0.001027614537261397,0.001090830782496456,0.0
1590505529.3729372,3.894043104135129,-0.814609194486495,8.844043104135128,-0.30666666666666664,0.46,-0.67,0.0,0.001090830782496456,0.0
1590505529.3829372,3.9191066448888536,-0.7811911401481954,8.869106644888852,-0.30666666666666664,0.46,-0.67,0.0,0.001090830782496456,0.0
1590505529.3929372,3.9120036375857503,-0.7879963624142499,8.877996362414251,-0.30311272781588894,0.45555757643652783,-0.6753309082761666,0.0,0.001090830782496456,0.0026168034808384233
1590505529.4029372,3.918241664344757,-0.7917583356552429,8.892966657379029,-0.3022222222222222,0.4544444444444444,-0.6766666666666666,9.590233293500001e-05,0.001186733115431456,0.002601176016944368
1590505529.4129372,3.90265960806167,-0.8073403919383302,8.83063843224668,-0.3022222222222222,0.4544444444444444,-0.6766666666666666,0.0009457716653441919,0.002036602447840648,-0.0033479093099199764
1590505529.4229372,3.898691971984655,-0.7873839439693099,8.846540140076725,-0.3022222222222222,0.4544444444444444,-0.6766666666666666,0.00014268372235061693,-0.001090830782496456,-0.00014268372235061693
1590505529.4329371,3.8913110196037026,-0.7726220392074051,8.883444901981488,-0.3022222222222222,0.4544444444444444,-0.6766666666666666,0.0009478207284789535,-0.001090830782496456,-0.0009478207284789535
1590505529.4429371,3.9112650010909884,-0.7837950032729654,8.885060004363954,-0.3144444444444445,0.4544444444444444,-0.6844444444444444,-0.00013799021299417855,0.0020436713519987335,-0.0008148503565080989
1590505529.4529371,3.918891555749509,-0.8066746672485272,8.915566222998036,-0.3144444444444445,0.4544444444444444,-0.6844444444444444,-0.0009699182715847824,0.0012117432934081295,0.0008490057606731088
1590505529.462937,3.908454360008441,-0.79,8.817728199957795,-0.3144444444444445,0.4544444444444444,-0.6844444444444444,0.002935286011199343,0.0005850212780614184,0.0012594339506414684
1590505529.472937,3.9,-0.79,8.865398118087272,-0.3144444444444445,0.4544444444444444,-0.6844444444444444,0.0013263681175823578,-0.002063892897449961,0.0018283555623640592
1590505529.482937,3.9,-0.79,8.903864524294283,-0.3144444444444445,0.4544444444444444,-0.6844444444444444,0.0030047817168871453,-0.0012246860977975674,-0.0006892648365931218
1590505529.492937,3.9,-0.7754030888990104,8.89540308889901,-0.3087678679051707,0.4584991419724971,-0.6844444444444444,0.001680216351656998,-0.001090830782496456,-0.001090830782496456
1590505529.502937,3.909360792993937,-0.7819176210181888,8.837443171975748,-0.30666666666666664,0.46,-0.6844444444444444,-0.002993585676049027,0.0011605574503565413,-0.00013945333572017054
1590505529.512937,3.901287845250698,-0.8061364642479069,8.80515138100279,-0.30666666666666664,0.46,-0.6844444444444444,0.0005289022854752809,0.002041179440737618,-0.0019006973164823245
1590505529.522937,3.90060133876708,-0.808195983698759,8.84240535506832,-0.30666666666666664,0.46,-0.6844444444444444,0.00013119176756794127,0.0008284472473605734,0.002116065681208941
1590505529.532937,3.9083357613085252,-0.7849927160744251,8.873343045234101,-0.30666666666666664,0.46,-0.6844444444444444,0.0018185810061763926,-0.002546331229856329,0.0012723710619047157
1590505529.542937,3.9196726610249177,-0.78,8.899345322049836,-0.288396084730711,0.4546262994306012,-0.656501201483571,0.002181661564992912,-0.0022173687080259707,0.001090830782496456
1590505529.552937,3.91,-0.770812390607972,8.877833625045408,-0.2877777777777778,0.4544444444444444,-0.6555555555555556,0.0010612914264102272,-0.0010612914264102272,-0.0020930434967342255
1590505529.562937,3.91,-0.7915892804068558,8.822428585581719,-0.2877777777777778,0.4544444444444444,-0.6555555555555556,0.0003058223945049259,-0.0003058223945049259,0.00017336359898167822
1590505529.572937,3.9008254318265343,-0.7816508636530688,8.855047409040793,-0.2877777777777778,0.4544444444444444,-0.6555555555555556,0.0,0.0030023704139185807,-0.0009107494934492645
1590505529.582937,3.891850171426225,-0.8125993142950995,8.884449485721325,-0.2877777777777778,0.4544444444444444,-0.6555555555555556,0.0,0.0006054671833865236,-0.00020182239446217456
1590505529.592937,3.920484939908007,-0.791454819724022,8.919515060091992,-0.2877777777777778,0.46,-0.6766666666666666,0.002022965351198297,0.00015869621379461523,0.0010379320445649176
1590505529.602937,3.9289613113968054,-0.8196537704656017,8.907922622793611,-0.2877777777777778,0.46,-0.6766666666666666,-0.0010152952157102628,0.0032347245640962714,3.7767783393096554e-05
1590505529.612937,3.9163918607090413,-0.8154639535696805,8.882783721418082,-0.2877777777777778,0.46,-0.6766666666666666,-0.000101218967091308,0.002777686439786794,0.000494805907702574
1590505529.622937,3.9038224100212773,-0.8112741366737591,8.857644820042553,-0.2877777777777778,0.46,-0.6766666666666666,0.0008128572815276468,0.002320648315477317,0.0009518440320120514
1590505529.632937,3.9077027419312276,-0.7868917742063178,8.85,-0.2877777777777778,0.46,-0.6766666666666666,-0.0005896468191453541,-0.0011792936382907081,0.001090830782496456
1590505529.642937,3.91761588341773,-0.7952317668354605,8.89569530050638,-0.2877777777777778,0.4506916980449964,-0.6766666666666666,-0.000260066775700012,-0.000520133551400024,-0.00223222524468932
1590505529.652937,3.910222132704149,-0.7893336018875525,8.868000805662657,-0.2877777777777778,0.4477777777777778,-0.6766666666666666,-0.0031997995900438425,0.0009696761867539135,2.4230919148508488e-05
1590505529.662937,3.918267825286298,-0.7651965241411061,8.795589572423317,-0.2877777777777778,0.4477777777777778,-0.6766666666666666,-0.0005668528495104447,-0.00341856838080175,0.0009018798326596411
1590505529.672937,3.9093551710322987,-0.79,8.822256901386956,-0.2877777777777778,0.4477777777777778,-0.6766666666666666,-0.004222643272503022,7.03399287414011e-05,-3.516996437070055e-05
1590505529.682937,3.893351584409638,-0.79,8.878269454566267,-0.2877777777777778,0.4477777777777778,-0.6766666666666666,-0.0007312022888336885,0.0018160604205760677,-0.0009080302102880338
