time,acc_x,acc_y,acc_z,mag_x,mag_y,mag_z,gyr_x,gyr_y,gyr_z
1590505461.2846892,0.0,-4.55,8.56,0.5111111111111111,0.3233333333333333,-0.6344444444444445,-0.002181661564992912,0.0,0.001090830782496456
1590505461.2946892,0.0,-4.55,8.606141914191419,0.5111111111111111,0.3233333333333333,-0.6344444444444445,-0.0013427778922710774,-0.0008388836727218345,0.001090830782496456
1590505461.3046892,-0.000214568216499019,-4.54,8.681072841082495,0.5111111111111111,0.32347637881099933,-0.6338245807078917,0.0021582558034426626,0.001090830782496456,0.0010440192593959572
1590505461.3146892,-0.007856182247941967,-4.542143817752058,8.73,0.5111111111111111,0.33,-0.6055555555555555,0.0006231223032950046,0.0003892680636942789,-0.0008569765428957303
1590505461.3246891,0.0,-4.549025708862944,8.720257088629436,0.5111111111111111,0.33,-0.6055555555555555,-0.001090830782496456,-0.0016502681832856027,-0.0001062786763414618
1590505461.3346891,0.0021540501938379923,-4.54,8.64077025096919,0.5111111111111111,0.33,-0.6055555555555555,-0.0008558603566483621,0.003037521921641274,-0.0008558603566483621
1590505461.3446891,0.01,-4.540622947308297,8.680622947308295,0.5111111111111111,0.33,-0.6055555555555555,0.0,0.002181661564992912,-6.795300997630714e-05
1590505461.3546891,0.01,-4.54810956018849,8.68810956018849,0.5111111111111111,0.33,-0.6055555555555555,0.0,0.002181661564992912,-0.0008846157886113359
1590505461.364689,0.018817014659308566,-4.549408507329654,8.697634029318616,0.5044444444444445,0.31777777777777777,-0.62,0.0011553526237398695,0.00012904368248682732,0.0011553526237398695
1590505461.374689,0.002908725417685991,-4.541454362708843,8.665817450835371,0.5044444444444445,0.31777777777777777,-0.62,0.0020230152038208248,0.0018643688426487378,0.0020230152038208248
1590505461.384689,0.0,-4.548623807548735,8.58550476980506,0.5044444444444445,0.31777777777777777,-0.62,-0.0007905921648006251,-0.0007905921648006251,0.0020315422561449966
1590505461.394689,8.516392275940599e-05,-4.54,8.620340655691036,0.5044444444444445,0.31777777777777777,-0.62,0.001090830782496456,0.001100120725346867,0.001072250896795634
1590505461.404689,0.010060760325149848,-4.54,8.6602430413006,0.5044883269014971,0.31779465564587495,-0.62,0.0010974587057992508,0.002175033641690117,-0.0010842028591936611
1590505461.414689,0.027280154364069296,-4.54,8.729120617456278,0.5169245559296056,0.3225778206566859,-0.62,0.0029758032131581825,0.00029668913433118565,0.0007941416481652703
1590505461.424689,0.007656689119864389,-4.537656689119864,8.693596823839052,0.5188888888888888,0.3233333333333333,-0.62,0.004687307220179043,-0.0005112311282021576,0.0016704304367907543
1590505461.434689,0.0,-4.534457126134036,8.647428543556726,0.5188888888888888,0.3233333333333333,-0.62,0.0025057929242246167,-0.001695464526145355,-0.00016206567961585234
1590505461.444689,0.0,-4.559006731050629,8.688344551751047,0.5188888888888888,0.3233333333333333,-0.62,0.004291090573634386,0.0009824819479692984,-0.0010547145043207366
1590505461.454689,0.02918914998549463,-4.5210811333526735,8.709459433323664,0.5188888888888888,0.3233333333333333,-0.62,0.005424670573955274,0.002152178226465907,-2.948333852700511e-05
1590505461.464689,0.021276096838554415,-4.538723903161445,8.734895612645783,0.5255555555555556,0.3233333333333333,-0.6133333333333333,0.003945721416103354,0.000673229068613986,0.001764059851110442
1590505461.474689,0.029903325997079212,-4.530096674002921,8.700386696011682,0.5255555555555556,0.3233333333333333,-0.6133333333333333,0.0011224672759724001,-0.0021500250715169675,-0.0010591942890205118
1590505461.484689,-0.001076543401799421,-4.546770369794602,8.606459260410796,0.5255555555555556,0.3233333333333333,-0.6133333333333333,0.002064228896855286,-0.0004697306725505036,-0.001090830782496456
1590505461.494689,-0.009226987427372184,-4.5223190377178835,8.655361924564232,0.5255555555555556,0.3233333333333333,-0.6133333333333333,0.0011751533734443759,-0.004026032766194144,-0.001090830782496456
1590505461.504689,0.004094520344520344,-4.52,8.67409452034452,0.5255555555555556,0.3233333333333333,-0.6133333333333333,0.001090830782496456,-0.0005196389659044877,-0.00032209394968018873
1590505461.514689,0.0004223072395526783,-4.510422307239552,8.708733078281343,0.5117211104571316,0.32971846184029824,-0.5994988882349095,-0.0009986976351814226,4.606657365751666e-05,0.0
1590505461.524689,0.0,-4.525658164929856,8.670854587675361,0.5111111111111111,0.33,-0.5988888888888889,-0.001090830782496456,0.0,-0.0008540204151446623
1590505461.534689,0.0016491177111320893,-4.548900588192579,8.60054970590371,0.5111111111111111,0.33,-0.5988888888888889,-0.0009709035582789239,0.00017989083632629813,0.0009709035582789239
1590505461.544689,0.024492230048652967,-4.533671846634231,8.608164076682884,0.5111111111111111,0.33,-0.5988888888888889,0.0006902944487738993,0.002671687846905533,-0.0006902944487738993
1590505461.554689,0.003833337900419259,-4.5212777793001395,8.679777765598882,0.5111111111111111,0.33,-0.5988888888888889,0.00013938409938292202,0.0023210456643758337,-0.001090830782496456
1590505461.564689,0.0,-4.52,8.705934688294757,0.5173079343368501,0.3202621349309815,-0.5926920656631499,0.0,0.002181661564992912,0.0006473740676442923
1590505461.574689,-0.0010921959989986117,-4.5310921959989985,8.710170236009013,0.5188888888888888,0.31777777777777777,-0.5911111111111111,-0.0006142703760055944,-0.004363323129985824,-0.00011914010162271541
1590505461.584689,-0.01,-4.53924987288249,8.631500254235021,0.5188888888888888,0.31777777777777777,-0.5911111111111111,0.003108839997376297,-0.004363323129985824,-0.001090830782496456
1590505461.594689,-0.0058855454156831405,-4.531371484861439,8.654114454584317,0.5188888888888888,0.31777777777777777,-0.5911111111111111,0.001090830782496456,-0.004512928920444374,-0.001090830782496456
1590505461.604689,0.01750144044012416,-4.539167146813375,8.677501440440125,0.5188888888888888,0.31777777777777777,-0.5911111111111111,0.001090830782496456,-0.0053633037231551675,-0.001090830782496456
1590505461.6146889,0.035574305610508825,-4.53,8.675574305610509,0.5255555555555556,0.3377777777777778,-0.5911111111111111,0.004202400340853196,-0.007313969899209937,-0.0020207387758602842
1590505461.6246889,0.010681332594761415,-4.53,8.650681332594761,0.5255555555555556,0.3377777777777778,-0.5911111111111111,0.003297266299738833,-0.005503701816981208,-0.0011156047347459204
1590505461.6346889,0.0016438868347804412,-4.530821943417391,8.594931660504342,0.5255555555555556,0.3377777777777778,-0.5911111111111111,0.0030035119931414926,-0.005274833676250363,-0.001090830782496456
1590505461.6446888,0.019068588758256823,-4.539534294379129,8.647205766274771,0.5255555555555556,0.3377777777777778,-0.5911111111111111,0.00015240180804850564,-0.0033740935528550385,-0.001090830782496456
1590505461.6546888,0.003270053306925688,-4.556729946693074,8.675094920039612,0.5255555555555556,0.3377777777777778,-0.5911111111111111,0.0009124770421165125,-0.004184969389605881,-0.0038282619088459936
1590505461.6646888,0.020229496620599214,-4.5202294966205985,8.700458993241197,0.5044444444444445,0.33,-0.6077777777777778,0.003272492347489368,-0.009817477042468105,-0.0054791881103051325
1590505461.6746888,0.02728134772520932,-4.527281347725209,8.714562695450418,0.5044444444444445,0.33,-0.6077777777777778,0.003272492347489368,-0.009817477042468105,-0.006248425736154167
1590505461.6846888,0.01002332429034606,-4.539984450473103,8.610038873817242,0.5044444444444445,0.33,-0.6077777777777778,0.004363323129985824,-0.011997442417201723,-0.006543288504719445
1590505461.6946888,0.030838020247469067,-4.526107986501687,8.644730033745782,0.5044444444444445,0.33,-0.6077777777777778,0.004363323129985824,-0.010483755011979437,-0.005029601099497157
1590505461.7046888,0.025205557130705984,-4.527397221434647,8.682191664303941,0.5044444444444445,0.33,-0.6077777777777778,0.004363323129985824,-0.008203653673296993,-0.004363323129985824
1590505461.7146888,0.02960645646351205,-4.520787087072976,8.710787087072976,0.5188888888888888,0.3111111111111111,-0.6055555555555555,-0.002138732624607555,-0.006459126814208021,-0.006287411052666594
1590505461.7246888,0.02,-4.539751066688669,8.72701280026402,0.5188888888888888,0.3111111111111111,-0.6055555555555555,-0.001145139606254324,-0.0042003966587122205,0.0
1590505461.7346888,0.02,-4.5298636020388905,8.61040919388333,0.5188888888888888,0.3111111111111111,-0.6055555555555555,-0.003272492347489368,0.002181661564992912,4.463612839458313e-05
1590505461.7446887,0.02,-4.520029150416147,8.64011660166459,0.5188888888888888,0.3111111111111111,-0.6055555555555555,-0.003272492347489368,0.002178481747867304,0.003272492347489368
1590505461.7546887,0.02,-4.5284612601021275,8.673845040408509,0.5188888888888888,0.3111111111111111,-0.6055555555555555,-0.003272492347489368,0.0012586812671819907,0.003272492347489368
1590505461.7646887,-1.7075816625818635e-05,-4.520034151633252,8.709948772550124,0.5255555555555556,0.3233333333333333,-0.5988888888888889,-0.0021835242476340826,0.004363323129985824,0.004361460447344653
1590505461.7746887,-0.008443087307645949,-4.536886174615292,8.684670738077061,0.5255555555555556,0.3233333333333333,-0.5988888888888889,-0.0031026595184414445,0.004363323129985824,0.0034423251765372917
1590505461.7846887,-0.00016792707824136652,-4.569496218765276,8.621007562469448,0.5255555555555556,0.3233333333333333,-0.5988888888888889,-0.005417517907250205,0.005435835909866242,0.005417517907250205
1590505461.7946887,0.03277647897927646,-4.56180588025518,8.636388239489639,0.5255555555555556,0.3233333333333333,-0.5988888888888889,-0.0027726344965490713,0.0018787946912380018,0.00545415391248228
1590505461.8046887,0.025086994048971065,-4.56,8.699652023804116,0.5255555555555556,0.3233333333333333,-0.5988888888888889,0.0026986082202876487,0.001904209080043216,0.0013872624247484797
1590505461.8146887,0.02,-4.538160443255275,8.712720147751758,0.5255555555555556,0.3338486754696827,-0.5988888888888889,0.005157431822426653,0.0037698789498745704,-0.0007941086924408291
1590505461.8246887,0.03871438414461152,-4.520321403963846,8.737428768289224,0.5255555555555556,0.3377777777777778,-0.5988888888888889,0.00760075574373711,-0.002041422630040585,-0.0010207113150202925
1590505461.8346887,0.004715275807562924,-4.52882118104811,8.669430551615125,0.5255555555555556,0.3377777777777778,-0.5988888888888889,0.006673573894949997,0.0016673047651078647,0.0008336523825539324
1590505461.8446887,0.0,-4.53,8.640553023506191,0.5255555555555556,0.3377777777777778,-0.5988888888888889,0.007252096714509814,0.00288877358452399,0.00038371876296537807
1590505461.8546886,0.0,-4.523622712609552,8.649131862171345,0.5255555555555556,0.3377777777777778,-0.5988888888888889,0.005548853059177067,0.005359454765787492,-0.0020869624182981244
1590505461.8646886,0.0,-4.526151144941859,8.672302289883719,0.5289728583010329,0.3329935539341095,-0.60777387602713,0.0036923373049680807,0.006544984694978735,-0.0012595348724361373
1590505461.8746886,0.009554971705739693,-4.53,8.651335084882781,0.5311111111111111,0.33,-0.6133333333333333,0.005357063799990073,0.0034181275162276786,-0.002084571452500705
1590505461.8846886,0.017147081984425584,-4.5371470819844255,8.628558754046722,0.5311111111111111,0.33,-0.6133333333333333,0.007013405319209737,0.0001539895340344549,-0.0014020358616291836
1590505461.8946886,0.010891004689498366,-4.503564018757993,8.665544976552509,0.5311111111111111,0.33,-0.6133333333333333,0.008629452725706296,-0.001090830782496456,-0.001090830782496456
1590505461.9046886,0.01,-4.526868569871227,8.676717142467806,0.5311111111111111,0.33,-0.6133333333333333,0.008726646259971648,-0.003289010514785807,-0.00035810420506667234
1590505461.9146886,0.002180871244783224,-4.5556382575104335,8.719095643776084,0.5311111111111111,0.3204432870769573,-0.6133333333333333,0.009579580893821014,-0.00521625776383519,-0.0008529346338493655
1590505461.9246886,0.007787835060562333,-4.552212164939437,8.714424329878875,0.5311111111111111,0.31777777777777777,-0.6133333333333333,0.009817477042468105,-0.0029055908485623163,-0.0002413097611898016
1590505461.9346886,0.029412589971940947,-4.511174820056118,8.603230755154325,0.5311111111111111,0.31777777777777777,-0.6133333333333333,0.009817477042468105,-0.004299246635930433,-0.004235170141875041
1590505461.9446886,0.012401820797457757,-4.501200910398729,8.652794537607626,0.5311111111111111,0.31777777777777777,-0.6133333333333333,0.011737140601470304,-0.004363323129985824,-0.005323154909486924
1590505461.9546885,0.02889023138584662,-4.509445115692923,8.655277442153539,0.5311111111111111,0.31777777777777777,-0.6133333333333333,0.010968836313252907,-0.0028178696886736604,-0.004423851618274171
1590505461.9646885,0.0477198050968048,-4.518289853822603,8.651710146177397,0.5304143848906904,0.3180944715143327,-0.614093398301065,0.009693111702943262,-0.0009664654429716132,-0.0032103096777269468
1590505461.9746885,0.014473613834908184,-4.498947227669817,8.684473613834907,0.5188888888888888,0.3233333333333333,-0.6266666666666667,0.0051958376374152595,-0.0008611514895514899,-0.002181661564992912
1590505461.9846885,0.02,-4.503169050559783,8.6490143033587,0.5188888888888888,0.3233333333333333,-0.6266666666666667,-5.376141192669484e-05,-0.0010370693705697613,-0.003671943549605983
1590505461.9946885,0.025682733945260904,-4.517048201835783,8.669779137616827,0.5188888888888888,0.3233333333333333,-0.6266666666666667,-0.0017107208941192684,-0.0012397802232456251,-0.0031235429067401985
1590505462.0046885,0.02492283950617284,-4.519845679012346,8.720308641975308,0.5188888888888888,0.3233333333333333,-0.6266666666666667,-0.0027354938604270693,-0.0027354938604270693,-0.001073996974124597
1590505462.0146885,0.02,-4.498890390136801,8.734445195068401,0.5188888888888888,0.32703653662106624,-0.6112366529677795,-0.003878427568504542,-0.0014546866844438466,-0.0012118704420303475
1590505462.0246885,0.027966664123884353,-4.529833320619422,8.690166679380578,0.5188888888888888,0.33,-0.5988888888888889,-0.006970407868028788,0.0008690282460143213,-0.0013126333189785906
1590505462.0346885,0.023537614290253115,-4.54,8.634763300031771,0.5188888888888888,0.33,-0.5988888888888889,-0.005521004699308059,0.002500704634607878,0.0003190430696149659
1590505462.0446885,0.02,-4.514356802747638,8.635643197252362,0.5188888888888888,0.33,-0.5988888888888889,-0.0052957360941359635,0.003272492347489368,0.00015841781834631606
1590505462.0546885,0.0053167377357765735,-4.51,8.654683262264223,0.5188888888888888,0.33,-0.5988888888888889,-0.00545415391248228,0.0008699491776968395,0.0008008477232641762
1590505462.0646884,0.0,-4.51,8.677860751851028,0.5248424728392316,0.3428994318924091,-0.611788320781298,-0.006428306808363874,0.0009741528958815948,-0.0018316279051483282
1590505462.0746884,0.0,-4.51,8.68,0.5255555555555556,0.34444444444444444,-0.6133333333333333,-0.006544984694978735,0.001841499359619539,-0.0006803244107467462
1590505462.0846884,0.008077532690529653,-4.52615506538106,8.631534803856821,0.5255555555555556,0.34444444444444444,-0.6133333333333333,-0.004782740433888503,0.0013005394344477955,-0.0008811221305451164
1590505462.0946884,0.04525547801473818,-4.521186130496315,8.655255478014737,0.5255555555555556,0.34444444444444444,-0.6133333333333333,-0.00532476714673841,-0.0008320572510087162,-0.001090830782496456
1590505462.1046884,0.05,-4.52,8.708594803055265,0.5255555555555556,0.34444444444444444,-0.6133333333333333,-0.004696886669024634,-0.0018480980259541011,-0.001090830782496456
1590505462.1146884,0.038722724970825906,-4.52,8.758193187572935,0.5136517652469829,0.33254065413587175,-0.605188634701152,-0.003748243192760738,-0.003411821439443084,-0.001705910719721542
1590505462.1246884,0.006741620258484817,-4.535505586494343,8.69471927428111,0.5044444444444445,0.3233333333333333,-0.5988888888888889,-0.00580958800479304,-0.0009805289202475934,0.0012011326447453185
1590505462.1346884,0.0,-4.522272398393254,8.61681719517976,0.5044444444444445,0.3233333333333333,-0.5988888888888889,-0.004611203341731482,0.0009668906766236269,-0.0016859011415015957
1590505462.1446884,0.008072762603908022,-4.511927237396092,8.626145525207816,0.5044444444444445,0.3233333333333333,-0.5988888888888889,-0.0052439249247987355,0.00021022898768354456,-0.002181661564992912
1590505462.1546884,0.016693765838824128,-4.5166937658388235,8.650081297516472,0.5044444444444445,0.3233333333333333,-0.5988888888888889,-0.0076446836608260495,0.0,-0.0014514849822116552
1590505462.1646883,0.03436738125262716,-4.512816309373686,8.68155107187894,0.5196100135444398,0.3145532670122834,-0.5988888888888889,-0.006375788999837419,-0.0007836190867114095,-0.0018744498692078654
1590505462.1746883,0.04648007802182173,-4.503519921978178,8.69,0.5255555555555556,0.3111111111111111,-0.5988888888888889,-0.004040420196645904,-0.002504564498332833,-0.0007679278491565355
1590505462.1846883,0.039811492540401845,-4.520377014919196,8.654340223891406,0.5255555555555556,0.3111111111111111,-0.5988888888888889,-0.0004940079563332594,-0.005495279860414254,0.0
1590505462.1946883,0.03,-4.51822339875005,8.649035468333267,0.5255555555555556,0.3111111111111111,-0.5988888888888889,0.003765300697099347,-0.009219454609581627,-0.0023754586981596525
1590505462.2046883,0.00994909631663235,-4.51,8.700101807366735,0.5255555555555556,0.3111111111111111,-0.5988888888888889,0.0021761088345169234,-0.006901191315176237,-0.002543420915666401
1590505462.2146883,0.015454545454545453,-4.533181818181818,8.766363636363636,0.5255555555555556,0.3257070707070707,-0.5988888888888889,-0.0005949986086344306,-0.0046112392169168365,-0.0004958321738620253
1590505462.2246883,0.02836456928117171,-4.523270861437656,8.746541722875314,0.5255555555555556,0.33,-0.5988888888888889,-0.002003263747919091,-0.002538457199140553,-0.0018248659308452708
1590505462.2346883,0.0372827843380982,-4.512717215661901,8.638041019266625,0.5255555555555556,0.33,-0.5988888888888889,-0.00377051863264903,-0.0005928044973367939,-0.001387233031164853
1590505462.2446883,0.034018053538078435,-4.504018053538078,8.629909732309608,0.5255555555555556,0.33,-0.5988888888888889,-0.005668381397967784,0.001957587401972941,-0.001090830782496456
1590505462.2546883,0.03,-4.5,8.65,0.5255555555555556,0.33,-0.5988888888888889,-0.006544984694978735,0.0014835784558922653,0.00010177847856827926
1590505462.2646883,0.03,-4.50720465477114,8.693227928626843,0.5151488319972416,0.33560362037755365,-0.6092956124472028,-0.008116796535302721,0.0007859059201619929,0.0003049248623344631
1590505462.2746882,0.013411820997758693,-4.51,8.685117731496637,0.5111111111111111,0.3377777777777778,-0.6133333333333333,-0.00782190144591134,0.0038050652246773807,0.0
1590505462.2846882,0.01,-4.518054645809953,8.623617479330324,0.5111111111111111,0.3377777777777778,-0.6133333333333333,-0.011150317714116545,0.0026060720116651472,0.0017572511183206769
1590505462.2946882,0.002541363778263391,-4.527458636221737,8.639834544886947,0.5111111111111111,0.3377777777777778,-0.6133333333333333,-0.01118552760884968,0.0013680505663815762,0.0005544395677702406
1590505462.3046882,0.01234655726440452,-4.5053068854711915,8.687039671793213,0.5111111111111111,0.3377777777777778,-0.6133333333333333,-0.008214706880591022,0.0017642310185898402,0.0006734002360933842
1590505462.3146882,0.02,-4.504869773153235,8.695130226846766,0.5168938006707023,0.32703849716710826,-0.6092028407907681,-0.008167025323407512,0.0005596209365641355,-0.0005312098459323204
1590505462.3246882,0.02776706790616934,-4.533301203718508,8.721068271624677,0.5188888888888888,0.3233333333333333,-0.6077777777777778,-0.006184879231434704,0.0,-0.0019380864586754374
1590505462.3346882,0.02394514926777849,-4.533945149267779,8.669451492677785,0.5188888888888888,0.3233333333333333,-0.6077777777777778,-0.00545415391248228,-0.001320963512425686,-0.0002002162963543829
1590505462.3446882,0.015031020601468152,-4.5150930618044045,8.644906938195597,0.5188888888888888,0.3233333333333333,-0.6077777777777778,-0.006538217049584133,-0.0027236931335438384,-0.0005352639231563242
1590505462.3546882,0.01943152042653056,-4.5,8.674147280639795,0.5188888888888888,0.3233333333333333,-0.6077777777777778,-0.007635815477475192,-0.0022436730667890034,-0.0016672519246427298
1590505462.3646882,0.017953099903629942,-4.5,8.683976549951815,0.5262508833922261,0.3233333333333333,-0.6111241389156583,-0.009606984896292189,0.00022328216338154245,-0.001090830782496456
1590505462.3746881,0.005109993714644877,-4.519560025141421,8.68978001257071,0.5311111111111111,0.3233333333333333,-0.6133333333333333,-0.015175643331097773,0.0016242477207631077,-0.0005574138442298043
1590505462.3846881,0.0,-4.531354798325574,8.66974179413951,0.5311111111111111,0.3233333333333333,-0.6133333333333333,-0.018691908874200844,0.001710138959625229,0.0009430452107353658
1590505462.3946881,0.0,-4.509634597944377,8.645548103083435,0.5311111111111111,0.3233333333333333,-0.6133333333333333,-0.016322602556420762,-0.0017358941263098738,0.002747006546754178
1590505462.4046881,0.03057526824604271,-4.5218394773186015,8.694943163709763,0.5311111111111111,0.3233333333333333,-0.6133333333333333,-0.0147951674722951,-0.0024574691993646917,0.002319565382178802
1590505462.414688,0.03398784370477569,-4.525991895803184,8.69798581765557,0.5237753014954172,0.3273346840328027,-0.6099988744171089,-0.014180800172453925,-0.003928316863090421,-0.0008733276490487548
1590505462.424688,0.002484637990916377,-4.51,8.67,0.5188888888888888,0.33,-0.6077777777777778,-0.013361001350342643,-0.006544984694978735,-0.002181661564992912
1590505462.434688,0.0,-4.4991862256306625,8.621338015337983,0.5188888888888888,0.33,-0.6077777777777778,-0.01721856867492298,-0.00595518479712652,-0.0015918616671406964
1590505462.444688,-0.016071388187403415,-4.4632143530209945,8.596071388187402,0.5188888888888888,0.33,-0.6077777777777778,-0.02890699517849179,-0.006622898242633584,0.000662285712730501
1590505462.454688,-0.09885798403966839,-4.399832842643527,8.684596149376308,0.5188888888888888,0.33,-0.6077777777777778,-0.045386466898773035,-0.012017372646457188,0.00531134525712291
1590505462.464688,-0.27219801171183444,-4.24101320985973,8.794310227427482,0.5136087278889948,0.33,-0.6160751736347542,-0.05161933671130138,-0.01601217180347889,0.02540879584215938
1590505462.474688,-0.3579766796463223,-4.005145752210486,8.80601166017684,0.5111111111111111,0.33,-0.62,-0.04287664535601456,-0.0171254073212031,0.06509652319139683
1590505462.484688,-0.09597040514338195,-3.1821275640371467,8.531679355036228,0.5111111111111111,0.33,-0.62,-0.05234765455545004,-0.015585043036289348,0.09722231117628428
1590505462.494688,-0.0008792442241137288,-2.8091469460293705,8.812650827799084,0.5111111111111111,0.33,-0.62,-0.11696081307847231,0.006451930941949386,0.1112647398146385
1590505462.504688,-0.08060650371017022,-2.936946966390223,9.106457660410301,0.5111111111111111,0.33,-0.62,-0.13718004142785267,0.018317839003277183,0.10642327950796872
1590505462.514688,-0.19704413855275477,-3.0882181616448805,9.229558614472452,0.5120242401827645,0.32921731793858283,-0.6185650828874018,-0.0776660473047865,0.018809332742017616,0.07828822290105801
1590505462.524688,-0.13042642686199143,-3.245658858510407,8.801637537167306,0.5188888888888888,0.3233333333333333,-0.6077777777777778,-0.026265534465364303,0.017348631621745977,0.06912611044194726
1590505462.534688,-0.04365582332620497,-3.31,8.812902409935845,0.5188888888888888,0.3233333333333333,-0.6077777777777778,-0.04158045428981318,0.005254299860170147,0.07803549327440411
1590505462.544688,-0.03100070760865517,-3.332498230978362,8.694506722282224,0.5188888888888888,0.3233333333333333,-0.6077777777777778,-0.020781522822577163,-0.006709111035200168,0.0879748465092316
1590505462.554688,0.028264148684643702,-3.2746095830963995,8.6753904169036,0.5188888888888888,0.3233333333333333,-0.6077777777777778,-0.006231509186238696,-0.002149047314500171,0.11437416090966417
1590505462.564688,0.09817988481951292,-3.1733404223284527,8.81211992321301,0.523704491369828,0.3233333333333333,-0.6042755214280038,-0.010941011808035979,-0.009784773059396682,0.16544653512567567
1590505462.574688,0.07267918858001503,-3.2509812171299775,8.825622839969947,0.5311111111111111,0.3233333333333333,-0.5988888888888889,-0.009632257089917991,-0.01468712267991171,0.22176811088627235
1590505462.584688,0.051388869804190995,-3.295833390587427,8.844166609412573,0.5311111111111111,0.3233333333333333,-0.5988888888888889,-0.012620305095473811,-0.018392621108910615,0.27466214137152983
1590505462.594688,0.03686149891098654,-3.336277002178027,8.797445995643946,0.5311111111111111,0.3233333333333333,-0.5988888888888889,-0.012341495967340467,-0.021346740884333474,0.3098430699201714
1590505462.604688,0.03,-3.36263233958978,8.765789220136739,0.5311111111111111,0.3233333333333333,-0.5988888888888889,-0.014467943877905506,-0.024629783168102472,0.3443586905181838
1590505462.614688,0.03,-3.38,8.749313399041023,0.5311111111111111,0.32847873379506304,-0.6020552891730303,-0.016751037513657117,-0.02555258031976314,0.3654891156369087
1590505462.624688,0.019028219251207144,-3.3909717807487927,8.675141096256036,0.5311111111111111,0.3377777777777778,-0.6077777777777778,-0.015658039093005505,-0.031353689389804165,0.3852068822605042
1590505462.634688,0.0045382851259009645,-3.421846859496396,8.613614855377703,0.5311111111111111,0.3377777777777778,-0.6077777777777778,-0.01298923883047673,-0.034411534928378736,0.3939913736001821
1590505462.644688,0.0,-3.4903710506068353,8.655967834007594,0.5311111111111111,0.3377777777777778,-0.6077777777777778,-0.012609652969112378,-0.03612761376318931,0.39841363149281894
1590505462.654688,-0.014495108804152525,-3.539663405869435,8.733821920543022,0.5311111111111111,0.3377777777777778,-0.6077777777777778,-0.014144083448571137,-0.03656118957557266,0.3998078401468925
1590505462.6646879,-0.03,-3.563594411515665,8.783594411515665,0.5255726471602847,0.32871483676733465,-0.6163372220654185,-0.01378871069982925,-0.033525882063847816,0.39726683938687474
1590505462.6746879,-0.03355127539379062,-3.5764487246062093,8.814205101575164,0.5188888888888888,0.31777777777777777,-0.6266666666666667,-0.013161290762461725,-0.028993725703233154,0.39255643895371567
1590505462.6846879,-0.03960298790805167,-3.57,8.84238207255169,0.5188888888888888,0.31777777777777777,-0.6266666666666667,-0.014751943341845722,-0.026266553382099052,0.3879893001600019
1590505462.6946878,-0.0433956624662251,-3.5298130126013247,8.7928347002702,0.5188888888888888,0.31777777777777777,-0.6266666666666667,0.004637458887716096,-0.0346936407652805,0.37181583179138494
1590505462.7046878,-0.055970501221969726,-3.4558230073318184,8.724471980448484,0.5188888888888888,0.31777777777777777,-0.6266666666666667,-0.0014151849168965325,-0.03946554960378669,0.3581998686142268
1590505462.7146878,-0.05865008081510731,-3.425766720543405,8.779632956196165,0.5265778496134287,0.31937964459539026,-0.6247444264855317,-0.021963868990005467,-0.032075852712626265,0.35139476530393515
1590505462.7246878,-0.08,-3.483014219907871,8.700073302623673,0.5455555555555556,0.3233333333333333,-0.62,-0.024327077600993965,-0.026027532700630036,0.3465633845236351
1590505462.7346878,-0.09550274575291436,-3.6016270593146857,8.691864703426571,0.5455555555555556,0.3233333333333333,-0.62,-0.02923306691018497,-0.029207143958932612,0.3348431706477334
1590505462.7446878,-0.1184975301323849,-3.62,8.61201975894092,0.5455555555555556,0.3233333333333333,-0.62,-0.01772465311175579,-0.028740427490396053,0.32369999339438854
1590505462.7546878,-0.10589673585738948,-3.6323097924278316,8.704619584855664,0.5455555555555556,0.3233333333333333,-0.62,-0.012642372706410124,-0.023020090137913223,0.30263439529223596
1590505462.7646878,-0.09566765476354612,-3.645667654763546,8.752997035709361,0.5455555555555556,0.32092647486863674,-0.617111769842364,-0.011999138607461015,-0.027562088909673998,0.2819457675115335
1590505462.7746878,-0.1009715170811462,-3.6674287927028657,8.780971517081145,0.5455555555555556,0.31777777777777777,-0.6133333333333333,-0.015589559176300997,-0.022695494284858495,0.25338428679062824
1590505462.7846878,-0.11,-3.7001420241465244,8.739289879267377,0.5455555555555556,0.31777777777777777,-0.6133333333333333,-0.014671992054891843,-0.017959976833469872,0.2250319163347326
1590505462.7946877,-0.11,-3.7221444657133205,8.726433397139962,0.5455555555555556,0.31777777777777777,-0.6133333333333333,-0.005609285010139415,-0.010414193374694002,0.19751670890596298
1590505462.8046877,-0.1149589100870282,-3.7276027247824297,8.787438365130543,0.5455555555555556,0.31777777777777777,-0.6133333333333333,0.0002883954452960254,-0.005977158232770634,0.17106168169048702
1590505462.8146877,-0.12771543337726732,-3.6922845666227326,8.830561099604594,0.5498708480651617,0.31625473336262266,-0.6214562368808273,-0.011435135344660174,-0.014180800172453925,0.13526739870093937
1590505462.8246877,-0.12,-3.7,8.85335642178174,0.5644444444444444,0.3111111111111111,-0.6488888888888888,-0.025121420573836116,-0.013570237161338821,0.1009260818132354
1590505462.8346877,-0.12801703089371835,-3.7,8.621940391871986,0.5644444444444444,0.3111111111111111,-0.6488888888888888,-0.0028491645106757625,-0.011782830233273863,0.06738733340591102
1590505462.8446877,-0.14,-3.6963878405472346,8.623345913433187,0.5644444444444444,0.3111111111111111,-0.6488888888888888,-0.011999138607461015,-0.011513867501012538,0.03844869746196222
1590505462.8546877,-0.14,-3.705821483605438,8.715821483605438,0.5644444444444444,0.3111111111111111,-0.6488888888888888,-0.008978890372685391,-0.007000790125814148,0.007553961145833713
1590505462.8646877,-0.13255387125280405,-3.727517957084268,8.754892257494392,0.5614108364363275,0.3111111111111111,-0.6491646714350813,-0.004634072011581595,-0.003009578722006967,-0.017947778746454618
1590505462.8746877,-0.11323992606284658,-3.7394395563770795,8.770840665434381,0.5522222222222222,0.3111111111111111,-0.65,-0.004040469479536041,0.0035647785401523744,-0.048458856984022976
1590505462.8846877,-0.12,-3.7762378142841238,8.698713442852373,0.5522222222222222,0.3111111111111111,-0.65,-0.0027323939778348674,0.008726646259971648,-0.07953284168098375
1590505462.8946877,-0.12,-3.766781740708593,8.68,0.5522222222222222,0.3111111111111111,-0.65,-0.005103096282370089,0.00907770389008384,-0.10277617750829939
1590505462.9046876,-0.12372608024691358,-3.7623564814814814,8.694904320987654,0.5522222222222222,0.3111111111111111,-0.65,-0.0017752092618543791,0.013624947820015146,-0.14377764147308864
1590505462.9146876,-0.12411330895909503,-3.81177338208181,8.725886691040905,0.5479707231371241,0.3147085334138864,-0.6535974223027753,-0.0014118999722197182,0.01572032335800031,-0.17165134711754995
1590505462.9246876,-0.11347575534531354,-3.8434757553453136,8.74,0.5377777777777778,0.3233333333333333,-0.6622222222222223,-0.0006650771957550695,0.014559946264763387,-0.20378635407540147
1590505462.9346876,-0.1218760676603584,-3.844371797018925,8.709982917434266,0.5377777777777778,0.3233333333333333,-0.6622222222222223,0.0025909560357859213,0.015476278190346889,-0.23330446166206842
1590505462.9446876,-0.10126876580736478,-3.799477689862403,8.64567139244031,0.5377777777777778,0.3233333333333333,-0.6622222222222223,-0.00011395039522006309,0.016362461737446838,-0.2697770544622848
1590505462.9546876,-0.0664892761131061,-3.792712466395871,8.73026608583034,0.5377777777777778,0.3233333333333333,-0.6622222222222223,-0.005837114480949227,0.0174242670584911,-0.2993342754649887
1590505462.9646876,-0.08167734017628027,-3.848386700881401,8.720064041057682,0.5377777777777778,0.32128325089565746,-0.6674406138817609,-0.0036314454111840066,0.020366831803738026,-0.3260103635152712
1590505462.9746876,-0.08521643609900106,-3.893189042600666,8.771594521300333,0.5377777777777778,0.3111111111111111,-0.6933333333333334,0.0,0.025041888965571725,-0.3579042720831537
1590505462.9846876,-0.0473756146948221,-3.8889593578247035,8.729502458779288,0.5377777777777778,0.3111111111111111,-0.6933333333333334,0.0009180712067322646,0.03192036871999916,-0.401475031490592
1590505462.9946876,-0.034316484363706455,-3.8858989061822387,8.651367031272587,0.5377777777777778,0.3111111111111111,-0.6933333333333334,0.0026525169666024744,0.037111742068657076,-0.43659891029674763
1590505463.0046875,-0.032970084651626,-3.930544873022561,8.657574788370935,0.5377777777777778,0.3111111111111111,-0.6933333333333334,0.0036559147505069007,0.04030130252581273,-0.46971103716559365
1590505463.0146875,-0.02,-3.95,8.718547375857298,0.5361918124523724,0.3140187142076878,-0.6880467822486485,0.004622826099524468,0.039476592235069184,-0.5013596087136347
1590505463.0246875,-0.016141253395514317,-3.9770112262314,8.786847520373087,0.5311111111111111,0.3233333333333333,-0.6711111111111111,0.0067169257858902785,0.04321230734205557,-0.5410107414201674
1590505463.0346875,-0.0070965114219939795,-4.014193022843988,8.729675579953957,0.5311111111111111,0.3233333333333333,-0.6711111111111111,0.005242710070704235,0.0422256790456102,-0.5715962186099739
1590505463.0446875,0.0013774551350554593,-4.002754910270111,8.675867634594834,0.5311111111111111,0.3233333333333333,-0.6711111111111111,-0.0024460785929348986,0.04175208382743059,-0.5976220773678804
1590505463.0546875,0.03162506971556051,-4.049300055772449,8.63162506971556,0.5311111111111111,0.3233333333333333,-0.6711111111111111,0.006951308514755546,0.04632213222062718,-0.6331618680628857
1590505463.0646875,0.06086586726157278,-4.072692693809258,8.660865867261572,0.5311111111111111,0.3233333333333333,-0.6711111111111111,0.0024857618252443637,0.04759800270334466,-0.6535757957863654
1590505463.0746875,0.052813623862915174,-4.139062125379028,8.751559128411253,0.5188888888888888,0.3233333333333333,-0.7066666666666667,0.0035794110994928135,0.05120127850151512,-0.6979283959702769
1590505463.0846875,0.0902419490456571,-4.147069915076095,8.63244618683259,0.5188888888888888,0.3233333333333333,-0.7066666666666667,0.0050553535894103385,0.061086523819801536,-0.7398735885460754
1590505463.0946875,0.12221970598395579,-4.173890147008022,8.584439411967912,0.5188888888888888,0.3233333333333333,-0.7066666666666667,0.0012930194689692379,0.06153084486781337,-0.7704685239917026
1590505463.1046875,0.17037797794427142,-4.149244044111458,8.678740073519094,0.5188888888888888,0.3233333333333333,-0.7066666666666667,-0.0019755065766349235,0.06339187837780924,-0.7977958683157347
1590505463.1146874,0.2043361506365679,-4.108789986091794,8.594453835455226,0.5159981217978435,0.32927546568714855,-0.7108422191315098,0.01307713196767496,0.07229732799527758,-0.8343920688348044
1590505463.1246874,0.23394084384515007,-4.2173727707699,8.68,0.4988888888888889,0.3644444444444445,-0.7355555555555555,0.005613579376996768,0.06763150851478028,-0.8687705641302886
1590505463.1346874,0.3037667247686151,-4.128374782117693,8.628374782117692,0.4988888888888889,0.3644444444444445,-0.7355555555555555,0.0013744848135818777,0.07025951276633859,-0.9196204015123464
1590505463.1446874,0.34315424647476733,-4.04644280809346,8.585905547517761,0.4988888888888889,0.3644444444444445,-0.7355555555555555,0.01531558548301487,0.07598477684101655,-0.9604434203146747
1590505463.1546874,0.36774631231717186,-4.098029501462626,8.702253687682827,0.4988888888888889,0.3644444444444445,-0.7355555555555555,0.0050390584121285525,0.07794066393696078,-1.003718775615304
1590505463.1646874,0.3659286247650436,-4.165928624765043,8.72067152457708,0.4995476249738937,0.3635222139254377,-0.7389809831975808,-0.007247787893980367,0.0800186747057361,-1.0470464409252116
1590505463.1746874,0.4121369582086243,-4.203589125374127,8.729480379115397,0.5044444444444445,0.3566666666666667,-0.7644444444444445,-0.00016741549920921625,0.08336935142870584,-1.0962579105049488
1590505463.1846874,0.42312816966343936,-4.214409866297833,8.498153526970954,0.5044444444444445,0.3566666666666667,-0.7644444444444445,0.010494405688498638,0.08713218329177431,-1.1428604938927502
1590505463.1946874,0.4473551709340581,-4.28710747151099,8.56,0.5044444444444445,0.3566666666666667,-0.7644444444444445,-0.0059949923186134665,0.09446951893325604,-1.1761949356569026
1590505463.2046874,0.4951134686995012,-4.28,8.5651134686995,0.5044444444444445,0.3566666666666667,-0.7644444444444445,-0.01496192483592641,0.10163319374092866,-1.2084419302789284
1590505463.2146873,0.5127947727113047,-4.28,8.582794772711305,0.5044444444444445,0.3566666666666667,-0.7644444444444445,0.004968296211185434,0.10227610409728712,-1.2341583445332664
1590505463.2246873,0.5382305689029088,-4.289115284451454,8.717613982320362,0.5348287259492923,0.3394489071472529,-0.7725469195124038,-0.0018248799163291217,0.10253809355466686,-1.2824222077377154
1590505463.2346873,0.6044318232240316,-4.308045436393487,8.620931801038292,0.5377777777777778,0.3377777777777778,-0.7733333333333333,-0.001090830782496456,0.10457348495838258,-1.3402814740757207
1590505463.2446873,0.6549734754711262,-4.2099469509422525,8.486690244025665,0.5377777777777778,0.3377777777777778,-0.7733333333333333,0.0023573584545295524,0.10944218770140869,-1.3757075268630503
1590505463.2546873,0.7185459505885919,-4.3370919011771845,8.430181377254584,0.5377777777777778,0.3377777777777778,-0.7733333333333333,0.01699724115202746,0.12022946968903872,-1.4042167721160725
1590505463.2646873,0.7246241128440163,-4.340770685474003,8.833063830733975,0.5393191487257832,0.3377777777777778,-0.7697368011213207,-0.029870711958968742,0.10388319345653092,-1.464571585836712
1590505463.2746873,0.7814407516965374,-4.3491995823908125,8.750320167043675,0.5577777777777778,0.3377777777777778,-0.7266666666666667,-0.021519754793164814,0.11990407405791477,-1.4994476040736764
1590505463.2846873,0.8845497125824995,-4.2854502874175004,8.699676389184585,0.5577777777777778,0.3377777777777778,-0.7266666666666667,-0.00618222598042488,0.11559531711955896,-1.5481559562406637
1590505463.2946873,0.9291984245262934,-4.240801575473707,8.483874281456249,0.5577777777777778,0.3377777777777778,-0.7266666666666667,-0.015111327368061266,0.11884226307869945,-1.5757549968933584
1590505463.3046873,1.0039253963889652,-4.339828307823908,8.517850792777931,0.5577777777777778,0.3377777777777778,-0.7266666666666667,-0.005394735243701808,0.11554991556476442,-1.6314326950466183
1590505463.3146873,1.0423664192099715,-4.256539425045061,8.594732838419942,0.5577777777777778,0.3377777777777778,-0.7266666666666667,-0.017275653028112504,0.11834542563168457,-1.65729116316563
1590505463.3246872,1.1103177897698446,-4.347618652276187,8.621588948849222,0.5022222222222222,0.38333333333333336,-0.72,0.0005366358159728433,0.12380051423807237,-1.7133318509176136
1590505463.3346872,1.169129636948789,-4.329757213031449,8.777489695669358,0.5022222222222222,0.38333333333333336,-0.72,-0.009079929833366692,0.11511137955947597,-1.7573438806329462
1590505463.3446872,1.2664661559713677,-4.425296580015907,8.652347523965004,0.5022222222222222,0.38333333333333336,-0.72,0.01174215021766278,0.13455766883176143,-1.797558808860399
1590505463.3546872,1.3397886474329377,-4.388776419070883,8.715317028850594,0.5022222222222222,0.38333333333333336,-0.72,0.0168963496343895,0.12922886524291333,-1.8305887770230802
1590505463.3646872,1.3897661567792192,-4.382529230402597,8.64035076483117,0.5022222222222222,0.38333333333333336,-0.72,0.01962219991576092,0.13740641608702758,-1.853758504414737
1590505463.3746872,1.471375433091456,-4.408108779499249,8.659484212590705,0.51,0.43,-0.7566666666666667,0.024995335200204465,0.14077343462037123,-1.9030465396948744
1590505463.3846872,1.5609925204576591,-4.295602991816936,8.61680897545081,0.51,0.43,-0.7566666666666667,0.020834052054179868,0.145908220040322,-1.9498093738141944
1590505463.3946872,1.5998185655570778,-4.280072573777169,8.570217721331506,0.51,0.43,-0.7566666666666667,0.02506931656988402,0.1526846432654487,-1.98623264864925
1590505463.4046872,1.6387875127752485,-4.2256974821146525,8.57775750255505,0.51,0.43,-0.7566666666666667,0.03101259380505868,0.15356252180773816,-2.015174071706013
1590505463.4146872,1.724297302778341,-4.257625228148449,8.663812614074224,0.508623222695419,0.4254460443002321,-0.7538072061109985,0.031530119772548645,0.1594692400841797,-2.0694135068192803
1590505463.4246871,1.8402879740417766,-4.319486919488948,8.694743459744473,0.49745375064782893,0.3885008675274342,-0.7306090718583114,0.030686611807904763,0.1611562560134675,-2.105684349298967
1590505463.4346871,1.9155479043539554,-4.286130239115112,8.608904191292089,0.4955555555555556,0.38222222222222224,-0.7266666666666667,0.03723954222607052,0.16610887018184334,-2.155625410284582
1590505463.4446871,1.9458705199804804,-4.210323700048799,8.548258960039039,0.4955555555555556,0.38222222222222224,-0.7266666666666667,0.03806646328935106,0.1677627123084044,-2.1862214896259626
1590505463.454687,2.0873804590533283,-4.207827442618334,8.633035344289995,0.4955555555555556,0.38222222222222224,-0.7266666666666667,0.035286448081784674,0.1724453790862742,-2.2342062722218485
1590505463.464687,2.153965212842477,-4.195043483946904,8.677026090368143,0.4874048402682418,0.38464540784818035,-0.7181855169758132,0.0331574610976661,0.17682272117011896,-2.265951478285522
1590505463.474687,2.214480803039755,-4.1304153575681966,8.65,0.4133333333333333,0.4066666666666667,-0.6411111111111111,0.039758687958479255,0.18029782947694875,-2.3099523712522982
1590505463.484687,2.2858407531333294,-4.073327397493337,8.65,0.4133333333333333,0.4066666666666667,-0.6411111111111111,0.04754285097842745,0.18756304829556705,-2.3436837443387404
1590505463.494687,2.3538553253694525,-4.016144674630548,8.675401429843996,0.4133333333333333,0.4066666666666667,-0.6411111111111111,0.04740518217652518,0.19005428541897212,-2.378352748831004
1590505463.504687,2.4147176972955875,-3.9732705993990196,8.732199905108335,0.4133333333333333,0.4066666666666667,-0.6411111111111111,0.02994652243866002,0.18141414731258115,-2.4142626405548384
1590505463.514687,2.4893434682903686,-3.9898541040645266,8.591240115451527,0.4133333333333333,0.4066666666666667,-0.6411111111111111,0.04351387046676639,0.18865006626090455,-2.4432063163481317
1590505463.524687,2.5062850092052176,-3.92485996317913,8.744707587449566,0.35271691018057894,0.46004530795043547,-0.5994938653644439,0.04452144076657271,0.1913783537720303,-2.4701072367934955
1590505463.534687,2.604010036613155,-3.833995698594362,8.72398136057557,0.3388888888888889,0.4722222222222222,-0.59,0.0458133288296252,0.19547781464450045,-2.50585897600722
1590505463.544687,2.6404725415070245,-3.756299489144317,8.624881864623244,0.3388888888888889,0.4722222222222222,-0.59,0.04108221276014071,0.20044659956899713,-2.524611866953127
1590505463.554687,2.6026973070588,-3.5777783731221846,8.646983786787324,0.3388888888888889,0.4722222222222222,-0.59,0.05345070834232633,0.20019339291730176,-2.544024939415352
1590505463.564687,2.7111333462858624,-3.5198866653714136,8.68,0.3378814699681224,0.4726629680000576,-0.5902014837841533,0.05338889389153399,0.20288216265418232,-2.5659183469053084
1590505463.574687,2.8433258698234067,-3.529995521894044,8.695552072584256,0.25,0.5111111111111111,-0.6077777777777778,0.04678479160794933,0.20228839989060224,-2.595085454587904
1590505463.584687,2.9605190509675237,-3.5942904393572417,8.742214235487147,0.25,0.5111111111111111,-0.6077777777777778,0.0425990201946677,0.20398535632683729,-2.6113772167055256
1590505463.594687,2.9781060796119756,-3.4761038635223285,8.615054147850811,0.25,0.5111111111111111,-0.6077777777777778,0.044264828526008916,0.2047432729982181,-2.6326457249487887
1590505463.604687,3.0394877906004347,-3.3708780732563977,8.729048753972236,0.25,0.5111111111111111,-0.6077777777777778,0.04904747565661697,0.21048244955494777,-2.6527328428973416
1590505463.614687,3.1159290783378593,-3.322544326038838,8.69203546083107,0.25,0.5111111111111111,-0.6077777777777778,0.04494609641546443,0.20845969662337796,-2.66428900722279
1590505463.624687,3.23,-3.31,8.75,0.16444444444444445,0.5466666666666666,-0.5911111111111111,0.0545415391248228,0.21162117180431245,-2.676898740246303
1590505463.634687,3.350748138843785,-3.22640513464661,8.675693453019209,0.16444444444444445,0.5466666666666666,-0.5911111111111111,0.043396357166518726,0.20959477508462082,-2.678925136965995
1590505463.644687,3.415669417905326,-3.176082645523669,8.635669417905325,0.16444444444444445,0.5466666666666666,-0.5911111111111111,0.05449285768099053,0.2111000971349804,-2.6950642279077015
1590505463.654687,3.5065715472556844,-3.153357113186079,8.726571547255684,0.16444444444444445,0.5466666666666666,-0.5911111111111111,0.04788226828833416,0.21440539183130858,-2.699195846278112
1590505463.664687,3.529974607958033,-3.0602285283776998,8.700101568167867,0.16444444444444445,0.5466666666666666,-0.5911111111111111,0.052346028349326064,0.2192459079133846,-2.710686796082686
1590505463.674687,3.5693234990134357,-2.9027060039462556,8.80813962228695,0.08142816874941276,0.5543129025859459,-0.5911111111111111,0.049142731319880506,0.2160398410418383,-2.7117868765836763
1590505463.684687,3.6249132839598763,-2.7881358395050153,8.721358395050155,0.08,0.5544444444444444,-0.5911111111111111,0.04880994789042124,0.21844359382121048,-2.711324539599126
1590505463.694687,3.695682841027455,-2.753006505119588,8.654207102568638,0.08,0.5544444444444444,-0.5911111111111111,0.05204992666359079,0.21582351684051912,-2.713057134162465
1590505463.7046869,3.7286549535208224,-2.596388970776094,8.736637383802057,0.08,0.5544444444444444,-0.5911111111111111,0.05025157690000574,0.2212185661312742,-2.70766208487171
1590505463.7146869,3.827973894408728,-2.5704052211182544,8.87716345217222,0.08,0.5544444444444444,-0.5911111111111111,0.05017821599483697,0.2267822958418854,-2.699960896363057
1590505463.7246869,3.6831400639815604,-2.352628012796312,8.664676217537306,0.01888888888888889,0.5777777777777777,-0.5988888888888889,0.04994740038884407,0.2248544770570205,-2.6893595100657497
1590505463.7346869,3.7664810141673457,-2.3692962028334694,8.948035448168977,0.01888888888888889,0.5777777777777777,-0.5988888888888889,0.055402052823153546,0.22576358579607206,-2.678450205197131
1590505463.7446868,3.95,-2.246762727181444,8.733237272818556,0.01888888888888889,0.5777777777777777,-0.5988888888888889,0.044812345003400186,0.21807787357824568,-2.658518477055382
1590505463.7546868,3.95,-2.179377648358269,8.800622351641731,0.01888888888888889,0.5777777777777777,-0.5988888888888889,0.04664998795993193,0.216240230621714,-2.6392232260117985
1590505463.7646868,3.9835676168163476,-2.1230053364571133,8.769718859820383,0.01888888888888889,0.5777777777777777,-0.5988888888888889,0.04763805544171396,0.22404014467232822,-2.624820692584072
1590505463.7746868,4.019135782999527,-2.0234568680018925,8.826543131998108,-0.06296973838686504,0.5724622825001314,-0.6127091766107694,0.0438217742012328,0.21545929285592555,-2.597167112573781
1590505463.7846868,4.02,-1.8747811687218159,8.814713807233876,-0.06666666666666668,0.5722222222222222,-0.6133333333333333,0.04613442874232775,0.21739486159427135,-2.5770014152826324
1590505463.7946868,3.9690798972225623,-1.7349394347240914,8.742760308332313,-0.06666666666666668,0.5722222222222222,-0.6133333333333333,0.04363323129985824,0.21251126730027095,-2.5357668854377216
1590505463.8046868,3.9544173323311953,-1.6542953278215726,8.786748003006416,-0.06666666666666668,0.5722222222222222,-0.6133333333333333,0.04363323129985824,0.20931239187349995,-2.5117753197369397
1590505463.8146868,3.9675933485412416,-1.4892532116700683,8.852780045623724,-0.06666666666666668,0.5722222222222222,-0.6133333333333333,0.04363323129985824,0.2054699745334268,-2.4805582689168943
1590505463.8246868,4.021961347890436,-1.4034229210012654,8.930499774779605,-0.15222222222222226,0.5666666666666667,-0.6077777777777778,0.04666657430632326,0.2003939981913154,-2.446204747506268
1590505463.8346868,3.922998863173248,-1.3224536153235666,8.81354411102293,-0.15222222222222226,0.5666666666666667,-0.6077777777777778,0.04372244727063662,0.19646849547706657,-2.4128379744351522
1590505463.8446867,3.9299945937976117,-1.2500378434167199,8.859972968988057,-0.15222222222222226,0.5666666666666667,-0.6077777777777778,0.0370917849560686,0.1996202640212569,-2.3627660125212424
1590505463.8546867,3.949637888227854,-1.0928968941771677,8.918913664683561,-0.15222222222222226,0.5666666666666667,-0.6077777777777778,0.041372569201313096,0.18569798475844226,-2.3081143617827955
1590505463.8646867,3.995277582262889,-1.0447224177371108,8.88377793418969,-0.15222222222222226,0.5666666666666667,-0.6077777777777778,0.03256133724677779,0.18642903663418503,-2.264631549759142
1590505463.8746867,3.95,-0.97,8.91,-0.19,0.5344444444444445,-0.6222222222222222,0.03817907738737596,0.18216874067690814,-2.1642082724729685
1590505463.8846867,3.950972832878234,-0.9627037534132457,8.910486416439117,-0.19,0.5344444444444445,-0.6222222222222222,0.03817907738737596,0.18222180047939823,-2.161926700965894
1590505463.8946867,3.9691433696190006,-0.8179440870856012,8.917944087085601,-0.19,0.5344444444444445,-0.6222222222222222,0.03817907738737596,0.18292317349543089,-2.1164241763641334
1590505463.9046867,3.92590672934191,-0.7141761504205838,8.814176150420584,-0.19,0.5344444444444445,-0.6222222222222222,0.03817907738737596,0.16594418456287935,-2.072090149706916
1590505463.9146867,3.884333295031107,-0.6821666475155534,8.85350005745334,-0.19,0.5344444444444445,-0.6222222222222222,0.03169468743899464,0.1636246173744684,-2.0063771145231795
1590505463.9246867,3.7959007520039667,-0.5489236426741592,8.754679365341707,-0.2430203656263486,0.5273223057782186,-0.6222222222222222,0.04358577056049914,0.15740937889900639,-1.936931592109602
1590505463.9346867,3.8677627278981768,-0.5,9.04592965256278,-0.2644444444444444,0.5244444444444445,-0.6222222222222222,0.03213100795339513,0.15653862639099145,-1.8834796215556293
1590505463.9446867,3.701189522588914,-0.41896908042294134,8.741823934636335,-0.2644444444444444,0.5244444444444445,-0.6222222222222222,0.035936862655748136,0.14727080608939797,-1.816882910567899
1590505463.9546866,3.8019817366228774,-0.331615828260173,8.896371996155079,-0.2644444444444444,0.5244444444444445,-0.6222222222222222,0.030805991002884607,0.14800378775409276,-1.7795008456684642
1590505463.9646866,3.7222594248736685,-0.29,8.938064856218418,-0.2644444444444444,0.5244444444444445,-0.6222222222222222,0.03097428818593792,0.1431276107374579,-1.7233722920633356
1590505463.9746866,3.4376422325796385,-0.29,9.007109317822888,-0.2955997243728841,0.5150978604659125,-0.6315688062007541,0.027810764624283175,0.14486666417903052,-1.6777558754616606
1590505463.9846866,3.787007258094844,-0.18071565567297204,9.0698048211801,-0.3088888888888889,0.5111111111111111,-0.6355555555555555,0.03810101146360135,0.12883158276916304,-1.6223279589521993
1590505463.9946866,3.808923143135434,-0.10430742745826443,9.041615285296848,-0.3088888888888889,0.5111111111111111,-0.6355555555555555,0.021665519760401722,0.13181432438963947,-1.5735567980429932
1590505464.0046866,3.7504901105588804,0.009877472360279948,8.853185718632721,-0.3088888888888889,0.5111111111111111,-0.6355555555555555,0.028334868960685197,0.12436807489670727,-1.5255643684123112
1590505464.0146866,3.7845243939547624,0.001368901511309464,9.074408560705953,-0.3088888888888889,0.5111111111111111,-0.6355555555555555,0.026478586761263398,0.12529621599641821,-1.4902950066232972
1590505464.0246866,3.7736170408708305,0.09933969388318936,8.891540714272558,-0.3422222222222222,0.4866666666666667,-0.6355555555555555,0.022883437024489316,0.117785715101681,-1.4421607301094883
1590505464.0346866,3.54958318751957,0.07616377801926584,8.94561785128838,-0.3422222222222222,0.4866666666666667,-0.6355555555555555,0.022040736943258792,0.11694301502045044,-1.4067673266978065
1590505464.0446866,3.411867783276234,0.11883263545235376,8.901400837457176,-0.3422222222222222,0.4866666666666667,-0.6355555555555555,0.027143429844114643,0.10819599101642398,-1.357935807340987
1590505464.0546865,3.4278462537895193,0.16461563447379818,8.91784625378952,-0.3422222222222222,0.4866666666666667,-0.6355555555555555,0.02435068311453365,0.10993897176573429,-1.3180590074538878
1590505464.0646865,3.443954366165286,0.21884028157850038,8.975817464661143,-0.3422222222222222,0.4866666666666667,-0.6355555555555555,0.014104073308763508,0.10332407555864767,-1.2737834465010989
1590505464.0746865,3.5130634136849017,0.2904507309479215,9.100901461895843,-0.3583384279416971,0.4943744172281547,-0.6299499187835643,0.016696628332148022,0.09966851686070595,-1.2270567108902937
1590505464.0846865,3.510704176227627,0.35438384580082605,9.007728682882055,-0.36777777777777776,0.4988888888888889,-0.6266666666666667,0.021261598544863414,0.09337165075543923,-1.1834764675944627
1590505464.0946865,3.495906905594406,0.3848186188811189,8.979534527972028,-0.36777777777777776,0.4988888888888889,-0.6266666666666667,0.019555811641800536,0.09065766861190935,-1.1257597753365074
1590505464.1046865,3.4780702042604457,0.4062061223372214,9.068552653195333,-0.36777777777777776,0.4988888888888889,-0.6266666666666667,0.015166376925118569,0.08752242940892722,-1.0682175933574196
1590505464.1146865,3.419003273917788,0.44049836304110584,9.04,-0.36777777777777776,0.4988888888888889,-0.6266666666666667,0.013662566268510538,0.080094518051575,-1.0102505689636967
1590505464.1246865,3.366340778713536,0.475244415964848,8.981096362748689,-0.42294150155281607,0.5605974612474063,-0.6341464936192143,0.011427061570393806,0.07211442626827122,-0.9340162351444349
1590505464.1346865,3.233419523732978,0.4209291110753898,8.995316095253404,-0.43333333333333335,0.5722222222222222,-0.6355555555555555,0.003544154226290986,0.06906296246260124,-0.8762369859657823
1590505464.1446865,3.3306391706571925,0.5246072121243327,9.024127834131438,-0.43333333333333335,0.5722222222222222,-0.6355555555555555,0.010735461425293974,0.0667483854833611,-0.8422070571084178
1590505464.1546865,3.353138498716206,0.571569249358103,8.85520012082767,-0.43333333333333335,0.5722222222222222,-0.6355555555555555,0.01713779018668839,0.053819920211164066,-0.7916444505831889
1590505464.1646864,3.240419545016576,0.565598778436464,8.964759688403312,-0.43333333333333335,0.5722222222222222,-0.6355555555555555,0.011345972657070987,0.06191275692437235,-0.7417291607290265
1590505464.1746864,3.237652391500533,0.6376523915005333,8.950094347362375,-0.47570149770740466,0.6685756282987393,-0.6041211110199542,0.009228523282552673,0.05455183082553548,-0.6738211375859666
1590505464.1846864,3.1826800947322433,0.605138534409418,9.074584396771746,-0.5022222222222222,0.7288888888888889,-0.5844444444444444,0.00029235298339377706,0.05179935040875884,-0.6008642128428777
1590505464.1946864,3.15,0.5388595839524517,9.108859583952452,-0.5022222222222222,0.7288888888888889,-0.5844444444444444,0.009293132676736152,0.049156271257297574,-0.5425007011224862
1590505464.2046864,3.0144117395762136,0.5977941302118934,8.858954203691045,-0.5022222222222222,0.7288888888888889,-0.5844444444444444,0.011999138607461015,0.04142305006471462,-0.48904509817614317
1590505464.2146864,3.108975698980925,0.6398536712829893,8.932211479836251,-0.5022222222222222,0.7288888888888889,-0.5844444444444444,0.008389639310619245,0.03349470929492559,-0.4304754989644888
1590505464.2246864,3.174330821903106,0.6670075342906819,9.055353424775152,-0.572142085417248,0.8926651450213817,-0.5472798324759172,0.005926573297024072,0.02745120492012745,-0.3721028515723041
1590505464.2346864,3.188453256469491,0.6892266282347456,9.07154674353051,-0.6255555555555555,1.0177777777777777,-0.5188888888888888,0.00394445039791557,0.022069700968285064,-0.31551492598725706
1590505464.2446864,3.1428607409814755,0.6395746668833279,9.10371140721482,-0.6255555555555555,1.0177777777777777,-0.5188888888888888,-0.002944968366605743,0.017811747597925656,-0.2404213024312964
1590505464.2546864,3.12074849586462,0.6529939834584795,8.99026955375994,-0.6255555555555555,1.0177777777777777,-0.5188888888888888,0.006856875749914106,0.00514226285754691,-0.19396704021629185
1590505464.2646863,3.1127282231140185,0.6986358884429905,8.913179442214952,-0.6255555555555555,1.0177777777777777,-0.5188888888888888,0.009917058161687673,0.0006690365036004136,-0.14252853936109403
1590505464.2746863,3.025155528279337,0.5884166155237572,9.180744533092154,-0.8281945296826267,1.1924976043584525,-0.4252246519590426,-0.0026525379685357476,0.011379184228507394,-0.05874243033170681
1590505464.2846863,3.151980530240265,0.6571445733222866,9.110437448218724,-0.8755555555555555,1.2333333333333334,-0.4033333333333333,0.004063773947833006,-0.004303675382144264,-0.007239519455830873
1590505464.2946863,3.1699236486828135,0.69,8.954707319950785,-0.8755555555555555,1.2333333333333334,-0.4033333333333333,0.002170556716050068,-0.0048962455661733535,0.03716598054747941
1590505464.3046863,3.164971698876041,0.6850056602247918,8.984835853481039,-0.8755555555555555,1.2333333333333334,-0.4033333333333333,-0.005995247260523398,-0.0027239897825217757,0.0975953961225198
1590505464.3146863,3.248432163187856,0.6975296489563567,9.083254269449716,-0.8755555555555555,1.2333333333333334,-0.4033333333333333,-0.0040809128360828634,-0.010553322095935826,0.15949700269867
1590505464.3246863,3.2830049837776363,0.7030049837776365,9.09197009733418,-0.7947242569860224,1.0118244862918242,-0.554892018151208,-0.003052151607766449,-0.016469913878278765,0.22108367367593035
1590505464.3346863,3.256804954431894,0.688402477215947,9.005622294943523,-0.76,0.9166666666666666,-0.62,-0.007526056843373056,-0.019350932747975634,0.27069354120345457
1590505464.3446863,3.260573250825709,0.6525689988990547,9.046581754679018,-0.76,0.9166666666666666,-0.62,-0.011313606062248368,-0.019229655847652398,0.3296833432388793
1590505464.3546863,3.1558573301387822,0.5943429320555128,8.932590750870215,-0.76,0.9166666666666666,-0.62,0.0012819640998399887,-0.03597557060577232,0.3831464594156606
1590505464.3646863,3.0782846015009024,0.5382846015009024,8.94555276907001,-0.76,0.9166666666666666,-0.62,-0.004946861124528481,-0.03560099877654678,0.4280339786941888
1590505464.3746862,3.131476227069417,0.5262952454138835,9.120361963311067,-0.6667549845761113,0.7994314288278939,-0.6426322852970604,-0.011999138607461015,-0.03252286045768714,0.4696216201247694
1590505464.3846862,3.2608981541004685,0.5354691278660422,9.219182049162765,-0.5311111111111111,0.6288888888888889,-0.6755555555555556,-0.008432726017906756,-0.04055231137099262,0.5140620955696371
1590505464.3946862,3.2991287433276035,0.5227524955517356,8.977108778913719,-0.5311111111111111,0.6288888888888889,-0.6755555555555556,-0.015396935531401092,-0.04123122579864405,0.5745330627615702
1590505464.4046862,3.31,0.5165266522600397,8.970420043219882,-0.5311111111111111,0.6288888888888889,-0.6755555555555556,-0.019233160817918614,-0.042255156268900515,0.6202456855658285
1590505464.4146862,3.351103527951905,0.5217438651291157,9.007615797693674,-0.5311111111111111,0.6288888888888889,-0.6755555555555556,-0.015531707081694365,-0.049658063741349005,0.658753295327677
1590505464.4246862,3.3944835965978126,0.5010328068043742,9.056208991494533,-0.4643256379100851,0.5323315782368031,-0.6803834210881599,-0.013390842521946165,-0.05472975051135317,0.7079133911681131
1590505464.4346862,3.3866587914948143,0.4766587914948144,9.043317582989628,-0.4388888888888889,0.4955555555555556,-0.6822222222222222,-0.016000569572589468,-0.052721769724687256,0.7483266682283228
1590505464.4446862,3.412178034430159,0.4654031379385487,9.007015689692743,-0.4388888888888889,0.4955555555555556,-0.6822222222222222,-0.017453292519943295,-0.05628344541685462,0.7845540709789159
1590505464.4546862,3.4353532804614275,0.44047104061523673,8.945824321076664,-0.4388888888888889,0.4955555555555556,-0.6822222222222222,-0.016388153017592152,-0.06537277310935141,0.8323226311930652
1590505464.4646862,3.34973035918646,0.3672977693898448,8.945134820406771,-0.4388888888888889,0.4955555555555556,-0.6822222222222222,-0.016549169076190036,-0.06744480117603707,0.8820396340232539
1590505464.4746861,3.306321818613485,0.3173563627730294,9.045861823361824,-0.43326949456579084,0.4470882795188351,-0.69556828373958,-0.020211706257922818,-0.06516147086329405,0.9306791740253524
1590505464.4846861,3.349378321200713,0.3050777098499109,9.080155419699821,-0.43,0.4188888888888889,-0.7033333333333334,-0.019131922841880963,-0.07187615602982574,0.9715572467002439
1590505464.4946861,3.3463105157109405,0.27503458040625167,9.013827805914067,-0.43,0.4188888888888889,-0.7033333333333334,-0.01670287483983185,-0.07963064712224129,1.0098854416170495
1590505464.504686,3.260581592081888,0.19530961847559428,8.9499623551307,-0.43,0.4188888888888889,-0.7033333333333334,-0.01937708024840069,-0.08270870748777312,1.056812383420661
1590505464.514686,3.2967905805687203,0.15671623222748815,9.016344490521327,-0.43,0.4188888888888889,-0.7033333333333334,-0.02070956457558393,-0.08872360702501987,1.1007536914359408
1590505464.524686,3.299803314917127,0.1570585635359116,8.955882872928177,-0.40747231430325354,0.4160130141190915,-0.7066885205647637,-0.02012697300804676,-0.0889775602558844,1.1511263635986064
1590505464.534686,3.283779003255991,0.09244199348801738,8.994755800651198,-0.37777777777777777,0.4122222222222222,-0.7111111111111111,-0.02457033062284411,-0.09250751237880793,1.2077741075136073
1590505464.544686,3.364008528252955,0.04600094758366166,8.933989576579721,-0.37777777777777777,0.4122222222222222,-0.7111111111111111,-0.02203447171040027,-0.10362995799059047,1.268859224370985
1590505464.554686,3.4065937030721067,0.03021889078367991,8.896593703072107,-0.37777777777777777,0.4122222222222222,-0.7111111111111111,-0.022883569151941292,-0.10655372461081006,1.3310791477446444
1590505464.564686,3.327343572131432,-0.07367728491771015,9.054291998687994,-0.37777777777777777,0.4122222222222222,-0.7111111111111111,-0.028205938756466178,-0.10520949139622135,1.3850892736160887
1590505464.574686,3.2769281440744544,-0.11614371185109082,9.005075844563969,-0.3627305386004848,0.4354200492872155,-0.7186347306997576,-0.027325419874775547,-0.10410423043142811,1.4404646928973026
1590505464.584686,3.406895306859206,-0.13675812274368232,9.016119133574007,-0.3511111111111111,0.4533333333333333,-0.7244444444444444,-0.025273407205435937,-0.12403100418538585,1.4946823290905953
1590505464.594686,3.3921575183908637,-0.1930217603786203,8.907048716497762,-0.3511111111111111,0.4533333333333333,-0.7244444444444444,-0.029946865513153387,-0.1266069080551282,1.5449697478296522
1590505464.604686,3.3828157329448656,-0.26653415965037897,8.863068319300758,-0.3511111111111111,0.4533333333333333,-0.7244444444444444,-0.02724321666518679,-0.11575408445597717,1.593435920282162
1590505464.614686,3.4096756725617836,-0.32064865487643296,8.89902701768535,-0.3511111111111111,0.4533333333333333,-0.7244444444444444,-0.022308963088195133,-0.1274886404670341,1.635405946865672
1590505464.624686,3.423837751289806,-0.3697971891122576,8.95343212951432,-0.3398543952242582,0.46922516752653737,-0.7330525212990967,-0.028526670735157182,-0.1357258972256841,1.689707089825697
1590505464.634686,3.4422053077357426,-0.40212919254658386,8.997870807453417,-0.3322222222222222,0.48,-0.7388888888888889,-0.03381575425739013,-0.1332016363427189,1.7166772726183093
1590505464.644686,3.434359965967979,-0.5069030860855441,8.881263052053523,-0.3322222222222222,0.48,-0.7388888888888889,-0.03381575425739013,-0.13524791464654046,1.7718790726019547
1590505464.654686,3.2608514633250336,-0.6156385974937753,8.900160822890731,-0.3322222222222222,0.48,-0.7388888888888889,-0.03920901951747583,-0.13844262913653854,1.8333965506467003
1590505464.664686,3.338299028641034,-0.6827663428803448,9.036392229128277,-0.3322222222222222,0.48,-0.7388888888888889,-0.03773864981685618,-0.1422249888859527,1.8757640898737777
1590505464.674686,3.278257001314326,-0.7134859973713478,8.795228996057022,-0.29501753558229143,0.48918037722284,-0.7142468237117918,-0.027224692411372372,-0.15518025707859318,1.91844298329613
1590505464.684686,3.3026252093945505,-0.8369775392294281,9.004386858568939,-0.2466666666666667,0.5011111111111111,-0.6822222222222222,-0.04282876643916925,-0.14479789465082055,1.9658259027704164
1590505464.694686,3.36,-0.9195071162649852,8.964118349097776,-0.2466666666666667,0.5011111111111111,-0.6822222222222222,-0.04130939390637664,-0.15577374079685477,2.004659031856698
1590505464.704686,3.328145881152767,-0.9527529420337377,8.783651765220243,-0.2466666666666667,0.5011111111111111,-0.6822222222222222,-0.03421410004865919,-0.16134490940948934,2.042752350589892
1590505464.714686,3.245418069179143,-1.0190091894682498,8.861300154878679,-0.2466666666666667,0.5011111111111111,-0.6822222222222222,-0.037213199384446,-0.16374957015403488,2.093263679415138
1590505464.724686,3.171773607183917,-1.081855327346736,8.929113196408041,-0.20844027385058367,0.5018190072743719,-0.6553221680183119,-0.0402640036867552,-0.16680037445634407,2.139744147503809
1590505464.734686,3.161423179270387,-1.1228463585407742,8.911442051824032,-0.18666666666666668,0.5022222222222222,-0.64,-0.03771334306023124,-0.16985705384177124,2.179935344373833
1590505464.744686,3.1114217865034415,-1.2034597312879385,8.841184822086202,-0.18666666666666668,0.5022222222222222,-0.64,-0.03650405800152898,-0.17019545087751534,2.2220119699630625
1590505464.7546859,3.09851250939248,-1.2881921910221803,8.8506406367406,-0.18666666666666668,0.5022222222222222,-0.64,-0.04016353758418094,-0.17304769168056064,2.2704955902541313
1590505464.7646859,5.721101282051282,-2.351784188034188,8.258929487179488,-0.18666666666666668,0.5022222222222222,-0.64,-0.03078825597731146,-0.3529857088607369,2.1999949808108696
1590505464.7746859,22.793355342620178,-9.708623077542477,3.4594637249375957,-0.18750230381762711,0.5027653863703465,-0.6402506911452881,0.05936793173587161,-1.5597523129099469,1.246108115729449
1590505464.7846859,-1.6689740562800282,-5.750575703500343,0.08112944406314337,-0.2088888888888889,0.5166666666666667,-0.6466666666666666,0.1483745185357188,-0.42963115307969924,-8.631325468231164
1590505464.7946858,3.3353605549954395,-2.0020483460559797,3.1054997839550627,-0.2088888888888889,0.5166666666666667,-0.6466666666666666,-0.21630387807929102,-0.5704137407000579,-7.1275610758323165
1590505464.8046858,0.02434499201055118,-0.25696324853526775,0.4885071144139803,-0.2088888888888889,0.5166666666666667,-0.6466666666666666,-0.06953887844262932,0.2184751703479153,-2.882410130850923
1590505464.8146858,-0.12266824364281492,0.16772324068598463,6.058520402128917,-0.2088888888888889,0.5166666666666667,-0.6466666666666666,-0.052352394628382815,0.8937867481991721,-1.3521757757342863
1590505464.8246858,-1.8654525989367985,1.3059650029533372,13.268953041937388,-0.24925018048172212,0.493603071470762,-0.6495496160661547,-0.2092637724390089,1.856760306455,-1.1929542572628555
1590505464.8346858,-1.0616883268255721,1.5151710472638267,6.912880121219185,-0.3022222222222222,0.4633333333333333,-0.6533333333333333,-0.1992663482368848,2.004270827158923,-0.9370219892942216
1590505464.8446858,1.1809731044735776,0.8079611358892342,2.03669204547161,-0.3022222222222222,0.4633333333333333,-0.6533333333333333,-0.07231278790744808,0.6808181550514589,-0.5890600401428874
1590505464.8546858,0.48895731196938896,0.8703854278767587,5.037812985770656,-0.3022222222222222,0.4633333333333333,-0.6533333333333333,0.03313101217944615,-0.2341427470105171,-0.21318652636855256
1590505464.8646858,3.214953091171518,1.2541453711071224,7.147144390370274,-0.3022222222222222,0.4633333333333333,-0.6533333333333333,0.11999138607461016,-0.8381658838165948,0.3081074061801159
1590505464.8746858,2.6129351051477228,0.5538820797316475,7.968797574506515,-0.2996935162487994,0.45827592138648776,-0.6574424805401453,0.06289270653978082,-0.3330068115961452,0.5885771629788225
1590505464.8846858,2.280955371900826,-0.19615206611570252,7.902297520661157,-0.2933333333333333,0.4455555555555555,-0.6677777777777778,-0.17562267416627736,0.3220035106520852,0.9584825374387694
1590505464.8946857,2.9186849230293186,-0.3482006652742322,9.134532374100718,-0.2933333333333333,0.4455555555555555,-0.6677777777777778,-0.1389168402586235,0.05138262751789496,1.0598081356035458
1590505464.9046857,2.8439427070471233,-0.32503670610421387,8.410297240868374,-0.2933333333333333,0.4455555555555555,-0.6677777777777778,0.03592534355529536,-0.1982845208151792,1.1787656094568102
1590505464.9146857,2.6042088902704386,-0.4503994404724899,8.063502486788934,-0.2933333333333333,0.4455555555555555,-0.6677777777777778,0.05070769447381372,-0.14263239785134824,1.3159742548214945
1590505464.9246857,2.500476595056034,-0.7499385038637375,9.059354290569244,-0.2933623731754572,0.4455743460416357,-0.6677555708396831,-0.05025871424896464,-0.08509989445737251,1.4269559206848927
1590505464.9346857,2.884080510633733,-0.7979706063775578,9.098373159546224,-0.31222222222222223,0.4577777777777778,-0.6533333333333333,-0.06061826846258218,-0.11308437088821635,1.5981341487925667
1590505464.9446857,2.934592335339014,-0.7893510479344183,9.00593991035012,-0.31222222222222223,0.4577777777777778,-0.6533333333333333,-0.016344312794169022,-0.14189694035676723,1.726246078646039
1590505464.9546857,2.971280360446381,-0.7526699289849018,8.7247938175091,-0.31222222222222223,0.4577777777777778,-0.6533333333333333,-0.031616223560106516,-0.14975888678411645,1.8337428217512795
1590505464.9646857,5.217142402545743,-1.364920533899054,8.083906656059401,-0.31222222222222223,0.4577777777777778,-0.6533333333333333,0.004447538776183334,-0.2596543861708227,1.7272080582400364
1590505464.9746857,4.948597839135655,-1.734332933173269,6.684013605442177,-0.2908582988751056,0.46646818727490996,-0.6627479436218932,0.1105096701517484,-0.3024483959186894,0.7887439889067861
1590505464.9846857,-0.6656548481880509,-0.9220121449559255,9.078704799216455,-0.2466666666666667,0.4844444444444445,-0.6822222222222222,-0.032394105802521306,0.15957649198929363,-0.4980839337613023
1590505464.9946856,1.3227013301938182,-0.7438050220527509,9.999113145548156,-0.2466666666666667,0.4844444444444445,-0.6822222222222222,-0.19848025391376856,0.3137390456530511,-0.26410589044176447
1590505465.0046856,2.503913043478261,-0.5995652173913043,9.037391304347826,-0.2466666666666667,0.4844444444444445,-0.6822222222222222,-0.06132366094643119,0.1487798332474514,0.07076171858629184
1590505465.0146856,5.711965297277995,-0.8484086740573618,8.788361927640443,-0.2466666666666667,0.4844444444444445,-0.6822222222222222,0.0174856231373667,-0.1488652301723529,0.3039622842344448
1590505465.0246856,9.129548117969776,-1.4066592543297245,8.849633332792287,-0.2466666666666667,0.4844444444444445,-0.6822222222222222,0.04347768668098386,-0.0345001505804374,0.399761604152348
1590505465.0346856,3.115262001757329,-0.768872114386133,8.460841920281172,-0.2466666666666667,0.5044444444444445,-0.6755555555555556,-0.01206801804939435,0.017883037501113717,-0.03303986938617521
1590505465.0446856,4.17445712871987,-0.8467063688414505,8.733770057255956,-0.2466666666666667,0.5044444444444445,-0.6755555555555556,-0.02445999310702557,0.03386622069883666,-0.026256390233993208
1590505465.0546856,3.7728710392675775,-0.8176160503540519,8.99,-0.2466666666666667,0.5044444444444445,-0.6755555555555556,-0.008830416014690215,-0.002960558904357916,0.0
1590505465.0646856,3.9694664064678005,-0.7896983551714525,9.03825982715361,-0.2466666666666667,0.5044444444444445,-0.6755555555555556,-0.0061400361948470705,-0.0022727719364553987,-0.0004049485001316645
1590505465.0746856,3.882650870743553,-0.8312931011350524,9.019870663053103,-0.24932710798651178,0.5017840031245994,-0.6738625474429268,-0.005216710079933074,-0.007680482549525253,-0.0013282746150456617
1590505465.0846856,3.9112868539715575,-0.8110891432535553,8.815248005549774,-0.2588888888888889,0.4922222222222222,-0.6677777777777778,-0.004766535757068859,-0.0016128505083321401,-0.001778448937909877
1590505465.0946856,3.8514728330001815,-0.83,8.93364346719971,-0.2588888888888889,0.4922222222222222,-0.6677777777777778,-0.00545415391248228,0.0011246528799457485,-0.0005919238725026766
1590505465.1046855,3.9303031299934204,-0.8342424100009399,8.836363380016918,-0.2588888888888889,0.4922222222222222,-0.6677777777777778,-0.00545415391248228,0.005784714909076751,-0.0009255502841992206
1590505465.1146855,3.89,-0.8335327054286561,8.910897174428952,-0.2588888888888889,0.4922222222222222,-0.6677777777777778,-0.005806890112376982,0.003272492347489368,-0.0011234529653088036
1590505465.1246855,3.885755521795022,-0.8221222391024892,8.865916793268669,-0.2568845519587602,0.4922222222222222,-0.6668345603988937,-0.0064292345079380924,0.0014204893548390807,0.000743580221374527
1590505465.1346855,3.853078181605703,-0.8384609091971486,8.988456818978614,-0.2414535857582486,0.4922222222222222,-0.6595729292457118,-0.005538098293722657,-0.012837690072607873,-0.0019298284212717774
1590505465.1446855,3.854723610480085,-0.8238190973799787,8.904271353930032,-0.24,0.4922222222222222,-0.6588888888888889,-0.0052458544633106575,0.0006248983475148656,-0.00041659889834324366
1590505465.1546855,3.7912024837195215,-0.8396993790701196,8.88045093139482,-0.24,0.4922222222222222,-0.6588888888888889,-0.004379719458194634,0.003223303362862938,-0.002148868908575292
1590505465.1646855,3.890325951229314,-0.84,8.927527162602443,-0.24,0.4922222222222222,-0.6588888888888889,-0.005723898627818657,0.0041291341781022825,-0.000281596636487323
1590505465.1746855,3.8180862026897073,-0.84,8.921507183557475,-0.24,0.4922222222222222,-0.6588888888888889,-0.006380576473042041,-0.004407677809801712,0.0016884368991828302
1590505465.1846855,3.9105406180129565,-0.8218918763974087,8.849459381987044,-0.2466666666666667,0.4922222222222222,-0.6588888888888889,-0.0036852357496837502,-0.003478864048586559,-0.0008844590813992649
1590505465.1946855,3.876978895191374,-0.8230211048086259,8.89,-0.2466666666666667,0.4922222222222222,-0.6588888888888889,-0.005073514227353911,-0.0020794850192156107,-0.00038063968512836886
1590505465.2046854,3.878406021656836,-0.815796989171582,8.855218064970508,-0.2466666666666667,0.4922222222222222,-0.6588888888888889,-0.004363323129985824,0.00281401498840894,-0.00140700749420447
1590505465.2146854,3.85,-0.829608081791626,8.774311100292113,-0.2466666666666667,0.4922222222222222,-0.6588888888888889,-0.00453432970835187,0.004363323129985824,-0.0021389099204014005
1590505465.2246854,3.8530085158150853,-0.819398296836983,8.88,-0.2457975398756421,0.49295763719924307,-0.6588888888888889,-0.008398468093899417,0.003838238064270255,-0.001090830782496456
1590505465.2346854,3.8927580182203916,-0.8120691376513166,8.894483963559217,-0.23222222222222225,0.5044444444444445,-0.6588888888888889,-0.003498200251817226,-0.0047018849864776105,-0.001090830782496456
1590505465.2446854,3.833369648415574,-0.8367392968311476,8.986303515844261,-0.23222222222222225,0.5044444444444445,-0.6588888888888889,-0.00545415391248228,-0.006533100612105694,-0.0007232591607066235
1590505465.2546854,3.843422785679044,-0.8465772143209559,8.909731642962868,-0.23222222222222225,0.5044444444444445,-0.6588888888888889,-0.0050807859144233435,-0.0013763791455143302,-0.0003733679980589367
1590505465.2646854,3.857004842915684,-0.8306602094457551,8.892334947638561,-0.23222222222222225,0.5044444444444445,-0.6588888888888889,-0.004618026405951821,0.003853916578053831,-0.0005814242305644631
1590505465.2746854,3.870558533300349,-0.804046342871279,8.918882933399303,-0.233271274077739,0.5036951216905039,-0.6620360444554392,-0.0051598955551138675,0.0015931448502560868,0.0009437016038122497
1590505465.2846854,3.8293542679061905,-0.8272351045848299,8.990231882526938,-0.24,0.4988888888888889,-0.6822222222222222,-0.003875698953339537,-0.0033880747766932492,-0.0009048099087752533
1590505465.2946854,3.8822685878243512,-0.82,8.857731412175648,-0.24,0.4988888888888889,-0.6822222222222222,-0.00545415391248228,-0.0067924492381386415,-0.0025300987180096506
1590505465.3046854,3.8888091005489023,-0.82,8.851190899451097,-0.24,0.4988888888888889,-0.6822222222222222,-0.00545415391248228,-0.0075059084994636305,-0.0003897209340346856
1590505465.3146853,3.8648178039382266,-0.8225910980308868,8.876842137200764,-0.24,0.4988888888888889,-0.6822222222222222,-0.006262339745723001,0.0015147982063800569,-0.00014132247462786697
1590505465.3246853,3.8393661822264025,-0.8353169088867987,8.959559907764191,-0.24,0.4988888888888889,-0.6822222222222222,-0.004874169124337376,0.003597054138458496,-0.0008354077853206802
1590505465.3346853,3.8802367941712204,-0.83,8.920710382513661,-0.24,0.5111111111111111,-0.6677777777777778,-0.004389153367094119,0.0010133400711715712,0.0
1590505465.3446853,3.8888209410368186,-0.83,8.946462823110455,-0.24,0.5111111111111111,-0.6677777777777778,-0.0053255385313406315,-0.001795815421567967,0.0
1590505465.3546853,3.865908120188726,-0.8240918798112739,8.848643158678918,-0.24,0.5111111111111111,-0.6677777777777778,-0.005032855398447828,-0.003470613438703152,-0.001090830782496456
1590505465.3646853,3.853733052124134,-0.8362669478758662,8.956266947875866,-0.24,0.5111111111111111,-0.6677777777777778,-0.0072286026605083015,0.0006108192254503356,-0.0014980435994633463
1590505465.3746853,3.8695296022898464,-0.8204703977101536,8.940470397710154,-0.24,0.5111111111111111,-0.6677777777777778,-0.0055054663427074255,0.00319552370215165,-0.0032211799172642223
1590505465.3846853,3.852457592412976,-0.82,8.957542407587026,-0.23317795260504606,0.5111111111111111,-0.655108261187149,-0.004497364002730997,0.0013589125279868015,-0.00040212261823551875
1590505465.3946853,3.89,-0.84,8.828997848140178,-0.23222222222222225,0.5111111111111111,-0.6533333333333333,-0.004363323129985824,-0.003599775115308778,-0.001963361276211728
1590505465.4046853,3.881781314510222,-0.8317813145102217,8.80739561829926,-0.23222222222222225,0.5111111111111111,-0.6533333333333333,-0.0040644832925222545,-0.003765643455058685,0.0004931511075693174
1590505465.4146852,3.8618051021405533,-0.8172204085622129,8.883610204281107,-0.23222222222222225,0.5111111111111111,-0.6533333333333333,-0.0036663045435825076,-0.0015909432708532028,-0.0006970185864033165
1590505465.4246852,3.8699823924874615,-0.8499882616583075,8.900070430050155,-0.23223787334447885,0.5111039376800768,-0.6533418110245557,-0.00545415391248228,0.0010921112369418151,0.0010889101008284172
1590505465.4346852,3.842524080437109,-0.83,9.007379597814454,-0.2588888888888889,0.4988888888888889,-0.6677777777777778,-0.005041152216737902,0.002859490651744991,-0.0020439943330781197
1590505465.4446852,3.865168773374994,-0.832584386687497,8.896740519812527,-0.2588888888888889,0.4988888888888889,-0.6677777777777778,-0.002181661564992912,-0.0011276514210383285,-0.001090830782496456
1590505465.4546852,3.88,-0.8338597844320613,8.827953261477354,-0.2588888888888889,0.4988888888888889,-0.6677777777777778,-0.0030747197186824305,-0.004140058591563444,-0.001090830782496456
1590505465.4646852,3.8795577262675596,-0.8103317052993303,8.821769094929762,-0.2588888888888889,0.4988888888888889,-0.6677777777777778,-0.0065570458400196225,-0.00322424776732582,-0.001090830782496456
1590505465.4746852,3.852866665606058,-0.8303500007954564,8.928533337575768,-0.2588888888888889,0.4988888888888889,-0.6677777777777778,-0.007284931604695774,-0.00031270470862121424,-0.001090830782496456
1590505465.4846852,3.8570678818353237,-0.84,8.945864236329353,-0.2484585166561911,0.48656208534115514,-0.6620884838326698,-0.006704906932576032,0.0029526478722947756,-0.00015992223759729628
1590505465.4946852,3.8662856036093514,-0.8258095975937656,8.938571981953244,-0.2466666666666667,0.4844444444444445,-0.6611111111111111,-0.007178713483898429,-5.192420144545153e-05,-0.0019531105682045304
1590505465.5046852,3.89,-0.8124174542060437,8.82604363551511,-0.2466666666666667,0.4844444444444445,-0.6611111111111111,-0.005586005585643676,-0.004231471456824428,-0.001090830782496456
1590505465.5146852,3.89,-0.8263991532909979,8.860997883227494,-0.2466666666666667,0.4844444444444445,-0.6611111111111111,-0.006348588973317207,-0.003468888069150896,-0.001090830782496456
1590505465.5246851,3.89,-0.8203411804844762,8.927952917093142,-0.2466666666666667,0.4844444444444445,-0.6611111111111111,-0.004437757164956582,-0.002218878582478291,-0.001090830782496456
1590505465.5346851,3.8742405417398182,-0.8278797291300908,8.93,-0.23090720840648493,0.49057312265673736,-0.6777460948301918,-0.006082413348553251,0.0003969737628582307,-0.00023128567321274187
1590505465.5446851,3.8607195388210056,-0.8292804611789941,8.92136553414793,-0.22666666666666666,0.4922222222222222,-0.6822222222222222,-0.0052971748934514,0.0009338517634655759,-0.001012341272981016
1590505465.554685,3.868752441873827,-0.821247558126173,8.824970697514077,-0.22666666666666666,0.4922222222222222,-0.6822222222222222,-0.0035446673088860015,-0.0008186558210998224,-0.00013608748069831678
1590505465.564685,3.864676514968052,-0.828441161677316,8.894676514968053,-0.22666666666666666,0.4922222222222222,-0.6822222222222222,-0.002521747330456683,-0.0031024494647574827,-0.002181661564992912
1590505465.574685,3.8881166520742907,-0.8206277826419031,8.918116652074291,-0.22666666666666666,0.4922222222222222,-0.6822222222222222,-0.004226362203884854,-0.0022501420280433963,-0.002181661564992912
1590505465.584685,3.86,-0.8386666410202158,8.965999923060648,-0.24,0.5044444444444445,-0.6677777777777778,-0.00450877003191249,0.0013817245863497877,0.0
1590505465.594685,3.86,-0.8305989728596433,8.94179691857893,-0.24,0.5044444444444445,-0.6677777777777778,-0.005388816109164386,0.003141816740853581,0.0
1590505465.604685,3.89,-0.8293514215132102,8.85935142151321,-0.24,0.5044444444444445,-0.6677777777777778,-0.004504821005636874,0.001020081844670931,-0.001090830782496456
1590505465.614685,3.89,-0.8205704894694971,8.850570489469497,-0.24,0.5044444444444445,-0.6677777777777778,-0.006420523200095226,6.223074744175446e-05,-0.001090830782496456
1590505465.624685,3.865241161616162,-0.8261897095959595,8.893327967171716,-0.24,0.5044444444444445,-0.6677777777777778,-0.006544984694978735,-0.0027007703047945714,-0.0004156382062978131
1590505465.634685,3.864507151297828,-0.837253575648914,8.92,-0.23435833005084464,0.5004146801950478,-0.6573003907293463,-0.004962499974778303,-0.001989596049685174,-0.0023737270803006498
1590505465.644685,3.8510859317945427,-0.8378281364109146,8.910226613849115,-0.23222222222222225,0.4988888888888889,-0.6533333333333333,-0.006544984694978735,0.0027986652158178598,-0.00011845678291787703
1590505465.654685,3.8610124809741246,-0.8196625063419584,8.831687468290209,-0.23222222222222225,0.4988888888888889,-0.6533333333333333,-0.006508169847869824,-0.0011644604767142787,-0.0011644604767142787
1590505465.664685,3.8865485540334856,-0.8111504819888382,8.874247590055809,-0.23222222222222225,0.4988888888888889,-0.6533333333333333,-0.00557965202929552,-0.003021496113862888,-0.003021496113862888
1590505465.674685,3.863725916268289,-0.8275160558211405,8.897516055821141,-0.23222222222222225,0.4988888888888889,-0.6533333333333333,-0.004498801268600961,-0.0023171397036080496,-0.0023171397036080496
1590505465.684685,3.867016817939135,-0.8229831820608648,8.921050453817406,-0.23222222222222225,0.4988888888888889,-0.6736041407130569,-0.005128739230304012,0.00011458673596165389,-0.0006508293643565346
1590505465.694685,3.8402280809547746,-0.8397719190452252,8.94771919045225,-0.23222222222222225,0.4988888888888889,-0.6822222222222222,-0.003297372120126322,0.001090830782496456,-0.0010161914645855942
1590505465.704685,3.8480373866577295,-0.8319626133422704,8.869626133422704,-0.23222222222222225,0.4988888888888889,-0.6822222222222222,-0.004149235225197145,0.001090830782496456,0.001539397850626876
1590505465.714685,3.854260944317389,-0.8182956222730443,8.874260944317388,-0.23222222222222225,0.4988888888888889,-0.6822222222222222,-0.006359065926022273,-0.002274620949471143,-0.000997871398018225
1590505465.724685,3.888276320698101,-0.8046894717207598,8.9082763206981,-0.23222222222222225,0.4988888888888889,-0.6822222222222222,-0.004874865140650959,-0.0030167213421568007,-0.0002557710053325673
1590505465.734685,3.8703377697841725,-0.8395496402877698,8.95954964028777,-0.2585886490807354,0.4988888888888889,-0.6536585931254996,-0.00220622487685776,-0.001115394094361304,0.0010785491265640319
1590505465.744685,3.878295142071494,-0.8317048579285059,8.96,-0.2588888888888889,0.4988888888888889,-0.6533333333333333,-0.0067059597233764725,0.0034334673758871035,-0.0016237481125336796
1590505465.754685,3.851075003194344,-0.8378499936113122,8.872150006388686,-0.2588888888888889,0.4988888888888889,-0.6533333333333333,-0.004480587787553057,0.0008563014673619908,-0.00035179397270169787
1590505465.764685,3.86,-0.8200046321640628,8.890018528656253,-0.2588888888888889,0.4988888888888889,-0.6533333333333333,-0.005453648621767349,-0.0010918413639263175,-0.003270471184629645
1590505465.774685,3.86,-0.8258921126879184,8.913568450751674,-0.2588888888888889,0.4988888888888889,-0.6533333333333333,-0.004811424123090339,-0.0023762903612803373,-0.0007015731899216063
1590505465.784685,3.865137785702707,-0.83,8.924862214297292,-0.2588888888888889,0.4954636984204175,-0.6607545793483547,-0.004363323129985824,-0.003272492347489368,0.001090830782496456
1590505465.794685,3.88,-0.8115719147575433,8.903712340969827,-0.2588888888888889,0.4922222222222222,-0.6677777777777778,-0.004449057780235254,0.00017146930049886046,-0.00017146930049886046
1590505465.8046849,3.8794165180358897,-0.83,8.83175044589233,-0.2588888888888889,0.4922222222222222,-0.6677777777777778,-0.005517801921230571,0.0020861895518704742,-0.002149837560618766
1590505465.8146849,3.8641495286281073,-0.83,8.877551414115677,-0.2588888888888889,0.4922222222222222,-0.6677777777777778,-0.0071831721214361864,-0.0004118657484379479,-0.0013171524605159587
1590505465.8246849,3.86,-0.8454487746895627,8.928621936723907,-0.2588888888888889,0.4922222222222222,-0.6677777777777778,-0.005108015629991119,-0.001933430731657814,0.00059436911582626
1590505465.8346848,3.8728756790557703,-0.8371243209442295,8.946437839527885,-0.24172131681452824,0.4965141152408124,-0.6813687723366466,-0.005065582482964792,-0.0035861802709508494,-0.0010159472764404499
1590505465.8446848,3.8610575924594617,-0.8394712037702692,8.95,-0.23222222222222225,0.4988888888888889,-0.6888888888888889,-0.006487301974472892,-0.00023073088202337378,-0.00011536544101168689
1590505465.8546848,3.8666163343758146,-0.8333836656241855,8.87722032186604,-0.23222222222222225,0.4988888888888889,-0.6888888888888889,-0.0072667148154215225,0.0007217301204427865,0.0
1590505465.8646848,3.8525954700538496,-0.8387022649730751,8.900915854811526,-0.23222222222222225,0.4988888888888889,-0.6888888888888889,-0.00478800592445386,0.0020401006335035664,-0.0009492698510071104
1590505465.8746848,3.8713924841888514,-0.8257383438740991,8.91,-0.23222222222222225,0.4988888888888889,-0.6888888888888889,-0.005141175805561415,-0.002485454488460634,-0.00031297810692086506
1590505465.8846848,3.87,-0.8100599582433663,8.9498201252699,-0.23222222222222225,0.4988888888888889,-0.6466666666666666,-0.004354602556982052,-0.0032637717744855954,-0.001090830782496456
1590505465.8946848,3.87,-0.8325137850425597,8.88245864487232,-0.23222222222222225,0.4988888888888889,-0.6466666666666666,-0.001088825829328178,2.004953168277708e-06,-0.001090830782496456
1590505465.9046848,3.8699193215841654,-0.8399596607920827,8.82028237445542,-0.23222222222222225,0.4988888888888889,-0.6466666666666666,-0.0010996314324439864,0.0010952311074702212,0.0021772612400191467
1590505465.9146848,3.8548797891604067,-0.8324398945802033,8.872920737938577,-0.23222222222222225,0.4988888888888889,-0.6466666666666666,-0.0027401899246629604,0.001915510353579708,0.0013569819939096596
1590505465.9246848,3.85,-0.83,8.912366004473096,-0.23222222222222225,0.4988888888888889,-0.6466666666666666,-0.0008327397314187523,0.0013684106929693733,0.0019040816545199944
1590505465.9346848,3.8569739600216097,-0.83,8.92,-0.22834779998799448,0.5074126178041899,-0.6668136622846509,-0.0015214820534943543,0.0003300897557492788,0.0014209205382457349
