time,acc_x,acc_y,acc_z,mag_x,mag_y,mag_z,gyr_x,gyr_y,gyr_z
1590503708.8842347,-3.85,-0.77,9.03,0.3033333333333333,-0.3688888888888889,-0.67,-0.002181661564992912,0.002181661564992912,0.0
1590503708.8942347,-3.853740454931114,-0.7537404549311139,8.986183184517797,0.3033333333333333,-0.3688888888888889,-0.67,0.0017736412270529423,0.0016320813517598787,0.0008160406758799393
1590503708.9042346,-3.85,-0.7433657417744128,9.00643980757911,0.3033333333333333,-0.3688888888888889,-0.67,0.0014579762558428386,-0.0007236853091500733,0.0
1590503708.9142346,-3.8554341118491537,-0.7454341118491536,9.04630233554746,0.3033333333333333,-0.3688888888888889,-0.67,0.0016836004305550078,-0.0016836004305550078,-0.000592769648058552
1590503708.9242346,-3.852520661157025,-0.7574793388429752,9.097396694214876,0.32327823691460056,-0.379692378328742,-0.6591965105601469,0.0005499229564651556,-0.0013657922607290336,-0.0002749614782325778
1590503708.9342346,-3.8415058749271704,-0.7684941250728297,9.093011749854341,0.33,-0.38333333333333336,-0.6555555555555556,-0.000926565309981756,-0.001090830782496456,0.0
1590503708.9442346,-3.84,-0.7627363628973254,9.01009999187058,0.33,-0.38333333333333336,-0.6555555555555556,0.0020785287952958644,-0.0034678504658406965,0.0
1590503708.9542346,-3.84,-0.7674679428346664,9.009871771338664,0.33,-0.38333333333333336,-0.6555555555555556,0.004087118540087154,-0.004363323129985824,-0.001629252385195572
1590503708.9642346,-3.833998364221053,-0.77,9.032003271557892,0.33,-0.38333333333333336,-0.6555555555555556,0.005672676940587273,-0.005018000035286548,-0.00021763084909073816
1590503708.9742346,-3.8434039622146416,-0.77,9.04893597480976,0.32354624041517244,-0.3803546750634129,-0.649101795970728,0.006057602875273713,-0.005941535732187302,0.0015782126022014784
1590503708.9842346,-3.85395840139388,-0.76395840139388,9.06604159860612,0.31555555555555553,-0.37666666666666665,-0.6411111111111111,0.00874933478000397,-0.007204020868483074,-0.00045448312902444075
1590503708.9942346,-3.85,-0.76,9.01092807585169,0.31555555555555553,-0.37666666666666665,-0.6411111111111111,0.012665693458844777,-0.0070500202661817855,-0.002181661564992912
1590503709.0042346,-3.8560070419749177,-0.76,9.014063377774262,0.31555555555555553,-0.37666666666666665,-0.6411111111111111,0.014180800172453925,-0.008510784584375364,-0.0015263949351940359
1590503709.0142345,-3.854133357892798,-0.7482667157855959,9.055866642107203,0.31555555555555553,-0.37666666666666665,-0.6411111111111111,0.016100654312581692,-0.01109737980255328,-0.001090830782496456
1590503709.0242345,-3.8440579489366886,-0.74,9.071884102126623,0.3201771508270198,-0.37666666666666665,-0.6411111111111111,0.01939782418325099,-0.014591847491871274,-0.001090830782496456
1590503709.0342345,-3.826221569712869,-0.74,9.052443139425737,0.3233333333333333,-0.37666666666666665,-0.6411111111111111,0.021477281662016852,-0.01786545532661522,-0.001842327577080647
1590503709.0442345,-3.82,-0.7176710185446431,8.958127067997024,0.3233333333333333,-0.37666666666666665,-0.6411111111111111,0.018568996941489675,-0.01773221862532989,-0.002993566242102773
1590503709.0542345,-3.8132317266780973,-0.7167682733219025,8.943536546643804,0.3233333333333333,-0.37666666666666665,-0.6411111111111111,0.0108085557244505,-0.012285163901226678,-0.004010796435877456
1590503709.0642345,-3.818744652603629,-0.7331169789054433,8.993723263018143,0.3233333333333333,-0.37666666666666665,-0.6411111111111111,0.0028663473563371247,-0.004571062109216231,-0.0024555358815305972
1590503709.0742345,-3.827055955421407,-0.75,9.055888089157186,0.3190808244975879,-0.37666666666666665,-0.646999200268297,-0.006162801353723302,0.003787388790678431,-0.0006422908902742077
1590503709.0842345,-3.8270367732169888,-0.7288896803490339,9.077036773216989,0.3088888888888889,-0.37666666666666665,-0.6611111111111111,-0.01308996938995747,0.008403408360928979,-0.0029492544484467
1590503709.0942345,-3.837166337788142,-0.7343326755762849,9.008336622118575,0.3088888888888889,-0.37666666666666665,-0.6611111111111111,-0.012308243204250138,0.007944920074264315,-0.0009273137903673683
1590503709.1042345,-3.8466274678305705,-0.7466274678305705,9.026392274813995,0.3088888888888889,-0.37666666666666665,-0.6611111111111111,-0.011999138607461015,0.011250538437270884,0.0007229445919591384
1590503709.1142344,-3.83978091151396,-0.75510954424302,9.065328632729061,0.3088888888888889,-0.37666666666666665,-0.6611111111111111,-0.010884408978498267,0.01308996938995747,0.0005334659680150812
1590503709.1242344,-3.8266062756028547,-0.76,9.08,0.3047410035146004,-0.37892914959809676,-0.6592257086682527,-0.009817477042468105,0.012719771485985956,-0.00037019790397151565
1590503709.1342344,-3.836810474012146,-0.751594762993927,9.058986907484817,0.2966666666666667,-0.38333333333333336,-0.6555555555555556,-0.010275911605488245,0.011082269481420734,-0.0006323962194763151
1590503709.1442344,-3.8410806305993472,-0.7258104729495104,8.996891103548858,0.2966666666666667,-0.38333333333333336,-0.6555555555555556,-0.01090830782496456,0.007753693989702742,0.0
1590503709.1542344,-3.824574846044529,-0.7328742302226433,8.978299384178115,0.2966666666666667,-0.38333333333333336,-0.6555555555555556,-0.009910231246853756,0.006452230490593082,-0.0004990382890554014
1590503709.1642344,-3.840363646386505,-0.7651818231932526,9.02072729277301,0.2966666666666667,-0.38333333333333336,-0.6555555555555556,-0.010422393934567854,0.007635815477475192,3.9667667234348676e-05
1590503709.1742344,-3.85,-0.7591418902586415,9.056287164612037,0.30028603658045283,-0.37971396341954716,-0.6585716971503773,-0.013775792659300783,0.006451379442915346,0.0004986127652165332
1590503709.1842344,-3.855973696258376,-0.767921088775128,9.058052607483248,0.3033333333333333,-0.37666666666666665,-0.6611111111111111,-0.013968372602166296,0.00545415391248228,0.0013032583527840874
1590503709.1942344,-3.84734847000196,-0.7736742350009799,8.99306811500882,0.3033333333333333,-0.37666666666666665,-0.6611111111111111,-0.008949765879695579,0.0033840521573513336,0.002871695483369894
1590503709.2042344,-3.84,-0.7507681014347681,9.004874429985541,0.3033333333333333,-0.37666666666666665,-0.6611111111111111,-0.0037478184335381515,0.002880953130353058,0.005370367043569806
1590503709.2142344,-3.843847082674935,-0.7438470826749352,9.033847082674935,0.3033333333333333,-0.37666666666666665,-0.6611111111111111,-0.0009227067036044899,0.002433189106563753,0.00570568145405312
1590503709.2242343,-3.8497537962553445,-0.7502462037446558,9.040984814978621,0.3033333333333333,-0.37617425917735514,-0.660974331252969,0.0011176874448400958,0.0011176874448400958,0.004443893117016743
1590503709.2342343,-3.84,-0.76,9.084745975778016,0.3033333333333333,-0.3566666666666667,-0.6555555555555556,0.004770189800814258,0.002181661564992912,0.0060826985359823844
1590503709.2442343,-3.8586757509598737,-0.7662252503199578,9.00284649552059,0.3033333333333333,-0.3566666666666667,-0.6555555555555556,0.008314884945250784,-0.0025718247094362354,0.004363323129985824
1590503709.2542343,-3.857142857142857,-0.7764285714285715,8.982142857142858,0.3033333333333333,-0.3566666666666667,-0.6555555555555556,0.008025397899795355,-0.004051657192129693,0.0015583296892806514
1590503709.2642343,-3.845114722061378,-0.7751147220613781,9.029311667631731,0.3033333333333333,-0.3566666666666667,-0.6555555555555556,0.00816871663312515,-0.0022066900361894506,-0.0005329011556499586
1590503709.2742343,-3.8432008706031033,-0.7635982587937935,9.066401741206207,0.3011994195979311,-0.3591562326913026,-0.6555555555555556,0.009075807078436953,-0.002487474056357677,-0.0007416699640311507
1590503709.2842343,-3.8591662815088705,-0.7408337184911296,9.075416859245564,0.2966666666666667,-0.3644444444444445,-0.6555555555555556,0.008817590839377706,-0.005954097014027479,-0.000499943101545199
1590503709.2942343,-3.85758506879881,-0.73,9.02034027519524,0.2966666666666667,-0.3644444444444445,-0.6555555555555556,0.006732976203019606,-0.007899243606662115,-0.000639411145268663
1590503709.3042343,-3.84,-0.73,8.95487883938807,0.2966666666666667,-0.3644444444444445,-0.6555555555555556,0.005276754306236859,-0.008753079404995577,0.0
1590503709.3142343,-3.8359807945481297,-0.7380384109037404,8.996076821807481,0.2966666666666667,-0.3644444444444445,-0.6555555555555556,0.0026096139187547834,-0.003272492347489368,-0.0004384273028077601
1590503709.3242342,-3.8371188842722326,-0.75,9.03067832640835,0.3061585123629766,-0.3644444444444445,-0.6472501905712844,-0.001164824715177151,-0.001719392727253167,-0.0007025558774374056
1590503709.3342342,-3.85,-0.7540405397941713,9.062121619382514,0.3233333333333333,-0.3644444444444445,-0.6322222222222222,-0.005035510421642927,0.0019723398195732357,-0.0004407545185383898
1590503709.3442342,-3.846456019546868,-0.756456019546868,9.04456019546868,0.3233333333333333,-0.3644444444444445,-0.6322222222222222,-0.006089462289138368,0.002885904050405162,-0.00070424248541225
1590503709.3542342,-3.8442982686944167,-0.7414034626111666,9.0057896121665,0.3233333333333333,-0.3644444444444445,-0.6322222222222222,-0.002803623967158312,0.002181661564992912,-0.0004688683803310557
1590503709.3642342,-3.845330265696898,-0.7346697343031022,9.049339468606204,0.3233333333333333,-0.3644444444444445,-0.6322222222222222,-0.0016722725726025527,0.0019269670687977322,-0.0008361362863012763
1590503709.3742342,-3.83,-0.7426360704206424,9.08368196478968,0.3159694037539757,-0.3660808732398573,-0.6383588302050203,0.0008032801065299463,0.002295750942291375,-0.00040164005326497314
1590503709.3842342,-3.83,-0.7353730580777001,9.0470155353784,0.3033333333333333,-0.3688888888888889,-0.6488888888888888,-0.00016277729392569565,0.004949432844715476,8.138864696284782e-05
1590503709.3942342,-3.83,-0.74,8.981626288659793,0.3033333333333333,-0.3688888888888889,-0.6488888888888888,-0.00269751019405234,0.00545415391248228,0.000574982153437028
1590503709.4042342,-3.834648696302629,-0.7353513036973712,8.963946088907885,0.3033333333333333,-0.3688888888888889,-0.6488888888888888,-0.006822151065258811,0.006468342117559264,-0.000507094102538492
1590503709.4142342,-3.8440629693497246,-0.7462518773988986,8.9962518773989,0.3033333333333333,-0.3688888888888889,-0.6488888888888888,-0.01179471023196841,0.00586301066346749,0.00023877282800932077
1590503709.4242342,-3.848236140980751,-0.7682361409807511,9.025291577057747,0.30548916102352636,-0.3702607792371936,-0.6488888888888888,-0.01308996938995747,0.0034648995189074374,0.0025664759078290506
1590503709.4342341,-3.8407813305369425,-0.7607813305369426,9.047656008389174,0.3146005960104035,-0.3760589651379335,-0.6488888888888888,-0.01308996938995747,0.004278093189885679,0.004192863249785536
1590503709.4442341,-3.84,-0.75,8.999700252735016,0.31555555555555553,-0.37666666666666665,-0.6488888888888888,-0.011999138607461015,0.006192273552267001,0.00570019379241052
1590503709.4542341,-3.84,-0.75,8.932984040578992,0.31555555555555553,-0.37666666666666665,-0.6488888888888888,-0.011999138607461015,0.008618143482645512,0.00650881710253669
1590503709.464234,-3.8451199618490075,-0.74,9.02172024798145,0.31555555555555553,-0.37666666666666665,-0.6488888888888888,-0.009843648657992636,0.004629487921728805,0.008168145060961154
1590503709.474234,-3.8313254180986993,-0.74,9.111384782358455,0.31555555555555553,-0.37666666666666665,-0.6488888888888888,-0.006834146067326549,0.005381863569395327,0.0096728963562942
1590503709.484234,-3.85,-0.74,9.12,0.2966666666666667,-0.37666666666666665,-0.6322222222222222,-0.0015593041204580364,0.0024962507963811973,0.017761060733089886
1590503709.494234,-3.85,-0.7433036200326619,9.073749319542733,0.2966666666666667,-0.37666666666666665,-0.6322222222222222,0.0003603690425299601,-0.0018212925224629518,0.027241598597691673
1590503709.504234,-3.859911177400325,-0.7549555887001625,8.99982235480065,0.2966666666666667,-0.37666666666666665,-0.6322222222222222,0.0016314016524493422,-0.001090830782496456,0.03651860860715457
1590503709.514234,-3.8622528675599126,-0.76,9.027747132440087,0.2966666666666667,-0.37666666666666665,-0.6322222222222222,0.002604202092079133,-0.000668290255410235,0.03969244869695864
1590503709.524234,-3.8524395182777362,-0.7575604817222636,9.035120963444527,0.3012746456357242,-0.37829301218515754,-0.6449619287837342,0.002740272021125862,-0.0002661101631817529,0.037699637320551344
1590503709.534234,-3.86,-0.7525791927321991,9.02,0.31555555555555553,-0.38333333333333336,-0.6844444444444444,0.0005281382172416798,-0.001090830782496456,0.027483007149012598
1590503709.544234,-3.8545395152792414,-0.7545395152792413,8.965395152792413,0.31555555555555553,-0.38333333333333336,-0.6844444444444444,-0.0004951843004209412,-0.001090830782496456,0.016455797311249486
1590503709.554234,-3.85,-0.7396105750408769,8.961557699836492,0.31555555555555553,-0.38333333333333336,-0.6844444444444444,0.0016999656836772603,-0.005057417377743396,0.008032552012214075
1590503709.564234,-3.84213882102829,-0.7378611789717099,9.011791768457565,0.31555555555555553,-0.38333333333333336,-0.6844444444444444,0.002843731547036618,-0.008297885459518898,0.0026482799281748247
1590503709.574234,-3.833035500856026,-0.7439289982879478,9.04517750428013,0.3135318883182048,-0.3789487209857401,-0.6776988869866086,0.0025127833423976734,-0.007635815477475192,0.0003311217774047613
1590503709.584234,-3.84,-0.7347092391932167,9.070581521613567,0.3088888888888889,-0.3688888888888889,-0.6622222222222223,0.0048135872697192454,-0.007122117170065233,6.34341676765376e-05
1590503709.594234,-3.844537937279573,-0.735462062720427,9.005544752645125,0.3088888888888889,-0.3688888888888889,-0.6622222222222223,0.0070399968623383775,-0.006049972527619093,0.0003942057195824697
1590503709.604234,-3.842872184958969,-0.7264360924794844,8.954255630082063,0.3088888888888889,-0.3688888888888889,-0.6622222222222223,0.005303243459865766,-0.003510343897807758,0.0014041375591231032
1590503709.614234,-3.836054515363602,-0.72,8.987568144204502,0.3088888888888889,-0.3688888888888889,-0.6622222222222223,0.00010016302273925114,0.0004953338798786025,0.0001651112932928675
1590503709.624234,-3.869507886183725,-0.72,9.029384857729656,0.3088888888888889,-0.3688888888888889,-0.6622222222222223,-0.005373631977589618,0.0032322313800430373,0.0010774104600143456
1590503709.634234,-3.84,-0.7402323730701894,9.04976762692981,0.3033333333333333,-0.3911111111111111,-0.6555555555555556,-0.011999138607461015,0.005082094328383934,0.00037205958409834553
1590503709.644234,-3.8371790772772325,-0.7628209227227676,9.021537231831697,0.3033333333333333,-0.3911111111111111,-0.6555555555555556,-0.012306853541564869,0.00405560819588197,-0.00014002895391895874
1590503709.654234,-3.83,-0.7667603643738157,9.016198178130923,0.3033333333333333,-0.3911111111111111,-0.6555555555555556,-0.011323022257400419,0.0011521557884209051,-0.0029191029209779578
1590503709.664234,-3.829685035476773,-0.7596850354767732,9.050944893569682,0.3033333333333333,-0.3911111111111111,-0.6555555555555556,-0.007601458177742183,-0.00320377774802335,-0.0020442323660608756
1590503709.674234,-3.8211950092820444,-0.7488049907179554,9.081792513923068,0.30366528035612345,-0.3902480488518566,-0.6555555555555556,-0.0066753399860010635,-0.000634587263918307,0.0020513062739705838
1590503709.684234,-3.8393027673444715,-0.7306972326555282,9.108954151016707,0.30869521315124215,-0.37717022358454816,-0.6555555555555556,-0.008650589975650456,0.006278787699854562,7.605628432119215e-05
1590503709.694234,-3.85,-0.74,9.027630741617036,0.3088888888888889,-0.37666666666666665,-0.6555555555555556,-0.006191890860471541,0.004716416964493019,0.000737736947989261
1590503709.704234,-3.85,-0.7425365980423295,8.957463401957671,0.3088888888888889,-0.37666666666666665,-0.6555555555555556,-0.005730853835221614,0.005177453989742945,0.0005533998454786686
1590503709.7142339,-3.85,-0.756325532040323,8.97213936214113,0.3088888888888889,-0.37666666666666665,-0.6555555555555556,-0.006199980441716135,0.0036733146234606234,0.0018366573117303117
1590503709.7242339,-3.847656603402498,-0.7676566034024978,9.02,0.3088888888888889,-0.37666666666666665,-0.6485253657630489,-0.005198528998066993,0.0014147868217470505,0.001346455696911743
1590503709.7342339,-3.84,-0.7522285642601769,9.04331430721947,0.3088888888888889,-0.37666666666666665,-0.6255555555555555,-0.004363323129985824,-0.001090830782496456,0.002181661564992912
1590503709.7442338,-3.84,-0.7365389332533864,9.052311466027092,0.3088888888888889,-0.37666666666666665,-0.6255555555555555,-0.004740866944733923,-0.0007132869677483572,0.0040693806387334065
1590503709.7542338,-3.84370184772746,-0.73,9.01480739090984,0.3088888888888889,-0.37666666666666665,-0.6255555555555555,-0.00545415391248228,0.0,0.009251051258766445
1590503709.7642338,-3.8483738376404815,-0.73,9.043252324719036,0.3088888888888889,-0.37666666666666665,-0.6255555555555555,-0.004921993524752321,-0.0008869339795499309,0.01324084617883092
1590503709.7742338,-3.842391893433738,-0.73,9.055216213132523,0.3088888888888889,-0.37666666666666665,-0.6255555555555555,-0.0029644068607848025,-0.004149578419495796,0.017808548394755132
1590503709.7842338,-3.85,-0.76,9.039748313867412,0.3033333333333333,-0.3688888888888889,-0.6555555555555556,-0.0032679165644734676,-4.57578301590058e-06,0.016344158605383234
1590503709.7942338,-3.842539398657605,-0.76,8.957618195972815,0.3033333333333333,-0.3688888888888889,-0.6555555555555556,-0.002181661564992912,-0.0014977434625073902,0.011185313247439148
1590503709.8042338,-3.8364309164077945,-0.7578563611974019,8.922143638802599,0.3033333333333333,-0.3688888888888889,-0.6555555555555556,-0.0014801574072645447,-0.0014801574072645447,0.008882138165496949
1590503709.8142338,-3.858640214628636,-0.7504532617904547,8.929546738209545,0.3033333333333333,-0.3688888888888889,-0.6555555555555556,0.000942501208429231,0.000942501208429231,0.0056519266779052465
1590503709.8242338,-3.846808817924699,-0.7121274547168676,9.055318636792169,0.3026241817610441,-0.36971623238989293,-0.6555555555555556,-0.004363323129985824,0.0022976962196692343,0.00591829253118757
1590503709.8342338,-3.821568812308186,-0.7289541251278759,9.09738531281969,0.2970152916240414,-0.37625993754972953,-0.6555555555555556,-0.004363323129985824,0.0032154487222317454,0.009589302541437614
1590503709.8442338,-3.8296173170639567,-0.71,9.121830304861925,0.2966666666666667,-0.37666666666666665,-0.6555555555555556,-0.0002831437537884156,0.0,0.025014685406916107
1590503709.8542337,-3.7991568042789954,-0.7108431957210045,9.075059174326027,0.2966666666666667,-0.37666666666666665,-0.6555555555555556,-0.000998852397682347,-0.0001839567696282179,0.042752176957535706
1590503709.8642337,-3.7923183292008393,-0.72,9.118408353995804,0.2966666666666667,-0.37666666666666665,-0.6555555555555556,0.0,-0.0029403330218636587,0.07732061580847852
1590503709.8742337,-3.8012426432243163,-0.7212426432243164,9.078136035163526,0.29832352429908865,-0.37618341652387693,-0.6542438765965548,-0.0001355513480745056,-0.005589705260556785,0.10669166966464051
1590503709.8842337,-3.8024054153329483,-0.7458648615556838,9.011878399888056,0.3233333333333333,-0.3688888888888889,-0.6344444444444445,-0.002181661564992912,-0.00827557262947719,0.11839199319460517
1590503709.8942337,-3.757967536116896,-0.7594918840292241,8.91745942014612,0.3233333333333333,-0.3688888888888889,-0.6344444444444445,-0.0021262347107928706,-0.009651196479867981,0.11298528024452671
1590503709.9042337,-3.717056376257008,-0.75,8.884718118714959,0.3233333333333333,-0.3688888888888889,-0.6344444444444445,-0.0007697312434021557,-0.004939486999507234,0.07050778961026649
1590503709.9142337,-3.7078884116626747,-0.745776823325349,8.930557941686628,0.3233333333333333,-0.3688888888888889,-0.6344444444444445,0.0,0.00029120055249265246,0.02873519659828372
1590503709.9242337,-3.705793039371298,-0.7314482598428245,8.980861948821184,0.32140232020956727,-0.3699348543309288,-0.6359731631674259,0.00023697096264096873,0.005138192628960988,-0.008677723358747454
1590503709.9342337,-3.7707429058108475,-0.7476857264527118,9.102642948395339,0.29975236472971756,-0.38166191354918083,-0.6531127112556403,0.002893820223814492,0.0015957269473962903,-0.032589366709309155
1590503709.9442337,-3.7935981559738763,-0.7414642079651684,9.145062363939045,0.2966666666666667,-0.38333333333333336,-0.6555555555555556,0.009424979112815327,0.0019488839473783526,-0.029945197764404494
1590503709.9542336,-3.755301596798923,-0.7016009124565274,9.10049885942934,0.2966666666666667,-0.38333333333333336,-0.6555555555555556,0.011541039445595895,0.001090830782496456,0.002213316502624912
1590503709.9642336,-3.7004044351370555,-0.6702311057926031,9.139711117759246,0.2966666666666667,-0.38333333333333336,-0.6555555555555556,0.009830081908097341,0.001090830782496456,0.03899890355884385
1590503709.9742336,-3.512677070259774,-0.6108453906083497,9.130140898434727,0.2966666666666667,-0.38333333333333336,-0.6555555555555556,0.006591093599919799,-0.0032110138075679504,0.08766565980809699
1590503709.9842336,-3.4017476631962915,-0.65,9.043236758112318,0.2888888888888889,-0.37666666666666665,-0.67,0.004253900177413795,-0.005563576865054308,0.1494472159452383
1590503709.9942336,-3.358120525251228,-0.6536465791247954,8.92,0.2888888888888889,-0.37666666666666665,-0.67,-0.0005002895215578346,-0.007268119314588548,0.18571867744790338
1590503710.0042336,-3.1793133777840827,-0.6593133777840828,8.92,0.2888888888888889,-0.37666666666666665,-0.67,-0.008453115074761413,0.0019830292446895124,0.2276384974499867
1590503710.0142336,-3.0403565420307155,-0.6242909860530743,8.931692624952515,0.2888888888888889,-0.37666666666666665,-0.67,0.0002834372272531086,-0.00038223771436368464,0.24804374346757518
1590503710.0242336,-2.516837249687958,-0.7077505833830792,8.999977750040701,0.2888888888888889,-0.37666666666666665,-0.67,0.0019387153702045332,0.0037559576430148773,0.25052666068200236
1590503710.0342336,-2.355134774795664,-0.7791913512260159,9.073513033060886,0.3088888888888889,-0.37666666666666665,-0.67,0.017305791238550715,0.015212339571046795,0.18679669349936093
1590503710.0442336,-2.3308214016578748,-0.9250715900527506,9.0410952022105,0.3088888888888889,-0.37666666666666665,-0.67,0.011117376874712058,-0.006889140299805547,0.13905749697831987
1590503710.0542336,-2.3845029507296767,-0.8717544260945148,9.052748524635163,0.3088888888888889,-0.37666666666666665,-0.67,0.009160403575560614,-0.004063505602137399,0.09365200704811136
1590503710.0642335,-2.3737931034482758,-0.8367241379310345,9.058103448275862,0.3088888888888889,-0.37666666666666665,-0.67,0.022023497350057757,-0.002238083846846177,0.06563792122263158
1590503710.0742335,-2.389328123263825,-0.782351568576614,9.050335938368088,0.3088888888888889,-0.37666666666666665,-0.67,0.022870801241132405,0.0019984356085270645,0.03513498114394424
1590503710.0842335,-2.4160043201209636,-0.7713318932930122,8.997991359758073,0.3040732740516734,-0.3824454044713252,-0.67,0.019125271383647065,0.005963836613771421,-0.00022382118161645703
1590503710.0942335,-2.4660633553352533,-0.7584841611661867,8.96635745049568,0.3033333333333333,-0.38333333333333336,-0.67,0.0026110828829985382,0.008462577308088729,-0.06056086008560275
1590503710.1042335,-2.506869501699114,-0.7513739003398228,8.907860704417697,0.3033333333333333,-0.38333333333333336,-0.67,-0.00213991573042918,0.012940100111681367,-0.1072504187903747
1590503710.1142335,-2.5401713405532442,-0.7580342681106489,8.994445485438435,0.3033333333333333,-0.38333333333333336,-0.67,-0.007225649661444233,0.01221356669296493,-0.1406709560513308
1590503710.1242335,-2.540948779965098,-0.76,9.038102440069803,0.3033333333333333,-0.38333333333333336,-0.67,-0.011688651089937531,0.0149611434374269,-0.19595205537732113
1590503710.1342335,-2.5771052480751964,-0.76,9.069684198460157,0.2926140394449433,-0.37838596692330717,-0.6642280725216362,-0.011999138607461015,0.020938207505913194,-0.23795036702853212
1590503710.1442335,-2.610428176457635,-0.78,9.017002764796555,0.2888888888888889,-0.37666666666666665,-0.6622222222222223,-0.0007171763342336197,0.02636676600404636,-0.3046822942772925
1590503710.1542335,-2.619418072338846,-0.7782542170165382,8.948254217016537,0.2888888888888889,-0.37666666666666665,-0.6622222222222223,0.008207121622850805,0.030670218831095348,-0.36461978279977514
1590503710.1642334,-2.6107689611085907,-0.7523068833257722,8.922306883325772,0.2888888888888889,-0.37666666666666665,-0.6622222222222223,0.01669836671692924,0.032557162185335005,-0.4174541967184855
1590503710.1742334,-2.6270248596631918,-0.75,8.996611868484361,0.2888888888888889,-0.37666666666666665,-0.6622222222222223,0.02209610276701622,0.03922485782079578,-0.4760081116921744
1590503710.1842334,-2.6034317102690623,-0.7629848245042361,8.98253793873941,0.31555555555555553,-0.38333333333333336,-0.67,0.025089107997418484,0.04651482822961844,-0.5593837328044466
1590503710.1942334,-2.677434689507495,-0.7825653104925053,8.92589079229122,0.31555555555555553,-0.38333333333333336,-0.67,0.024389528084446988,0.056583284707221404,-0.622252857535974
1590503710.2042334,-2.662676579925651,-0.8008921933085502,8.839814126394051,0.31555555555555553,-0.38333333333333336,-0.67,0.018564398967541917,0.05572969309980964,-0.6832453074797226
1590503710.2142334,-2.683842453195176,-0.8079474843983919,8.91742232838231,0.31555555555555553,-0.38333333333333336,-0.67,0.010098657397242377,0.05649930596983686,-0.7294220796813564
1590503710.2242334,-2.7426762309599715,-0.8476258792571226,9.10555386873134,0.31555555555555553,-0.38333333333333336,-0.67,0.0035314687462587686,0.059185808728545564,-0.7912870543084403
1590503710.2342334,-2.7287952070245227,-0.86,9.144397603512262,0.3311579520432942,-0.3781325345040871,-0.6587316025366332,0.0038836190019468993,0.069356458940552,-0.8557205660005661
1590503710.2442334,-2.7649129232560394,-0.8829477539536238,9.155435383719801,0.33555555555555555,-0.37666666666666665,-0.6555555555555556,0.008171732269448262,0.07830645242440529,-0.9350685446818949
1590503710.2542334,-2.7973934798421762,-0.9089494566535147,8.93,0.33555555555555555,-0.37666666666666665,-0.6555555555555556,0.014465127414789117,0.08640482482135864,-0.9935046657731044
1590503710.2642334,-2.689485675960525,-0.9007714860592124,8.929228513940787,0.33555555555555555,-0.37666666666666665,-0.6555555555555556,0.02629214687880238,0.0883853454069348,-1.0487684645810218
1590503710.2742333,-2.6734109418415253,-0.924883587237712,8.905116412762288,0.33555555555555555,-0.37666666666666665,-0.6555555555555556,0.029799109838292568,0.08926208614680733,-1.0978659460138847
1590503710.2842333,-2.688415699786214,-0.9561205089354282,8.879234936383073,0.35,-0.3688888888888889,-0.6844444444444444,0.0224842596050601,0.0954030110435399,-1.17488457082144
1590503710.2942333,-2.7841779613524564,-1.0257657900745139,8.870529276240685,0.35,-0.3688888888888889,-0.6844444444444444,0.03008138125727353,0.10110085228269997,-1.2252155017673538
1590503710.3042333,-2.705791151543426,-1.07,8.814136536816733,0.35,-0.3688888888888889,-0.6844444444444444,0.03318403762042305,0.10590871911227584,-1.2858774501905477
1590503710.3142333,-2.762863113288236,-1.07,8.85490222377731,0.35,-0.3688888888888889,-0.6844444444444444,0.026958452351553176,0.09612565654690888,-1.3267884391002644
1590503710.3242333,-2.8859372367312552,-1.1859372367312553,9.060957877000842,0.35,-0.3688888888888889,-0.6844444444444444,0.019434983757833237,0.10501971061031425,-1.372374115560663
1590503710.3342333,-2.973036397800821,-1.2468318950518478,9.11455459670123,0.3422222222222222,-0.3422222222222222,-0.6766666666666666,0.03298770521013005,0.11462003706685388,-1.4309469087416649
1590503710.3442333,-3.0022263205511863,-1.3125092212401699,9.158339480826779,0.3422222222222222,-0.3422222222222222,-0.6766666666666666,0.025027388641432016,0.11541606872372369,-1.470748491585155
1590503710.3542333,-2.9941103037372128,-1.35,8.975696451933231,0.3422222222222222,-0.3422222222222222,-0.6766666666666666,0.02464074341322228,0.11955356133357507,-1.5271947150245218
1590503710.3642333,-2.9478323849754897,-1.35,8.863307220654761,0.3422222222222222,-0.3422222222222222,-0.6766666666666666,0.029688881246738068,0.1332556497388322,-1.5531565667397458
1590503710.3742332,-2.9440925986662294,-1.3781851973324586,8.876370394664917,0.3422222222222222,-0.3422222222222222,-0.6766666666666666,0.028559564606298927,0.13622961331247618,-1.5939057921784043
1590503710.3842332,-2.8909744075829384,-1.3973781990521326,8.907378199052133,0.385671616640337,-0.3332044233807267,-0.6914230647709321,0.03049011622059241,0.1223856303968365,-1.6357678625409084
1590503710.3942332,-2.879832197669235,-1.4393287906769408,8.94932879067694,0.4011111111111111,-0.33,-0.6966666666666667,0.027343987141520566,0.14140530503943885,-1.6825295479696036
1590503710.4042332,-2.9500300591934887,-1.5900060118386978,8.869987976322603,0.4011111111111111,-0.33,-0.6966666666666667,0.03164196217085031,0.13854141148588972,-1.7137108982588387
1590503710.4142332,-2.9985213189049205,-1.5997042637809842,8.850591472438031,0.4011111111111111,-0.33,-0.6966666666666667,0.04433694427691269,0.14806264806543654,-1.7391008624709632
1590503710.4242332,-2.982669621547903,-1.660656324582339,8.91065632458234,0.4011111111111111,-0.33,-0.6966666666666667,0.03905270899599655,0.13606505473240868,-1.768231863513638
1590503710.4342332,-2.9314120482763406,-1.7712268502462372,9.116689845321496,0.4666666666666667,-0.2911111111111111,-0.6966666666666667,0.032283033728242164,0.13686896024649106,-1.8146601283850323
1590503710.4442332,-2.8804997572310467,-1.7785000346812792,8.978499341055697,0.4666666666666667,-0.2911111111111111,-0.6966666666666667,0.04259699123731539,0.14638953640871252,-1.8376681874437342
1590503710.4542332,-2.8711690344567953,-1.8523380689135907,8.885611365392618,0.4666666666666667,-0.2911111111111111,-0.6966666666666667,0.03825559051365224,0.1482509689178163,-1.8792267474725104
1590503710.4642332,-2.912722265152866,-1.9354445303057322,9.085066872733757,0.4666666666666667,-0.2911111111111111,-0.6966666666666667,0.04097524310297928,0.14462476546538022,-1.908236375091999
1590503710.4742332,-2.5315672365399338,-1.8352357744322532,8.802191375350855,0.4666666666666667,-0.2911111111111111,-0.6966666666666667,0.06360027780801376,0.14495265059706036,-1.9422068117246292
1590503710.4842331,-2.748630225975593,-2.053968261333581,9.045961208296598,0.47340649312483574,-0.2622261405761011,-0.6966666666666667,0.022113530566644085,0.18478134898600457,-1.985742970887653
1590503710.4942331,-2.733995082446397,-2.0775544627658658,8.872203098402656,0.4744444444444445,-0.2577777777777778,-0.6966666666666667,0.030884002342604445,0.16102824167354157,-2.016293764053987
1590503710.5042331,-2.70828666251815,-2.186013275254097,8.731713337481851,0.4744444444444445,-0.2577777777777778,-0.6966666666666667,0.022282045834454155,0.17092080683980354,-2.0636685646206474
1590503710.514233,-2.721647805104213,-2.242589408020906,8.863531010937598,0.4744444444444445,-0.2577777777777778,-0.6966666666666667,0.03802500797041339,0.15411527916592546,-2.1050599612289576
1590503710.524233,-2.7835223704453016,-2.339820867842617,8.996119365239931,0.4744444444444445,-0.2577777777777778,-0.6966666666666667,0.03223974963947214,0.16568579582780793,-2.1368788820491345
1590503710.534233,-2.7214103061713737,-2.3671474234571566,8.924262882714217,0.5030234835397054,-0.22538820013648206,-0.7395352253095581,0.04379230196831654,0.17531433152836343,-2.1645264138098854
1590503710.544233,-2.6036333647502357,-2.4160556079170594,8.807266729500473,0.5077777777777778,-0.22,-0.7466666666666667,0.052658031119607415,0.16967327920398986,-2.2045011557875953
1590503710.554233,-2.645988622593241,-2.486647704322068,8.891977245186482,0.5077777777777778,-0.22,-0.7466666666666667,0.04341754730846251,0.17660364206234855,-2.2291424459506484
1590503710.564233,-2.6695378551039823,-2.6053785510398257,8.80554573875221,0.5077777777777778,-0.22,-0.7466666666666667,0.04764366911485948,0.19242169005975845,-2.264344818360911
1590503710.574233,-2.6295085107656697,-2.6747863827749288,8.832393191387464,0.5077777777777778,-0.22,-0.7466666666666667,0.051530103460718575,0.18689333769784228,-2.2886236039458234
1590503710.584233,-2.6379039459832287,-2.773144081025157,8.906855918974843,0.4922222222222222,-0.16666666666666666,-0.7533333333333333,0.04041789995845061,0.19382491324787873,-2.324898591869495
1590503710.594233,-2.6074519911424114,-2.8188220132863835,8.861177986713617,0.4922222222222222,-0.16666666666666666,-0.7533333333333333,0.0412483482016395,0.18884222378874538,-2.345659797949217
1590503710.604233,-2.504876437558178,-2.7824382187790886,8.80243821877909,0.4922222222222222,-0.16666666666666666,-0.7533333333333333,0.03730102133277479,0.18554762038834513,-2.3808318121950185
1590503710.614233,-2.3252246877902776,-2.7716773660852514,8.725096294767262,0.4922222222222222,-0.16666666666666666,-0.7533333333333333,0.03799610513144519,0.1890726671306602,-2.399623740977008
1590503710.624233,-2.332027490554782,-2.938109962219129,8.903326456551998,0.4922222222222222,-0.16666666666666666,-0.7533333333333333,0.03634528217104653,0.18613696572172447,-2.4214381660029862
1590503710.634233,-2.34,-3.018523587096069,8.910885847742358,0.5105533551251817,-0.10412515440951074,-0.7598031449461425,0.025411211326075007,0.1843826125747667,-2.4344444135362986
1590503710.644233,-2.3038056264172337,-3.0634332482993196,8.91,0.5111111111111111,-0.10222222222222224,-0.76,0.04009224400317659,0.20251209319623983,-2.430786112846364
1590503710.654233,-2.2804062170130672,-3.2430943107778547,8.718124340261348,0.5111111111111111,-0.10222222222222224,-0.76,0.052094009146493286,0.2021138745774037,-2.4282336332393335
1590503710.664233,-2.2675272660617725,-3.25,8.784836403629365,0.5111111111111111,-0.10222222222222224,-0.76,0.04691762071114717,0.20180369476184434,-2.4288696039431965
1590503710.674233,-2.2045784290175354,-3.25,8.774578429017536,0.5111111111111111,-0.10222222222222224,-0.76,0.052701564646155934,0.20936063921709241,-2.4194561248277853
1590503710.684233,-2.014753189344294,-3.2226406607468303,8.686900228779713,0.5455555555555556,-0.04777777777777778,-0.7677777777777778,0.040929312661249294,0.2128196940510858,-2.4074635369696784
1590503710.694233,-2.087940788708364,-3.2633004381713135,8.947122804296406,0.5455555555555556,-0.04777777777777778,-0.7677777777777778,0.01609166803976402,0.18088557953774756,-2.4074635369696784
1590503710.704233,-2.0808040329503736,-3.301993278416044,8.983601344316792,0.5455555555555556,-0.04777777777777778,-0.7677777777777778,0.005717273080204944,0.19586532268086565,-2.394899805915166
1590503710.714233,-1.9942524992426538,-3.303167222053923,8.76959027567404,0.5455555555555556,-0.04777777777777778,-0.7677777777777778,0.04257742870971095,0.21184827675895368,-2.363958356844681
1590503710.724233,-1.9726507853097448,-3.4249366497343376,8.979873299468675,0.5455555555555556,-0.04777777777777778,-0.7677777777777778,0.030136341966573277,0.19347180351967577,-2.3514502329285283
1590503710.734233,-1.8560852661214642,-3.37507105510122,8.861156321222683,0.5571579821542954,-0.027737222743590893,-0.8025850575739971,0.01048127660296568,0.2072423468559938,-2.32163530675104
1590503710.744233,-1.6320401247641418,-3.1364715622472947,8.764372906157341,0.5577777777777778,-0.02666666666666667,-0.8044444444444444,0.026800144275065323,0.19221514558585573,-2.295572206882696
1590503710.754233,-1.6572063037249283,-3.331618911174785,8.591749283667623,0.5577777777777778,-0.02666666666666667,-0.8044444444444444,0.019267541023381886,0.20759963190087677,-2.2505120534652097
1590503710.7642329,-1.573843770352681,-3.236860605103712,8.740122560145258,0.5577777777777778,-0.02666666666666667,-0.8044444444444444,0.019873835025206996,0.20326871350602488,-2.2150763928127875
1590503710.7742329,-1.480714469818032,-3.15294654363627,8.666607557090572,0.5577777777777778,-0.02666666666666667,-0.8044444444444444,0.019109022835454823,0.19101229178748086,-2.1657667226578696
1590503710.7842329,-1.478230503243506,-3.2311525162175294,8.820535535678564,0.573982669549783,-0.01451299783766277,-0.7710218551646837,0.026498680949806813,0.22341840400254218,-2.088572672686571
1590503710.7942328,-1.445852543676519,-3.3339055048895725,8.814389407757389,0.5755555555555556,-0.013333333333333334,-0.7677777777777778,0.01888972284954999,0.19523107073289744,-2.0460780946966683
1590503710.8042328,-1.5214791533033996,-3.4676921103271328,8.665148171905068,0.5755555555555556,-0.013333333333333334,-0.7677777777777778,0.010540406076769156,0.1749912280618673,-1.9993637998154956
1590503710.8142328,-1.4752597988008185,-3.485474020119918,8.671896080479673,0.5755555555555556,-0.013333333333333334,-0.7677777777777778,0.004443370356737615,0.16269388104547552,-1.9664675988621223
1590503710.8242328,-1.384870336488744,-3.4941026966828415,8.722821573462731,0.5755555555555556,-0.013333333333333334,-0.7677777777777778,-0.0049228826161785205,0.15828248816488985,-1.9199453496784515
1590503710.8342328,-1.3459632324779778,-3.569235286607941,8.80461764330397,0.5784403591642198,0.01936110756486091,-0.7495073549229045,0.0002735084459112771,0.14961065178358357,-1.8399347650520521
1590503710.8442328,-1.365864011942056,-3.6355240417971952,8.802067994028972,0.5788888888888889,0.024444444444444446,-0.7466666666666667,-0.0038750718311071366,0.15418413666113587,-1.7893333331933314
1590503710.8542328,-1.3502101824457595,-3.65,8.793403394148585,0.5788888888888889,0.024444444444444446,-0.7466666666666667,0.0010220487379640434,0.14087766237928512,-1.7492710525783506
1590503710.8642328,-1.2304771886559802,-3.501361898890259,8.758707768187422,0.5788888888888889,0.024444444444444446,-0.7466666666666667,0.013750318801383655,0.13137462897885893,-1.6849258760838126
1590503710.8742328,-1.2517186544342507,-3.634550458715596,8.769394495412843,0.5788888888888889,0.024444444444444446,-0.7466666666666667,0.007194812940942983,0.12807887888526584,-1.6380081823664412
1590503710.8842328,-1.2318361472849169,-3.73,8.563262662782126,0.6074304312385678,0.07974368274694717,-0.810885136953444,0.013565027746461157,0.1247850836647476,-1.572598960176523
1590503710.8942327,-1.273434511842299,-3.860617695614508,8.830607071053793,0.6144444444444445,0.09333333333333334,-0.8266666666666667,0.006000148783624442,0.12111648640652645,-1.5292442663313475
1590503710.9042327,-1.2315278906277598,-3.877564206733317,8.826656304094394,0.6144444444444445,0.09333333333333334,-0.8266666666666667,0.015370667769555106,0.11494979563962132,-1.4693374647693425
1590503710.9142327,-1.1985517893804596,-3.9845982448371644,8.778942876695785,0.6144444444444445,0.09333333333333334,-0.8266666666666667,0.018085193609276413,0.10695907381670929,-1.4078336027574343
1590503710.9242327,-1.1533209118807541,-3.9477487943884264,8.732939500219201,0.6144444444444445,0.09333333333333334,-0.8266666666666667,0.021333608595864487,0.10568983413864007,-1.3461978075424408
1590503710.9342327,-1.0635467217346413,-3.87,8.630482705214249,0.5824542534274079,0.04754345207365342,-0.7815040440543797,0.02802736799105569,0.1124437043180749,-1.2905398231047147
1590503710.9442327,-1.0599202074606024,-4.02968082984241,8.833818357983528,0.5577777777777778,0.012222222222222223,-0.7466666666666667,0.017010662229784368,0.10178877104997684,-1.2361255507864821
1590503710.9542327,-0.9734855295323713,-3.9434516205346584,8.814043845122624,0.5577777777777778,0.012222222222222223,-0.7466666666666667,0.009946680404609077,0.09169438741077278,-1.1904082954154331
1590503710.9642327,-0.9246552708466266,-3.869310541693253,8.512471034691204,0.5577777777777778,0.012222222222222223,-0.7466666666666667,0.020610866099098332,0.08874597305452,-1.1441978569375688
1590503710.9742327,-0.8730186702815946,-3.7908891490541623,8.417574095754514,0.5577777777777778,0.012222222222222223,-0.7466666666666667,0.01601401964141741,0.079398352391555,-1.100132183456109
1590503710.9842327,-0.8633059018608364,-3.8299177055825093,8.821406067677946,0.5208875650815097,0.07076538584890855,-0.6849156584576962,0.017690712178063263,0.07841661804649352,-1.0406794972867668
1590503710.9942327,-0.9081668665410314,-3.9081668665410314,8.75466506767175,0.5066666666666667,0.09333333333333334,-0.6611111111111111,0.013812595726811705,0.06657240096773503,-0.9889560269343316
1590503711.0042326,-0.8531464561107003,-3.734295711418612,8.734281715432555,0.5066666666666667,0.09333333333333334,-0.6611111111111111,0.02063176163742135,0.05703508473127787,-0.9271151953424608
1590503711.0142326,-0.7766745517339263,-3.67,8.683820788191323,0.5066666666666667,0.09333333333333334,-0.6611111111111111,0.026491236091738694,0.05230842473823037,-0.858491566971391
1590503711.0242326,-0.7508683818473527,-3.61977610016044,8.737618754297502,0.5066666666666667,0.09333333333333334,-0.6611111111111111,0.023784402001192532,0.0557515193560434,-0.808751846001312
1590503711.0342326,-0.74,-3.5663397658968683,8.815735526732047,0.502087946852262,0.10724559738479385,-0.6551235544307357,0.019807844379789333,0.05814738880729843,-0.758489393673961
1590503711.0442326,-0.5897797382795614,-3.409179667544308,9.040440523440877,0.4777777777777778,0.1811111111111111,-0.6233333333333333,0.021168662936728144,0.04431391279454371,-0.6741508274928069
1590503711.0542326,-0.463272036199095,-3.151198190045249,8.73382371040724,0.4777777777777778,0.1811111111111111,-0.6233333333333333,0.06713894658968123,0.10795212858660556,-0.5901343594963404
1590503711.0642326,-0.5800143857293565,-3.3347770211949745,7.235697707873789,0.4777777777777778,0.1811111111111111,-0.6233333333333333,0.15377104782025566,0.16965478685119978,-0.5105401910011628
1590503711.0742326,-0.5944662773812833,-3.4214944233324065,8.262015942163314,0.4777777777777778,0.1811111111111111,-0.6233333333333333,-0.026605729125206812,-0.031527965274530834,-0.5255224150892412
1590503711.0842326,-0.5799637666889843,-3.4150588791304006,8.9491938088299,0.4838944245336274,0.21725493285022252,-0.6205530393534017,-0.15645763874191398,-0.1171719208076385,-0.5153735738223294
1590503711.0942326,-0.54,-3.3583635029354206,8.276242661448142,0.49,0.2533333333333333,-0.6177777777777778,0.08427841878797591,0.02011099178453838,-0.41527591674672876
1590503711.1042325,-0.5456554799420975,-3.4470424784945344,8.900304154672968,0.49,0.2533333333333333,-0.6177777777777778,0.04081319932036365,0.006242388551723533,-0.3732437396239639
1590503711.1142325,-0.5726373547810545,-3.6165933869526365,8.84725290437891,0.49,0.2533333333333333,-0.6177777777777778,-0.026719368736842768,0.012178935595417807,-0.3284899158512593
1590503711.1242325,-0.59,-3.7097236416727504,8.860496402127438,0.49,0.2533333333333333,-0.6177777777777778,8.73665701279884e-05,0.019990563327410286,-0.2846797596955197
1590503711.1342325,-0.5382764616387742,-3.629163846368802,8.902662154190082,0.49164201709083255,0.2730375384233241,-0.6235248375956918,0.015932456222665117,0.0036540985332995206,-0.24610892822134214
1590503711.1442325,-0.44979459861825116,-3.5275951987717784,8.637184396008282,0.4922222222222222,0.28,-0.6255555555555555,0.02048586756187766,0.018960013798266985,-0.20437556767795573
1590503711.1542325,-0.524606872451951,-3.604606872451951,8.532696563774024,0.4922222222222222,0.28,-0.6255555555555555,0.011880062978320874,-0.005487462415450603,-0.1805158402516793
1590503711.1642325,-0.57,-3.697249327698809,8.840745293891663,0.4922222222222222,0.28,-0.6255555555555555,0.017207719397183817,0.00760815707115757,-0.13662707934113408
1590503711.1742325,-0.5659555641582215,-3.7604443584177853,8.842267002170637,0.4922222222222222,0.28,-0.6255555555555555,0.020493077115715918,0.011019835616535868,-0.1043416314157685
1590503711.1842325,-0.5601566453289829,-3.8184335467101715,8.61610916783033,0.4922222222222222,0.28,-0.6255555555555555,0.01859538536647638,-0.00289657054455408,-0.0834670221741336
1590503711.1942325,-0.5966050034257356,-3.842840027405885,8.865495065088977,0.4888888888888889,0.29444444444444445,-0.6344444444444445,0.0131101486383643,-0.002222020061806569,-0.0335736032765082
1590503711.2042325,-0.5857146272326764,-3.781429254465353,8.832135514497455,0.4888888888888889,0.29444444444444445,-0.6344444444444445,0.014102976822683255,-0.00794736965369929,0.0007784942748481419
1590503711.2142324,-0.5396033067801032,-3.57901860063808,8.839435961233622,0.4888888888888889,0.29444444444444445,-0.6344444444444445,0.028054183800168754,-0.019307028511900873,0.04821291701757963
1590503711.2242324,-0.5228288984688568,-3.464144492344284,8.638137654229226,0.4888888888888889,0.29444444444444445,-0.6344444444444445,0.03632756766914427,-0.02802000020719312,0.09353081822494817
1590503711.2342324,-0.5742801145480025,-3.7607002863700063,8.992022462782055,0.49150886979755515,0.3023043871704432,-0.6313878000510005,-0.016209682951653728,-0.020802174260329216,0.15533521620098353
1590503711.2442324,-0.5735597592433362,-3.7329836629406707,8.587798796216681,0.4955555555555556,0.3144444444444445,-0.6266666666666667,-0.007864674214301624,-0.015208788596887388,0.21415081120275864
1590503711.2542324,-0.5905848631453376,-3.704094042017364,8.592895652462058,0.4955555555555556,0.3144444444444445,-0.6266666666666667,0.006605656690088429,-0.02868684706042588,0.25269307618282705
1590503711.2642324,-0.58,-3.611789707542703,8.602966456641292,0.4955555555555556,0.3144444444444445,-0.6266666666666667,0.00040412028697796396,-0.036185809294743396,0.28532668133317063
1590503711.2742324,-0.6000919012062033,-3.6051148765077543,8.859954049396897,0.4955555555555556,0.3144444444444445,-0.6266666666666667,0.0005078221419950475,-0.035499618546855516,0.3273143963809757
1590503711.2842324,-0.6312535404003436,-3.6525070808006874,8.703703974795532,0.49930673568900347,0.3213216080224323,-0.6391706004448263,0.0021847511471347267,-0.039677038724469954,0.36475388065483927
1590503711.2942324,-0.6594547795893025,-3.7932136040655826,8.69375882447628,0.5022222222222222,0.32666666666666666,-0.6488888888888888,-0.002208250675059052,-0.03066221055134759,0.4033960813508612
1590503711.3042324,-0.682641138114997,-3.8283971547125075,8.58566520450504,0.5022222222222222,0.32666666666666666,-0.6488888888888888,-0.00458984348548325,-0.035945738764803246,0.43519971122109524
1590503711.3142323,-0.702350439334455,-3.8655769770050474,8.71230790802019,0.5022222222222222,0.32666666666666666,-0.6488888888888888,-0.003528885505330772,-0.04507602274355138,0.46946981583912156
1590503711.3242323,-0.7182475290627368,-3.9123712935941053,8.817009883749053,0.5022222222222222,0.32666666666666666,-0.6488888888888888,-0.006162654846219317,-0.045297556855493824,0.4998818550210897
1590503711.3342323,-0.7215826539595055,-3.8984349523481456,8.759478317449382,0.5181216536320452,0.3304077093513309,-0.6516946709023871,-0.009415288772563852,-0.043976592281036744,0.5293374632032338
1590503711.3442323,-0.7131428648986129,-3.814714297347919,8.731571432449307,0.5777777777777777,0.34444444444444444,-0.6622222222222223,-0.0069501487221482845,-0.05345070834232633,0.569803257230633
1590503711.3542323,-0.7412221231043711,-3.8568331846565567,8.751222123104371,0.5777777777777777,0.34444444444444444,-0.6622222222222223,-0.00816906727837444,-0.05589899580776887,0.6013445527600624
1590503711.3642323,-0.7600320588373957,-3.834887794069115,8.694791617556929,0.5777777777777777,0.34444444444444444,-0.6622222222222223,-0.008716155029966966,-0.06000268719064153,0.6321906431450537
1590503711.3742323,-0.7744691777142735,-3.7776541114286326,8.70597602114265,0.5777777777777777,0.34444444444444444,-0.6622222222222223,-0.011304293860294216,-0.0631523779269333,0.6636696654549211
1590503711.3842323,-0.7690684598776538,-3.706273839510615,8.796356153292551,0.6352695813841909,0.3780488085242493,-0.6751781216264844,-0.017351677255884723,-0.06515398019832758,0.6913088074327253
1590503711.3942323,-0.7720839386602099,-3.523997094430993,8.803250363196126,0.7355555555555555,0.43666666666666665,-0.6977777777777778,-0.010453662937086296,-0.06750427133585662,0.717585113875928
1590503711.4042323,-0.8133156264630677,-3.434385421543559,8.757860409839017,0.7355555555555555,0.43666666666666665,-0.6977777777777778,-0.012594210429331044,-0.07162735834410446,0.7370283411071983
1590503711.4142323,-0.8256373535329624,-3.4769120605988877,8.706175878802226,0.7355555555555555,0.43666666666666665,-0.6977777777777778,-0.02052799190272861,-0.07050841493286153,0.7489836006632122
1590503711.4242322,-0.82,-3.5207195095174555,8.782036583512085,0.7355555555555555,0.43666666666666665,-0.6977777777777778,-0.014396305900878963,-0.065378011706979,0.7491067555336463
1590503711.4342322,-0.8090589350275544,-3.5352946751377723,8.742471480220436,0.9636970214624748,0.5533713597060854,-0.9664417065456063,-0.013295277918012018,-0.06813199112764878,0.7446395960962382
1590503711.4442322,-0.8605235137533275,-3.5430728277933246,8.736471913179987,1.3611111111111112,0.7566666666666667,-1.4344444444444444,-0.014494476377945537,-0.06439460534987457,0.7445383568909825
1590503711.4542322,-0.9250491409014177,-3.614852577295747,8.83980343639433,1.3611111111111112,0.7566666666666667,-1.4344444444444444,-0.02466698274444585,-0.06881882723157937,0.7356742353003515
1590503711.4642322,-0.9539045401629802,-3.595219091967404,8.724381839348078,1.3611111111111112,0.7566666666666667,-1.4344444444444444,-0.023007310149230603,-0.07436768701955257,0.7270148173076637
1590503711.4742322,-0.9923237614389397,-3.6228633638371726,8.640539602398233,1.3611111111111112,0.7566666666666667,-1.4344444444444444,-0.014357384644344329,-0.06622833319077631,0.7275841319251362
1590503711.4842322,-1.0420400068977411,-3.67,8.734080013795483,1.1888960740357533,0.34059157709183574,-1.2769144105305512,-0.017445109878274283,-0.06501842422179019,0.7363216883739998
1590503711.4942322,-1.0753318491721164,-3.6406636983442326,8.859336301655768,0.9311111111111112,-0.2822222222222222,-1.0411111111111109,-0.011369258581391683,-0.07143734987711484,0.7728681042282546
1590503711.5042322,-1.0173020670826833,-3.5556571762870517,8.808485764430577,0.9311111111111112,-0.2822222222222222,-1.0411111111111109,-0.0140013704210819,-0.07157141146680991,0.8189917310806735
1590503711.5142322,-0.9533582255553084,-3.5002240299977756,8.70014935333185,0.9311111111111112,-0.2822222222222222,-1.0411111111111109,-0.009434859540253356,-0.0734682799294773,0.8702469742206228
1590503711.5242321,-0.9726090604026846,-3.5726090604026846,8.773624161073826,0.9311111111111112,-0.2822222222222222,-1.0411111111111109,-0.006197236626733221,-0.08037372983649223,0.9212624185344754
1590503711.5342321,-0.9746562166013537,-3.528624866405415,8.804656216601353,0.8339338162530183,-0.1574261172465661,-0.9500713296124765,-0.01006564396006776,-0.08357263831977872,0.9513544461424114
1590503711.5442321,-0.9754778014644545,-3.39788395588099,8.77788395588099,0.6144444444444445,0.12444444444444445,-0.7444444444444445,-0.012229963213674696,-0.08465479794658218,0.9656160671155772
1590503711.5542321,-1.0112013937986062,-3.402480557519443,8.741123623876376,0.6144444444444445,0.12444444444444445,-0.7444444444444445,-0.013369039622465655,-0.08440409221847729,0.9577324602668642
1590503711.564232,-0.993709944071195,-3.407137430088994,8.656572513982201,0.6144444444444445,0.12444444444444445,-0.7444444444444445,-0.016705531068985084,-0.08471092030924447,0.9425414908639139
1590503711.574232,-1.0459653140362126,-3.459123690879668,8.735435864553754,0.6144444444444445,0.12444444444444445,-0.7444444444444445,-0.016458052233790915,-0.08443408621692768,0.9091982478824897
1590503711.584232,-1.0139487343897897,-3.388687215657537,8.953148606149432,0.6144444444444445,0.12444444444444445,-0.7444444444444445,-0.02414147977207581,-0.08792655327978445,0.8805600179670643
1590503711.594232,-0.99,-3.4474808752890946,8.945706280021348,0.5755555555555556,0.21666666666666667,-0.7233333333333334,-0.02617993877991494,-0.07853981633974483,0.7843073326149518
1590503711.604232,-0.9802529559297742,-3.539241132210677,8.709241132210677,0.5755555555555556,0.21666666666666667,-0.7233333333333334,-0.02166117910310044,-0.07535010362669929,0.772345909941031
1590503711.614232,-0.9121913209173604,-3.6536304244266495,8.79054783022934,0.5755555555555556,0.21666666666666667,-0.7233333333333334,-0.007120279590114278,-0.06029448807617822,0.6841818945538809
1590503711.624232,-0.858461680897027,-3.645385042691081,8.760769468161712,0.5755555555555556,0.21666666666666667,-0.7233333333333334,-0.0057058944512594165,-0.05286335863738416,0.6007963572583037
1590503711.634232,-0.8327587867116032,-3.5682763601348095,8.748103033220993,0.5799807414540202,0.21344834964960147,-0.7366088910287274,-0.005943110801506931,-0.048598428323315866,0.5233550849468408
1590503711.644232,-0.8425305758912085,-3.498457193752308,8.802530575891208,0.5877777777777777,0.20777777777777776,-0.76,-0.010692809918331866,-0.04384872920649093,0.4019449703306043
1590503711.654232,-0.876682584269663,-3.433269662921348,8.773198033707866,0.5877777777777777,0.20777777777777776,-0.76,-0.009445185075970015,-0.03489095796968791,0.280226308075099
1590503711.664232,-0.89,-3.3743279134546866,8.694032519271879,0.5877777777777777,0.20777777777777776,-0.76,-0.0024910258952234934,-0.019341701008084466,0.1382390057841656
1590503711.674232,-0.8938214657465593,-3.3638214657465593,8.802928794479355,0.5877777777777777,0.20777777777777776,-0.76,0.00047922287605298456,-0.005586538942872765,-0.028588101543663615
1590503711.684232,-0.8911029147175243,-3.378897085282476,8.846672813961856,0.5818463875894606,0.18948932469713325,-0.7585171524529207,0.007272875782525287,0.008971288320133906,-0.15092776314416192
1590503711.694232,-0.8531673620769588,-3.3986122701282646,8.835836810384793,0.5611111111111111,0.12555555555555556,-0.7533333333333333,0.010314360493941842,0.01968926805157511,-0.2934485508472807
1590503711.704232,-0.8326473389224548,-3.3573526610775453,8.730589355689819,0.5611111111111111,0.12555555555555556,-0.7533333333333333,0.011421578849798067,0.029003448835400243,-0.4325823299249813
1590503711.714232,-0.8391955099683075,-3.3508044900316927,8.75678203987323,0.5611111111111111,0.12555555555555556,-0.7533333333333333,0.009992989540624452,0.03328921676292109,-0.5204405724391588
1590503711.724232,-1.5937964694323834,-4.390927645548759,6.265442430196812,0.5611111111111111,0.12555555555555556,-0.7533333333333333,-0.18713085741029875,0.34972147935252024,-1.2176722802741364
1590503711.734232,-4.8904288023325835,-8.697818274015148,-4.362208981713309,0.5611111111111111,0.12555555555555556,-0.7533333333333333,-1.0680225213559198,1.6351707963694635,-3.556566525449917
1590503711.744232,-5.826612903225807,-6.7810610862675285,-1.5528986671297704,0.49,0.20555555555555555,-0.64,-2.1681575553947328,-1.2750344887652412,-14.700129112525447
1590503711.754232,0.270228166797797,-7.882501966955154,4.494681353265145,0.49,0.20555555555555555,-0.64,-1.8032857523178571,1.0203258660668069,-14.730636389320281
1590503711.764232,-0.6669726047200839,-6.432067295529293,1.1958442661462287,0.49,0.20555555555555555,-0.64,-1.0342712123376587,2.133064105478431,-13.91109670657079
1590503711.774232,-1.5962804538391628,-6.229355302119675,3.4306930722096807,0.49,0.20555555555555555,-0.64,-0.4494982686074033,2.9752776891296073,-13.282904220144829
1590503711.784232,-4.314117220105244,-7.902050444565415,4.863629105425512,0.46606282384725495,0.26284340410088913,-0.6432274844250893,0.8481249910994033,3.2309148898253306,-12.153936818329752
1590503711.794232,-6.466968296145306,-10.325029665489755,-0.9464874604156809,0.3911111111111111,0.44222222222222224,-0.6533333333333333,2.4804860278548833,1.6500768900162437,-9.74647643798432
1590503711.804232,1.8862677444794953,3.1754505126182964,11.82738268927445,0.3911111111111111,0.44222222222222224,-0.6533333333333333,2.7411339841116757,0.44266319634419693,-4.102188628496628
1590503711.8142319,2.166568425254474,3.4762191470960015,11.560512939924156,0.3911111111111111,0.44222222222222224,-0.6533333333333333,2.3868260723113,0.05657087191511942,-3.2819227976831193
1590503711.8242319,0.1747814569536424,0.7959147710912756,-2.381840483731644,0.3911111111111111,0.44222222222222224,-0.6533333333333333,1.2649959095829308,0.015673664759037767,-2.925816588055801
1590503711.8342319,0.3417621387581183,0.870152915707364,1.5609460156008386,0.33669545529172346,0.4774478158444345,-0.6504416801255398,0.011652558716221562,0.23690362385094288,-2.5862198563856214
1590503711.8442318,1.0418156998031702,1.1399263476475694,15.513077737094967,0.16111111111111112,0.5911111111111111,-0.6411111111111111,-1.3626778463630744,0.21825160094734342,-2.191320204477261
1590503711.8542318,0.7230079575596816,-0.4461629405077681,17.899655172413794,0.16111111111111112,0.5911111111111111,-0.6411111111111111,-1.2466331635208059,0.2526987424137504,-1.9380592517940483
1590503711.8642318,1.0935161657251924,-0.6347679731631611,7.116075883475679,0.16111111111111112,0.5911111111111111,-0.6411111111111111,0.1445204730015029,0.11936541336950678,-1.7447263076820396
1590503711.8742318,1.2355739223483941,0.37014948972258155,8.142701355948445,0.16111111111111112,0.5911111111111111,-0.6411111111111111,0.8731864435685529,0.3510692870120926,-1.615472043399133
1590503711.8842318,0.7800576557583888,0.3098605720856691,4.364595850701931,0.16111111111111112,0.5911111111111111,-0.6411111111111111,0.6627384205229927,0.12966042943290929,-1.4883263628091066
1590503711.8942318,1.3631731269736616,-0.5247596904604921,7.596188361036888,0.10666666666666667,0.5722222222222222,-0.6488888888888888,-0.40940877565214906,-0.06374374172724867,-1.1291242538396462
1590503711.9042318,1.916261234687858,-1.354391852031787,11.518747440746782,0.10666666666666667,0.5722222222222222,-0.6488888888888888,-0.39988258302066443,0.22362973598920488,-0.948920443227395
1590503711.9142318,8.454124346085122,-7.566750554347592,7.007552044089471,0.10666666666666667,0.5722222222222222,-0.6488888888888888,0.18569252966394234,-0.10779557338470942,-0.770483809993571
1590503711.9242318,16.029887408236632,-14.952893802071,8.18138899054918,0.10666666666666667,0.5722222222222222,-0.6488888888888888,0.08128599710088923,-0.40328575988391635,-0.6434230297989121
1590503711.9342318,-1.1877172982128923,1.728848942770683,9.08538987115315,0.1028751054691713,0.5722222222222222,-0.6514165963538858,0.14114052364966642,0.28549393560486525,-0.3932409989077816
1590503711.9442317,0.1693255048246196,-0.6340020554593377,6.834295339055631,0.08690989602167115,0.5722222222222222,-0.662060069318886,0.041873074737949004,0.5092810792040878,-0.23476138748732045
1590503711.9542317,3.0260076115197423,-4.05638452812237,10.556958685549091,0.08666666666666667,0.5722222222222222,-0.6622222222222223,-0.2455897709062219,-0.13347725913861894,-0.02459137428984179
1590503711.9642317,6.31274108665036,-6.361173745459936,8.280318731005856,0.08666666666666667,0.5722222222222222,-0.6622222222222223,-0.07281612833687252,-0.14688710422610984,0.08559197145079421
1590503711.9742317,2.5743021415549814,-3.2829314662339484,7.784054530520664,0.08666666666666667,0.5722222222222222,-0.6622222222222223,0.017593806611965097,0.05333093264429034,0.1596738331292707
1590503711.9842317,2.8478982974766742,-3.4249905415370803,8.10607521882715,0.07633396389752797,0.5770441501811536,-0.6601556816683946,0.02536233157216799,-0.021740195589659318,0.19939277301604202
1590503711.9942317,2.817460860502526,-3.7029091238643317,8.852683462854294,0.05333333333333334,0.5877777777777777,-0.6555555555555556,0.006544984694978735,-0.02248410908567836,0.1811832437593096
1590503712.0042317,2.6274026327117834,-3.565116908716043,8.529584475610033,0.05333333333333334,0.5877777777777777,-0.6555555555555556,0.006544984694978735,-0.019374288605565382,0.12987120583744544
1590503712.0142317,2.516569965171071,-3.4635750870723214,8.303720139315715,0.05333333333333334,0.5877777777777777,-0.6555555555555556,0.0008116084961512244,-0.016378284482663135,0.09315806625070697
1590503712.0242317,2.462901161692482,-3.438657914620325,8.384197676615036,0.05333333333333334,0.5877777777777777,-0.6555555555555556,-0.01090830782496456,-0.01205582822193671,0.08125038350821727
1590503712.0342317,2.23879619151676,-3.4682912553166583,8.846077574433215,0.05997845154632918,0.5875879172574064,-0.6530873687907285,-0.008485171134943263,-0.005854484169998928,0.07489453373225219
1590503712.0442317,2.3288131658016935,-3.460107894018028,8.73151051625239,0.09180263437433608,0.586678654890892,-0.6412669580260402,0.0031194899965437447,-0.012995814097067855,0.07310920125048496
1590503712.0542316,2.2377975326560233,-3.428022496371553,8.880374939525883,0.09222222222222222,0.5866666666666667,-0.6411111111111111,0.004143520991180902,0.0067770567010758875,0.05978407081002832
1590503712.0642316,2.4,-3.41,8.58,0.09222222222222222,0.5866666666666667,-0.6411111111111111,0.00545415391248228,-0.004363323129985824,0.0545415391248228
1590503712.0742316,2.2677648846221596,-3.41,8.735570723973929,0.09222222222222222,0.5866666666666667,-0.6411111111111111,-0.003030912815818825,0.00157622357982495,0.05199601910633247
1590503712.0842316,2.317569548770113,-3.478177161577585,8.836961935962641,0.09046689633397084,0.5874768170766288,-0.6428664369993624,-0.007569535202052277,-0.009220954563661874,0.04588117314027407
1590503712.0942316,2.2872030262991183,-3.455402269724339,8.799003782873898,0.06853551899380783,0.5975989912336271,-0.6647978143395256,-0.006741416765333986,-0.0017678886331972555,0.04670929157699236
1590503712.1042316,2.3464831597808304,-3.391398374405983,8.806652730530525,0.06333333333333334,0.6,-0.67,0.00505202885630529,-0.002047619879600582,0.058599784285308314
1590503712.1142316,2.244127996164909,-3.339786673058485,8.63412799616491,0.06333333333333334,0.6,-0.67,0.0019681494803844256,-0.0038664878824067814,0.07498400082928489
1590503712.1242316,2.22511513993618,-3.3919353265177534,8.635575699680901,0.06333333333333334,0.6,-0.67,-0.0018850370037234241,-0.016015597901505356,0.09080030559585259
1590503712.1342316,2.2506982127974813,-3.45,8.761396425594961,0.06321696453375313,0.5995733144015392,-0.6697284728009796,-0.01617205373439046,-0.01971111728615876,0.10894428748243105
1590503712.1442316,2.311612923076923,-3.439049230769231,8.734295384615384,0.06,0.5877777777777777,-0.6622222222222223,-0.00995267293144951,-0.020383163309656546,0.13717428681659063
1590503712.1542315,2.4374656869541105,-3.4032191875779843,8.51609593788992,0.06,0.5877777777777777,-0.6622222222222223,-0.005491508023570124,-0.014101101320051927,0.14328734550859307
1590503712.1642315,2.2477221638041827,-3.434555672391635,8.681889706741442,0.06,0.5877777777777777,-0.6622222222222223,0.001533178659571897,-0.004114849745997614,0.1362023116746124
1590503712.1742315,2.2416894560923732,-3.448310543907627,8.796757824369491,0.06,0.5877777777777777,-0.6622222222222223,-0.004547614201109503,-0.004931111987602484,0.1325433978954422
1590503712.1842315,2.249654930112428,-3.440345069887572,8.828619720449712,0.06,0.5877777777777777,-0.6622222222222223,-0.005416512626934648,-0.012751197820028794,0.13515009317291765
1590503712.1942315,2.2235316622691297,-3.4488227792436237,8.821177220756377,0.08352741131632953,0.606403645069872,-0.674966236685234,-0.008341401668316897,-0.008277889796899775,0.1410375125412298
1590503712.2042315,2.2380839271575614,-3.4679790182106096,8.628188836104512,0.08666666666666667,0.6088888888888889,-0.6766666666666666,-0.0013112856971696312,-0.010246943080945033,0.159516080531764
1590503712.2142315,2.237983835925958,-3.46337012253411,8.723590857738767,0.08666666666666667,0.6088888888888889,-0.6766666666666666,-0.001078791544695374,-0.00837106215767355,0.17583164612758115
1590503712.2242315,2.0994738854610238,-3.4779501173198923,8.825650821239245,0.08666666666666667,0.6088888888888889,-0.6766666666666666,0.00369250059159546,-0.011551923581867438,0.1861694457562113
1590503712.2342315,2.2595616317042118,-3.4301217689710524,8.820048707588422,0.08666666666666667,0.6088888888888889,-0.6766666666666666,-0.007606593022240327,-0.01852818378140255,0.21591542367647043
1590503712.2442315,2.2923099308839574,-3.4676900691160424,8.717690069116044,0.08666666666666667,0.5955555555555555,-0.6755555555555556,-0.01153745013331237,-0.027942172139342643,0.23947882340648818
1590503712.2542315,2.257320774179538,-3.498928309671815,8.746249083851353,0.08666666666666667,0.5955555555555555,-0.6755555555555556,-0.013596283772810068,-0.02606303549998617,0.24752143472359361
1590503712.2642314,2.204806535244338,-3.48,8.70596732377831,0.08666666666666667,0.5955555555555555,-0.6755555555555556,-0.0025171335177178165,-0.022676399262821813,0.2667714375136248
1590503712.2742314,2.1773840761463763,-3.48,8.831307961926813,0.08666666666666667,0.5955555555555555,-0.6755555555555556,0.00037744821644649545,-0.016790491277076814,0.2760307692947868
1590503712.2842314,2.163896713615024,-3.48,8.838051643192488,0.08666666666666667,0.5955555555555555,-0.6755555555555556,-0.003300659339525661,-0.018997355810660112,0.2819157413843423
1590503712.2942314,2.17,-3.504461780929866,8.722152876280536,0.08,0.5822222222222222,-0.6588888888888889,-0.006788337094131412,-0.02630161497949128,0.2971926776373414
1590503712.3042314,2.17,-3.537513790386131,8.589944838455477,0.08,0.5822222222222222,-0.6588888888888889,-0.00859104456104429,-0.02720296871294772,0.3007980925711672
1590503712.3142314,2.195216150081566,-3.5371296900489395,8.7,0.08,0.5822222222222222,-0.6588888888888889,-0.004619214592502937,-0.021607880819934283,0.30746275661648087
1590503712.3242314,2.152452079934747,-3.511471247960848,8.7,0.08,0.5822222222222222,-0.6588888888888889,0.002844523663655114,-0.019741946255894774,0.3158594621546587
1590503712.3342314,2.24119804400978,-3.519119804400978,8.754718826405867,0.08,0.5822222222222222,-0.6588888888888889,-0.0017015893379773578,-0.01864013774784286,0.31733574326106556
1590503712.3442314,2.124339734575497,-3.5283773510283,8.7432452979434,0.10792450342766743,0.6045618249643562,-0.6802976748501005,-0.009492279466951494,-0.024027086728908686,0.3174317577064687
1590503712.3542314,2.1155689447409194,-3.568733984211691,8.714935936846766,0.11333333333333333,0.6088888888888889,-0.6844444444444444,-0.012951868490656097,-0.033608602908438076,0.32863024374195055
1590503712.3642313,2.0506786167065783,-3.5527144668263135,8.64882201718552,0.11333333333333333,0.6088888888888889,-0.6844444444444444,-0.010538179828438523,-0.030543261909900768,0.35069441358358044
1590503712.3742313,2.0580639878856175,-3.5822559515424706,8.74483184251303,0.11333333333333333,0.6088888888888889,-0.6844444444444444,-0.006510084717309415,-0.030543261909900768,0.3684180320725485
1590503712.3842313,2.133868186293523,-3.534598860279858,8.77923352328669,0.11333333333333333,0.6088888888888889,-0.6844444444444444,-0.0014252693396744126,-0.03356492533950667,0.38917966590501946
1590503712.3942313,2.0632782881730436,-3.58,8.795082567740435,0.11333333333333333,0.5955555555555555,-0.6533333333333333,-0.007438999108241182,-0.03217050134035469,0.4028561510199156
1590503712.4042313,2.079537155483196,-3.58,8.770694266775205,0.11333333333333333,0.5955555555555555,-0.6533333333333333,-0.011872917345851063,-0.03483085228292062,0.40995042020009154
1590503712.4142313,1.9841987789406914,-3.589400174437044,8.607797732318426,0.11333333333333333,0.5955555555555555,-0.6533333333333333,-0.008792077078791706,-0.034710292583426415,0.4203839293115004
1590503712.4242313,2.0423975182366,-3.581086068823343,8.715881105296543,0.11333333333333333,0.5955555555555555,-0.6533333333333333,-0.009699005312026898,-0.031989507883720854,0.4412432786759098
1590503712.4342313,2.0670181784239143,-3.58,8.738509089211957,0.11333333333333333,0.5955555555555555,-0.6533333333333333,-0.0014636982433978655,-0.030705895048056087,0.4653166742959037
1590503712.4442313,1.915076480436938,-3.6194923519563065,8.795431167606756,0.11333333333333333,0.5955555555555555,-0.6488888888888888,-0.005897160402670538,-0.03523883990752778,0.48543638365389713
1590503712.4542313,1.9832554170256342,-3.6126744582974366,8.73407012467693,0.11333333333333333,0.5955555555555555,-0.6488888888888888,-0.011846895022576433,-0.039701140872457207,0.5003107202036619
1590503712.4642313,1.9414521705724164,-3.6687552823665,8.661037264694583,0.11333333333333333,0.5955555555555555,-0.6488888888888888,-0.01204439781779894,-0.0467925756215028,0.530714110156888
1590503712.4742312,1.8870714246580347,-3.639755099804591,8.652438774951149,0.11333333333333333,0.5955555555555555,-0.6488888888888888,-0.009524733496459641,-0.043606516832679104,0.5469058234454494
1590503712.4842312,1.8872114024261761,-3.6816342072785284,8.736057012130882,0.11333333333333333,0.5955555555555555,-0.6488888888888888,-0.008726646259971648,-0.04254240051736178,0.58669362195956
1590503712.4942312,1.8420083920062584,-3.6320083920062585,8.801004196003129,0.12555555555555556,0.59,-0.67,-0.007202229442102693,-0.04963508916827715,0.6247311473850377
1590503712.5042312,1.8540211606284067,-3.6534164796409105,8.798042321256814,0.12555555555555556,0.59,-0.67,-0.013742159592971061,-0.05500738926983251,0.6539279079914405
1590503712.5142312,1.7912657903174094,-3.6892766912471946,8.67253158063482,0.12555555555555556,0.59,-0.67,-0.020587708563191046,-0.05989706710570392,0.6822880394394948
1590503712.5242312,1.9671634534786253,-3.7982665549036043,8.65031517183571,0.12555555555555556,0.59,-0.67,-0.017504862390968275,-0.06106933386279321,0.7225847803858422
1590503712.5342312,1.8119612096465485,-3.764880268810344,8.772919059163796,0.12555555555555556,0.59,-0.67,-0.017453292519943295,-0.06300200801253542,0.7615304926498278
1590503712.5442312,1.586556926235064,-3.638014020953967,8.796357263202744,0.14555555555555555,0.59,-0.67,-0.010055893608326986,-0.06265418773401575,0.8128932169116339
1590503712.5542312,1.6596609020663478,-3.7273633247477584,8.755743943296473,0.14555555555555555,0.59,-0.67,-0.012714029180315025,-0.06797045887799183,0.8518792053007918
1590503712.5642312,1.596288155975744,-3.675502136478776,8.621004272957551,0.14555555555555555,0.59,-0.67,-0.020125594883378117,-0.06972742865347968,0.9076474628523619
1590503712.5742311,1.6060335760100646,-3.7100839400251617,8.658100728030194,0.14555555555555555,0.59,-0.67,-0.01985128895416891,-0.08030712103893825,0.9565338257434888
1590503712.5842311,1.5650379007394701,-3.7274936832100884,8.722455782470618,0.14555555555555555,0.59,-0.67,-0.01963495408493621,-0.08208570543774654,1.013343209865467
1590503712.5942311,1.41,-3.719512146222475,8.827560731112374,0.1511111111111111,0.5822222222222222,-0.6844444444444444,-0.01657532810459955,-0.08545731717724082,1.0951146087862431
1590503712.604231,1.41,-3.712504594513316,8.792522972566578,0.1511111111111111,0.5822222222222222,-0.6844444444444444,-0.01963294935031405,-0.09080815435724118,1.1409789274719606
1590503712.614231,1.2427207660315311,-3.686801915078828,8.657959425476351,0.1511111111111111,0.5822222222222222,-0.6844444444444444,-0.02538589753133497,-0.09985918027501045,1.2302709829705376
1590503712.624231,1.2827839757630346,-3.78,8.636959939407587,0.1511111111111111,0.5822222222222222,-0.6844444444444444,-0.029452431127404314,-0.10844777443615548,1.3079941990903454
1590503712.634231,1.317127592065669,-3.78,8.722818980164174,0.1511111111111111,0.5822222222222222,-0.6844444444444444,-0.029452431127404314,-0.11406723551292959,1.376364308857764
1590503712.644231,1.218074812247256,-3.8738445984979784,8.791153957250144,0.18444444444444444,0.5688888888888889,-0.6766666666666666,-0.030627075020283223,-0.12049489491066716,1.473000133257902
1590503712.654231,1.0363150959842695,-3.754210739697148,8.782104356287123,0.18444444444444444,0.5688888888888889,-0.6766666666666666,-0.023481596992266658,-0.1255030103242781,1.560921932227259
1590503712.664231,0.9257843952078815,-3.7882201860898825,8.637564209118,0.18444444444444444,0.5688888888888889,-0.6766666666666666,-0.028118915869873924,-0.1347776480794927,1.6397563531465822
1590503712.674231,0.8831861498748133,-3.7647792248122194,8.693186149874812,0.18444444444444444,0.5688888888888889,-0.6766666666666666,-0.035080362557941266,-0.14241622303773063,1.747125588165975
1590503712.684231,0.9157486947576811,-3.8136230421365216,8.725748694757682,0.18444444444444444,0.5688888888888889,-0.6766666666666666,-0.03685637387367399,-0.1486322626427952,1.8323741313211466
1590503712.694231,0.79,-3.85,8.75,0.20444444444444448,0.5633333333333334,-0.6677777777777778,-0.0370882466048795,-0.15817046346198613,1.956950423798642
1590503712.704231,0.771747999522274,-3.840222142601218,8.748044428520243,0.20444444444444448,0.5633333333333334,-0.6677777777777778,-0.03715935319046251,-0.15937927541689734,1.9724516594557386
1590503712.714231,0.5073228421554602,-3.70401573676681,8.717992131616596,0.20444444444444448,0.5633333333333334,-0.6677777777777778,-0.03847111000601855,-0.17737166015637168,2.2021983661582554
1590503712.724231,0.46321187720181173,-3.765091092098641,8.693394061399093,0.20444444444444448,0.5633333333333334,-0.6677777777777778,-0.04315945829266425,-0.18721082735972672,2.3128039097258357
1590503712.734231,0.36189008555611474,-3.841082435832914,8.744054957221943,0.20444444444444448,0.5633333333333334,-0.6677777777777778,-0.052369869064732455,-0.19734227920900171,2.4141184282185857
1590503712.744231,0.24600842696629213,-3.7220103716508213,8.789996758859118,0.25244055507538654,0.5517787141073658,-0.663333693460098,-0.05083292659650948,-0.20463935982126094,2.5263559605284303
1590503712.754231,0.18286225605772236,-3.7642754878845555,8.762862256057723,0.2644444444444444,0.5488888888888889,-0.6622222222222223,-0.04815266628060159,-0.21224366703453632,2.6658967591135094
1590503712.764231,0.13891450248030346,-3.7864341990078785,8.694263203968486,0.2644444444444444,0.5488888888888889,-0.6622222222222223,-0.048892900938017396,-0.2234681606848889,2.7813823131539372
1590503712.774231,0.00918025942214551,-3.678474085620442,8.726469130991482,0.2644444444444444,0.5488888888888889,-0.6622222222222223,-0.05314258189405004,-0.23593996368104017,2.9353060347835207
1590503712.784231,-0.058431198102016614,-3.6866946280291475,8.746694628029148,0.2644444444444444,0.5488888888888889,-0.6622222222222223,-0.05618236046580468,-0.2467263375878182,3.0545091976795655
1590503712.794231,-0.07789862113640571,-3.737391726818434,8.742101378863595,0.30657042383860816,0.5181720289139778,-0.6797747136364571,-0.06103123022724995,-0.2616335070214947,3.182981939168375
1590503712.804231,-0.3097552819577443,-3.9098297613619093,8.700042559659522,0.31777777777777777,0.51,-0.6844444444444444,-0.05999801430664008,-0.27269957118144145,3.341076571261212
1590503712.814231,-0.3459299713643924,-3.9171859942728786,8.671256022908485,0.31777777777777777,0.51,-0.6844444444444444,-0.05764408191059535,-0.2774109178775334,3.4454694467374423
1590503712.824231,0.6670031285453982,-5.895006016433458,8.308887819300718,0.31777777777777777,0.51,-0.6844444444444444,-0.06438328018614038,-0.2907427995635798,3.6155590223591525
1590503712.834231,8.762043236849888,-18.567872326444785,8.461796497683741,0.31777777777777777,0.51,-0.6844444444444444,-0.17620065590984105,-0.35081357369417165,3.127267924106878
1590503712.844231,0.22096166263115613,-6.569297417271994,14.57884907183212,0.3736134875795893,0.46812321764864134,-0.6896790422383643,-0.27276443819387336,-0.14352771097994713,-0.3777770624497703
1590503712.8542309,-4.938364014831198,-3.030991565298467,5.818169951646826,0.3888888888888889,0.4566666666666666,-0.6911111111111111,0.4929086315105689,0.46563048236047916,-1.4677543162034101
1590503712.8642309,-1.9533611691022963,-1.124077335027685,7.547171341260476,0.3888888888888889,0.4566666666666666,-0.6911111111111111,0.37467085128791255,0.1503423639344421,-0.6586665381753694
1590503712.8742309,-0.8731734717595101,-3.7701867203842876,10.400251801348105,0.3888888888888889,0.4566666666666666,-0.6911111111111111,-0.21209327072358303,0.01866219028958993,-0.009302782731985149
1590503712.8842309,-0.6758218694885361,-4.5356946334089185,9.511038548752834,0.3888888888888889,0.4566666666666666,-0.6911111111111111,-0.2740622331679623,-0.23643044006811095,0.3014534091213567
1590503712.8942308,-0.61,-2.94,8.38,0.4155555555555556,0.4444444444444444,-0.6755555555555556,0.03926990816987242,0.02072578486743266,0.7472190860100723
1590503712.9042308,-0.5360821256038647,-3.104893719806763,8.479504830917875,0.4155555555555556,0.4444444444444444,-0.6755555555555556,0.02345365228076257,-0.017419302865126374,0.8142055815404199
1590503712.9142308,-0.40899401630456605,-3.8149700815228305,8.8915923055299,0.4155555555555556,0.4444444444444444,-0.6755555555555556,-0.03007233982195904,-0.10868991306459655,0.9699680372356831
1590503712.9242308,-2.017361963190184,-2.495338376935058,8.198194475348867,0.4155555555555556,0.4444444444444444,-0.6755555555555556,0.023612035945770812,-0.004726644435144853,0.0804599614623337
1590503712.9342308,-1.3221263777321128,-3.3179931813936108,8.338502708761443,0.4155555555555556,0.4444444444444444,-0.6755555555555556,0.09536928936913754,0.08060224152110085,-0.22457886293316626
1590503712.9442308,1.1565184852986514,-5.063242144799171,9.313276340499483,0.4155555555555556,0.4485593893357999,-0.703331433572205,-0.10628089335783808,-0.06164143280518507,0.1871096901528009
1590503712.9542308,-0.10761482806275913,-4.251523859848792,8.717099829282173,0.4155555555555556,0.4488888888888889,-0.7055555555555556,-0.025687331268593266,-0.02190334294895209,0.0983771341224013
1590503712.9642308,-0.2578468340377461,-4.2695919599555925,8.606158190990008,0.4155555555555556,0.4488888888888889,-0.7055555555555556,0.017286894243868416,-0.003962050882765939,-0.008602017520511054
1590503712.9742308,-0.18310940799249237,-4.437703135997498,8.648851567998749,0.4155555555555556,0.4488888888888889,-0.7055555555555556,0.0013260243749999914,0.0008402817867826772,-0.005298168608204909
1590503712.9842308,-0.1781298215182362,-4.451870178481764,8.673740356963528,0.4155555555555556,0.4488888888888889,-0.7055555555555556,0.001702845259497595,-0.00020400482566704627,-0.0008514226297487975
1590503712.9942307,-0.16359576078728236,-4.37674489023467,8.792467827403481,0.4141323912860627,0.44106148540667844,-0.6778038523004458,-0.0026226181417174435,0.001703545726184851,-0.0007844733106522584
1590503713.0042307,-0.1875444047291724,-4.495266428375034,8.675552103381909,0.4133333333333333,0.43666666666666665,-0.6622222222222223,-0.006544984694978735,-0.0007336789277269254,-0.0030046284564122206
1590503713.0142307,-0.15439591566347627,-4.420989789158691,8.588791831326953,0.4133333333333333,0.43666666666666665,-0.6622222222222223,-0.005574033915556735,-0.00011988000307445578,-0.0023015415680673677
1590503713.0242307,-0.15,-4.436257159693577,8.623761932822628,0.4133333333333333,0.43666666666666665,-0.6622222222222223,0.0012290069669427962,0.0009547372684892964,-0.00027218702801431907
1590503713.0342307,-0.1434792278267058,-4.368271506093764,8.721290810426119,0.4133333333333333,0.43666666666666665,-0.6622222222222223,0.002181661564992912,-0.0003317810199586677,0.0
1590503713.0442307,-0.15603227269472228,-4.388784999880649,8.743279545508797,0.42402151512981484,0.4408231818097428,-0.6616284343446399,0.0015987116793668966,0.0006580188743815899,0.0005829498856260153
1590503713.0542307,-0.1500415097696208,-4.446652830076793,8.686735849616035,0.43333333333333335,0.4444444444444444,-0.6611111111111111,-0.0018120139528972022,0.0014559503811444974,0.001090830782496456
1590503713.0642307,-0.14614148618596356,-4.437717027628072,8.62086811051229,0.43333333333333335,0.4444444444444444,-0.6611111111111111,-0.00394242456568195,-0.00024903365388870865,-0.00024903365388870865
1590503713.0742307,-0.1639778784237607,-4.381077425516838,8.659889392118803,0.43333333333333335,0.4444444444444444,-0.6611111111111111,0.0002109268876035299,-0.001090830782496456,-0.0018532057854280149
1590503713.0842307,-0.16380893730033486,-4.403337438897656,8.696191062699665,0.43333333333333335,0.4444444444444444,-0.6611111111111111,0.0015063213880768774,-0.001090830782496456,-0.0028570017419089467
1590503713.0942307,-0.16756239117817762,-4.4451247823563556,8.737811955890887,0.4484581156896885,0.4385625846391952,-0.6837982846456439,0.0019157596911400323,-0.002740688599783609,-0.0024475634388457916
1590503713.1042306,-0.1559330665696617,-4.393732266278647,8.728899599854493,0.4533333333333333,0.43666666666666665,-0.6911111111111111,-0.003956196035463683,-0.00020356354726107058,-0.0006471971648787632
1590503713.1142306,-0.15977712431191837,-4.399331372935755,8.676002940596367,0.4533333333333333,0.43666666666666665,-0.6911111111111111,-0.006011725286791983,0.0005575713743097034,-0.0005332594081867525
1590503713.1242306,-0.16475484072454716,-4.4352451592754525,8.635245159275453,0.4533333333333333,0.43666666666666665,-0.6911111111111111,-0.004309837673130127,0.0005721581196760767,-0.0005186726628203793
1590503713.1342306,-0.1647345062356834,-4.4257964812929504,8.692079568592517,0.4533333333333333,0.43666666666666665,-0.6911111111111111,-0.0022395833191283976,0.001090830782496456,-0.0005164545141804851
1590503713.1442306,-0.1635815911730546,-4.393953977932637,8.753209204413473,0.4451320331655697,0.43452719705768483,-0.6889716415021293,0.00030944880211934895,0.0007407608863425047,-0.0003906909901885535
1590503713.1542306,-0.15938972638726104,-4.397558905549045,8.755305136806369,0.42777777777777776,0.43,-0.6844444444444444,0.0017361019601228303,0.0005121301291221792,0.0005787006533742768
1590503713.1642306,-0.17,-4.415065554231228,8.656495828367104,0.42777777777777776,0.43,-0.6844444444444444,-0.0006799815247266347,0.00041084925776982124,-0.0013599630494532694
1590503713.1742306,-0.16392635970738462,-4.4060736402926155,8.642515482048308,0.42777777777777776,0.43,-0.6844444444444444,-0.001753362161796021,0.00132506275859913,-0.001519130185693347
1590503713.1842306,-0.15472793137279564,-4.415272068627204,8.696360343136021,0.42777777777777776,0.43,-0.6844444444444444,0.0012688992826000887,-0.0006938058080012553,-0.001090830782496456
1590503713.1942306,-0.15685266865989758,-4.399441994020307,8.733705337319796,0.4232093320045127,0.43989829917540757,-0.6890128902177095,0.002868302746692821,-0.0017774719641963652,-0.001090830782496456
1590503713.2042305,-0.16,-4.413551549493531,8.692896901012938,0.4211111111111111,0.4444444444444444,-0.6911111111111111,0.002181661564992912,-0.00023447227706203282,-0.00023447227706203282
1590503713.2142305,-0.15411982378854625,-4.396479295154185,8.650599118942731,0.4211111111111111,0.4444444444444444,-0.6911111111111111,-0.0016669047657813687,0.0,-0.0006414277217957134
1590503713.2242305,-0.14295628747059272,-4.408174850117629,8.637043712529408,0.4211111111111111,0.4444444444444444,-0.6911111111111111,-0.005131672974999169,0.0007683498450133457,-0.00032248093748311023
1590503713.2342305,-0.15250966099521987,-4.40123550850717,8.68378381348327,0.4211111111111111,0.4444444444444444,-0.6911111111111111,-0.00545415391248228,0.00040853461788740184,-0.0006822961646090541
1590503713.2442305,-0.14770225426250144,-4.408446618606248,8.734595491474998,0.4211111111111111,0.4444444444444444,-0.6911111111111111,-0.0027712019913266753,0.0,-0.0004200928022075549
1590503713.2542305,-0.15721807996130904,-4.391303200064485,8.767218079961308,0.4211111111111111,0.4444444444444444,-0.6911111111111111,-0.00046476372792041284,0.0012521341091520863,-0.0012521341091520863
1590503713.2642305,-0.1749148177027953,-4.3896592708111815,8.701362916755274,0.4211111111111111,0.4444444444444444,-0.6911111111111111,-0.0005361234440567634,0.0016455381209361485,-0.0016455381209361485
1590503713.2742305,-0.1532914827529835,-4.41,8.653385646558771,0.4211111111111111,0.4444444444444444,-0.6911111111111111,-0.0032759162400876896,-0.0025509783134889325,-0.0003624689632993782
1590503713.2842305,-0.15133158617246975,-4.41,8.681331586172469,0.4211111111111111,0.4444444444444444,-0.6911111111111111,-0.002509196678269646,-0.001891154527697587,0.0006180421505720592
1590503713.2942305,-0.16542974163150925,-4.404570258368491,8.700859483263018,0.4277474619940669,0.45108079532740014,-0.7104168591342551,9.375508003410852e-05,0.0,0.0004985378512311737
1590503713.3042305,-0.15632294312580955,-4.390881962083873,8.705440981041937,0.43333333333333335,0.4566666666666666,-0.7266666666666667,0.0005935189607523991,0.0009946236434881137,0.0
1590503713.3142304,-0.1477312819686657,-4.395462563937331,8.665209231141004,0.43333333333333335,0.4566666666666666,-0.7266666666666667,0.0004216760179790158,0.0004949574930768487,0.0
1590503713.3242304,-0.1504443013522215,-4.410444301352221,8.629111397295556,0.43333333333333335,0.4566666666666666,-0.7266666666666667,-0.002036264287480506,-0.001139296541667258,0.0
1590503713.3342304,-0.14734337644381715,-4.411015064665726,8.664686752887635,0.43333333333333335,0.4566666666666666,-0.7266666666666667,-0.003852077698007259,-0.00040051905361875517,-0.0008010381072375103
1590503713.3442304,-0.15150428550160575,-4.413008571003211,8.715487143495183,0.42483761883493903,0.4453390473354743,-0.7115631742250769,-0.001554200127203951,-0.0006274614377889608,-0.0017182922202854168
1590503713.3542304,-0.14,-4.395711382893072,8.744288617106928,0.4133333333333333,0.43,-0.6911111111111111,-0.00031261588387689315,0.0006230152270386729,-0.002336861236573802
1590503713.3642304,-0.15042680859719304,-4.389573191402807,8.677439148416841,0.4133333333333333,0.43,-0.6911111111111111,0.001090830782496456,0.0005221365934456136,-0.0009977155912859986
1590503713.3742304,-0.15536180870507005,-4.39855276517972,8.62927638258986,0.4133333333333333,0.43,-0.6911111111111111,-0.0004270137693885472,-0.0005059481839616676,0.001090830782496456
1590503713.3842304,-0.16021665525002446,-4.42,8.665541638125061,0.4133333333333333,0.43,-0.6911111111111111,-0.002181661564992912,2.363342159161525e-05,-0.000580865523635651
1590503713.3942304,-0.17534786861452056,-4.403956394156438,8.722087211687123,0.42402907056237443,0.43,-0.6988358102209742,-0.0015982995944463423,0.0016741927530430256,-0.002765023535539482
1590503713.4042304,-0.1672946397290669,-4.383647319864533,8.743647319864534,0.43333333333333335,0.43,-0.7055555555555556,0.001681048834751808,0.002181661564992912,-0.002579522443177302
1590503713.4142303,-0.16,-4.38,8.671389751000971,0.43333333333333335,0.43,-0.7055555555555556,0.0039528757256974325,0.002181661564992912,-0.00014051143036871837
1590503713.4242303,-0.16617881359950687,-4.4047152543980275,8.667072881597042,0.43333333333333335,0.43,-0.7055555555555556,0.0016673071005259025,0.0028556655723578923,-0.0002571772322335047
1590503713.4342303,-0.162547469267617,-4.412547469267617,8.701178796098574,0.43333333333333335,0.43,-0.7055555555555556,-0.001219417489557633,0.003272492347489368,-0.0006843582859772451
1590503713.4442303,-0.15044410457667223,-4.400444104576673,8.719333843134992,0.43333333333333335,0.43,-0.7055555555555556,-0.0031998259060571216,0.003272492347489368,-2.422214714408225e-05
1590503713.4542303,-0.154294750755287,-4.407115747734139,8.695705249244712,0.4066666666666667,0.43,-0.6977777777777778,-0.0006223461497947586,-0.002181661564992912,0.0017131769322912146
1590503713.4642303,-0.1656377840909091,-4.384362215909091,8.673086647727272,0.4066666666666667,0.43,-0.6977777777777778,0.0006149868431432435,-0.002181661564992912,0.0004758439393532125
1590503713.4742303,-0.16477910487523312,-4.385220895124767,8.6756626853743,0.4066666666666667,0.43,-0.6977777777777778,-0.0017567257746442454,-0.0016121502535647715,-0.0017085339342844212
1590503713.4842303,-0.16461243024648126,-4.3992248604929625,8.69,0.4066666666666667,0.43,-0.6977777777777778,-0.003357046950989929,-0.0005876926929985086,-0.0012599399894975788
1590503713.4942303,-0.16608540463365568,-4.41,8.705658381465378,0.41232108219583075,0.43260973024422955,-0.7008224630627123,-0.0017546454523302718,-0.0008540322253252804,-0.00019021755549146458
1590503713.5042303,-0.16503371114107657,-4.41,8.73,0.4211111111111111,0.43666666666666665,-0.7055555555555556,0.0011055400426562172,-0.0010834761524165753,-0.0016325688587047436
1590503713.5142303,-0.16547335102471467,-4.41,8.693786808197718,0.4211111111111111,0.43666666666666665,-0.7055555555555556,0.0027787115431096377,0.0,-0.0001032691737369953
1590503713.5242302,-0.15386251393978015,-4.4007937709096705,8.65920622909033,0.4211111111111111,0.43666666666666665,-0.7055555555555556,0.001512165692829841,0.0003347479360815355,0.00042133491033338494
1590503713.5342302,-0.13568883735638243,-4.388622325287235,8.692933487930853,0.4211111111111111,0.43666666666666665,-0.7055555555555556,-0.0004702748920006856,-0.0003199938935056011,-0.001090830782496456
1590503713.5442302,-0.1412240266092741,-4.403741342203092,8.71,0.43025661427422335,0.4341724385312724,-0.702645622730929,-0.001090830782496456,-0.0017735444406943943,-0.0014989479067949734
1590503713.5542302,-0.16,-4.4040180732612555,8.727945780216235,0.4455555555555555,0.43,-0.6977777777777778,0.0008667501650819027,-0.0004383037999703365,-0.000876607599940673
1590503713.5642302,-0.1481313094632871,-4.3940656547316435,8.674722202048079,0.4455555555555555,0.43,-0.6977777777777778,0.00023965161718728849,0.000647336649268541,0.0
1590503713.5742302,-0.16224787685774947,-4.39,8.657809846072187,0.4455555555555555,0.43,-0.6977777777777778,-0.0016975475055370473,0.00291098095161823,0.0
1590503713.5842302,-0.17097003219681334,-4.394514983901593,8.70708990340956,0.4455555555555555,0.43,-0.6977777777777778,-0.0031666782494597025,0.0023932897610522428,-0.0009850166844667906
1590503713.5942302,-0.16,-4.404304722953667,8.731390554092666,0.43503289944659207,0.426651882147148,-0.6886900293200366,-0.003893750699187935,-0.0009391448615957777,-0.0017120891341950231
1590503713.6042302,-0.16,-4.41,8.709760500319806,0.4211111111111111,0.4222222222222222,-0.6766666666666666,-0.0027140142750634944,-0.0010647054201411645,-0.0005323527100705822
1590503713.6142302,-0.16,-4.41,8.671679936305733,0.4211111111111111,0.4222222222222222,-0.6766666666666666,-0.0011519149903273349,0.0,-0.0005148732873327885
1590503713.6242301,-0.16,-4.405127285475433,8.644872714524567,0.4211111111111111,0.4222222222222222,-0.6766666666666666,0.0,0.0010630613995430917,-0.001090830782496456
1590503713.6342301,-0.1554194966040751,-4.404580503395925,8.67748302037555,0.4211111111111111,0.4222222222222222,-0.6766666666666666,-0.0004996554103604421,0.0011823507442720277,-0.0005911753721360138
1590503713.6442301,-0.15,-4.412743910345466,8.712743910345466,0.4211111111111111,0.42435637471314047,-0.6806300927212291,-0.001090830782496456,0.0005986283738490323,-0.0005986283738490323
1590503713.65423,-0.15212190826250097,-4.416817137606248,8.72,0.4211111111111111,0.43,-0.6911111111111111,-0.001090830782496456,0.0019501972799559504,-0.002065929422474431
1590503713.66423,-0.1667512796771545,-4.393248720322846,8.694010237417237,0.4211111111111111,0.43,-0.6911111111111111,-0.000736450369308285,0.0,-0.000736450369308285
1590503713.67423,-0.15759454432734035,-4.39879727216367,8.644810911345319,0.4211111111111111,0.43,-0.6911111111111111,-0.00013119725468339273,-0.00013119725468339273,0.00026239450936678545
1590503713.68423,-0.15301489921121825,-4.393253724802804,8.689761174408414,0.4211111111111111,0.43,-0.6911111111111111,-0.0003809781479621715,-0.0007359044652293137,0.000761956295924343
1590503713.69423,-0.1742469382270511,-4.40191768725765,8.71191768725765,0.4234549510926829,0.4336222981533382,-0.6883411184056172,0.00025408186575828307,-0.00020918722918454323,-0.0019724743358083686
1590503713.70423,-0.1550142812567506,-4.41,8.704957156229748,0.43333333333333335,0.4488888888888889,-0.6766666666666666,-0.003272492347489368,0.0005500889215911131,-0.002184777251888169
1590503713.71423,-0.16,-4.415333954800836,8.652662316394144,0.43333333333333335,0.4488888888888889,-0.6766666666666666,-0.0021088039296499345,0.0027635057739126287,-0.0021088039296499345
1590503713.72423,-0.16,-4.404223394701392,8.635776605298608,0.43333333333333335,0.4488888888888889,-0.6766666666666666,-0.0005171772257291796,0.001551531677187539,-0.001090830782496456
1590503713.73423,-0.1520076753333973,-4.386003837666698,8.681969298666411,0.43333333333333335,0.4488888888888889,-0.6766666666666666,0.0,0.0,-0.0015267444709982539
1590503713.74423,-0.14752294873605423,-4.38,8.733761474368027,0.4258103845972791,0.4417838817492821,-0.6846075569991683,-0.000820626405643076,-0.000410313202821538,-0.002181661564992912
1590503713.75423,-0.15510526315789475,-4.3897894736842105,8.73021052631579,0.4133333333333333,0.43,-0.6977777777777778,-0.002181661564992912,-0.0005568978205376644,-0.0005798626791165371
1590503713.76423,-0.15327909591148453,-4.4032790959114845,8.69048813679664,0.4133333333333333,0.43,-0.6977777777777778,-0.0007508860613906732,0.0003576938759005597,0.0007331369065958963
1590503713.77423,-0.15724154860429232,-4.404483097208585,8.646550708374246,0.4133333333333333,0.43,-0.6977777777777778,0.002181661564992912,0.0007899304130506318,0.0003009003694458242
1590503713.78423,-0.1583033068164093,-4.39,8.702454960224614,0.4133333333333333,0.43,-0.6977777777777778,0.0017287864314003165,-0.00045287513359259547,0.00018508051531126502
1590503713.79423,-0.1643334123784681,-4.387166706189234,8.728499881432299,0.4189999209548652,0.4318888625405106,-0.6977777777777778,0.0013998951929604744,-0.001090830782496456,-0.00016363755110440073
1590503713.80423,-0.153627108154108,-4.383627108154108,8.753627108154108,0.43333333333333335,0.43666666666666665,-0.6977777777777778,0.001390349319803931,-0.000299518537307475,0.001390349319803931
1590503713.81423,-0.1504878809481376,-4.386829293649379,8.712439404740687,0.43333333333333335,0.43666666666666665,-0.6977777777777778,0.0,5.3219555642203655e-05,0.0006917408179028348
1590503713.82423,-0.13180003564427017,-4.380600011881423,8.61900017822135,0.43333333333333335,0.43666666666666665,-0.6977777777777778,0.0,-0.001985308135956837,0.0020507592789688616
1590503713.83423,-0.15,-4.41,8.674100034582551,0.43333333333333335,0.43666666666666665,-0.6977777777777778,0.00022362219659739693,0.001090830782496456,0.00022362219659739693
1590503713.84423,-0.15,-4.41,8.689368413388907,0.43333333333333335,0.43666666666666665,-0.6977777777777778,0.001056383076636873,0.001090830782496456,0.001056383076636873
1590503713.85423,-0.15,-4.380305733841115,8.749694266158885,0.44,0.43,-0.6844444444444444,-0.0003747270570034298,0.00034137666848959637,0.0
1590503713.86423,-0.15,-4.4,8.680675984027381,0.44,0.43,-0.6844444444444444,0.0003765552613020618,-0.00011257341996411072,0.0
1590503713.87423,-0.1535313412946543,-4.396468658705346,8.61293731741069,0.44,0.43,-0.6844444444444444,0.0014112424074509528,0.0014760403612674355,0.0
1590503713.88423,-0.16078333493328215,-4.391566669866564,8.610183354132667,0.44,0.43,-0.6844444444444444,0.00017089717164579208,0.002181661564992912,8.544858582289604e-05
1590503713.89423,-0.1688361332437362,-4.407672266487473,8.714869732168571,0.44,0.43,-0.6844444444444444,0.0019277452281015414,0.002181661564992912,0.0009638726140507707
1590503713.9042299,-0.13485323470705649,-4.397573382646472,8.742426617353528,0.4211111111111111,0.43,-0.6911111111111111,0.001387552893022306,-0.0022136807848618933,0.0022136807848618933
1590503713.9142299,-0.15344193782250842,-4.400325813467525,8.708696746129899,0.4211111111111111,0.43,-0.6911111111111111,-0.0014662879553195571,0.0003399164368502539,3.5540735972847256e-05
1590503713.9242299,-0.16297044688138923,-4.4110886593558325,8.641881787525557,0.4211111111111111,0.43,-0.6911111111111111,-0.0018576360753939142,-0.0017388817616944515,0.0012095850961959186
1590503713.9342299,-0.17,-4.3995028156035625,8.68583802600594,0.4211111111111111,0.43,-0.6911111111111111,-0.0003997665304461774,-0.001890363843388811,-0.0003997665304461774
1590503713.9442298,-0.17,-4.417674696018761,8.716512044028141,0.4225321302107573,0.43,-0.6911111111111111,0.0008371794663567235,0.0008371794663567235,0.001090830782496456
1590503713.9542298,-0.17,-4.4063035610199135,8.69945534152987,0.42948115715449764,0.43,-0.6911111111111111,-0.0004032189425098732,-0.0004032189425098732,0.001090830782496456
1590503713.9642298,-0.16699393705472734,-4.4030060629452725,8.674969685273636,0.43333333333333335,0.43,-0.6911111111111111,-0.001418741381978995,-0.001090830782496456,0.00043500958353137804
1590503713.9742298,-0.1602486290024284,-4.409751370997572,8.641243145012142,0.43333333333333335,0.43,-0.6911111111111111,-0.002154540348065884,-0.001090830782496456,-0.0010365883486424005
1590503713.9842298,-0.16,-4.426164134015454,8.683835865984546,0.43333333333333335,0.43,-0.6911111111111111,-0.0006724027131490686,0.0006724027131490686,0.0
1590503713.9942298,-0.16,-4.41342962974208,8.69657037025792,0.43333333333333335,0.43,-0.6911111111111111,0.0007167162129738907,-0.0007167162129738907,0.0
1590503714.0042298,-0.13210982431261326,-4.4078901756873865,8.748945087843694,0.4133333333333333,0.4444444444444444,-0.6844444444444444,0.0003452191958786941,-0.00011507306529289802,0.002181661564992912
1590503714.0142298,-0.14863192310722445,-4.391368076892776,8.740684038446387,0.4133333333333333,0.4444444444444444,-0.6844444444444444,0.003048641289370118,-0.0010162137631233726,0.002181661564992912
1590503714.0242298,-0.1423813931103419,-4.3971441793310255,8.65190696555171,0.4133333333333333,0.4444444444444444,-0.6844444444444444,0.0002597696909985915,-0.001090830782496456,0.001662122182995729
1590503714.0342298,-0.15021186440677967,-4.419788135593221,8.690635593220339,0.4133333333333333,0.4444444444444444,-0.6844444444444444,0.001090830782496456,-0.0010677199608333954,-2.3110821663060508e-05
1590503714.0442297,-0.16,-4.408805731478949,8.724777074084205,0.41505838786374055,0.44271938991403714,-0.6877618570029199,0.0013513797555622874,0.0,-0.0007000073228977089
1590503714.0542297,-0.15993352120817977,-4.39996676060409,8.76,0.42777777777777776,0.43,-0.7122222222222222,0.003257988924989235,0.0,0.0021780357093678787
1590503714.0642297,-0.15054731119600354,-4.393515770398667,8.71077921441865,0.42777777777777776,0.43,-0.7122222222222222,-0.0003238086674851122,-0.0003835110575056719,0.0018578528975078
1590503714.0742297,-0.16647937346325473,-4.4,8.634082506146981,0.42777777777777776,0.43,-0.7122222222222222,0.000322749222505326,6.129155749023886e-05,0.0021203700075026733
1590503714.0842297,-0.1625041788938004,-4.402504178893801,8.667512536681402,0.42777777777777776,0.43,-0.7122222222222222,-0.001090830782496456,0.0010890073960987611,-0.0002731635422235377
1590503714.0942297,-0.1694798542015565,-4.41,8.693641020589103,0.42777777777777776,0.430346763865629,-0.7114709005133594,-0.0008638743631651078,-0.002124922460160075,-0.0009773525728307818
1590503714.1042297,-0.15388207767898923,-4.406941038839495,8.747764155357979,0.42777777777777776,0.43666666666666665,-0.6977777777777778,0.0019377687489532272,-0.0007571498828624207,0.0014245116821304912
1590503714.1142297,-0.14285624549240397,-4.4,8.69143754507596,0.42777777777777776,0.43666666666666665,-0.6977777777777778,0.00015544141969594475,0.0003115680505481002,0.0015585254638967117
1590503714.1242297,-0.14766968748055825,-4.402330312519442,8.629321250077766,0.42777777777777776,0.43666666666666665,-0.6977777777777778,0.0025098993587761927,0.0008366331195920642,0.0
1590503714.1342297,-0.14186253521126763,-4.407206197183099,8.66465633802817,0.42777777777777776,0.43666666666666665,-0.6977777777777778,0.0,0.00020317107419342442,0.00020317107419342442
1590503714.1442297,-0.15761577464788734,-4.383576338028169,8.70403943661972,0.42777777777777776,0.43666666666666665,-0.6977777777777778,0.0,0.001921582924343616,0.001921582924343616
1590503714.1542296,-0.1580369176025798,-4.3780369176025795,8.73196308239742,0.4066666666666667,0.43,-0.6766666666666666,0.0017332479948013297,-0.001539244352688038,0.0
1590503714.1642296,-0.15171269251194902,-4.375138077535847,8.721160382368561,0.4066666666666667,0.43,-0.6766666666666666,0.0038028458160902735,0.0009040050111979392,0.0
1590503714.1742296,-0.16,-4.4,8.646276665379903,0.4066666666666667,0.43,-0.6766666666666666,0.001090830782496456,0.0002536441090398936,-0.0007609323271196809
1590503714.1842296,-0.16,-4.4,8.695554287440627,0.4066666666666667,0.43,-0.6766666666666666,0.001090830782496456,0.0010215519237836686,-0.003064655771351006
1590503714.1942296,-0.15064268919271967,-4.41,8.72,0.4070951261284798,0.4309283288339284,-0.6766666666666666,-0.0001402130309992832,0.0030621728009904434,0.0012310438134957391
1590503714.2042296,-0.1597742314726117,-4.41,8.72,0.4131828209817411,0.44411833434932796,-0.6766666666666666,-0.002132406513114099,7.388257781821943e-05,0.0032232372956105555
1590503714.2142296,-0.15507796938647334,-4.392538984693236,8.672227107147343,0.4133333333333333,0.4444444444444444,-0.6766666666666666,0.0013677910484634443,-0.0016277410330589354,0.0
1590503714.2242296,-0.16988501039632034,-4.3998850103963205,8.620574948018398,0.4133333333333333,0.4444444444444444,-0.6766666666666666,0.002169118145056827,2.5086839872169773e-05,1.2543419936084887e-05
1590503714.2342296,-0.16191291753417217,-4.391912917534172,8.675738752602516,0.4133333333333333,0.4444444444444444,-0.6766666666666666,0.0006734969163660113,0.001555660765797245,0.0008821638494312336
1590503714.2442296,-0.16950647234543317,-4.399506472345434,8.698519417036298,0.4133333333333333,0.4444444444444444,-0.6766666666666666,-0.0009831597509734962,-0.0009293242352120166,5.383551576147987e-05
1590503714.2542295,-0.1395087421490409,-4.4,8.72524562892548,0.43333333333333335,0.43666666666666665,-0.6911111111111111,-0.0002593107159748832,0.001090830782496456,5.358791859692326e-05
1590503714.2642295,-0.16798811746732306,-4.4,8.71100594126634,0.43333333333333335,0.43666666666666665,-0.6911111111111111,-0.0010359651975611818,0.001090830782496456,-0.0030530300077482716
1590503714.2742295,-0.15235839361637818,-4.407641606383622,8.664150361698269,0.43333333333333335,0.43666666666666665,-0.6911111111111111,0.0013480916178953018,0.002181661564992912,-0.0016671398941952202
1590503714.2842295,-0.16091388560516504,-4.399086114394835,8.71,0.43333333333333335,0.43666666666666665,-0.6911111111111111,0.0017829037450751387,0.0019822826550340254,-9.968945497944332e-05
1590503714.2942295,-0.1687565843319133,-4.389585528110637,8.71165788755745,0.43333333333333335,0.4363903520737585,-0.6917097927290788,-0.0021364496954533324,4.521186953957946e-05,-0.001090830782496456
1590503714.3042295,-0.14235021300707226,-4.38078340433569,8.746866382657236,0.43333333333333335,0.43052226955712714,-0.7044239715151134,-0.0011762869389477218,0.0010053746260451901,-0.001090830782496456
1590503714.3142295,-0.16,-4.397963828183873,8.717602110022607,0.43333333333333335,0.43,-0.7055555555555556,-0.002181661564992912,0.002181661564992912,-0.001959549675444651
1590503714.3242295,-0.16,-4.390832535242032,8.63416267621016,0.43333333333333335,0.43,-0.7055555555555556,-0.0020908460580407818,0.001909215044136521,-0.0012724617964007165
1590503714.3342295,-0.16,-4.397879765445167,8.669398827225834,0.43333333333333335,0.43,-0.7055555555555556,-0.0013221124943489145,-0.0003969856469390803,-0.002809928923784451
1590503714.3442295,-0.16,-4.390161052207757,8.70951684337673,0.43333333333333335,0.43,-0.7055555555555556,-1.7568070581073028e-05,-1.7568070581073028e-05,-0.0011259669236586014
1590503714.3542295,-0.14506295368986077,-4.38253147684493,8.739874092620278,0.424205138366026,0.42419114865716806,-0.7105345709922686,0.0,-0.0016293789914674983,-0.001090830782496456
1590503714.3642294,-0.15965952347384746,-4.4291488086846185,8.681191667841533,0.4211111111111111,0.4222222222222222,-0.7122222222222222,-0.0021445213374484463,-0.0032539222337171353,-0.002163091451220679
1590503714.3742294,-0.1518603738024187,-4.413720747604837,8.631162242814511,0.4211111111111111,0.4222222222222222,-0.7122222222222222,-0.001293766083559288,0.0020548805411123748,-0.002181661564992912
1590503714.3842294,-0.15,-4.417910473225139,8.668358107099444,0.4211111111111111,0.4222222222222222,-0.7122222222222222,0.0,0.0012047967888398937,0.0008628987698095805
1590503714.3942294,-0.15,-4.40002089953296,8.739916401868163,0.4211111111111111,0.4222222222222222,-0.7122222222222222,0.0,0.0021805216722983155,-0.0010885509971072626
1590503714.4042294,-0.16857558244536755,-4.401424417554633,8.745726747336104,0.42777777777777776,0.43,-0.6977777777777778,0.0026509729412007967,0.0009354509309243131,-0.0007800710793521703
1590503714.4142294,-0.1610005418096442,-4.4089994581903555,8.723001625428934,0.42777777777777776,0.43,-0.6977777777777778,-0.0006542620604426102,0.00010914218051346139,0.0008725464214695332
1590503714.4242294,-0.1481643886069733,-4.41,8.629178056965133,0.42777777777777776,0.43,-0.6977777777777778,0.001090830782496456,-0.0002002341412214705,-0.001781193282549971
1590503714.4342294,-0.14087341474368573,-4.409563292628158,8.671310122115528,0.42777777777777776,0.43,-0.6977777777777778,0.0009002812448367316,-0.001090830782496456,4.76373844149311e-05
1590503714.4442294,-0.15881349045103615,-4.400593254774482,8.698220235676553,0.42777777777777776,0.43,-0.6977777777777778,-0.003013636119542221,-0.001090830782496456,0.0010261167255096691
1590503714.4542294,-0.16,-4.4,8.716877733491328,0.40527413312267346,0.43,-0.6977777777777778,-0.0014314172243781458,-0.0020113683440520667,-0.000750244340614766
1590503714.4642293,-0.15,-4.3879804264402,8.683843411521606,0.4011111111111111,0.43,-0.6977777777777778,-0.004793250010518783,1.0675720776038818e-05,-0.001090830782496456
1590503714.4742293,-0.15467312848009898,-4.381557709493366,8.627788547466832,0.4011111111111111,0.43,-0.6977777777777778,-0.002181661564992912,0.003513724397210348,-0.0009209110359413608
1590503714.4842293,-0.17480683461295643,-4.39,8.673115899232226,0.4011111111111111,0.43,-0.6977777777777778,-0.0018417696852259776,-0.001090830782496456,0.0
1590503714.4942293,-0.13209763150927642,-4.39,8.698741421094434,0.4011111111111111,0.43,-0.6977777777777778,0.0009535411212572634,-0.001090830782496456,0.0
