time,acc_x,acc_y,acc_z,mag_x,mag_y,mag_z,gyr_x,gyr_y,gyr_z
1590503722.5362473,-3.78,-0.62,8.99,0.3033333333333333,-0.35,-0.6611111111111111,-0.001090830782496456,-0.001090830782496456,-0.001090830782496456
1590503722.5462472,-3.7997197865488137,-0.639719786548814,9.01957967982322,0.2978556148475516,-0.35,-0.6534423052310168,-0.009695210859178816,0.010740191822941786,-1.5283272911161385e-05
1590503722.5562472,-3.8069869700429084,-0.6430130299570918,8.977947880171634,0.2977777777777777,-0.35,-0.6533333333333333,-0.009488806459890146,0.009593625494652726,0.0003286705825779583
1590503722.5662472,-3.797330489168703,-0.65,8.966017064987781,0.2977777777777777,-0.35,-0.6533333333333333,-0.007853050883275753,0.004215397023789684,0.0007996323235978245
1590503722.5762472,-3.794662858681437,-0.6593257173628742,9.005337141318563,0.2977777777777777,-0.35,-0.6533333333333333,-0.005962792890896514,-0.002690300543407147,-0.0010172779568284704
1590503722.5862472,-3.785479349271853,-0.6603195661812353,9.019360867637529,0.2945509665048562,-0.3569914244246634,-0.6468797107874902,-0.004961027415364496,-0.002744506587617955,-0.0016536758051214988
1590503722.5962472,-3.776221057027516,-0.6375578859449678,9.015115771889935,0.2911111111111111,-0.3644444444444445,-0.64,-0.0019152682464332698,0.0012113986876473334,-0.001090830782496456
1590503722.6062472,-3.78,-0.6493282270215972,8.929129834254145,0.2911111111111111,-0.3644444444444445,-0.64,-0.0024964191162456565,0.003272492347489368,-0.0003880366156218558
1590503722.6162472,-3.789593838502452,-0.655203080748774,8.928375354009809,0.2911111111111111,-0.3644444444444445,-0.64,-0.0037957550655280943,0.005888805937682999,0.0010465254360774523
1590503722.6262472,-3.8028809384450297,-0.6471190615549702,8.97576187689006,0.2911111111111111,-0.3644444444444445,-0.64,-0.0049918463976490095,0.00904090789380324,0.0015531382973297263
1590503722.6362472,-3.8070063619503722,-0.6459872760992559,9.001974552198512,0.2911111111111111,-0.36577495024427914,-0.6483156612489664,-0.0055653189341227025,0.008511256027993394,0.0
1590503722.6462471,-3.7958457523521734,-0.6641542476478264,9.046616990591305,0.2911111111111111,-0.3688888888888889,-0.6677777777777778,-0.0019130179837806127,0.006360470154954783,0.0
1590503722.6562471,-3.8004512854925974,-0.6543230717611039,9.002066644298116,0.2911111111111111,-0.3688888888888889,-0.6677777777777778,0.0005700291965991945,0.007065786280875997,0.0
1590503722.6662471,-3.8042362488728583,-0.6457637511271416,8.974582506762848,0.2911111111111111,-0.3688888888888889,-0.6677777777777778,0.001090830782496456,0.004658801549338336,0.0
1590503722.6762471,-3.791055260241854,-0.645527630120927,9.013417109637219,0.2911111111111111,-0.3688888888888889,-0.6677777777777778,0.00011511103553588802,0.003760352220969652,0.00048785987348028397
1590503722.686247,-3.7828386001320626,-0.637161399867937,9.028580699933968,0.2911111111111111,-0.36510408871280486,-0.6698278778731567,-0.001090830782496456,0.004672966370311108,0.0009360091623338139
1590503722.696247,-3.798664654277898,-0.6213353457221017,9.02066767286105,0.2911111111111111,-0.34400268318502447,-0.681257805867371,-0.001090830782496456,0.006399321073084387,7.283181094717398e-05
1590503722.706247,-3.785818424659942,-0.6316368493198833,8.917276369899126,0.2911111111111111,-0.3422222222222222,-0.6822222222222222,-0.00509704878759486,0.00491849622515115,0.001546969892522829
1590503722.716247,-3.789274689948675,-0.6292746899486749,8.843912034923012,0.2911111111111111,-0.3422222222222222,-0.6822222222222222,-0.011176806530418948,0.0092325021246779,0.0011699498355804104
1590503722.726247,-3.8021881575515173,-0.6509407877575863,8.901574993478828,0.2911111111111111,-0.3422222222222222,-0.6822222222222222,-0.014794249032120963,0.010294858965297525,0.0
1590503722.736247,-3.809481958090601,-0.687409790453004,9.040157203721416,0.2911111111111111,-0.3422222222222222,-0.6822222222222222,-0.013202988602236645,0.011886119395181841,0.0
1590503722.746247,-3.8090315401734327,-0.6663438467244776,9.043656153275522,0.2766666666666667,-0.3377777777777778,-0.6466666666666666,-0.001172727499213697,-0.00010564257904309188,-0.001090830782496456
1590503722.756247,-3.8041036610448375,-0.66,9.007689016865488,0.2766666666666667,-0.3377777777777778,-0.6466666666666666,0.0038504995428656607,-0.002181661564992912,-6.518360825612983e-05
1590503722.766247,-3.8123129725596803,-0.6638435137201597,8.990748109761277,0.2766666666666667,-0.3377777777777778,-0.6466666666666666,0.0036917546553791366,-0.0005046123334338376,0.0002523061667169188
1590503722.776247,-3.8016373178845932,-0.6650880463462201,9.03508804634622,0.2766666666666667,-0.3377777777777778,-0.6466666666666666,0.004363323129985824,0.0018244542151436365,-0.0007336234326471805
1590503722.786247,-3.8043661723552873,-0.6484507414670692,9.018450741467069,0.2766666666666667,-0.3412206724495467,-0.6507355421878481,0.004670600760892434,0.0,0.0013981084134030662
1590503722.796247,-3.7864699659992445,-0.6629399319984889,9.011759727993955,0.2766666666666667,-0.35,-0.6611111111111111,0.00506908693735395,-0.0011552009253849888,0.0014115276147362529
1590503722.806247,-3.7841496530390435,-0.65,8.926802775687653,0.2766666666666667,-0.35,-0.6611111111111111,0.0034580092756520877,-0.003272492347489368,0.0009053138543337363
1590503722.816247,-3.7872754338543504,-0.6472754338543503,8.8963473968739,0.2766666666666667,-0.35,-0.6611111111111111,0.00188445750293067,-0.003272492347489368,0.00188445750293067
1590503722.826247,-3.787887480805251,-0.6439437404026257,8.955774961610503,0.2766666666666667,-0.35,-0.6611111111111111,0.00023044009662464573,-0.0028422970045534628,0.001521026125432361
1590503722.836247,-3.7955349832183822,-0.6522325083908088,8.984465016781618,0.281379739936152,-0.35,-0.6611111111111111,-0.002064946332446819,-0.0016946037900177305,0.0019381326775053211
1590503722.846247,-3.78,-0.6550537659876836,9.004946234012316,0.2977777777777777,-0.35,-0.6611111111111111,-0.004375053048869135,0.001079100863613145,1.1729918883311057e-05
1590503722.856247,-3.78,-0.6549599229750873,8.975280539174388,0.2977777777777777,-0.35,-0.6611111111111111,-0.003272492347489368,0.003263748897000228,-0.000549787116492798
1590503722.866247,-3.787809775232854,-0.6639048876164272,8.971239100931417,0.2977777777777777,-0.35,-0.6611111111111111,-0.0011427065403953932,0.003937365968567029,0.0012778714842563849
1590503722.876247,-3.8,-0.665612163413933,9.021462612195355,0.2977777777777777,-0.35,-0.6611111111111111,0.0028198465272123866,0.002474761144715025,0.0031129461069344996
1590503722.886247,-3.8,-0.6455161784904335,9.028161273836522,0.2977777777777777,-0.35,-0.6611111111111111,0.00574268905509745,-0.0011787920151413054,0.002382235474963233
1590503722.896247,-3.79,-0.66,9.04,0.3033333333333333,-0.3422222222222222,-0.64,0.006544984694978735,-0.0015117938602734753,0.001090830782496456
1590503722.906247,-3.795823869574305,-0.6570880652128476,8.999232912979865,0.3033333333333333,-0.3422222222222222,-0.64,0.005592056264244268,0.002181661564992912,0.0014084735927412785
1590503722.916247,-3.8139667174843415,-0.65,8.927767022390391,0.3033333333333333,-0.3422222222222222,-0.64,0.0028397905937507153,1.8152796299648628e-05,0.0013162580575156067
1590503722.926247,-3.8179097823838957,-0.6520902176161041,8.982541305696625,0.3033333333333333,-0.3422222222222222,-0.64,0.0028656836803217095,-0.004640536578146964,0.0
1590503722.9362469,-3.808446734259814,-0.6568934685196275,9.033106531480373,0.3014348974286612,-0.34567392386708057,-0.642071020986915,0.005623588920761511,-0.011003522100422726,-0.0003388700165584629
1590503722.9462469,-3.799589885420782,-0.6404101145792177,9.047129197945477,0.2911111111111111,-0.3644444444444445,-0.6533333333333333,0.006455511573506486,-0.017274346276998795,-0.0022263981257290366
1590503722.9562469,-3.785822063552109,-0.6541779364478911,8.950754444864764,0.2911111111111111,-0.3644444444444445,-0.6533333333333333,0.003907580961518478,-0.011722742884555434,-0.0019052658420873295
1590503722.9662468,-3.788898366046655,-0.6555508169766725,8.92779673209331,0.2911111111111111,-0.3644444444444445,-0.6533333333333333,0.004243153507250627,-0.010788138202229363,0.0009706611597612591
1590503722.9762468,-3.7925975940451706,-0.6462987970225854,8.968506014887073,0.2911111111111111,-0.3644444444444445,-0.6533333333333333,0.007069108368494832,-0.010384184151448463,0.0009704457229834978
1590503722.9862468,-3.784971862499152,-0.64,9.007457793748728,0.2894538236113936,-0.3644444444444445,-0.6500187583338983,0.008461611877364283,-0.0062799503123713695,-0.0013620038155172205
1590503722.9962468,-3.8043308224577386,-0.64,9.03,0.28444444444444444,-0.3644444444444445,-0.64,0.0034184842399002102,-0.001236822674907298,-0.0017092421199501051
1590503723.0062468,-3.81,-0.6484469467757636,8.9835417927333,0.28444444444444444,-0.3644444444444445,-0.64,0.002181661564992912,-0.0009214189561112162,-0.0006301213044408479
1590503723.0162468,-3.81,-0.6648069939151976,8.95845595132158,0.28444444444444444,-0.3644444444444445,-0.64,0.0037547466451841142,-0.004279108338581181,-0.0005243616933970674
1590503723.0262468,-3.81,-0.6629527668121061,9.0,0.28444444444444444,-0.3644444444444445,-0.64,0.00545415391248228,-0.009619920252092854,-0.001090830782496456
1590503723.0362468,-3.8065917284197877,-0.65,9.001136090526737,0.28520183812893607,-0.36583299953267917,-0.6415147873689833,0.005330225660655499,-0.015643415710430725,-0.0012147590343232365
1590503723.0462468,-3.7845057899090153,-0.6522528949545079,9.01,0.2911111111111111,-0.37666666666666665,-0.6533333333333333,0.004854828563207449,-0.01854412330243975,-0.002181661564992912
1590503723.0562468,-3.804656236543706,-0.6832811827185302,8.982062580737763,0.2911111111111111,-0.37666666666666665,-0.6533333333333333,0.009084567771208463,-0.02108370637866948,-0.0011658283345010207
1590503723.0662467,-3.8040697832695596,-0.6951744581738986,8.973720866921761,0.2911111111111111,-0.37666666666666665,-0.6533333333333333,0.013292911198749027,-0.025615492954032048,-0.0006468862956440061
1590503723.0762467,-3.7913826585399053,-0.6634566463497633,9.024469365840378,0.2911111111111111,-0.37666666666666665,-0.6533333333333333,0.01606081243804477,-0.029075369503151732,-0.002030836915291879
1590503723.0862467,-3.775224271677297,-0.63,9.027163592484055,0.2927030205520121,-0.37374816602501487,-0.6586396981363366,0.024307681277931797,-0.03896050410686265,-0.002181661564992912
1590503723.0962467,-3.751822654014779,-0.6177339810221683,9.037733981022168,0.2977777777777777,-0.3644444444444445,-0.6755555555555556,0.022262620685919273,-0.03832953448293426,-0.002181661564992912
1590503723.1062467,-3.733573094867807,-0.6096403576982893,8.971798211508553,0.2977777777777777,-0.3644444444444445,-0.6755555555555556,0.01905158015751635,-0.028557754791604825,-0.0018311282672738914
1590503723.1162467,-3.7348585968353256,-0.6225707015823372,8.907146492088314,0.2977777777777777,-0.3644444444444445,-0.6755555555555556,0.008882280973379859,-0.011375211965189196,-0.0006856254121795159
1590503723.1262467,-3.76,-0.6129063631000781,8.981625452400312,0.2977777777777777,-0.3644444444444445,-0.6755555555555556,0.003234908678208348,0.0008113794183097712,0.0009511051004031137
1590503723.1362467,-3.76,-0.6195935970408635,9.008374388163453,0.2977777777777777,-0.3644444444444445,-0.6755555555555556,-0.0018713397644462967,0.005188163797728038,0.0031394972901122474
1590503723.1462467,-3.75,-0.6222723351586528,8.997727664841348,0.2766666666666667,-0.3566666666666667,-0.6611111111111111,-0.009370928674920374,0.015568702529164874,0.002181661564992912
1590503723.1562467,-3.750283142263599,-0.6297168577364007,8.988301146418404,0.2766666666666667,-0.3566666666666667,-0.6611111111111111,-0.015395175073734318,0.024338023541577845,0.0022125475946888954
1590503723.1662467,-3.774036106063665,-0.6312288848509321,8.949650548489132,0.2766666666666667,-0.3566666666666667,-0.6611111111111111,-0.020859835409786694,0.037222297147233525,0.003272492347489368
1590503723.1762466,-3.809320277273033,-0.6594562218184266,8.999048388182246,0.2766666666666667,-0.3566666666666667,-0.6611111111111111,-0.023938960216991004,0.040301421954437845,0.003272492347489368
1590503723.1862466,-3.830808473934447,-0.6716169478688939,9.1,0.27783446234975673,-0.3572954797267921,-0.6599433154280211,-0.01657138426540257,0.029782085357861702,0.001267212433404601
1590503723.1962466,-3.8396322632221147,-0.6892645264442293,9.1,0.2905799357652768,-0.36415842695053374,-0.647197842012501,-0.006946123292152086,0.009569037314035682,0.003192264628054698
1590503723.2062466,-3.7902853112607455,-0.64,8.97733239294174,0.2911111111111111,-0.3644444444444445,-0.6466666666666666,0.009079882310609988,-0.013349837548851513,0.0
1590503723.2162466,-3.7726484201085824,-0.6373515798914176,8.935296840217164,0.2911111111111111,-0.3644444444444445,-0.6466666666666666,0.011261966132180305,-0.020436887049490222,0.0
1590503723.2262466,-3.77936564116526,-0.63063435883474,8.948731282330519,0.2911111111111111,-0.3644444444444445,-0.6466666666666666,0.014925641882908899,-0.019704151899344508,0.0
1590503723.2362466,-3.771489454301975,-0.6429789086039505,9.024468362905925,0.29011814157646093,-0.3632859799873527,-0.6456736971320165,0.011674190087117746,-0.01696586973942839,-0.002181661564992912
1590503723.2462466,-3.78,-0.66,9.046756831030152,0.28444444444444444,-0.3566666666666667,-0.64,0.00910992733343833,-0.013473250463424149,-0.001827886710478024
1590503723.2562466,-3.78,-0.6531067456922889,9.02161798851277,0.28444444444444444,-0.3566666666666667,-0.64,0.007886461277156111,-0.013001721806184691,-0.001090830782496456
1590503723.2662466,-3.7663110529329953,-0.6334222367667512,8.96,0.28444444444444444,-0.3566666666666667,-0.64,0.00760672189692264,-0.01524253737439783,-0.00071752266148012
1590503723.2762465,-3.7429461543094624,-0.64,8.965892308618924,0.28444444444444444,-0.3566666666666667,-0.64,0.004329339378721216,-0.011161715903509933,0.0003213755810745898
1590503723.2862465,-3.7555773053062698,-0.64,8.99115461061254,0.28444444444444444,-0.3566666666666667,-0.64,-0.0004931175352663473,-0.002894646908102684,0.0016992204136424649
1590503723.2962465,-3.7796529968454258,-0.6396529968454259,9.046182965299685,0.2977777777777777,-0.3566666666666667,-0.6466666666666666,-0.001015126437969888,0.0031967880029628,0.002030252875939776
1590503723.3062465,-3.770652159917595,-0.6306521599175948,8.947173759093543,0.2977777777777777,-0.3566666666666667,-0.6466666666666666,0.0009485515598519044,0.0012331100051410073,-0.0018971031197038087
1590503723.3162465,-3.75,-0.6377412993657731,8.882258700634228,0.2977777777777777,-0.3566666666666667,-0.6466666666666666,-0.0025691468906518617,0.008762458857211844,0.001090830782496456
1590503723.3262465,-3.75,-0.6302899323135959,8.889710067686405,0.2977777777777777,-0.3566666666666667,-0.6466666666666666,-0.0074460552219686935,0.016077821354187092,0.001090830782496456
1590503723.3362465,-3.770819515812894,-0.64,8.974097579064471,0.29723143390251505,-0.3569853672605699,-0.6469398386042979,-0.010997703132509298,0.023086237047515053,0.001090830782496456
1590503723.3462465,-3.7930498471354515,-0.6430498471354513,9.068475076432275,0.28444444444444444,-0.3644444444444445,-0.6533333333333333,-0.012757282676231581,0.026439052778096675,0.0012571741393594008
1590503723.3562465,-3.8124928785514354,-0.6649857571028709,9.037564093037082,0.28444444444444444,-0.3644444444444445,-0.6533333333333333,-0.01036444609277837,0.018825376122905076,0.001909730698899817
1590503723.3662465,-3.82,-0.6748781829786298,8.987926359574796,0.28444444444444444,-0.3644444444444445,-0.6533333333333333,-0.006771183775742906,0.006744607424394368,0.0005321272155739584
1590503723.3762465,-3.8151426810109967,-0.6616191063296677,9.04647642531867,0.28444444444444444,-0.3644444444444445,-0.6533333333333333,0.000498723139586295,-0.004477683896890219,-0.001267447884950095
1590503723.3862464,-3.7901205082824587,-0.6699598305725138,9.079839322290056,0.28444444444444444,-0.3644444444444445,-0.6533333333333333,0.008687210016756134,-0.01630549827502443,-0.002177279760191188
1590503723.3962464,-3.786145519759175,-0.65,9.077430346506118,0.2911111111111111,-0.3422222222222222,-0.6533333333333333,0.01132876639468618,-0.028221447488333978,-0.00042045856972162124
1590503723.4062464,-3.7614877676854737,-0.6511158257641053,9.057024464629054,0.2911111111111111,-0.3422222222222222,-0.6533333333333333,0.014221372742166881,-0.02743305984126322,-0.003272492347489368
1590503723.4162464,-3.804551758208797,-0.68,8.986827637313196,0.2911111111111111,-0.3422222222222222,-0.6533333333333333,0.01725771014240516,-0.035357991168874926,-0.003024232449057521
1590503723.4262464,-3.8193524710199904,-0.68,9.009028706529985,0.2911111111111111,-0.3422222222222222,-0.6533333333333333,0.02371573939734086,-0.047466796021879365,-0.0022169787921905585
1590503723.4362464,-3.8271139963461573,-0.651544014615371,9.066911970769258,0.2911111111111111,-0.3422222222222222,-0.6533333333333333,0.030982426795782114,-0.06274087021165979,-0.004509711425279606
1590503723.4462464,-3.7877803189322976,-0.6573363827187568,9.084672765437514,0.2911111111111111,-0.35,-0.6611111111111111,0.04700257550478659,-0.09424728065317065,-0.007635815477475192
1590503723.4562464,-3.7280111076181495,-0.6,8.95081777218904,0.2911111111111111,-0.35,-0.6611111111111111,0.04699492875503494,-0.10179802493702093,-0.007897372534638389
1590503723.4662464,-3.679601599471734,-0.5958406397886936,8.884800799735867,0.2911111111111111,-0.35,-0.6611111111111111,0.038659304644624894,-0.09270366919804976,-0.008386359398422853
1590503723.4762464,-3.6026673759125427,-0.5650669503650171,8.846333687956271,0.2911111111111111,-0.35,-0.6611111111111111,0.026070971751750376,-0.06836622560515904,-0.005868692819847949
1590503723.4862463,-3.7742725460886892,-0.6375884404583956,9.101860986547084,0.2911111111111111,-0.35,-0.6611111111111111,0.006013157131115866,-0.010403655915872403,-0.0033382574320344957
1590503723.4962463,-3.717212549673963,-0.6220607284782752,9.056182185434826,0.27815497056764327,-0.34302361663044034,-0.6591178587198083,0.0015404119941903865,7.927305618511162e-05,-0.0003371859087704485
1590503723.5062463,-3.715261120543294,-0.6382462931522355,9.04421663837012,0.2766666666666667,-0.3422222222222222,-0.6588888888888889,0.004363323129985824,-0.0059710854710738085,-0.00019129974130164222
1590503723.5162463,-3.7386206982793118,-0.6272413965586234,8.97827581032413,0.2766666666666667,-0.3422222222222222,-0.6588888888888889,0.0036110307423472742,-0.002971575392433948,-0.001090830782496456
1590503723.5262463,-3.7270506876072846,-0.61,9.027050687607284,0.2766666666666667,-0.3422222222222222,-0.6588888888888889,-0.001090830782496456,-0.001090830782496456,-0.0014125508570136912
1590503723.5362463,-3.7104995757946453,-0.61,9.010499575794645,0.2766666666666667,-0.3422222222222222,-0.6588888888888889,-0.001090830782496456,-0.001090830782496456,-0.0032179970819904624
1590503723.5462463,-3.713079329255014,-0.6353810061174794,8.996920670744986,0.28444444444444444,-0.3422222222222222,-0.6677777777777778,-0.002685515636114545,8.482871678735463e-05,-0.0009228794254559115
1590503723.5562463,-3.7296868008948545,-0.6104697986577181,8.980313199105145,0.28444444444444444,-0.3422222222222222,-0.6677777777777778,-0.005402906828740835,0.0064254081662486985,-1.7082361247147942e-05
1590503723.5662463,-3.6868418487927297,-0.6036836975854591,8.90315815120727,0.28444444444444444,-0.3422222222222222,-0.6677777777777778,-0.01050647875300189,0.011195480463535674,0.0005167512829003385
1590503723.5762463,-3.6639137820142818,-0.5712172435971437,8.921217243597143,0.28444444444444444,-0.3422222222222222,-0.6677777777777778,-0.015774168315127145,0.02133251755211789,0.003272492347489368
1590503723.5862463,-3.6293284628197306,-0.5781343074360539,8.928134307436054,0.28444444444444444,-0.3422222222222222,-0.6677777777777778,-0.02482858370709882,0.037177744488068314,0.003272492347489368
1590503723.5962462,-3.6826460515713135,-0.6113230257856567,9.040441008595218,0.2911111111111111,-0.35,-0.6466666666666666,-0.04331210571897827,0.08814800139636228,0.004555749430389946
1590503723.6062462,-3.724893231265109,-0.6324466156325544,9.047482205210851,0.2911111111111111,-0.35,-0.6466666666666666,-0.05560131214128525,0.11963909285352389,0.007628051035966688
1590503723.6162462,-3.793779217942183,-0.6492441564115634,8.989622078205782,0.2911111111111111,-0.35,-0.6466666666666666,-0.06544984694978735,0.15041097336655807,0.006586209567629698
1590503723.6262462,-3.870133619748052,-0.6339732760503896,8.981986638025194,0.2911111111111111,-0.35,-0.6466666666666666,-0.06544984694978735,0.14791228141048968,0.007419106886319147
1590503723.6362462,-3.9423242088696533,-0.7084863133044798,9.119531223652409,0.2911111111111111,-0.35,-0.6466666666666666,-0.058790880217561646,0.13299294121082358,0.008587096439221722
1590503723.6462462,-3.8655111837401694,-0.7365335512205087,9.119900163415382,0.27111111111111114,-0.3688888888888889,-0.6533333333333333,-0.04844264639727495,0.061521725305260296,0.005331740438652438
1590503723.6562462,-3.8274812162067273,-0.6312593918966365,9.028665472930271,0.27111111111111114,-0.3688888888888889,-0.6533333333333333,-0.016079509071865637,0.020168075512235928,0.00450070147479359
1590503723.6662462,-3.8127550733796784,-0.6386224633101608,8.962397830208552,0.27111111111111114,-0.3688888888888889,-0.6533333333333333,-0.008047644120273603,0.01052983757032549,0.005303887969952793
1590503723.6762462,-3.761125215064041,-0.6354991397438349,9.011125215064041,0.27111111111111114,-0.3688888888888889,-0.6533333333333333,-0.007513073554596695,0.0121080340069295,0.011644759362235538
1590503723.6862462,-3.7691433760275284,-0.6034264958898872,9.019143376027527,0.27111111111111114,-0.3688888888888889,-0.6533333333333333,-0.006638427874798399,0.0051108685685431355,0.01689263344102531
1590503723.6962461,-3.7537718079721234,-0.64,9.063399336048784,0.2977777777777777,-0.3566666666666667,-0.6611111111111111,-0.005042713488316498,0.0042604630239443785,0.022022335862012007
1590503723.7062461,-3.786336030787885,-0.6390840076969713,8.991756069272741,0.2977777777777777,-0.3566666666666667,-0.6611111111111111,-0.001090830782496456,0.003072653827354661,0.024497873515258797
1590503723.7162461,-3.748263987190495,-0.62652797438099,8.91347202561901,0.2977777777777777,-0.3566666666666667,-0.6611111111111111,-0.0012802004036380796,0.0018483092670629505,0.029452431127404314
1590503723.726246,-3.7388609006999047,-0.6134172979002861,8.939112794400762,0.2977777777777777,-0.3566666666666667,-0.6611111111111111,-0.0023059180230793307,0.005578410370568698,0.029576687585490733
1590503723.736246,-3.731314345346264,-0.6360569639612084,8.999485237229889,0.2977777777777777,-0.3566666666666667,-0.6611111111111111,-0.003129119511235808,0.006401611858725176,0.03039988907364721
1590503723.746246,-3.7527856594671634,-0.6475952198223879,8.994809560355224,0.31296821742255354,-0.3566666666666667,-0.6450767581527367,-0.0016154724310717716,0.0015739249457259463,0.023915182244230383
1590503723.756246,-3.735701762987077,-0.65,9.014298237012923,0.31777777777777777,-0.3566666666666667,-0.64,-0.00307872564955332,-0.0019878948670568643,0.016515562671110814
1590503723.766246,-3.7529145087442766,-0.6582286271860692,8.964170982511446,0.31777777777777777,-0.3566666666666667,-0.64,-0.002568115163535528,-0.0005796803978139241,-0.0012716943416448967
1590503723.776246,-3.751837231453064,-0.6904593078632659,9.020229653931633,0.31777777777777777,-0.3566666666666667,-0.64,-0.001090830782496456,0.002281866996171547,-0.019960621736266775
1590503723.786246,-3.822859350195788,-0.708214837548947,9.029107418774473,0.31777777777777777,-0.3566666666666667,-0.64,-0.001090830782496456,0.0061555226643056436,-0.03255000265770258
1590503723.796246,-3.844121918808138,-0.7170609594040689,9.037060959404068,0.3075786141941226,-0.3566666666666667,-0.6549064698530345,0.0012198627790784174,0.006544984694978735,-0.039977603754923124
1590503723.806246,-3.7689075993838803,-0.6693172496149253,8.998634499229851,0.3033333333333333,-0.3566666666666667,-0.6611111111111111,0.0033022829529613987,0.007635815477475192,-0.04470916677961867
1590503723.816246,-3.7108359149201293,-0.6330224468250809,8.926044893650163,0.3033333333333333,-0.3566666666666667,-0.6611111111111111,0.00488594247807342,0.007635815477475192,-0.043917337017062665
1590503723.826246,-3.616591026007431,-0.6282955130037153,8.952272649328378,0.3033333333333333,-0.3566666666666667,-0.6611111111111111,0.0022436384611233193,0.009941430834728919,-0.04699245389132889
1590503723.836246,-3.5686424692769365,-0.6043212346384681,8.984238353815376,0.3033333333333333,-0.3566666666666667,-0.6611111111111111,0.0031153678220883353,0.01168488955665895,-0.0635553117496642
1590503723.846246,-3.5732205420311476,-0.64,8.998389728984426,0.3033333333333333,-0.3422222222222222,-0.64,0.0030090123686969104,0.013177796049554956,-0.08754394750345318
1590503723.856246,-3.6106216036784775,-0.6406216036784774,8.978135188964568,0.3033333333333333,-0.3422222222222222,-0.64,-3.39032213498124e-05,0.014282509836503362,-0.11654344992106926
1590503723.866246,-3.6321884498480244,-0.66,8.922188449848024,0.3033333333333333,-0.3422222222222222,-0.64,-0.001090830782496456,0.01763233465445639,-0.14627410830211596
1590503723.876246,-3.6683547823837546,-0.66,8.958354782383756,0.3033333333333333,-0.3422222222222222,-0.64,-0.001090830782496456,0.020591185815954732,-0.1659997827121049
1590503723.886246,-3.5869993214972293,-0.6071813864073278,9.027909646047721,0.3033333333333333,-0.3422222222222222,-0.64,-0.0019139189195774922,0.019902696730351627,-0.18171269618941643
1590503723.896246,-3.511084612457186,-0.5533134593428898,9.056114423442851,0.31216527830634133,-0.34697788489999576,-0.6481525645904689,-0.0008477013032567916,0.020301934215804267,-0.20187260681685937
1590503723.906246,-3.422166618326231,-0.5194848396956784,9.06,0.31777777777777777,-0.35,-0.6533333333333333,-0.001147026054283884,0.021299297894574604,-0.22940007564571266
1590503723.916246,-3.328748105607402,-0.5925037887851958,8.919743559065168,0.31777777777777777,-0.35,-0.6533333333333333,0.004118175508570512,0.023616569099518668,-0.279636041603904
1590503723.926246,-3.348077852817305,-0.7035928427243502,8.936796421362175,0.31777777777777777,-0.35,-0.6533333333333333,0.0085169725284344,0.025019216753572736,-0.32160044011069194
1590503723.936246,-3.4046659790542684,-0.7880942557918121,8.979047127895907,0.31777777777777777,-0.35,-0.6533333333333333,0.009578522441510256,0.02849661272357292,-0.3435698945768354
1590503723.946246,-3.382397090723491,-0.8508145974224831,8.980814597422484,0.3033333333333333,-0.3422222222222222,-0.6611111111111111,0.01193989941120856,0.027330008758663853,-0.3555219762994659
1590503723.956246,-3.1017234509441587,-0.8788964601258878,9.006137610440607,0.3033333333333333,-0.3422222222222222,-0.6611111111111111,0.009877665805687795,0.029572808653843694,-0.3519170214038175
1590503723.966246,-3.0108957960385747,-0.8667861061384766,8.963751371484667,0.3033333333333333,-0.3422222222222222,-0.6611111111111111,0.010538183151507636,0.03089384334548338,-0.34729339998307857
1590503723.9762459,-2.9077789465167085,-0.8450796990047739,8.999681203980904,0.3033333333333333,-0.3422222222222222,-0.6611111111111111,0.009280755463994041,0.034889197414338255,-0.34063364636645377
1590503723.9862459,-2.8841887179821417,-0.9271692302678746,9.060678974125008,0.3033333333333333,-0.3422222222222222,-0.6611111111111111,0.010628383853226035,0.035997415822383035,-0.33481098563880424
1590503723.9962459,-2.908925708177445,-1.0420662747194014,9.055289150187065,0.30783288793871366,-0.3467217768276026,-0.6527547954154047,0.015785504953717017,0.040414843226348376,-0.3126807261476426
1590503724.0062459,-2.905061902198667,-1.0051857065960002,8.861667839841,0.3111111111111111,-0.35,-0.6466666666666666,0.04030671909332097,0.06199542149841428,-0.2601230106515217
1590503724.0162458,-2.9250847395044866,-0.9950847395044862,8.698601705867148,0.3111111111111111,-0.35,-0.6466666666666666,0.04101246634193337,0.05299311765739696,-0.1716487062612138
1590503724.0262458,-2.778974323875081,-1.0679615542562138,8.773064121868707,0.3111111111111111,-0.35,-0.6466666666666666,0.011263520570924064,0.02299554567821063,-0.10157870770014317
1590503724.0362458,-2.25112468980975,-0.9094404568135123,8.768598340315393,0.3111111111111111,-0.35,-0.6466666666666666,0.00046896671472057257,0.006473673346228401,-0.014160862101476795
1590503724.0462458,-2.0568107324147933,-0.8459579405366208,8.93552574329224,0.32437305615985823,-0.35,-0.6466666666666666,-0.0061270042849199055,-0.0017636811549340816,0.03959359776827528
1590503724.0562458,-2.2730657829270027,-0.7606812850948895,9.002384497832113,0.33,-0.35,-0.6466666666666666,-0.012829861026350961,-0.010151902081390761,0.048394615787249476
1590503724.0662458,-2.3401435780794655,-0.7755874617954368,9.05455611628403,0.33,-0.35,-0.6466666666666666,-0.0071388202883500024,-0.017468954458820567,0.009370336440957187
1590503724.0762458,-2.4097225321852673,-0.7997225321852672,9.078473927018969,0.33,-0.35,-0.6466666666666666,0.0013329671292664834,0.0002875369117894077,-0.07309957872690433
1590503724.0862458,-2.39575154472628,-0.7857515447262795,9.001633495994538,0.33,-0.35,-0.6466666666666666,0.013524953674975084,0.014765520934818371,-0.12872551734169985
1590503724.0962458,-2.380958522643998,-0.7980829547120035,8.997124432068006,0.3129216538831078,-0.34296773983422085,-0.6406390150959989,0.016571578938605475,0.024670873595101214,-0.2236233480469585
1590503724.1062458,-2.351358273451156,-0.8,8.980905515634104,0.3111111111111111,-0.3422222222222222,-0.64,0.01219669147300344,0.01988189516686424,-0.3135300886120058
1590503724.1162457,-2.392645243668866,-0.8182765330009425,8.91298604566321,0.3111111111111111,-0.3422222222222222,-0.64,0.008676371141670957,0.027609596002832353,-0.3672732696933196
1590503724.1262457,-2.4135680044372254,-0.83,8.83140802662335,0.3111111111111111,-0.3422222222222222,-0.64,0.005843362819703194,0.03693465472654694,-0.4504624632888175
1590503724.1362457,-2.3909403391007467,-0.8363532202997511,8.854472542098259,0.3111111111111111,-0.3422222222222222,-0.64,0.002682038604102304,0.04412110995953738,-0.5322379332022587
1590503724.1462457,-2.4094571958314686,-0.8620928968736015,8.938914391662937,0.32093017638826726,-0.3422222222222222,-0.6498190652771562,-0.0029257712148775704,0.04770904404682241,-0.6255276749272061
1590503724.1562457,-2.413770012941394,-0.8886899611758181,8.984919948234424,0.3244444444444444,-0.3422222222222222,-0.6533333333333333,-0.0030041507983694224,0.05003531292726866,-0.7009612057359345
1590503724.1662457,-2.4325099227073324,-0.9225099227073325,8.969986769723558,0.3244444444444444,-0.3422222222222222,-0.6533333333333333,0.007640145075316728,0.0602723695309506,-0.7976985128863235
1590503724.1762457,-2.4659526430690577,-0.9429763215345287,8.966488160767264,0.3244444444444444,-0.3422222222222222,-0.6533333333333333,0.019401290409025933,0.06680692812815335,-0.8715873102565502
1590503724.1862457,-2.496649704766934,-0.9666497047669339,8.975549901588979,0.3244444444444444,-0.3422222222222222,-0.6533333333333333,0.026419878612155293,0.07780334453690146,-0.9459458221070082
1590503724.1962457,-2.485507064364207,-1.0044929356357928,8.98,0.3407730682016396,-0.3422222222222222,-0.6714762486191058,0.032814541702445715,0.08508480103472357,-1.0433985374918218
1590503724.2062457,-2.489376054393947,-1.0381281631818415,8.88623945606053,0.34444444444444444,-0.3422222222222222,-0.6755555555555556,0.0317702165071344,0.09838079641138585,-1.1296316183731445
1590503724.2162457,-2.497813977409847,-1.0790698870492355,8.872186022590153,0.34444444444444444,-0.3422222222222222,-0.6755555555555556,0.02907697456467928,0.09841322849793817,-1.1958348488615447
1590503724.2262456,-2.4846316103676434,-1.113052584448535,8.87768419481618,0.34444444444444444,-0.3422222222222222,-0.6755555555555556,0.026685169096070455,0.10320406417119322,-1.2691642769721119
1590503724.2362456,-2.473663864240918,-1.139008407277246,8.886336135759082,0.34444444444444444,-0.3422222222222222,-0.6755555555555556,0.023415278008681668,0.10748441589089304,-1.3323975604814788
1590503724.2462456,-2.5486073361850323,-1.2024048907900216,8.91620244539501,0.35997181949333973,-0.3315471518761067,-0.6813783211988913,0.023722111250833136,0.1186105562541657,-1.4153872752172527
1590503724.2562456,-2.5518757761360527,-1.266869567047631,9.082484477278946,0.3622222222222222,-0.33,-0.6822222222222222,0.01247747769783022,0.10935680190498694,-1.4775933073534595
1590503724.2662456,-2.580062069969784,-1.2860124139939568,8.939627580181295,0.3622222222222222,-0.33,-0.6822222222222222,0.012440887547156328,0.11477164819871737,-1.524179185451106
1590503724.2762456,-2.6408176015211193,-1.3580293358685318,8.935649870976505,0.3622222222222222,-0.33,-0.6822222222222222,0.027538329034527194,0.12444389569530125,-1.5861285512294128
1590503724.2862456,-2.66,-1.407879837291117,8.998939918645558,0.3622222222222222,-0.33,-0.6822222222222222,0.028939785031595524,0.12361078923411213,-1.6309423148715774
1590503724.2962456,-2.6642812224877375,-1.4307135370812896,8.999296943780656,0.36515565244530157,-0.3276215430623681,-0.6822222222222222,0.023841464287693577,0.1212367432149675,-1.6671751799068946
1590503724.3062456,-2.662311792138574,-1.4564823451032645,8.810552964690206,0.4033333333333333,-0.2966666666666667,-0.6822222222222222,0.045886112995886894,0.14373748588678317,-1.7498459164268514
1590503724.3162456,-2.724862391390641,-1.559816521854188,8.783363913024301,0.4033333333333333,-0.2966666666666667,-0.6822222222222222,0.033478829811140295,0.13872898955134574,-1.799066848880564
1590503724.3262455,-2.722990549203622,-1.6026792677285044,8.836698169321261,0.4033333333333333,-0.2966666666666667,-0.6822222222222222,0.04414984575940285,0.15166974352812382,-1.83162736887529
1590503724.3362455,-2.6437022752317367,-1.62,8.813702275231737,0.4033333333333333,-0.2966666666666667,-0.6822222222222222,0.05064740687169283,0.16197748198438194,-1.870075972987229
1590503724.3462455,-2.616365890031569,-1.697926907210505,8.85390254294734,0.42065042382455664,-0.28627641237193274,-0.689726294768419,0.041805419497149776,0.152375748431346,-1.910286832345786
1590503724.3562455,-2.520337297297297,-1.7453023423423424,8.746244324324323,0.43666666666666665,-0.2766666666666667,-0.6966666666666667,0.040455867258446035,0.15813367003451162,-1.950558902288343
1590503724.3662455,-2.6568090866529603,-1.8894184460683534,8.983474057035846,0.43666666666666665,-0.2766666666666667,-0.6966666666666667,0.032804081814291564,0.14463809554351154,-1.9961883355682137
1590503724.3762455,-2.7150470809792844,-1.9718808851224106,8.970783898305084,0.43666666666666665,-0.2766666666666667,-0.6966666666666667,0.012214582822742213,0.15590329185683988,-2.0457624867938025
1590503724.3862455,-2.740864123510455,-2.0449175597691673,8.845082440230833,0.43666666666666665,-0.2766666666666667,-0.6966666666666667,0.04513025205034043,0.17110105530487946,-2.0685450779970598
1590503724.3962455,-2.7342578246048963,-2.1572265261853114,8.955872327238922,0.46431566986881523,-0.23280962710463798,-0.7023871500878008,0.04158509256073645,0.17375173215996925,-2.1404358009483806
1590503724.4062455,-2.706195741109829,-2.154130494073219,8.821304940732192,0.4688888888888889,-0.2255555555555556,-0.7033333333333334,0.03817907738737596,0.17344209441693648,-2.151118303083011
1590503724.4162455,-2.6667557350732745,-2.2746659934752214,8.84648852985345,0.4688888888888889,-0.2255555555555556,-0.7033333333333334,0.05449781777296882,0.1716289010407595,-2.177409607037577
1590503724.4262455,-2.4991279663903714,-2.24369478823663,8.771520381514705,0.4688888888888889,-0.2255555555555556,-0.7033333333333334,0.05430434814622841,0.17213785368346454,-2.243294433150353
1590503724.4362454,-2.4894200382521703,-2.2937434162130352,8.76961335883478,0.4688888888888889,-0.2255555555555556,-0.7033333333333334,0.042753280559762886,0.17769997752572178,-2.275670475608894
1590503724.4462454,-2.5529229797979798,-2.389630681818182,8.855845959595959,0.47986321548821553,-0.20836244388327724,-0.7102837401795735,0.03450716467760885,0.1793090974797386,-2.3047911555345904
1590503724.4562454,-2.501834602057243,-2.4795413494856895,8.967843987885734,0.5022222222222222,-0.17333333333333334,-0.7244444444444444,0.05244496896817228,0.19140081621161592,-2.345271211755839
1590503724.4662454,-2.2540845136810352,-2.42898800405364,8.68544601824138,0.5022222222222222,-0.17333333333333334,-0.7244444444444444,0.06753818722278945,0.1885481379223792,-2.376788828292298
1590503724.4762454,-2.2213355356300144,-2.478938178386031,8.675205285512034,0.5022222222222222,-0.17333333333333334,-0.7244444444444444,0.04287495204425782,0.19364485706869364,-2.41190150401824
1590503724.4862454,-2.3217162585421414,-2.639850512528474,8.807164009111618,0.5022222222222222,-0.17333333333333334,-0.7244444444444444,0.035093799804735606,0.2003139746193191,-2.4448285290834426
1590503724.4962454,-2.35274905370844,-2.74931273657289,8.772903529411765,0.5172260755896562,-0.15212098891730605,-0.7337571810173344,0.052193089254201325,0.20129576377569489,-2.4724467203730467
1590503724.5062454,-2.2494799235181646,-2.784208030592734,8.728676099426385,0.5344444444444445,-0.12777777777777774,-0.7444444444444445,0.042802865045312374,0.19609166261236805,-2.5106308500854606
1590503724.5162454,-2.268573425395756,-2.885197709666554,8.795974570562478,0.5344444444444445,-0.12777777777777774,-0.7444444444444445,0.03874605955765165,0.19656215916321546,-2.538632852347776
1590503724.5262454,-2.259695971085362,-2.9650253357428866,8.774822649799795,0.5344444444444445,-0.12777777777777774,-0.7444444444444445,0.047453902739419636,0.20565200320964377,-2.5613259513181545
1590503724.5362453,-2.189142623684364,-3.0568590105250872,8.76171475263127,0.5344444444444445,-0.12777777777777774,-0.7444444444444445,0.04325913030894663,0.20629156966830284,-2.585206901459111
1590503724.5462453,-2.026460026160371,-3.0422628720916403,8.860425700582663,0.5344444444444445,-0.060350170218575624,-0.7444444444444445,0.04804299115981359,0.2073865657554433,-2.6073430043287633
1590503724.5562453,-1.958104139529376,-3.004052069764688,8.806728976705632,0.5344444444444445,-0.03555555555555556,-0.7444444444444445,0.049322591159487505,0.21008832877860154,-2.6205323528464635
1590503724.5662453,-2.018520281851076,-3.1438925918872593,8.736295943629784,0.5344444444444445,-0.03555555555555556,-0.7444444444444445,0.04276447214304998,0.2232368265754588,-2.628962845231521
1590503724.5762453,-1.947197802197802,-3.1676696832579188,8.675575307045897,0.5344444444444445,-0.03555555555555556,-0.7444444444444445,0.04431861431251923,0.21720083824380468,-2.633291246065747
1590503724.5862453,-1.9045062836624775,-3.2135188509874326,8.772333931777379,0.5344444444444445,-0.03555555555555556,-0.7444444444444445,0.04209392610229591,0.21371666361269884,-2.631170017138058
1590503724.5962453,-1.904412208215212,-3.3326463196413134,8.850295152502161,0.5406044683926342,-0.019918571687074012,-0.7567644923408239,0.0370882466048795,0.21677055895254338,-2.6211381340644744
1590503724.6062453,-1.7921058946472115,-3.3121058946472117,8.827122343925378,0.5488888888888889,0.0011111111111111113,-0.7733333333333333,0.03255655125054116,0.2126278164746327,-2.6062665499107087
1590503724.6162453,-1.6993222515350312,-3.2124296687133755,8.638759601242032,0.5488888888888889,0.0011111111111111113,-0.7733333333333333,0.0366321060089536,0.20902661271926223,-2.5791494226045786
1590503724.6262453,-1.598680110890312,-3.15082775201786,8.607270675400505,0.5488888888888889,0.0011111111111111113,-0.7733333333333333,0.02503542416852106,0.2083486794568231,-2.55390574303861
1590503724.6362453,-1.613202119876519,-3.3002467836048606,8.687881907888867,0.5488888888888889,0.0011111111111111113,-0.7733333333333333,0.0243475743079771,0.20080419314962453,-2.53084021431372
1590503724.6462452,-1.650605499103407,-3.456263000597729,8.758183502689779,0.558979278740785,0.013289167828916782,-0.7799442784087135,0.028086056358845094,0.20168294051144486,-2.5011748990730327
1590503724.6562452,-1.6195069532237674,-3.4804930467762327,8.77802781289507,0.5811111111111111,0.04,-0.7944444444444444,0.025947568379345212,0.21473231497158426,-2.4562992450419356
1590503724.6662452,-1.5601943198804187,-3.521177130044843,8.626468609865471,0.5811111111111111,0.04,-0.7944444444444444,0.03080007184748401,0.20873389436319797,-2.403783409800628
1590503724.6762452,-1.4958494760241345,-3.525849476024135,8.591225785963799,0.5811111111111111,0.04,-0.7944444444444444,0.03027583689748817,0.21309281765198024,-2.3568740222294986
1590503724.6862452,-1.467951020949937,-3.5428285733247793,8.758730615224653,0.5811111111111111,0.04,-0.7944444444444444,0.015761169110686132,0.20970553945300538,-2.2942515521159668
1590503724.6962452,-1.4024824107687859,-3.5051331641340315,8.699494972210621,0.571994695566193,0.04425432725429513,-0.7865435509721821,0.024119145765339044,0.19719863453102449,-2.2319529747882263
1590503724.7062452,-1.29198871393465,-3.4860225721307,8.53732957131155,0.5644444444444444,0.04777777777777778,-0.78,0.016721968269113326,0.19402530779045227,-2.1659778567500076
1590503724.7162452,-1.2637258377853327,-3.5237258377853324,8.649209082078679,0.5644444444444444,0.04777777777777778,-0.78,-0.0001706178016041681,0.18251191000151334,-2.1047493857932955
1590503724.7262452,-1.250984120528073,-3.5245079397359635,8.661396783432474,0.5644444444444444,0.04777777777777778,-0.78,-0.005945893855445076,0.16940082397666328,-2.051416347379078
1590503724.7362452,-1.2372570902605995,-3.590344014266812,8.579028361042397,0.5644444444444444,0.04777777777777778,-0.78,-0.0005608839402838021,0.16790071420360453,-1.9930284768847601
1590503724.7462451,-1.19862488658052,-3.682020587591127,8.685958824817748,0.570254650633237,0.07159962315182741,-0.7648934639091393,0.002722486463445365,0.15747045597320283,-1.9087446862435542
1590503724.7562451,-1.17,-3.6903610964681075,8.816396463315282,0.5755555555555556,0.09333333333333334,-0.7511111111111111,0.0010417964568156367,0.1422010865986938,-1.833538632130792
1590503724.7662451,-1.1133016437971246,-3.6607020090853744,8.687703835526623,0.5755555555555556,0.09333333333333334,-0.7511111111111111,0.014104222860462068,0.14318240866371804,-1.754188312125337
1590503724.776245,-1.0210681275080031,-3.6141068127508005,8.5982136255016,0.5755555555555556,0.09333333333333334,-0.7511111111111111,0.012115653243997111,0.1382040402369338,-1.6817275809645231
1590503724.786245,-0.989612867937524,-3.6772900755626683,8.633257905718859,0.5755555555555556,0.09333333333333334,-0.7511111111111111,0.006062913639326523,0.12630767705632076,-1.6169561938174275
1590503724.796245,-0.9932206631327305,-3.75,8.690169005300904,0.5834647819007034,0.11593112289089838,-0.7778518287542298,0.0025145457950531544,0.11817947997660377,-1.5510702377153682
1590503724.806245,-0.959906505031297,-3.729906505031297,8.802430076856034,0.5988888888888889,0.16,-0.83,0.008991726523811014,0.1110098582697861,-1.4643943880511396
1590503724.816245,-0.9032575128673419,-3.6910858376224476,8.619090154408102,0.5988888888888889,0.16,-0.83,0.026429237895323605,0.10364133043190032,-1.3754259618753977
1590503724.826245,-0.8605132468684181,-3.6388907364298118,8.567847614824668,0.5988888888888889,0.16,-0.83,0.010480286833968375,0.09976948014195886,-1.3043735545196922
1590503724.836245,-0.8188643741733798,-3.5640904172177468,8.992397799687387,0.5988888888888889,0.16,-0.83,-0.0024925358781120906,0.08347321233207534,-1.225128026715278
1590503724.846245,-0.7810415414211855,-3.589305639052543,8.406143892028377,0.5988888888888889,0.16,-0.83,0.04770507492278016,0.09034959737329346,-1.1687416693772896
1590503724.856245,-0.712617255241999,-3.573086276209995,8.798405328708814,0.5488888888888889,0.08,-0.73,0.002844750133432246,0.08123107972031912,-1.0696353152672313
1590503724.866245,-0.7450784610972262,-3.7501569221944524,8.39499282992584,0.5488888888888889,0.08,-0.73,0.0296236066875699,0.07070793110183976,-0.9948470145485366
1590503724.876245,-0.7161279884954161,-3.653535861944994,8.821583677871653,0.5488888888888889,0.08,-0.73,-0.003125819432639943,0.06808701811530862,-0.9020733297716127
1590503724.886245,-0.703465091120912,-3.617031150314832,8.689209453274527,0.5488888888888889,0.08,-0.73,0.025456076895094475,0.05814889664303941,-0.8353057216754555
1590503724.896245,-0.68,-3.755770361041142,8.809803736356004,0.5341424106726373,0.10308144416456759,-0.7094831607426065,0.005475562954917926,0.0607503904048761,-0.7554383265156335
1590503724.906245,-0.6598656182987849,-3.7728763402430308,8.751370979270908,0.4977777777777778,0.16,-0.6588888888888889,0.016555988685420835,0.05234521879020091,-0.6853731131680039
1590503724.916245,-0.5799843178254052,-3.795007841087297,8.664966021955044,0.4977777777777778,0.16,-0.6588888888888889,0.02181205389025323,0.038720216128928044,-0.603212886341715
1590503724.926245,-0.5749400089986502,-3.80501199820027,8.739664050392442,0.4977777777777778,0.16,-0.6588888888888889,0.003296050758629621,0.03707254099745267,-0.540037147771642
1590503724.936245,-0.5636888372864488,-3.7727666279648364,8.730216453806602,0.4977777777777778,0.16,-0.6588888888888889,0.0018719987877093341,0.03719671451897913,-0.4835713108707365
1590503724.946245,-0.5520192899651138,-3.841394418222861,9.211731992612354,0.4900694301935837,0.20328533643432065,-0.6440651435346695,0.024805935220923916,0.03061668536499185,-0.42351499534124976
1590503724.956245,-0.5357153712063648,-3.7908197380771465,8.935939301837035,0.4833333333333333,0.2411111111111111,-0.6311111111111111,0.09189555780297756,0.15723238701916523,-0.3280523530008155
1590503724.966245,-0.43125843070200437,-3.5706879927804693,7.7979533580317275,0.4833333333333333,0.2411111111111111,-0.6311111111111111,0.0635683788660229,0.0795209112242016,-0.2893007685429464
1590503724.976245,-0.4052234675797814,-3.500178774063825,8.837916426111365,0.4833333333333333,0.2411111111111111,-0.6311111111111111,-0.0756043390410015,-0.13410516978721293,-0.3061194183729069
1590503724.986245,-0.4326774694992699,-3.5360648169956193,9.619374911677422,0.4833333333333333,0.2411111111111111,-0.6311111111111111,-0.10159370715156249,-0.16437960238022564,-0.2890836199676663
1590503724.996245,-0.4392632719393283,-3.5755796316359696,8.019024918743227,0.4833333333333333,0.2411111111111111,-0.6311111111111111,0.07513259516321472,0.04036428444786991,-0.20862286444223932
1590503725.006245,-0.43437711779948174,-3.507188558899741,9.069461829778753,0.4688888888888889,0.2877777777777778,-0.6233333333333333,-0.025706165553871535,0.002317553380631797,-0.16628744468027545
1590503725.016245,-0.4491679663876245,-3.666674093643569,8.596671865550498,0.4688888888888889,0.2877777777777778,-0.6233333333333333,0.009181665434450944,0.004090554672549017,-0.12508128160025822
1590503725.0262449,-0.49,-3.891970557236596,8.82022082072553,0.4688888888888889,0.2877777777777778,-0.6233333333333333,0.012826839331758292,-0.0013218437680528566,-0.09683686812030678
1590503725.0362449,-0.4281908529830669,-3.749987656274727,8.897211900617187,0.4688888888888889,0.2877777777777778,-0.6233333333333333,0.003380625976569248,-0.0049175252417324004,-0.07903995163695147
1590503725.0462449,-0.2533104470624951,-3.349965670593743,8.730051494109386,0.4718505803923609,0.29703306372612764,-0.6233333333333333,0.03345323621743977,0.014538637265767991,-0.0483637534164307
1590503725.0562449,-0.36766653488831785,-3.548332674441589,8.612664558213085,0.4777777777777778,0.31555555555555553,-0.6233333333333333,0.02947665264507587,0.012738973005538851,-0.032191618842481236
1590503725.0662448,-0.3993967359626967,-3.63180979211191,8.993491839906742,0.4777777777777778,0.31555555555555553,-0.6233333333333333,0.008636838693606218,-0.03349059258495082,-0.014340281455498143
1590503725.0762448,-0.419573060447406,-3.561707758210376,8.708875535459304,0.4777777777777778,0.31555555555555553,-0.6233333333333333,0.011217255400940054,-0.002760201660631083,0.02121118120182387
1590503725.0862448,-0.44580843047912105,-3.5555689685780223,8.599222241947254,0.4777777777777778,0.31555555555555553,-0.6233333333333333,0.02854444903397535,-0.015702739019689896,0.04548179324665228
1590503725.0962448,-0.4627365201995815,-3.5882095605987443,8.891892161596651,0.48100599102240826,0.3220119820448164,-0.6233333333333333,0.011396574428235546,-0.015966300369729954,0.07346517953967915
1590503725.1062448,-0.437699594797121,-3.5458998649323736,8.675196218106462,0.4866666666666667,0.3333333333333333,-0.6233333333333333,0.01913308352343313,-0.01884967379027837,0.10960708956583254
1590503725.1162448,-0.4323073157298902,-3.5861524339870883,8.60845852583912,0.4866666666666667,0.3333333333333333,-0.6233333333333333,0.007216511646110171,-0.022991387301317005,0.13836736063053895
1590503725.1262448,-0.4645489013965099,-3.735489013965099,8.743570873466313,0.4866666666666667,0.3333333333333333,-0.6233333333333333,-0.0019765608192271467,-0.022214409368388897,0.17990107243646133
1590503725.1362448,-0.47709149217128843,-3.7829085078287115,8.725097906055462,0.4866666666666667,0.3333333333333333,-0.6233333333333333,0.007953084464544243,-0.026318962601204247,0.21347663360390007
1590503725.1462448,-0.48511338250790303,-3.7537112750263435,8.844164805057956,0.4886575108301136,0.3365910783280646,-0.6271340358271865,0.006011937416712238,-0.029832532205545437,0.2443506241235507
1590503725.1562448,-0.46171692390905406,-3.6772969266134794,8.66600923368169,0.4988888888888889,0.3533333333333333,-0.6466666666666666,0.0037875325465694457,-0.02636722612503497,0.2855356987365589
1590503725.1662447,-0.4941259875982769,-3.8150354472926766,8.77944095659397,0.4988888888888889,0.3533333333333333,-0.6466666666666666,0.01350955373019487,-0.029902506555444217,0.3217723231482536
1590503725.1762447,-0.5574732677319781,-3.8673663386598904,8.714946535463957,0.4988888888888889,0.3533333333333333,-0.6466666666666666,0.0028590567469265623,-0.03505606105907855,0.38444419180100375
1590503725.1862447,-0.5431672834558385,-3.795836417279192,8.686334566911677,0.4988888888888889,0.3533333333333333,-0.6466666666666666,0.0005182455435780524,-0.04207849466912408,0.417995819048999
1590503725.1962447,-0.56476783416229,-3.847616082918855,8.608204932002366,0.5039216027268617,0.35624700976584384,-0.6450773886125699,0.002174870193907842,-0.046645678633844403,0.4889658183140856
1590503725.2062447,-0.5600302843139208,-3.820030284313921,8.76618776274631,0.52,0.3655555555555556,-0.64,-0.0035084974373885327,-0.04930026575894355,0.5442948289100651
1590503725.2162447,-0.5348491574188246,-3.76817879161529,8.623642416769421,0.52,0.3655555555555556,-0.64,0.006775345918179178,-0.05533498065206652,0.583827250938223
1590503725.2262447,-0.5444019244188182,-3.6496173197693635,8.75253589922509,0.52,0.3655555555555556,-0.64,-0.014734047559661538,-0.05822113501675849,0.6211315627224729
1590503725.2362447,-0.5319913979363124,-3.4579799285180624,8.6880229388365,0.52,0.3655555555555556,-0.64,-0.003711639679246973,-0.0639198688355333,0.6590712009482195
1590503725.2462447,-0.5725987481113749,-3.5112993740556875,8.704029786315562,0.5576645801856249,0.3802028922944097,-0.64,-0.007268045634552795,-0.0648828880626189,0.6876773367993706
1590503725.2562447,-0.6287917315343367,-3.545033385227469,8.772416536931328,0.62,0.4044444444444445,-0.64,-0.0208575865110192,-0.062052836485472274,0.7169758450211487
1590503725.2662446,-0.6513985439173321,-3.5579579614842647,8.696237670267733,0.62,0.4044444444444445,-0.64,-0.015389091244704875,-0.07127931018504026,0.742092975502237
1590503725.2762446,-0.6243668304925233,-3.491379901704486,8.661607027083551,0.62,0.4044444444444445,-0.64,-0.007961638864186774,-0.0743394049031148,0.7737620114799444
1590503725.2862446,-0.6527052714544022,-3.459057907181603,8.741823682136399,0.62,0.4044444444444445,-0.64,-0.012589337282955177,-0.07725005269606103,0.8028712556415951
1590503725.2962446,-0.6213921171782085,-3.3946867110397063,8.733294593861498,0.6612994762868529,0.4327508270680178,-0.6659861873265591,-0.005757866766648673,-0.07651001120183511,0.8385300005552069
1590503725.3062446,-0.6331120660409363,-3.302074710693957,8.63596479324513,0.9166666666666666,0.6077777777777778,-0.8266666666666667,-0.008145026092667476,-0.07790161721519706,0.8780180808789134
1590503725.3162446,-0.7536175327447148,-3.347442205297567,8.722533755700837,0.9166666666666666,0.6077777777777778,-0.8266666666666667,-0.02411387670271237,-0.09213999682495501,0.9317807140279465
1590503725.3262446,-0.7705149481011871,-3.3509866989868855,8.517853813164274,0.9166666666666666,0.6077777777777778,-0.8266666666666667,-0.017855921558532092,-0.08611945969320371,0.9695097408875721
1590503725.3362446,-0.8031016533034994,-3.539989589160296,8.635165951892597,0.9166666666666666,0.6077777777777778,-0.8266666666666667,-0.015723126690442926,-0.08256480157972176,0.9958142109273385
1590503725.3462446,-0.8656117665565518,-3.6270882491741387,8.773923548843795,1.0219842693094228,0.4753994022337581,-1.0036587488857427,-0.037516239390423416,-0.09077829595325052,1.0105879866038077
1590503725.3562446,-0.8766303967667975,-3.5166575991916993,8.649945595150196,1.3966666666666667,0.004444444444444445,-1.6333333333333333,-0.01854560696456183,-0.09017732290253647,1.0108385033295453
1590503725.3662446,-0.9278039770267541,-3.5387840918929836,8.732196022973246,1.3966666666666667,0.004444444444444445,-1.6333333333333333,-0.01803930435824711,-0.08870375627468814,1.0057717025142678
1590503725.3762445,-0.9377096908359907,-3.555241924303341,8.686870927492029,1.3966666666666667,0.004444444444444445,-1.6333333333333333,-0.019168708236823553,-0.09220159096866239,0.9968222809234308
1590503725.3862445,-0.9728627583108715,-3.4914510332434863,8.585694070080862,1.3966666666666667,0.004444444444444445,-1.6333333333333333,-0.009192920064798861,-0.08835729338221293,0.9940582637717359
1590503725.3962445,-0.931374517936404,-3.3158764461907877,8.737250964127192,1.3006031353335437,0.008109825608188412,-1.5160411360935264,-0.016295073588255285,-0.08835729338221293,0.9977277441906117
1590503725.4062445,-0.9460009214466713,-3.2599953927666436,8.74700414651002,0.6977777777777778,0.031111111111111114,-0.78,-0.005454656483679007,-0.08966649134968738,1.0152371641547253
1590503725.4162445,-0.9598038634942574,-3.190980682528713,8.809117385724159,0.6977777777777778,0.031111111111111114,-0.78,-0.012982993520939817,-0.0926778261645917,1.0295410045255207
1590503725.4262445,-1.044922594372501,-3.2519380754980007,8.699845188745002,0.6977777777777778,0.031111111111111114,-0.78,-0.011331130307368813,-0.09358314876525017,1.0734409773765063
1590503725.4362445,-1.0844907778668806,-3.2665276663993583,8.77449077786688,0.6977777777777778,0.031111111111111114,-0.78,-0.017453292519943295,-0.09846869114875385,1.0960627463377641
1590503725.4462445,-1.122518129532383,-3.1437167625239644,8.813765107943652,0.6814285052744669,0.05424948829800043,-0.7722410232187676,-0.01718124403271904,-0.09995099609243699,1.1189124238533412
1590503725.4562445,-1.07,-3.2515951042893003,8.80942335458362,0.5666666666666667,0.21666666666666667,-0.7177777777777777,-0.01678942655715341,-0.09526634063982098,1.1437126567143039
1590503725.4662445,-1.052555733950991,-3.297753007132893,8.86828468402074,0.5666666666666667,0.21666666666666667,-0.7177777777777777,-0.022239476591802827,-0.11242292745275934,1.1602978083940434
1590503725.4762444,-0.9780944200225692,-3.331905579977431,8.589055799774309,0.5666666666666667,0.21666666666666667,-0.7177777777777777,-0.022543211506398722,-0.10466825698610854,1.1792929461413555
1590503725.4862444,-0.9710300978559278,-3.338969902144072,8.659699021440723,0.5666666666666667,0.21666666666666667,-0.7177777777777777,-0.01714902545260757,-0.10852124702453078,1.1877695242258843
1590503725.4962444,-0.891261680569976,-3.47,8.834889549246357,0.5683701502512143,0.21846478822813362,-0.7188187955238902,-0.022697528582870656,-0.1110548219650836,1.1775604021640829
1590503725.5062444,-0.6669521112048531,-3.47,8.756952111204853,0.5866666666666667,0.23777777777777775,-0.73,-0.00944497044766597,-0.09708393964218458,1.1093493562289227
1590503725.5162444,-0.62,-3.4583700057116435,8.686740011423288,0.5866666666666667,0.23777777777777775,-0.73,-0.011162034940364501,-0.09327803291118544,1.0212654651203839
1590503725.5262444,-0.661036583963761,-3.356866793901906,8.714169790061854,0.5866666666666667,0.23777777777777775,-0.73,-0.015098182614888229,-0.07865544856645293,0.8545456831448182
1590503725.5362444,-0.7186532982888231,-3.2379124009778155,8.879545646699873,0.5866666666666667,0.23777777777777775,-0.73,-0.017176008535861723,-0.06807043121756508,0.6826600364147857
1590503725.5462444,-0.6107256419210763,-3.2995853474736707,8.671399452276361,0.5866666666666667,0.23777777777777775,-0.73,-0.001198255770689445,-0.04704707231602259,0.5354965241039884
1590503725.5562444,-0.5975135501355013,-3.417012195121951,8.676815718157181,0.5788888888888889,0.17,-0.7733333333333333,0.021094568444983967,-0.016584914356370575,0.31269743386319476
1590503725.5662444,-0.677663122785074,-3.220281425891182,8.662243068584532,0.5788888888888889,0.17,-0.7733333333333333,0.002813829498146996,-0.01261084067227558,0.17122041070941296
1590503725.5762444,-0.8030301590202888,-3.046515079510144,8.763484920489855,0.5788888888888889,0.17,-0.7733333333333333,-0.010428948408536486,-0.0171143992497899,-0.051748924592598
1590503725.5862443,-0.7723644671906416,-3.0311822335953207,8.778817766404678,0.5788888888888889,0.17,-0.7733333333333333,0.0012789298064787551,-0.0012251359579834968,-0.17384536883489982
1590503725.5962443,-0.17728475956200884,-3.002656028909158,7.190286914687507,0.5709208021614143,0.17108208585187928,-0.7607417888751019,-0.0315502922302114,0.1253460195175484,-0.4027509815699535
1590503725.6062443,5.3836597938144335,-3.0368793877680096,-8.95721080260578,0.4888888888888889,0.18222222222222226,-0.6311111111111111,-0.5612376119862227,1.1897896112620183,-0.9429376615238249
1590503725.6162443,-4.4368772576483595,-5.854198550190441,-2.3649310726133432,0.4888888888888889,0.18222222222222226,-0.6311111111111111,-1.7827340392236222,0.18373972999993438,-10.953134255464613
1590503725.6262443,-0.22099224945926454,-5.489182588320116,0.9970556957462149,0.4888888888888889,0.18222222222222226,-0.6311111111111111,-1.9127631259621805,-0.7390762445988619,-13.35155186011769
1590503725.6362443,-1.033280939363817,-5.385587723658052,1.2417339711729622,0.4888888888888889,0.18222222222222226,-0.6311111111111111,-1.7948824902632605,0.22309027887910043,-12.971440893623852
1590503725.6462443,-0.45365164782677914,-3.981853844929151,-0.3252918325107467,0.4892930708132109,0.19778322630862039,-0.6355571122786534,-1.0817801693933593,1.437553248416038,-12.392907123611652
1590503725.6562443,-0.9637813611097201,-4.984349408249453,4.360244378787121,0.4933333333333334,0.3533333333333333,-0.68,-0.16080246350015756,2.6761339004748574,-11.642559449964406
1590503725.6662443,-1.1948259802694177,-4.935339943579214,4.486268716510591,0.4933333333333334,0.3533333333333333,-0.68,0.3570058246122287,3.2817710280163364,-11.205706439934488
1590503725.6762443,-0.2764272604425082,-2.602895262298058,1.0523006796958512,0.4933333333333334,0.3533333333333333,-0.68,1.8128536157175414,3.6012016555335107,-10.454410168435057
1590503725.6862442,5.772108468969969,1.280010891268832,10.18009096226377,0.4933333333333334,0.3533333333333333,-0.68,4.219482809374971,1.263781506939082,-9.833374337403058
1590503725.6962442,0.6531943031536116,-1.4437751295838783,-0.12089473429249686,0.4933333333333334,0.3533333333333333,-0.68,2.5276169386030314,0.4167024846505014,-9.105879132626711
1590503725.7062442,-0.36,-1.34,-0.32,0.22333333333333333,0.5777777777777777,-0.6088888888888889,0.28579766501407144,0.3894265893512348,-8.320857208882966
1590503725.7162442,-1.3265329512893982,-2.3400931232091695,11.43948424068768,0.22333333333333333,0.5777777777777777,-0.6088888888888889,-0.35704704353097094,0.6976698949292107,-7.874233892012265
1590503725.7262442,0.22029419972094877,-2.2739848515048835,5.878904723938608,0.22333333333333333,0.5777777777777777,-0.6088888888888889,-0.8476317663400755,1.0802716840236475,-7.098064819482807
1590503725.7362442,0.738625074745864,-2.4746290611919473,9.34837751644409,0.22333333333333333,0.5777777777777777,-0.6088888888888889,0.13819014848111277,0.5486026957343297,-6.715044279034242
1590503725.7462442,0.7544410942785703,-0.5753471098690984,6.859196205324312,0.21367946266607835,0.5783880799463973,-0.6097211191188247,0.671831672763412,0.7401225892081909,-6.306329402443337
1590503725.7562442,1.5991685586784625,-2.7101362248492915,10.874951851561889,0.03,0.59,-0.6255555555555555,0.03457104333907797,0.07501658578060513,-6.012542273341868
1590503725.7662442,3.1208699067957006,-3.122460093561404,7.305892582937543,0.03,0.59,-0.6255555555555555,-0.08234730386513678,0.43718092738263714,-5.66534035688122
1590503725.7762442,12.549544870192479,-9.727774881262722,8.758762275470485,0.03,0.59,-0.6255555555555555,0.03528993202880021,0.6103690802264888,-5.461109044565357
1590503725.7862442,0.48814978601997144,-0.16426390870185448,8.940756062767475,0.03,0.59,-0.6255555555555555,0.032164258238184015,0.33476056169203283,-5.385094520478172
1590503725.7962441,0.8508549256872288,-0.254106273839274,8.506107457582532,0.02674653280137957,0.5899525041284872,-0.6261492539494644,0.29197808295667305,0.6403112847443567,-5.225417830954356
1590503725.8062441,0.89,-0.9,7.87,-0.12222222222222222,0.5877777777777777,-0.6533333333333333,0.12544553998709246,0.3403392041388943,-4.891285228714109
1590503725.8162441,1.0817636449521193,-0.8904118177523941,9.034964143084125,-0.12222222222222222,0.5877777777777777,-0.6533333333333333,0.07471898091930046,0.32255876075430745,-4.71348079486824
1590503725.826244,2.0852768893448395,-1.0975034699173256,9.205263009675537,-0.12222222222222222,0.5877777777777777,-0.6533333333333333,0.07981402114612483,0.4585305537560121,-4.138436206895499
1590503725.836244,7.81401927061332,-2.464302094019673,9.466810894534628,-0.12222222222222222,0.5877777777777777,-0.6533333333333333,0.034717505948848586,0.26065808911490207,-3.858653745263418
1590503725.846244,6.22482160177359,-1.9197424483857557,8.582051926008036,-0.12222222222222222,0.5877777777777777,-0.6533333333333333,0.09409146674577219,0.22533726929687373,-3.82502381498832
1590503725.856244,1.896385522026248,-0.6808008024742958,8.237112764356768,-0.20078445577567872,0.5404618871149005,-0.647976817409234,0.13919759433163545,0.24290238351967539,-3.994447617504089
1590503725.866244,3.5229175736894747,-0.9127263634759075,9.473888333235278,-0.22,0.5288888888888889,-0.6466666666666666,0.01752517170311656,0.38790063279917164,-3.79104026273506
1590503725.876244,5.431249632288051,-1.0607866094016591,9.564369594634348,-0.22,0.5288888888888889,-0.6466666666666666,-0.024646537598165943,0.37085249499652545,-3.608894369369947
1590503725.886244,6.206084851781343,-0.791877073701387,8.842601577372859,-0.22,0.5288888888888889,-0.6466666666666666,0.07074593868089511,0.28110985161759267,-3.638789170966131
1590503725.896244,7.899449408085772,1.1286910877819967,2.939167969622514,-0.22,0.5288888888888889,-0.6466666666666666,0.15366423833201498,-0.8046954155693757,-1.317503567342698
1590503725.906244,3.144755109109802,-0.8655905784551436,10.800617942500866,-0.29082923449948045,0.482374167725051,-0.6604096524650733,0.18188226062866125,-0.21177117520599276,0.26824016358182723
1590503725.916244,2.1721735770858577,0.11838311996206732,8.542386421509228,-0.29444444444444445,0.48,-0.6611111111111111,-0.040496482185510246,0.8114048504414713,-0.23131417020147257
1590503725.926244,3.196017947772334,-0.6771218587008061,9.124283581827441,-0.29444444444444445,0.48,-0.6611111111111111,-0.21163829774989928,0.5671461089786812,-0.11079176487443801
1590503725.936244,3.421479084186933,-0.555427428308092,8.850230629045434,-0.29444444444444445,0.48,-0.6611111111111111,-0.07770056281934615,-0.13419432778811521,-0.017385199854997667
1590503725.946244,3.6762701355286036,-0.5993569199187248,8.771157544146295,-0.29444444444444445,0.48,-0.6611111111111111,0.008554792255590402,-0.0019361166732124457,0.0008242639941556107
1590503725.956244,3.58,-0.62,8.97,-0.3233333333333333,0.4533333333333333,-0.6755555555555556,0.0,-0.01308996938995747,0.0
1590503725.966244,3.584395523337149,-0.62,8.964805290601552,-0.3233333333333333,0.4533333333333333,-0.6755555555555556,-4.3588837830393805e-05,-0.012218192633349594,4.3588837830393805e-05
1590503725.976244,3.668428409358478,-0.6217976325534602,8.85438106042768,-0.3233333333333333,0.4533333333333333,-0.6755555555555556,-0.0006006025512634339,0.008432509321231834,0.0011888764287430603
1590503725.986244,3.452953956803733,-0.6397538369330222,8.998030695464179,-0.3233333333333333,0.4533333333333333,-0.6755555555555556,0.004296192567242555,0.0054944322501282415,0.0021682354524442584
1590503725.996244,3.5474490320370053,-0.64,9.017718005824909,-0.3233333333333333,0.4533333333333333,-0.6755555555555556,0.003396955822072654,0.0015886846808295997,0.001215294257079742
1590503726.006244,3.7432534309722625,-0.5724855780628506,8.643848220635883,-0.32440499082439916,0.4394017859494771,-0.6680539531180946,0.0011682977843037535,-0.01363853115980284,-0.0020654610622819654
1590503726.016244,3.63744644215753,-0.62,8.954868257718337,-0.3244444444444444,0.4388888888888889,-0.6677777777777778,0.000989295678427541,-0.015042505384550944,0.002080126460923997
1590503726.026244,3.7046277980218636,-0.62,8.728131181676211,-0.3244444444444444,0.4388888888888889,-0.6677777777777778,7.32520410942441e-05,-0.0031339380992180844,0.0011640828235907
1590503726.036244,3.581854815946336,-0.6456290368107327,9.004733923323426,-0.3244444444444444,0.4388888888888889,-0.6677777777777778,0.0013978471139441027,0.008302191789587859,0.001090830782496456
1590503726.046244,3.6049978556668876,-0.6441670240555187,8.908755896916059,-0.3244444444444444,0.4388888888888889,-0.6677777777777778,0.0004545518111163055,0.00899947091082411,0.001090830782496456
1590503726.056244,3.6096181548171526,-0.6332060516057175,8.941909225914237,-0.325954210754285,0.4487023699028525,-0.6730619598622197,-0.0007411048043175755,-0.000516337370018138,0.0003497259781788805
1590503726.066244,3.657007740593831,-0.6204987099010282,8.847480648515424,-0.32666666666666666,0.4533333333333333,-0.6755555555555556,-0.0021272607538351767,-0.005399753101324544,-0.0010364299713387208
1590503726.0762439,3.6530531676721414,-0.6130531676721412,8.84,-0.32666666666666666,0.4533333333333333,-0.6755555555555556,-0.0029394434193998975,0.0021236646315875756,-0.0018486126369034414
1590503726.0862439,3.500174230482038,-0.6399651539035924,8.999814154152492,-0.32666666666666666,0.4533333333333333,-0.6755555555555556,-3.8011194611175386e-06,0.010901972625862698,0.0010870296630353386
1590503726.0962439,3.5459608697014318,-0.64,9.03282919264388,-0.32666666666666666,0.4533333333333333,-0.6755555555555556,0.0007162218780090064,0.01090830782496456,0.002523274538514469
1590503726.1062438,3.57,-0.64,9.002158674526047,-0.3319823694971058,0.4533333333333333,-0.6693539022533765,0.00022105094078946812,-0.0003988301172262818,0.00240271250578238
1590503726.1162438,3.685349104092225,-0.6111627239769437,8.826588769202681,-0.3333333333333333,0.4533333333333333,-0.6677777777777778,0.0,-0.012709468858278394,-0.0009639972719367629
1590503726.1262438,3.622916666666667,-0.63875,8.752916666666668,-0.3333333333333333,0.4533333333333333,-0.6677777777777778,0.0010453794998924368,-0.01308996938995747,0.0009999282172884177
1590503726.1362438,3.6275976555114386,-0.6172070334656835,8.81837889960295,-0.3333333333333333,0.4533333333333333,-0.6677777777777778,-0.0005667205188398111,-0.005630988533944268,0.0002620551318283224
1590503726.1462438,3.5804841285202746,-0.62414739185135,8.99562131036485,-0.3333333333333333,0.4533333333333333,-0.6677777777777778,-0.0003192102563218483,0.0036720923880821004,0.002314861578523823
1590503726.1562438,3.581352537199542,-0.6371175123998474,9.010177413201069,-0.3198891432447328,0.4375166391114502,-0.6780586290220018,0.0007764001620553753,0.003439384046757235,0.001719692023378617
1590503726.1662438,3.609241428203145,-0.6111378576952823,8.893792858984275,-0.3144444444444445,0.4311111111111111,-0.6822222222222222,0.0021402878916557655,-0.005164538199122255,4.137367333714639e-05
1590503726.1762438,3.633043355378441,-0.633043355378441,8.836232170783639,-0.3144444444444445,0.4311111111111111,-0.6822222222222222,0.00050590147307233,-0.00545415391248228,0.000837880045960291
1590503726.1862438,3.5947251672828378,-0.6490549665434324,8.883384765804028,-0.3144444444444445,0.4311111111111111,-0.6822222222222222,0.0009877436240051628,0.0024477950795590226,-0.0018724000895190324
1590503726.1962438,3.574457513202112,-0.6422287566010562,9.006568650984157,-0.3144444444444445,0.4311111111111111,-0.6822222222222222,-0.0014523026728556394,0.009206470409977591,0.00036147189035918344
1590503726.2062438,3.587808678558006,-0.64,9.004382642883987,-0.3273062678474491,0.4508985317311182,-0.6634241726332154,-0.0012103488266600121,0.00896568234829876,0.001090830782496456
1590503726.2162437,3.6056412831813054,-0.64,8.929614225684125,-0.3288888888888889,0.4533333333333333,-0.6611111111111111,-0.001090830782496456,-0.0015105496431757834,0.0019439304410920752
1590503726.2262437,3.6352391028353788,-0.621070672873466,8.80273381294964,-0.3288888888888889,0.4533333333333333,-0.6611111111111111,0.0009740384896603988,-0.007116482159528297,0.0008050820502216755
1590503726.2362437,3.6227512780105315,-0.6281658146596456,8.858077795287695,-0.3288888888888889,0.4533333333333333,-0.6611111111111111,0.001190870073999571,-0.007735854768978307,0.000990791490993341
1590503726.2462437,3.625713192177706,-0.6242868078222941,8.875713192177706,-0.3288888888888889,0.4533333333333333,-0.6611111111111111,0.00046761819312050184,-0.003273327351843513,0.0017140433718724102
1590503726.2562437,3.602325747602031,-0.6338371261989844,8.953798006394583,-0.3288888888888889,0.45538327795540506,-0.6600861388000752,0.0005031321066380118,0.0,0.0011753973517168884
1590503726.2662437,3.6024127679549367,-0.6445978720075106,8.975174464090125,-0.3288888888888889,0.4577777777777778,-0.6588888888888889,0.0028586730340544346,-0.003535684503115957,-0.0005892807505193263
1590503726.2762437,3.637161726428655,-0.6328382735713454,8.848382735713454,-0.3288888888888889,0.4577777777777778,-0.6588888888888889,0.004363323129985824,-0.006544984694978735,-0.001090830782496456
1590503726.2862437,3.626964850218275,-0.6169648502182749,8.813482425109138,-0.3288888888888889,0.4577777777777778,-0.6588888888888889,0.0008085374708963929,0.001275543755018013,-0.0003798736506785698
1590503726.2962437,3.6069991401547723,-0.6230008598452279,8.914006878761823,-0.3288888888888889,0.4577777777777778,-0.6588888888888889,0.00032734302931320997,0.007581414630196778,0.000709086905904833
1590503726.3062437,3.575357337926978,-0.6361606655182556,8.988481996554766,-0.3329959992343926,0.45024807547768764,-0.6732637750981517,-0.0002532179350990681,0.008054621901173885,0.001090830782496456
1590503726.3162436,3.578341535242376,-0.64,9.036683070484752,-0.33555555555555555,0.4455555555555555,-0.6822222222222222,-0.002091206344527828,-0.0023679401428385316,0.001090830782496456
1590503726.3262436,3.627809114276791,-0.6304381771446417,8.791392605760684,-0.33555555555555555,0.4455555555555555,-0.6822222222222222,-0.0032246946357332115,-0.004315525418229667,-0.0009952353589841427
1590503726.3362436,3.6475360608444793,-0.63,8.841376212955678,-0.33555555555555555,0.4455555555555555,-0.6822222222222222,0.0005532826470884197,-0.000537548135408036,0.000822056714792438
1590503726.3462436,3.635386999396257,-0.6226934996981284,8.879226001207487,-0.33555555555555555,0.4455555555555555,-0.6822222222222222,0.001090830782496456,0.002391046632480358,0.002684861870816695
1590503726.3562436,3.5729748694982457,-0.6362928944290727,8.995903813788972,-0.3400813595636313,0.4555123243733222,-0.6650241669915344,0.0037567493993760767,0.0041611318864492415,0.0014952132695696208
1590503726.3662436,3.5684004834810636,-0.64,9.003199033037873,-0.3411111111111111,0.4577777777777778,-0.6611111111111111,0.0025306219361863795,-0.002051131048312232,0.001090830782496456
1590503726.3762436,3.588727850009756,-0.64,8.887632899941465,-0.3411111111111111,0.4577777777777778,-0.6611111111111111,0.0015006977223056411,-0.007358275403612995,-0.00027109690287808585
1590503726.3862436,3.624124573907654,-0.6078339014564611,8.803916950728231,-0.3411111111111111,0.4577777777777778,-0.6611111111111111,0.0019680250435991217,-0.00630869999805744,-0.00021363652139379003
1590503726.3962436,3.645530278576942,-0.6051767595256473,8.851767595256474,-0.3411111111111111,0.4577777777777778,-0.6611111111111111,0.0004875709717455563,-0.0015012758615717834,0.0
1590503726.4062436,3.638862712269792,-0.6130196125328868,8.918117675197323,-0.3454727736586144,0.4601263653033565,-0.6654727736586143,-0.001090830782496456,0.0038286047160354564,-0.0003293886302085089
1590503726.4162436,3.5823804771557772,-0.6352390456884454,8.990478091376891,-0.3555555555555556,0.4655555555555556,-0.6755555555555556,-0.001090830782496456,0.006804654470833888,0.0022338132440687603
1590503726.4262435,3.58,-0.64,8.932816239502198,-0.3555555555555556,0.4655555555555556,-0.6755555555555556,-0.00027654062655342907,0.0016592437593205738,0.0008296218796602873
1590503726.4362435,3.6137556833377906,-0.6332488633324418,8.87624431666221,-0.3555555555555556,0.4655555555555556,-0.6755555555555556,0.0,-0.0014728695387625991,0.0007364347693812996
1590503726.4462435,3.617597552685248,-0.636201223657376,8.884804894629504,-0.3555555555555556,0.4655555555555556,-0.6755555555555556,-0.0013528971309221852,-0.0015052129995318194,0.001090830782496456
1590503726.4562435,3.5995905078859787,-0.6295905078859789,8.926023730285053,-0.35150741973343624,0.4591941992636538,-0.6605196225019695,-0.0016139118435864943,0.000612418381722797,0.001090830782496456
1590503726.4662435,3.5771521590130226,-0.6328478409869774,8.969271761480465,-0.3477777777777778,0.4533333333333333,-0.6466666666666666,0.0010113922830857307,0.002882402586853641,0.0003900897606357271
1590503726.4762435,3.5812946068503217,-0.64,8.923526965748392,-0.3477777777777778,0.4533333333333333,-0.6466666666666666,0.001565636323566598,0.0008083913817841125,0.0006160252414263139
1590503726.4862435,3.6038591947256884,-0.64,8.88,-0.3477777777777778,0.4533333333333333,-0.6466666666666666,0.001090830782496456,-0.00713804527345397,0.00033492897112676685
1590503726.4962435,3.6291521966918645,-0.6208478033081356,8.886384065563956,-0.3477777777777778,0.4533333333333333,-0.6466666666666666,0.001090830782496456,-0.0070319029486131095,0.0006963935234637486
1590503726.5062435,3.625978985215262,-0.6240210147847379,8.911031522177106,-0.33453570825885864,0.4533333333333333,-0.6669192435779548,0.001090830782496456,-0.0023952430066762676,0.001090830782496456
1590503726.5162435,3.6120356077232265,-0.63,8.951857569107094,-0.3288888888888889,0.4533333333333333,-0.6755555555555556,-0.0006467300693798804,0.002384290921256217,0.00022205035655828778
1590503726.5262434,3.6044024990030574,-0.6411950019938855,8.909622491027516,-0.3288888888888889,0.4533333333333333,-0.6755555555555556,0.00013035449600748558,0.0038830849867413386,0.0
1590503726.5362434,3.6053820424375456,-0.6392359151249085,8.880764084875091,-0.3288888888888889,0.4533333333333333,-0.6755555555555556,-0.0006704384865766867,0.0014278743481972531,0.0
1590503726.5462434,3.6145653315510575,-0.6345653315510574,8.876304005346828,-0.3288888888888889,0.4533333333333333,-0.6755555555555556,-0.0011856607273537647,-0.0020868316201356034,0.0009960008376391472
1590503726.5562434,3.62,-0.6370084091694506,8.877949544983297,-0.3288888888888889,0.4490121465780952,-0.6732287626873504,0.00032633193665975075,-0.0009881687908711132,0.0018553296283331613
1590503726.5662434,3.6123473738613603,-0.6376526261386395,8.942957878415918,-0.3288888888888889,0.4388888888888889,-0.6677777777777778,-0.0014134852651930144,0.004363323129985824,0.0027603748142894366
1590503726.5762434,3.5802932042577797,-0.632573301064445,8.90543980638667,-0.3288888888888889,0.4388888888888889,-0.6677777777777778,-0.0013715343838692027,0.004363323129985824,0.002462365166365659
1590503726.5862434,3.5827641062822533,-0.6363820531411268,8.909146159423381,-0.3288888888888889,0.4388888888888889,-0.6677777777777778,-0.0003946567803095252,0.0015786271212381007,0.0007893135606190504
1590503726.5962434,3.6017442106500526,-0.6341278946749735,8.908255789349948,-0.3288888888888889,0.4388888888888889,-0.6677777777777778,0.0006405473246600206,-0.0032027366233001032,-0.0006405473246600206
1590503726.6062434,3.6199518426315143,-0.6250240786842427,8.904975921315758,-0.33497057049703666,0.44607633078942716,-0.6677777777777778,0.001633619596747284,-0.005996942726733108,-0.001090830782496456
1590503726.6162434,3.609848766868311,-0.6334341554211261,8.91,-0.3411111111111111,0.4533333333333333,-0.6677777777777778,0.0014489420514826122,-0.0028813871274272367,-0.0003581112689861562
1590503726.6262434,3.6,-0.64,8.88728370767456,-0.3411111111111111,0.4533333333333333,-0.6677777777777778,-0.00014815076414240722,0.00014815076414240722,-0.0006194907733194316
1590503726.6362433,3.593448152420349,-0.6465518475796508,8.876551847579652,-0.3411111111111111,0.4533333333333333,-0.6677777777777778,-0.00037613508028565995,0.00037613508028565995,-0.001805526484707252
1590503726.6462433,3.59,-0.6390990695845892,8.901801860830822,-0.3411111111111111,0.4533333333333333,-0.6677777777777778,0.0011891070454982007,-0.0023782140909964014,-0.0009925545194947112
1590503726.6562433,3.6175040764034474,-0.6355008152806895,8.914499184719311,-0.3301094805497321,0.4557781401247509,-0.6720561896627585,-0.0008185677535085803,-0.0007630479477840333,0.0012000917274005967
1590503726.6662433,3.618536274925753,-0.64,8.931463725074247,-0.3211111111111111,0.4577777777777778,-0.6755555555555556,-0.0017116062129540629,0.0006207754304576071,0.0014012184977252595
1590503726.6762433,3.6024052274287457,-0.64,8.879241819429966,-0.3211111111111111,0.4577777777777778,-0.6755555555555556,0.000566091558860318,0.0057992281947487085,0.000262369611818069
1590503726.6862433,3.5941223197321994,-0.6282446394643988,8.924654482945806,-0.3211111111111111,0.4577777777777778,-0.6755555555555556,0.0017319862390753464,0.005712349107738521,0.0006411554565788904
1590503726.6962433,3.5991591778202676,-0.6230530592734226,8.97,-0.3211111111111111,0.4577777777777778,-0.6755555555555556,0.001515587357745793,0.0020320634046209073,0.00042475657524933697
1590503726.7062433,3.619208413001912,-0.6297361376673041,8.97,-0.3211111111111111,0.4577777777777778,-0.6755555555555556,5.756583096922039e-05,-0.003071011939097097,-0.0010332649515272356
1590503726.7162433,3.63,-0.63,8.898580163043478,-0.3411111111111111,0.4533333333333333,-0.6588888888888889,0.0004453731659513383,-0.0037178655134407065,0.0012909152330902354
1590503726.7262433,3.62248623986095,-0.6450275202780996,8.84745871958285,-0.3411111111111111,0.4533333333333333,-0.6588888888888889,0.0016392481703940804,-0.0008136200918982474,0.0013620374797958718
1590503726.7362432,3.605027443063529,-0.65,8.879926818497255,-0.3411111111111111,0.4533333333333333,-0.6588888888888889,0.0010928264983940269,0.0005444175332994425,0.0016352483157958985
1590503726.7462432,3.593094948635341,-0.6469050513646587,8.932379794541365,-0.3411111111111111,0.4533333333333333,-0.6588888888888889,0.0,-0.000934808362508968,0.0018440550408253412
1590503726.7562432,3.6040420521446594,-0.64,8.947873843566022,-0.34380581254088405,0.45512980095318195,-0.6597871226988131,0.0008818389807700534,-0.005013234422097253,-0.0002319276886586243
1590503726.7662432,3.615299914310197,-0.6294001713796058,8.914100257069409,-0.3477777777777778,0.4577777777777778,-0.6611111111111111,0.00044726866274597595,-0.002628930227738888,-0.002181661564992912
1590503726.7762432,3.6152719618921014,-0.62,8.857447657028914,-0.3477777777777778,0.4577777777777778,-0.6611111111111111,-0.001090830782496456,0.000456416070177148,-0.0011501636632105094
1590503726.7862432,3.599908793264733,-0.6267274711568444,8.850364826941068,-0.3477777777777778,0.4577777777777778,-0.6611111111111111,-0.001090830782496456,0.004016294721553642,0.0007338532626242918
1590503726.7962432,3.58,-0.64,8.954259093387336,-0.3477777777777778,0.4577777777777778,-0.6611111111111111,-0.0005615794660492211,0.006048061528133487,6.465629920397254e-05
1590503726.8062432,3.597032371466237,-0.6286450856891753,8.968645085689175,-0.3477777777777778,0.4552544634864834,-0.676881825431701,-0.0006193145031428539,0.0012667506142715547,-0.0003237180555643504
1590503726.8162432,3.6046039674866615,-0.6253960325133383,8.96539603251334,-0.3477777777777778,0.4533333333333333,-0.6888888888888889,-0.001090830782496456,-0.001090830782496456,0.001090830782496456
1590503726.8262432,3.616223133060082,-0.6354077110200274,8.899699756739645,-0.3477777777777778,0.4533333333333333,-0.6888888888888889,8.894874620176698e-05,-0.0005009410181473445,0.0016807205468455674
1590503726.8362432,3.6169393623188406,-0.6530606376811594,8.892242550724637,-0.3477777777777778,0.4533333333333333,-0.6888888888888889,-0.0003338637796677271,0.001424694562164183,0.0014693142839108204
1590503726.8462431,3.5994069377098095,-0.6441104065647146,8.941186124580382,-0.3477777777777778,0.4533333333333333,-0.6888888888888889,6.469306020773463e-05,-0.00012938612041546926,0.001090830782496456
1590503726.8562431,3.5954682558988083,-0.6354682558988081,8.970936511797618,-0.3410943539014568,0.4533333333333333,-0.6773447931025163,0.0016873249685952234,-0.0027781557510916793,0.0004943365963976886
1590503726.8662431,3.6066508424548025,-0.6333491575451974,8.920142417906778,-0.33555555555555555,0.4533333333333333,-0.6677777777777778,0.0007306728291463164,-0.005448975451259261,-0.0007254943679232978
1590503726.876243,3.616848556646197,-0.616302886707606,8.828362990184228,-0.33555555555555555,0.4533333333333333,-0.6677777777777778,0.0007470616405342369,-0.004303799773376025,0.00040329249857201785
1590503726.886243,3.6131414742935775,-0.6305755771192674,8.82743410282569,-0.33555555555555555,0.4533333333333333,-0.6677777777777778,0.001090830782496456,0.001216402230375951,-0.0004054674101253168
1590503726.896243,3.61,-0.6453599506993595,8.915039309791032,-0.33555555555555555,0.4533333333333333,-0.6677777777777778,0.0005061508609439847,0.00444185219059431,0.001247888903713429
1590503726.906243,3.603236271561956,-0.646618135780978,8.986763728438044,-0.33067064057252377,0.4533333333333333,-0.662892862794746,0.0,0.00434744143478252,0.002165779869789609
1590503726.916243,3.596715992719791,-0.6366420036401045,8.989926010920314,-0.3211111111111111,0.4533333333333333,-0.6533333333333333,-0.0003663005796885108,0.002181661564992912,-0.0003663005796885108
1590503726.926243,3.614310486634681,-0.6343104866346813,8.909653187114463,-0.3211111111111111,0.4533333333333333,-0.6533333333333333,-0.0001504284807664749,0.002181661564992912,-0.0006206296316314654
1590503726.936243,3.62,-0.6365861947732333,8.847069026133834,-0.3211111111111111,0.4533333333333333,-0.6533333333333333,0.0007184423998160181,0.001809273182312474,0.0003723883826804379
1590503726.946243,3.6058507967846567,-0.6335373008038359,8.911835707234523,-0.3211111111111111,0.4533333333333333,-0.6533333333333333,0.0003858596603773601,0.0018625501032511764,0.001090830782496456
1590503726.956243,3.5821909462699195,-0.6394522634325202,8.96507037089268,-0.3211111111111111,0.4533333333333333,-0.6533333333333333,0.0010310819916458534,0.003152994765788163,0.001090830782496456
1590503726.966243,3.595933968224255,-0.6270330158878723,8.939231111215108,-0.3211111111111111,0.4388888888888889,-0.6755555555555556,0.0014144785425651333,-0.0006472955201373546,0.0012107182847868798
1590503726.976243,3.618629928120235,-0.6243149640601177,8.85548028751906,-0.3211111111111111,0.4388888888888889,-0.6755555555555556,0.001240282440564474,-0.003593730251635569,-0.000620141220282237
1590503726.986243,3.63,-0.6213286044209831,8.836014186737051,-0.3211111111111111,0.4388888888888889,-0.6755555555555556,0.0,-0.004981202651242518,-0.0004729512612397617
1590503726.996243,3.6285156417712376,-0.6159374329150484,8.875937432915048,-0.3211111111111111,0.4388888888888889,-0.6755555555555556,0.00016191836481856413,-0.003391812941074439,-0.0014146675121335843
1590503727.006243,3.6203302043285652,-0.64867918268574,8.90867918268574,-0.3211111111111111,0.4388888888888889,-0.6755555555555556,0.0010548110778852266,0.0019655433373255366,-0.00320045293826691
1590503727.016243,3.604607672188317,-0.6346076721883174,8.956176983435048,-0.33555555555555555,0.4533333333333333,-0.6755555555555556,0.0011764234332590374,-0.0005026190658669373,-0.0009196454809712931
1590503727.026243,3.6162250571669277,-0.6462250571669275,8.871524371163797,-0.33555555555555555,0.4533333333333333,-0.6755555555555556,-0.0013580967960969237,-0.0017698791805449178,-0.0012353471533439828
1590503727.036243,3.62,-0.6208533120227313,8.870805363168177,-0.33555555555555555,0.4533333333333333,-0.6755555555555556,-0.002181661564992912,-0.0002740152977874686,-0.001271764178136962
1590503727.046243,3.62,-0.6085948664649876,8.917189732929975,-0.33555555555555555,0.4533333333333333,-0.6755555555555556,-0.0017128843194201603,0.003903494255932966,-0.0007753298282746567
1590503727.056243,3.6118200215128256,-0.62,8.944089989243587,-0.33123834468732466,0.4517427819608272,-0.6739650041830495,-0.0013139050908456702,0.006743518244078335,0.001090830782496456
1590503727.066243,3.581233158921442,-0.62,8.95938342053928,-0.3150952783196499,0.4457953364569469,-0.6680175586791692,-0.0021480323722124425,0.003407009118611245,0.001090830782496456
1590503727.076243,3.5881711236821805,-0.6440855618410902,8.926887696065826,-0.3144444444444445,0.4455555555555555,-0.6677777777777778,-0.0006451651204910416,0.00019949945848562719,-0.0028268266854839536
1590503727.086243,3.6099537027249857,-0.6450231486375072,8.859953702724985,-0.3144444444444445,0.4455555555555555,-0.6677777777777778,0.0,-0.001090830782496456,-0.0010958810317695828
1590503727.096243,3.62,-0.64,8.879411785005608,-0.3144444444444445,0.4455555555555555,-0.6677777777777778,-0.00034222216007851884,-0.0024597194228105313,-0.0006844443201570377
1590503727.106243,3.619198019070146,-0.64,8.900801980929854,-0.3144444444444445,0.4450209016023192,-0.6694708486296926,-0.0010033482339704264,-0.005016741169852131,-0.001919213919414823
1590503727.116243,3.6055548894912426,-0.64,8.918890221017515,-0.3144444444444445,0.4388888888888889,-0.6888888888888889,0.00048488633745509427,-0.0009697726749101885,0.00012105810758626743
1590503727.1262429,3.616125586242835,-0.6292496091714435,8.876248045857217,-0.3144444444444445,0.4388888888888889,-0.6888888888888889,-8.185494146924948e-05,-0.001595318703010059,-0.0016771736444793086
1590503727.1362429,3.617019762138961,-0.6286534919073594,8.842980237861038,-0.3144444444444445,0.4388888888888889,-0.6888888888888889,-0.0006188560150648766,-0.001090830782496456,-0.0012377120301297533
1590503727.1462429,3.6025322696529,-0.64,8.8777258875703,-0.3144444444444445,0.4388888888888889,-0.6888888888888889,-0.0005524555373929727,-0.0008146030137999696,0.0
1590503727.1562428,3.6125096763217215,-0.64,8.940038705286886,-0.3197426500125238,0.44362938860769663,-0.6835906833208096,-0.0016341351278255998,0.0005475264371673121,-0.00027376321858365606
1590503727.1662428,3.6173453913592923,-0.64,8.962036174077877,-0.33555555555555555,0.4577777777777778,-0.6677777777777778,0.0005791457641530034,0.0024712344470694137,-0.0013804036645729577
1590503727.1762428,3.601684300523672,-0.64,8.910895051832851,-0.33555555555555555,0.4577777777777778,-0.6677777777777778,0.0017281105166545062,0.0010047371057973391,-0.0008210084199776948
1590503727.1862428,3.5965211810012834,-0.6302182284980744,8.876521181001284,-0.33555555555555555,0.4577777777777778,-0.6677777777777778,0.0014465060312180218,-0.0014703110675497802,-0.0006875454611113732
1590503727.1962428,3.61,-0.6229581240158957,8.907277498687861,-0.33555555555555555,0.4577777777777778,-0.6677777777777778,0.0012393201943298755,-0.001884682741326073,-0.0034209817593227874
1590503727.2062428,3.6061990920670173,-0.6361990920670172,8.926199092067018,-0.34569131004350967,0.45608848536311875,-0.6677777777777778,0.0,-0.0031194789175660433,-0.002181661564992912
1590503727.2162428,3.6,-0.639883355571816,8.915058322214092,-0.3622222222222222,0.4533333333333333,-0.6677777777777778,-0.0005390534246047351,-0.001090830782496456,-0.0011035547157834417
1590503727.2262428,3.6045575658707794,-0.6408848682584408,8.882654604775322,-0.3622222222222222,0.4533333333333333,-0.6677777777777778,-0.0005936774679862935,-0.001090830782496456,-0.000994306629020325
1590503727.2362428,3.61,-0.63,8.869692806452251,-0.3622222222222222,0.4533333333333333,-0.6677777777777778,-0.0004296303894371951,-0.001090830782496456,-0.001752031175555717
1590503727.2462428,3.611696164082823,-0.6333923281656467,8.901696164082823,-0.3622222222222222,0.4533333333333333,-0.6677777777777778,-0.0007207851837547443,-0.0012758535818673117,-0.0012758535818673117
1590503727.2562428,3.6180030976046194,-0.6460061952092387,8.90800309760462,-0.3622222222222222,0.4533333333333333,-0.6677777777777778,0.0006551742619920295,-0.0019638333047406987,-0.0019638333047406987
1590503727.2662427,3.6079839349262834,-0.6310080325368581,8.94,-0.3555555555555556,0.4655555555555556,-0.6677777777777778,-0.00010995929209628739,-0.0007609529062075938,-0.001090830782496456
1590503727.2762427,3.5909252669039144,-0.6395373665480427,8.94,-0.3555555555555556,0.4655555555555556,-0.6677777777777778,-0.0010403653014556947,0.002030265121870628,-0.001090830782496456
1590503727.2862427,3.596885201938033,-0.64,8.861475336563387,-0.3555555555555556,0.4655555555555556,-0.6677777777777778,-0.0008404777752394341,0.00386261711547178,-0.0002503530072570219
1590503727.2962427,3.619381581535051,-0.64,8.898969302558418,-0.3555555555555556,0.4655555555555556,-0.6677777777777778,-2.2486329934357343e-05,0.0022266342248616266,-0.0010683444525620986
1590503727.3062427,3.6068906397730855,-0.6306719193192563,8.925546801134573,-0.3472639282837834,0.46175522638932665,-0.670196169065378,0.0006783571698777205,0.00033917858493886024,-0.0006783571698777205
1590503727.3162427,3.6,-0.618007257935875,8.96,-0.3288888888888889,0.4533333333333333,-0.6755555555555556,0.001744933393000841,0.001090830782496456,-0.001744933393000841
1590503727.3262427,3.6035803698006212,-0.6335803698006214,8.920615932193165,-0.3288888888888889,0.4533333333333333,-0.6755555555555556,0.001090830782496456,0.001090830782496456,-0.0007002730233726081
1590503727.3362427,3.61,-0.64,8.87014077092554,-0.3288888888888889,0.4533333333333333,-0.6755555555555556,0.0015302342406722203,0.001090830782496456,-0.0008788069163515287
1590503727.3462427,3.61,-0.6324294062541821,8.907570593745818,-0.3288888888888889,0.4533333333333333,-0.6755555555555556,0.001906387008335801,0.0002650071125251237,-0.002456936121650023
1590503727.3562427,3.6125851697256155,-0.6203406789024615,8.932585169725614,-0.33061233537263246,0.45448229765582904,-0.6718214215074445,0.0005268342395606234,-0.002181661564992912,-0.002426497533085619
1590503727.3662426,3.6231434934775693,-0.6437130130448616,8.924282532612153,-0.33555555555555555,0.4577777777777778,-0.6611111111111111,-0.00040502689251459246,-0.002181661564992912,0.0
1590503727.3762426,3.628841277424571,-0.631158722575429,8.881888941971997,-0.33555555555555555,0.4577777777777778,-0.6611111111111111,0.0009644337571312975,-0.0016760734635322782,0.0
1590503727.3862426,3.62,-0.64,8.841911447613446,-0.33555555555555555,0.4577777777777778,-0.6611111111111111,0.0,0.0017036279340767815,-0.0004780336309161305
1590503727.3962426,3.617498388475959,-0.6374983884759587,8.887511280668289,-0.33555555555555555,0.4577777777777778,-0.6611111111111111,0.0005457669712544263,0.0008179472968692428,-0.0008179472968692428
1590503727.4062426,3.6119806617115042,-0.6319806617115044,8.92613536801947,-0.33555555555555555,0.4577777777777778,-0.6611111111111111,0.001749548212068709,0.00021605667646210146,-0.00021605667646210146
1590503727.4162426,3.6287183963169,-0.6204272012277,8.96,-0.33555555555555555,0.4655555555555556,-0.6677777777777778,0.0010442303575469143,4.6600424949541675e-05,-0.0009976299325973727
1590503727.4262426,3.604580855553424,-0.6284730481488586,8.96,-0.33555555555555555,0.4655555555555556,-0.6677777777777778,0.00016656460826149598,0.00092426617423496,0.000757701565973464
1590503727.4362426,3.598440441415125,-0.6362382343395002,8.8662382343395,-0.33555555555555555,0.4655555555555556,-0.6677777777777778,0.0018414186626952507,0.002181661564992912,-0.0009207093313476254
1590503727.4462426,3.5908774207508385,-0.6664903169966462,8.896490316996646,-0.33555555555555555,0.4655555555555556,-0.6677777777777778,0.0001914235128431521,0.002181661564992912,-9.571175642157604e-05
1590503727.4562426,3.6,-0.6394883027309162,8.958464908192749,-0.33555555555555555,0.46493014778223096,-0.6674366462650553,5.58175132435972e-05,0.001902573998774926,0.0
1590503727.4662426,3.6013657174762703,-0.63,8.928179043364972,-0.33555555555555555,0.4533333333333333,-0.6611111111111111,0.001190148560050386,-0.003272492347489368,0.0
1590503727.4762425,3.626965901053494,-0.6269659010534937,8.871795406320963,-0.33555555555555555,0.4533333333333333,-0.6611111111111111,0.0026105546418915297,-0.0036034612002882873,0.0003309688527989191
1590503727.4862425,3.62,-0.6232116580771281,8.839634974231384,-0.33555555555555555,0.4533333333333333,-0.6611111111111111,0.0005653244584887443,-0.0038378168059781123,0.0012659995571656932
1590503727.4962425,3.62,-0.6344447307395001,8.901110538521,-0.33555555555555555,0.4533333333333333,-0.6611111111111111,-0.0018786686292724328,-0.0007878378467759768,0.0018786686292724328
1590503727.5062425,3.62,-0.6217302999530139,8.926539400093972,-0.33555555555555555,0.4533333333333333,-0.6611111111111111,-0.0011852040050814442,-9.437322258498823e-05,0.0011852040050814442
1590503727.5162425,3.618404348248083,-0.6231913035038338,8.962021741240417,-0.3555555555555556,0.4455555555555555,-0.6533333333333333,0.0003481172098270744,-0.0009167721775829188,0.0001740586049135372
1590503727.5262425,3.6102624478307286,-0.6394751043385422,8.921312239153645,-0.3555555555555556,0.4455555555555555,-0.6533333333333333,0.0021244043304812082,-2.8628617255851843e-05,0.0010622021652406041
1590503727.5362425,3.613124922864266,-0.6368750771357342,8.86624984572853,-0.3555555555555556,0.4455555555555555,-0.6533333333333333,0.000409078371842832,0.0010226286159804357,6.820216651602022e-05
1590503727.5462425,3.6147507637284852,-0.6326246181357574,8.895747708814545,-0.3555555555555556,0.4455555555555555,-0.6533333333333333,-0.000804529357018193,0.003272492347489368,-0.001322757288558123
1590503727.5562425,3.6014830169619936,-0.6390113220253377,8.941483016961993,-0.35423731825600596,0.4455555555555555,-0.6537178192123686,0.0,0.0030028722553049145,0.0009829827456226744
1590503727.5662425,3.6279632981186074,-0.6213578012542615,8.967963298118608,-0.33069929056123765,0.4455555555555555,-0.6605830772900094,0.0,-0.0018113787138277146,-0.000942717642030377
1590503727.5762424,3.627478440755695,-0.63,8.944698170579732,-0.3288888888888889,0.4455555555555555,-0.6611111111111111,0.0013564832319200356,-0.0019066021206352866,0.0005407118937812052
1590503727.5862424,3.62,-0.631828401641855,8.84731360656742,-0.3288888888888889,0.4455555555555555,-0.6611111111111111,-0.001090830782496456,-0.0008913831031262009,-0.001090830782496456
1590503727.5962424,3.62,-0.6382523126876187,8.873009250750476,-0.3288888888888889,0.4455555555555555,-0.6611111111111111,-0.001090830782496456,-0.00019064311185240245,-0.001090830782496456
1590503727.6062424,3.6090016979916855,-0.6390016979916857,8.941996604016628,-0.33077457046014924,0.4455555555555555,-0.6603346539935333,0.0006552393581375456,-0.0019638658528134565,0.0009819329264067283
1590503727.6162424,3.6026063674989817,-0.6313031837494907,8.943058611256621,-0.3477777777777778,0.4455555555555555,-0.6533333333333333,-0.0031303370525700056,0.00014215529491936238,0.0
1590503727.6262424,3.612371340434201,-0.6361856702171003,8.879586287177696,-0.3477777777777778,0.4455555555555555,-0.6533333333333333,-0.0025977403991709154,0.0006747519483184528,0.0
1590503727.6362424,3.618197922190145,-0.6363958443802903,8.837208311239419,-0.3477777777777778,0.4455555555555555,-0.6533333333333333,-0.0015919329807598664,0.0012874069772408044,-0.00019657619474434848
1590503727.6462424,3.61,-0.6200786642805168,8.870314657122066,-0.3477777777777778,0.4455555555555555,-0.6533333333333333,0.0010822498406293873,0.0021859520359264464,-0.001090830782496456
1590503727.6562424,3.61,-0.6365757438691027,8.93630297547641,-0.3477777777777778,0.4455555555555555,-0.6533333333333333,-0.0007173023830229503,0.003085728147752615,-0.001090830782496456
1590503727.6662424,3.6,-0.6312415837693998,8.951241583769399,-0.3288888888888889,0.4533333333333333,-0.6677777777777778,0.0006845234440836885,0.003550708453160289,-0.001090830782496456
1590503727.6762424,3.6,-0.6387323415426929,8.958732341542694,-0.3288888888888889,0.4533333333333333,-0.6677777777777778,-0.0017668213049161251,-0.0013519810448393383,-0.001090830782496456
1590503727.6862423,3.6076541303060723,-0.6276541303060725,8.861729348469638,-0.3288888888888889,0.4533333333333333,-0.6677777777777778,0.0,-0.0019257668776067507,-0.0005790414077241336
1590503727.6962423,3.6022889013873267,-0.6222889013873266,8.90686670416198,-0.3288888888888889,0.4533333333333333,-0.6677777777777778,0.00024968040913946814,-0.00034178955507805156,0.001090830782496456
1590503727.7062423,3.6098279806796034,-0.63,8.930688077281586,-0.3288888888888889,0.4534097863646207,-0.6675293054260939,0.0010533019885219147,0.0021441327710183707,0.0010533019885219147
1590503727.7162423,3.6009425048724686,-0.63,8.966229980510127,-0.3288888888888889,0.45735888672334735,-0.6546947292602322,-0.000885208116988163,0.00020562266550829293,-0.000885208116988163
1590503727.7262423,3.601864154401237,-0.64,8.880679227993815,-0.3288888888888889,0.4577777777777778,-0.6533333333333333,-0.0017749661641537889,-0.0026624492462306833,0.00020334770041956156
1590503727.7362423,3.609871141400836,-0.64,8.840644292995819,-0.3288888888888889,0.4577777777777778,-0.6533333333333333,-2.8112585311460166e-05,-4.216887796719025e-05,0.0010767744898407259
1590503727.7462423,3.62,-0.6234900699246817,8.872215244736385,-0.3288888888888889,0.4577777777777778,-0.6533333333333333,0.00019035378534539314,0.0027014309914531885,0.0003807075706907863
1590503727.7562423,3.62,-0.6396490281817656,8.92877159863618,-0.3288888888888889,0.4577777777777778,-0.6533333333333333,0.0010716882393405167,5.74276294678178e-05,0.0021433764786810334
1590503727.7662423,3.62,-0.64,8.95,-0.3411111111111111,0.4577777777777778,-0.6611111111111111,-0.001697624118048007,0.001090830782496456,0.0
1590503727.7762423,3.6192372812592972,-0.64,8.94161009385227,-0.3411111111111111,0.4577777777777778,-0.6611111111111111,-8.319970807454104e-05,0.0009244313663473739,0.0001663994161490821
1590503727.7862422,3.6084469696969697,-0.64,8.843106060606061,-0.3411111111111111,0.4577777777777778,-0.6611111111111111,-0.001090830782496456,-0.0012602401085659814,0.002181661564992912
1590503727.7962422,3.6000851275917065,-0.64,8.859829744816587,-0.3411111111111111,0.4577777777777778,-0.6611111111111111,-0.001090830782496456,-0.0021723755852455836,0.002181661564992912
1590503727.8062422,3.590100860773981,-0.6301008607739813,8.92929397458213,-0.3411111111111111,0.4577777777777778,-0.6611111111111111,0.00214865495389136,-0.0011018329861969733,0.0011018329861969733
1590503727.8162422,3.608191675968745,-0.6363833519374901,8.941808324031255,-0.3211111111111111,0.4577777777777778,-0.6822222222222222,0.0006963156788922522,0.0008935732306943541,0.0
1590503727.8262422,3.601503269016106,-0.6230065380322117,8.948496730983894,-0.3211111111111111,0.4577777777777778,-0.6822222222222222,-0.0007628683590681642,0.0001639812117141459,0.0
1590503727.8362422,3.607909070942236,-0.6379090709422359,8.83522732264441,-0.3211111111111111,0.4577777777777778,-0.6822222222222222,0.002295704054004182,-0.0003421274670338105,0.001090830782496456
1590503727.8462422,3.593736505093852,-0.6237365050938519,8.870658737265371,-0.3211111111111111,0.4577777777777778,-0.6822222222222222,0.003068697608722945,-0.002661108131190099,0.001090830782496456
1590503727.8562422,3.5993955341932344,-0.6387910683864687,8.917582136772937,-0.3211111111111111,0.4577777777777778,-0.6822222222222222,-0.0008270828189018515,-0.003272492347489368,6.593699089865106e-05
1590503727.8662422,3.6262396567575848,-0.6225068954949433,8.928746552252528,-0.32791398508529984,0.4577777777777778,-0.6763911873872034,-0.002999032470050784,-0.0023183915037122043,-0.0009541008437771637
1590503727.8762422,3.6,-0.6390933872343582,8.932747097874865,-0.3288888888888889,0.4577777777777778,-0.6755555555555556,-0.0020827654537362793,-9.889611125663267e-05,-0.001090830782496456
1590503727.8862422,3.6,-0.6313155064347439,8.87052405147795,-0.3288888888888889,0.4577777777777778,-0.6755555555555556,-0.001234330273855538,-0.000947331291137374,-0.001090830782496456
1590503727.8962421,3.618850080706326,-0.6177001614126524,8.894599677174696,-0.3288888888888889,0.4577777777777778,-0.6755555555555556,-0.0012162675187890513,0.004112449657400633,-0.0008399573099112654
1590503727.9062421,3.6106932965130976,-0.6013865930261955,8.927226813947609,-0.3288888888888889,0.4577777777777778,-0.6755555555555556,-0.0021060346472044624,0.002332915400569811,0.000939576946919557
1590503727.9162421,3.6,-0.6385820105820106,8.96,-0.3555555555555556,0.4533333333333333,-0.6822222222222222,-0.0009361521318567469,0.0023363402156326213,0.001090830782496456
1590503727.926242,3.6,-0.6302076470000998,8.96,-0.3555555555555556,0.4533333333333333,-0.6822222222222222,-2.2650773960194038e-05,0.0032498415735291745,0.001090830782496456
1590503727.936242,3.6026645833333335,-0.6286677083333333,8.882664583333334,-0.3555555555555556,0.4533333333333333,-0.6822222222222222,0.00029066095225270154,0.003927331701606772,-0.001090830782496456
1590503727.946242,3.62,-0.6229080955819382,8.904362143372907,-0.3555555555555556,0.4533333333333333,-0.6822222222222222,0.0017058255381098967,0.0009322187735354509,-0.0009322187735354509
1590503727.956242,3.62,-0.6369945089083306,8.925491763362496,-0.3555555555555556,0.4533333333333333,-0.6822222222222222,-0.0005990584525996895,0.0001639241099655889,-0.0001639241099655889
1590503727.966242,3.637320209023179,-0.6391067363410596,8.92732020902318,-0.3288888888888889,0.4577777777777778,-0.6822222222222222,-9.74399496057601e-05,-0.001090830782496456,-0.0007010709840734156
1590503727.976242,3.6085737562689126,-0.6314262437310875,8.890016293882388,-0.3288888888888889,0.4577777777777778,-0.6822222222222222,-0.0006240936129326169,-0.0004685145564113373,0.0029613342344468087
1590503727.986242,3.6007521692116993,-0.64,8.832256507635098,-0.3288888888888889,0.4577777777777778,-0.6822222222222222,0.002140637098504531,0.003313516813977749,0.0010087818495196938
1590503727.996242,3.6210411136784617,-0.6389588863215384,8.893123341035386,-0.3288888888888889,0.4577777777777778,-0.6822222222222222,0.000863695012787644,0.004022619475422606,-0.0009772628976420501
1590503728.006242,3.629050547100273,-0.6309494528997269,8.91715164130082,-0.3288888888888889,0.4577777777777778,-0.6822222222222222,-0.000883692292585925,0.0014015385173622515,-0.00010356924495526546
1590503728.016242,3.622092441288446,-0.63,8.943722676134662,-0.3385536828696772,0.44284127798928674,-0.6708001929721996,-0.00022824993680033428,0.001090830782496456,0.002587742537088365
1590503728.026242,3.6089408035567265,-0.6389408035567266,8.95364482134036,-0.3411111111111111,0.4388888888888889,-0.6677777777777778,-0.001148600986748131,0.002181661564992912,0.001148600986748131
1590503728.036242,3.591674625391075,-0.6216746253910752,8.850047752346452,-0.3411111111111111,0.4388888888888889,-0.6677777777777778,-0.0020903249187061595,0.002181661564992912,0.0020903249187061595
1590503728.046242,3.602363217184308,-0.6211816085921539,8.901181608592154,-0.3411111111111111,0.4388888888888889,-0.6677777777777778,0.00025778700503674374,0.001090830782496456,0.0007041502749413403
1590503728.056242,3.618086633802553,-0.6290433169012765,8.909043316901277,-0.3411111111111111,0.4388888888888889,-0.6677777777777778,0.0019729456903565634,0.001090830782496456,-0.0018685877530383894
1590503728.066242,3.6003205561072495,-0.6109616683217478,8.95,-0.3411111111111111,0.4533333333333333,-0.6677777777777778,3.496724693047229e-05,0.0010208962886355114,0.0021117270711319674
1590503728.076242,3.6086508440913603,-0.6359525322740814,8.95,-0.3411111111111111,0.4533333333333333,-0.6677777777777778,0.0009436607029433591,-0.0007964906233902623,0.00029434015910619364
1590503728.086242,3.6108094995891857,-0.64,8.861618999178372,-0.3411111111111111,0.4533333333333333,-0.6677777777777778,0.0011791334895266672,0.00017660541406042235,-0.001090830782496456
1590503728.096242,3.6190146328103605,-0.64,8.878029265620722,-0.3411111111111111,0.4533333333333333,-0.6677777777777778,0.002074174678740816,0.00196668779248872,-0.001090830782496456
1590503728.106242,3.6060334159586747,-0.6330167079793374,8.914916460103314,-0.3411111111111111,0.4533333333333333,-0.6677777777777778,-0.00010361540479729425,0.002943420554922981,0.0011944461872937502
1590503728.116242,3.6199460184464574,-0.64,8.929838055339372,-0.3211111111111111,0.4577777777777778,-0.6677777777777778,0.0010790538344381743,-0.002175773090963771,0.001096719256525597
1590503728.126242,3.6130007782616613,-0.64,8.909002334784985,-0.3211111111111111,0.4577777777777778,-0.6677777777777778,-0.0004361625226431409,-0.0014181649124231136,0.0018543274350662545
1590503728.136242,3.61,-0.621747059499636,8.845241178498908,-0.3211111111111111,0.4577777777777778,-0.6677777777777778,-0.001090830782496456,-0.001090830782496456,0.0011861180965492479
1590503728.146242,3.5992919580419582,-0.639291958041958,8.88354020979021,-0.3211111111111111,0.4577777777777778,-0.6677777777777778,0.0010135953861833329,0.0,0.0012453015751227024
1590503728.156242,3.5913216403162056,-0.6313216403162055,8.923391798418972,-0.3211111111111111,0.4577777777777778,-0.6677777777777778,0.00014416859403053458,0.0,0.002984155159428299
1590503728.166242,3.608291987975428,-0.639145993987714,8.957437981963142,-0.33432199131558693,0.45371289156101596,-0.6809886579822535,-0.000997673177832597,-0.000997673177832597,0.0002794728139915766
