time,acc_x,acc_y,acc_z,mag_x,mag_y,mag_z,gyr_x,gyr_y,gyr_z
1590503789.60009,-0.18,-4.33,8.67,0.4666666666666667,0.2855555555555556,-0.6311111111111111,0.0,-0.004363323129985824,0.001090830782496456
1590503789.61009,-0.18772331455140076,-4.344553370897199,8.727723314551401,0.4699552123146433,0.2855555555555556,-0.626051810114224,-0.002181661564992912,-0.007635815477475192,-0.0005941350686176961
1590503789.62009,-0.18,-4.35893841982959,8.716815259488769,0.4811111111111111,0.2855555555555556,-0.6088888888888889,-0.0020658611321957474,-0.0077516159102723565,0.0008592299169021271
1590503789.63009,-0.1880781089414183,-4.341921891058582,8.64153134635149,0.4811111111111111,0.2855555555555556,-0.6088888888888889,-0.0015314232773794027,-0.008726646259971648,0.0002309467021523843
1590503789.64009,-0.20402563297462392,-4.338051265949248,8.594153797847744,0.4811111111111111,0.2855555555555556,-0.6088888888888889,-0.0030599184385434225,-0.007409260949645882,0.0017425331282176566
1590503789.65009,-0.20638529553430124,-4.3536147044656985,8.655302931259891,0.4811111111111111,0.2855555555555556,-0.6088888888888889,-0.004757626220066985,-0.006242760092644601,0.001090830782496456
1590503789.66009,-0.2,-4.355237123580714,8.707938127365475,0.4811111111111111,0.2836151244217725,-0.6111821256833598,-0.005627336986195062,-0.00815536469861354,0.001090830782496456
1590503789.67009,-0.2,-4.321970985370157,8.713869434165707,0.4811111111111111,0.2733333333333333,-0.6233333333333333,-0.008296643957248145,-0.013973711533936024,0.001090830782496456
1590503789.68009,-0.1972335049429898,-4.32106598022804,8.66276649505701,0.4811111111111111,0.2733333333333333,-0.6233333333333333,-0.011813641215307863,-0.02065656787990746,0.001090830782496456
1590503789.69009,-0.19060974069043934,-4.3475610372382425,8.66939025930956,0.4811111111111111,0.2733333333333333,-0.6233333333333333,-0.013981262998112361,-0.02571435203978463,0.001090830782496456
1590503789.70009,-0.1622417740974248,-4.349697782378219,8.707758225902575,0.4811111111111111,0.2733333333333333,-0.6233333333333333,-0.014213767000939086,-0.03378278742890498,0.002181661564992912
1590503789.71009,-0.13592955051598132,-4.3825880618550235,8.734070449484019,0.4811111111111111,0.2733333333333333,-0.6233333333333333,-0.010625994071118125,-0.03737056035872594,0.002181661564992912
1590503789.72009,-0.24669315416137957,-4.275322738335448,8.567984107503172,0.4744444444444445,0.3,-0.6022222222222222,0.017312471355543885,-0.01744895851375569,-0.005018688400721219
1590503789.73009,-0.15923534044533544,-4.31095582444333,8.621051406887663,0.4744444444444445,0.3,-0.6022222222222222,0.002129529428720528,-0.0315089755653435,-0.002181661564992912
1590503789.74009,-0.10818002368732729,-4.389505437318308,8.727438179664789,0.4744444444444445,0.3,-0.6022222222222222,0.0014781788699967232,-0.011278390852166906,-0.0013433078207306607
1590503789.75009,-0.1902684965825232,-4.329865751708739,8.719597255126216,0.4744444444444445,0.3,-0.6022222222222222,0.015286275171810955,0.00987605390991039,0.001090830782496456
1590503789.7600899,-0.20635766656040802,-4.322428222293062,8.693642333439591,0.4726907283439002,0.29919059256897956,-0.6039759383227665,0.015170510906639904,0.01285641036044622,0.001090830782496456
1590503789.7700899,-0.18046748599875545,-4.340467485998755,8.72,0.46,0.2933333333333333,-0.6166666666666667,0.006442995071413027,0.003196000129815087,0.001039835970713602
1590503789.7800899,-0.1805526564094664,-4.350276328204734,8.687587760682444,0.46,0.2933333333333333,-0.6166666666666667,0.0007674108299036322,-0.0007071253675446399,-0.000737268098724136
1590503789.7900898,-0.14435646085295992,-4.33653469127944,8.626534691279439,0.46,0.2933333333333333,-0.6166666666666667,-0.002181661564992912,-0.002656877725107854,0.0
1590503789.8000898,-0.16334315084315085,-4.353313698313698,8.663372603372604,0.46,0.2933333333333333,-0.6166666666666667,-0.0010876180099215356,-0.0054573666850572,0.0003646811850237921
1590503789.8100898,-0.1677617657789128,-4.346714702663261,8.696714702663261,0.4659686245895659,0.29010032834731847,-0.6149258178280433,0.0013349842611763449,-0.007391661998795302,0.000846677303816567
1590503789.8200898,-0.16,-4.366322264049476,8.716322264049476,0.4866666666666667,0.2788888888888889,-0.6088888888888889,0.004588734115828396,-0.0037367333856706706,-0.0004011787584725807
1590503789.8300898,-0.1706037745565025,-4.349396225443498,8.674654084811658,0.4866666666666667,0.2788888888888889,-0.6088888888888889,0.00988333862966021,0.002633087275414538,-0.0007052666592669355
1590503789.8400898,-0.19,-4.33,8.629367161431366,0.4866666666666667,0.2788888888888889,-0.6088888888888889,0.009886509021569824,0.0033415243265910877,0.0008450518343564767
1590503789.8500898,-0.19,-4.3324166706103195,8.676916694272238,0.4866666666666667,0.2788888888888889,-0.6088888888888889,0.005754131087111351,-0.0002636178692891282,0.0016544258264146556
1590503789.8600898,-0.19,-4.339033016263625,8.723231113845378,0.4866666666666667,0.2788888888888889,-0.6088888888888889,0.003588937035232649,-0.0009853492199153621,0.00021096312516218768
1590503789.8700898,-0.18,-4.328148805499211,8.731629761099843,0.4866666666666667,0.2855555555555556,-0.6233333333333333,-0.0018019482128257321,-0.007054168130723151,0.0023835955595777726
1590503789.8800898,-0.17757296771761344,-4.367572967717614,8.706021548046587,0.4866666666666667,0.2855555555555556,-0.6233333333333333,-0.00545415391248228,-0.018448608783438247,-0.003240654174488866
1590503789.8900898,-0.16688011236883418,-4.358440056184417,8.602339915723373,0.4866666666666667,0.2855555555555556,-0.6233333333333333,-0.00545415391248228,-0.028701927291508413,-0.006544984694978735
1590503789.9000897,-0.1322250681649178,-4.341112534082459,8.628331198876312,0.4866666666666667,0.2855555555555556,-0.6233333333333333,-0.00545415391248228,-0.03248220619014916,-0.006544984694978735
1590503789.9100897,-0.1232775005939653,-4.358907499802012,8.721092500197988,0.48448166627068984,0.2855555555555556,-0.6241830557095466,-0.010550787971209782,-0.020744056088664784,-0.002181661564992912
1590503789.9200897,-0.1481901876930387,-4.350603270768986,8.729396729231013,0.46787320820464084,0.2855555555555556,-0.63064190051301,-0.00783323537497262,-0.0125913982999533,-0.002181661564992912
1590503789.9300897,-0.18207609942638622,-4.337358699808795,8.656793499043976,0.4666666666666667,0.2855555555555556,-0.6311111111111111,-0.005227686596299746,-0.013727865540088858,-0.00028812115543797403
1590503789.9400897,-0.16,-4.33,8.629469791508141,0.4666666666666667,0.2855555555555556,-0.6311111111111111,-0.00820970103752545,-0.01854412330243975,-0.001090830782496456
1590503789.9500897,-0.16242551381450476,-4.337276541443514,8.712425513814505,0.4666666666666667,0.2855555555555556,-0.6311111111111111,-0.013619134416403906,-0.019867035868555837,-0.0008262482692732383
1590503789.9600897,-0.1690461252068395,-4.35904612520684,8.72,0.4674085692835693,0.28491963902678197,-0.6317470276398848,-0.014751372961436924,-0.024310432011030107,-0.0002081031974053843
1590503789.9700897,-0.1668078649006048,-4.35,8.709788202649094,0.4744444444444445,0.2788888888888889,-0.6377777777777778,-0.009446165612635258,-0.02912732671157563,-0.00329559585449145
1590503789.9800897,-0.17193218439120078,-4.3526892718695995,8.668485825043202,0.4744444444444445,0.2788888888888889,-0.6377777777777778,-0.008433292206185529,-0.035658464012754874,-0.005160799858696161
1590503789.9900897,-0.13214540920317483,-4.3472467208594106,8.607449344171881,0.4744444444444445,0.2788888888888889,-0.6377777777777778,-0.006801115309615699,-0.04558086502486372,-0.003806856351412829
1590503790.0000896,-0.08153480365180826,-4.323813232866274,8.619952447473507,0.4744444444444445,0.2788888888888889,-0.6377777777777778,-0.005033007557377995,-0.048422887960916705,-0.002014240458144869
1590503790.0100896,-0.08745318827696172,-4.377078694492655,8.696891447600503,0.4744444444444445,0.2788888888888889,-0.6377777777777778,-0.007615390010086449,-0.03744776253690578,-0.0013686448449677555
1590503790.0200896,-0.13,-4.340001238275082,8.69000061913754,0.4544444444444444,0.2855555555555556,-0.6166666666666667,0.003272627422347121,-0.010908037675249053,0.0032724248100604917
1590503790.0300896,-0.1277351842717215,-4.355470368543443,8.686411105630329,0.4544444444444444,0.2855555555555556,-0.6166666666666667,0.00545415391248228,-0.006297931623669905,0.0024287146363017424
1590503790.0400896,-0.11806903644661566,-4.343861927106769,8.647723854213538,0.4544444444444444,0.2855555555555556,-0.6166666666666667,0.005664789360873316,-0.00482224756730917,0.0026405860023162586
1590503790.0500896,-0.11,-4.359050258274769,8.682849225175692,0.4544444444444444,0.2855555555555556,-0.6166666666666667,0.006544984694978735,-0.001663657810341215,0.0
1590503790.0600896,-0.1101973429185608,-4.3498026570814385,8.710197342918562,0.454839130281566,0.2853143586550924,-0.6163816157843011,0.006544984694978735,0.00329401912051675,0.0
1590503790.0700896,-0.11758765901962857,-4.342412340980371,8.71758765901963,0.46961976248370163,0.27628175008712064,-0.6057067147494254,0.006544984694978735,0.004100177550059141,0.0
1590503790.0800896,-0.13032960618718423,-4.349670393812816,8.68703354431534,0.4744444444444445,0.2733333333333333,-0.6022222222222222,0.009601750297419009,0.0077077243924915575,-0.002073798192468364
1590503790.0900896,-0.13798022727687287,-4.342019772723127,8.618177954508145,0.4744444444444445,0.2733333333333333,-0.6022222222222222,0.004594430503509644,0.009376830990461346,0.00042986170448631837
1590503790.1000896,-0.11335694776374189,-4.35832152611813,8.653356947763742,0.4744444444444445,0.2733333333333333,-0.6022222222222222,0.010458302884754507,0.013181515938855528,0.001090830782496456
1590503790.1100895,-0.14915670877432569,-4.340421645612837,8.689156708774325,0.4744444444444445,0.2733333333333333,-0.6022222222222222,0.017292312115117725,0.014157802971764558,0.001090830782496456
1590503790.1200895,-0.16,-4.328514830912019,8.718514830912019,0.4544444444444444,0.2733333333333333,-0.6022222222222222,0.015390420842417617,0.016481251624914074,0.001090830782496456
1590503790.1300895,-0.16,-4.321252099530744,8.711252099530745,0.4544444444444444,0.2733333333333333,-0.6022222222222222,0.010636974268999094,0.01172780505149555,0.001090830782496456
1590503790.1400895,-0.16,-4.321667014106039,8.615001042318115,0.4544444444444444,0.2733333333333333,-0.6022222222222222,0.003272264948952262,0.00109060338395935,0.001090830782496456
1590503790.1500895,-0.16,-4.328953338892363,8.63686001667709,0.4544444444444444,0.2733333333333333,-0.6022222222222222,-0.0014966234719617317,-0.0036782850369546437,0.001090830782496456
1590503790.1600895,-0.14065492540528896,-4.342896716396474,8.659345074594711,0.4544444444444444,0.2733333333333333,-0.6022222222222222,-0.007105508898433137,-0.008583763701506016,0.00038742402057642396
1590503790.1700895,-0.13885514485514486,-4.35,8.705420579420581,0.4721547341547342,0.2674299034299034,-0.6209164169164169,-0.01561315579734238,-0.015738040120693124,-0.0009659464591457128
1590503790.1800895,-0.1079524306658799,-4.3720475693341205,8.66180972266352,0.4744444444444445,0.26666666666666666,-0.6233333333333333,-0.012840669177081538,-0.015494986120845782,0.00044671033179079597
1590503790.1900895,-0.10391763303758915,-4.376082366962411,8.639141143754376,0.4744444444444445,0.26666666666666666,-0.6233333333333333,-0.006496222220961235,-0.014937970166804392,0.001754314093800178
1590503790.2000895,-0.12772138249370993,-4.35227861750629,8.694683225818656,0.4744444444444445,0.26666666666666666,-0.6233333333333333,0.0004280078178573801,-0.0062826826182811255,-0.0008422721707568026
1590503790.2100894,-0.15,-4.349965838564862,8.70017080717569,0.4744444444444445,0.2667311938219273,-0.623261214748042,0.0021704822614860802,-0.0021891144339974663,0.0010871043479941788
1590503790.2200894,-0.15,-4.342464094721969,8.737679526390156,0.4744444444444445,0.2809011544140589,-0.6074241999686009,-0.00028445767038325813,-0.003825741055243692,0.000268791037371066
1590503790.2300894,-0.15988939995084442,-4.330110600049156,8.730221200098311,0.4744444444444445,0.2855555555555556,-0.6022222222222222,-0.0021695969711764593,-0.008678387884705837,0.0
1590503790.2400894,-0.16235538464702132,-4.359421538588085,8.681198461823191,0.4744444444444445,0.2855555555555556,-0.6022222222222222,-0.009046679219190982,-0.02509363919933636,-0.0016046959980145381
1590503790.2500894,-0.16772069602906498,-4.382402320096883,8.743162088087194,0.4744444444444445,0.2855555555555556,-0.6022222222222222,-0.005136061565620065,-0.04059595346809235,-0.003521125840905604
1590503790.2600894,-0.1476701829307158,-4.315567276435719,8.683010548792147,0.4744444444444445,0.2855555555555556,-0.6022222222222222,0.007257911340145606,-0.05226086914410708,-0.00570829753015837
1590503790.2700894,-0.17842338854369297,-4.319605847135923,8.72763508281554,0.46,0.2788888888888889,-0.6088888888888889,0.016362461737446838,-0.05751306361831132,0.0015207848596405199
1590503790.2800894,-0.1467378043022531,-4.311684451075563,8.68010670645338,0.46,0.2788888888888889,-0.6088888888888889,0.016362461737446838,-0.05146443175422055,0.010161687522627328
1590503790.2900894,-0.20439740754076438,-4.287068394972824,8.618794815081529,0.46,0.2788888888888889,-0.6088888888888889,0.013221434670724364,-0.03799075416756634,0.02325566390252346
1590503790.3000894,-0.2259719150249473,-4.272685389983368,8.661943830049895,0.46,0.2788888888888889,-0.6088888888888889,0.008514607294534987,-0.03171498433264716,0.03031590496680753
1590503790.3100893,-0.15936807356755484,-4.3011058712567785,8.660947889648668,0.4599122324399382,0.2789942099609631,-0.6087835678168148,0.0053679883118842335,-0.024899543676102785,0.048255051231638195
1590503790.3200893,-0.0866253598087525,-4.384601405083671,8.711656339952189,0.4544444444444444,0.2855555555555556,-0.6022222222222222,0.0006826140914129284,-0.012407355298544543,0.06458655419776187
1590503790.3300893,0.05052612140126683,-4.443508707133756,8.6642108178981,0.4544444444444444,0.2855555555555556,-0.6022222222222222,0.003272492347489368,-0.008860625605401722,0.06334477378824131
1590503790.3400893,0.09699950139424941,-4.458999833798083,8.594500747908626,0.4544444444444444,0.2855555555555556,-0.6022222222222222,0.003272492347489368,-0.004636076150151693,0.054050764986691244
1590503790.3500893,0.058171501308759734,-4.441650471512066,8.615566352325288,0.4544444444444444,0.2855555555555556,-0.6022222222222222,0.00248525898812524,0.00459102119733507,0.024737851020036384
1590503790.3600893,-0.06966223242138478,-4.351414894761375,8.675723403492416,0.4544444444444444,0.2855555555555556,-0.6022222222222222,0.005766317147991053,0.007051814817234431,0.009152824760673767
1590503790.3700893,-0.12,-4.356774627923459,8.727849751948973,0.4666666666666667,0.2733333333333333,-0.6166666666666667,0.008492090583565252,0.007518537639271994,0.000234555676406396
1590503790.3800893,-0.12191964594426388,-4.3319196459442635,8.706160708111472,0.4666666666666667,0.2733333333333333,-0.6166666666666667,0.006754385583728487,0.006859086028103364,0.002076961120618036
1590503790.3900893,-0.14110357121153808,-4.3488964287884615,8.672207142423076,0.4666666666666667,0.2733333333333333,-0.6166666666666667,0.00878683673238278,0.010118429404523765,0.001090830782496456
1590503790.4000893,-0.15809589401827132,-4.331904105981729,8.706191788036543,0.4666666666666667,0.2733333333333333,-0.6166666666666667,0.00971362417156784,0.014752366600449063,0.001090830782496456
1590503790.4100893,-0.16620861534358017,-4.30516553862568,8.69137415396926,0.4666666666666667,0.2733333333333333,-0.6166666666666667,0.01049473191581381,0.013917121208258972,0.00041357590915075014
1590503790.4200892,-0.17,-4.296649120376784,8.673350879623216,0.4666666666666667,0.26520663065059796,-0.6166666666666667,2.8710049684766217e-05,0.0029356781330296643,0.0
1590503790.4300892,-0.07708361944844391,-4.357179311108649,8.698589655554326,0.4666666666666667,0.2611111111111111,-0.6166666666666667,-0.015589758722861523,-0.01855456164329784,0.0
1590503790.4400892,-0.1882063305978898,-4.320797186400938,8.56179366940211,0.4666666666666667,0.2611111111111111,-0.6166666666666667,-0.012981269956766147,-0.013068229503319206,-0.002116441905078118
1590503790.4500892,-0.12587669038852106,-4.348499248716213,8.624123309611479,0.4666666666666667,0.2611111111111111,-0.6166666666666667,-0.009203987167749022,-0.01231277294551578,0.0001499277683321581
1590503790.4600892,-0.10819442124603307,-4.327222315015868,8.674583263738098,0.4666666666666667,0.2611111111111111,-0.6166666666666667,-0.007635815477475192,-0.014680756689435769,-0.0015907872994782959
1590503790.4700892,-0.11,-4.335625213821416,8.711250427642833,0.4666666666666667,0.2750001900634812,-0.6166666666666667,-0.0016702530006536785,-0.01441940774397588,0.00037500806793059433
1590503790.4800892,-0.12199594264373645,-4.33,8.695010143390657,0.4666666666666667,0.2788888888888889,-0.6166666666666667,-0.0020727997811986576,-0.011563691472283998,0.0015262779176734727
1590503790.4900892,-0.14286138026497924,-4.33143069013249,8.653576725331224,0.4666666666666667,0.2788888888888889,-0.6166666666666667,-0.0011688628243331364,-0.007557783435638512,0.005688250037992321
1590503790.5000892,-0.1833654954138307,-4.3452883064206365,8.702019297248297,0.4666666666666667,0.2788888888888889,-0.6166666666666667,-0.002255085284908056,-0.006398137255148447,0.009240612299377655
1590503790.5100892,-0.21558621537326964,-4.300179298477422,8.721351729223962,0.4666666666666667,0.2788888888888889,-0.6166666666666667,-0.0029580323482271344,-0.004992243128510291,0.014161241742611203
1590503790.5200891,-0.28278979731268505,-4.253605101343657,8.736598724664086,0.4666666666666667,0.2788888888888889,-0.6027360257091525,-0.0039923015463696875,-0.003643513931105505,0.02356055372625003
1590503790.5300891,-0.374050822122571,-4.24,8.764019058295963,0.4666666666666667,0.2788888888888889,-0.5955555555555555,-0.0017432503144043697,-0.005019207557877004,0.04386456406109394
1590503790.5400891,-0.28321525118269886,-4.2691231133138094,8.63409213786889,0.4666666666666667,0.2788888888888889,-0.5955555555555555,-0.0032087233481521687,-0.008630992760965848,0.07658810406619618
1590503790.5500891,-0.2085113695943453,-4.301772724624735,8.661772724624736,0.4666666666666667,0.2788888888888889,-0.5955555555555555,0.00019337425895508747,-0.010459579563193875,0.09651125189269287
1590503790.560089,-0.14140133312664704,-4.342399111248902,8.694299333436676,0.4666666666666667,0.2788888888888889,-0.5955555555555555,0.001090830782496456,-0.011791856521860296,0.11558404192250217
1590503790.570089,-0.08546418301214645,-4.372267908493926,8.707422636164642,0.4575945557987705,0.2788888888888889,-0.6219471508076169,0.00028114678093013514,-0.012808822609027336,0.11890055529211367
1590503790.580089,-0.09464077709863966,-4.38616019427466,8.70383980572534,0.4544444444444444,0.2788888888888889,-0.6311111111111111,0.0,-0.015777861206340456,0.11486871756753922
1590503790.590089,-0.12713833584808448,-4.355723328303831,8.631446656607661,0.4544444444444444,0.2788888888888889,-0.6311111111111111,-0.0009347512151926537,-0.01371428765917268,0.10300805844520843
1590503790.600089,-0.1567856200179486,-4.329910784986539,8.640089215013461,0.4544444444444444,0.2788888888888889,-0.6311111111111111,-0.001090830782496456,-0.012359504918861682,0.09852540488778724
1590503790.610089,-0.23306587224776193,-4.284963404306799,8.6850365956932,0.4544444444444444,0.2788888888888889,-0.6311111111111111,-0.0018552107244169855,-0.008941618839778898,0.09937707946794616
1590503790.620089,-0.3001713079992479,-4.263304782000125,8.706695217999876,0.47229835911077683,0.28335236755547205,-0.6214402406668478,-0.0029119965539716746,-0.01055715543339024,0.10254743695661024
1590503790.630089,-0.3372897845726199,-4.26864489228631,8.727289784572621,0.4811111111111111,0.2855555555555556,-0.6166666666666667,-0.003272492347489368,-0.01105612714573371,0.11777409626307289
1590503790.640089,-0.3747046282924146,-4.261323842926896,8.651914586342068,0.4811111111111111,0.2855555555555556,-0.6166666666666667,-0.0013796485056662073,-0.013747573587699298,0.13608055873010702
1590503790.650089,-0.3518872422012644,-4.269370919266245,8.733709192662452,0.4811111111111111,0.2855555555555556,-0.6166666666666667,-0.0031352482216783313,-0.015203008892044866,0.16204630992764146
1590503790.660089,-0.35,-4.2452000502086795,8.77099993723915,0.4811111111111111,0.2855555555555556,-0.6166666666666667,-0.003272492347489368,-0.016624258386787313,0.17579826426100076
1590503790.670089,-0.3683744557329463,-4.2391872278664735,8.808374455732945,0.4836631188517981,0.27687872923721984,-0.6294267053701016,-0.003272492347489368,-0.020459805808710742,0.1902747691331953
1590503790.680089,-0.29994660781661564,-4.2800177973944615,8.762459955862463,0.4866666666666667,0.26666666666666666,-0.6444444444444445,-0.0016352754764583448,-0.01908662660182896,0.21899641330224273
1590503790.690089,-0.32351102941176474,-4.298918504901961,8.659733455882353,0.4866666666666667,0.26666666666666666,-0.6444444444444445,-0.001090830782496456,-0.01842615048803373,0.24331341540239423
1590503790.700089,-0.3596631069679627,-4.255505339548056,8.664831553483982,0.4866666666666667,0.26666666666666666,-0.6444444444444445,-0.003517638046381869,-0.021779866320953634,0.2519084120987304
1590503790.710089,-0.417959324452902,-4.212594671741199,8.67,0.4866666666666667,0.26666666666666666,-0.6444444444444445,-0.004363323129985824,-0.025896903999337605,0.2661214025893223
1590503790.720089,-0.6072776594462083,-4.078867901780332,8.658463609693365,0.4712848129244866,0.2737166829651659,-0.6367535175733544,-0.004992535613254386,-0.029158407012217086,0.2886056018898687
1590503790.730089,-0.8025923351003736,-3.911358303641262,8.65,0.46,0.2788888888888889,-0.6311111111111111,-0.008753568650015012,-0.034502559594940044,0.3327436774493361
1590503790.740089,-0.8566272535705923,-3.681064153594006,8.57047295715289,0.46,0.2788888888888889,-0.6311111111111111,-0.01307707148442807,-0.04359453758327004,0.4105399498947242
1590503790.750089,-0.8503945027730301,-3.6188164916809096,8.693293452858487,0.46,0.2788888888888889,-0.6311111111111111,-0.02046758340627179,-0.04690572364734761,0.5380977426758851
1590503790.760089,-0.6637057017179848,-3.2558793260851524,8.615320773508175,0.46,0.2788888888888889,-0.6311111111111111,-0.021649491936385382,-0.03859236002677311,0.6243528280375308
1590503790.770089,-0.015049361485303017,-2.8162794178529347,8.476643896691188,0.4744444444444445,0.2611111111111111,-0.6311111111111111,-0.06635928946659783,0.035605649822905205,0.7219196002788619
1590503790.780089,-0.14194293175376582,-2.722778892391962,8.64360912072864,0.4744444444444445,0.2611111111111111,-0.6311111111111111,-0.11662739191886322,0.1354133315034901,0.7714591795071815
1590503790.790089,-0.3649477809746041,-2.772783126798215,9.096287125348315,0.4744444444444445,0.2611111111111111,-0.6311111111111111,-0.17561236355786267,0.24461573245706386,0.8138046662033741
1590503790.800089,-0.46283699495451114,-2.835501569266219,9.498996861467562,0.4744444444444445,0.2611111111111111,-0.6311111111111111,-0.2236921195018611,0.24822213934525372,0.8216144300978897
1590503790.8100889,-0.4575038195561274,-2.7249465262142167,8.65456457060148,0.4744444444444445,0.2611111111111111,-0.6311111111111111,-0.07628149136980644,-0.016490789610942497,0.784016709014911
1590503790.8200889,-0.2734124925164638,-2.709640790261425,8.527126322091398,0.4864471496042041,0.2469260959223043,-0.6169260959223043,0.0198833352309806,-0.021084751133714177,0.8397962466281051
1590503790.8300889,-0.2957768359045276,-2.7376180384691366,8.520793987176955,0.4866666666666667,0.2466666666666667,-0.6166666666666667,0.018918188476574324,-0.03389488116837419,0.8924466084225158
1590503790.8400888,-0.4012350712092096,-2.8506090048670103,8.483130331710997,0.4866666666666667,0.2466666666666667,-0.6166666666666667,0.011522947019124935,-0.09223511933269718,1.1028001432121874
1590503790.8500888,-0.4002812736921911,-2.9863434420015165,8.95621758908264,0.4866666666666667,0.2466666666666667,-0.6166666666666667,-0.028317189720935103,-0.09920423680682779,1.2803656495544238
1590503790.8600888,-0.45853893236700266,-2.9261393465087244,8.762452876153354,0.4866666666666667,0.2466666666666667,-0.6166666666666667,-0.01842274641278897,-0.10100713037264307,1.3633674742267763
1590503790.8700888,-0.5311489497135583,-2.9281596117122852,8.749191597708466,0.49019149161892644,0.23609219180988755,-0.6166666666666667,-0.008149898125846175,-0.11638004877367822,1.4974333565740252
1590503790.8800888,-0.5300513717346158,-3.0248844135971145,9.034653240791343,0.4933333333333334,0.22666666666666666,-0.6166666666666667,-0.03374850881402715,-0.1336141623351853,1.6148222702916997
1590503790.8900888,-0.5721490650513563,-3.0135008499533122,8.689757224603156,0.4933333333333334,0.22666666666666666,-0.6166666666666667,-0.029180187009398634,-0.12620930696588734,1.7329747125850823
1590503790.9000888,-0.62,-3.152736356648732,9.100782614771854,0.4933333333333334,0.22666666666666666,-0.6166666666666667,-0.03444825469992774,-0.14752512581378158,1.8405727052921523
1590503790.9100888,-0.666932922843346,-3.2134664614216732,8.90018092486768,0.4933333333333334,0.22666666666666666,-0.6166666666666667,-0.0787576466649086,-0.180258343422861,1.909636964106537
1590503790.9200888,-0.7305462587934343,-3.236848752931145,8.488298070773823,0.5157983372415264,0.1985854117814254,-0.6222829176437149,-0.014093656954432057,-0.13983713489506822,1.9951570568133312
1590503790.9300888,-0.8371664130371969,-3.3649282453335387,8.728439697185676,0.52,0.19333333333333333,-0.6233333333333333,-0.037854326559192596,-0.1672398473963996,2.049102143259904
1590503790.9400887,-0.9179507194035068,-3.366868992835091,8.571574532533349,0.52,0.19333333333333333,-0.6233333333333333,-0.0545415391248228,-0.18739935275372768,2.1201135333981194
1590503790.9500887,-0.9523229756011315,-3.4095279349363508,8.599055869872702,0.52,0.19333333333333333,-0.6233333333333333,-0.02937926388410346,-0.17978517609292194,2.196190602670961
1590503790.9600887,-1.0298172023584673,-3.43997388605121,8.81454300589617,0.52,0.19333333333333333,-0.6233333333333333,-0.039765473237532746,-0.1865064264976202,2.250839589098979
1590503790.9700887,-1.0871579578679063,-3.445719319289302,8.960035235025114,0.528561361421396,0.17716187287069662,-0.6233333333333333,-0.046297216873784665,-0.201485988967557,2.3151752783813913
1590503790.9800887,-1.059940058810224,-3.3746103822664555,8.854610382266456,0.54,0.15555555555555556,-0.6233333333333333,-0.037134016591342536,-0.20066709399288485,2.3847326319136095
1590503790.9900887,-1.092909090909091,-3.3222597402597405,8.673532467532468,0.54,0.15555555555555556,-0.6233333333333333,-0.04004340636109717,-0.19441437870794628,2.438749130477018
1590503791.0000887,-1.1047368921424159,-3.2307897989257026,8.653420877501544,0.54,0.15555555555555556,-0.6233333333333333,-0.04291556036554525,-0.20608086419381633,2.4743486220821653
1590503791.0100887,-1.198652873184978,-3.2789222985479825,8.74234544033565,0.54,0.15555555555555556,-0.6233333333333333,-0.04472406208235469,-0.20370011872721858,2.494897678177193
1590503791.0200887,-1.242507330075522,-3.24507330075522,8.765014660151044,0.54,0.1105995360086875,-0.6449788242262698,-0.04390673858268409,-0.20725145197671271,2.5031831385465404
1590503791.0300887,-1.2778622000045239,-3.212427559999095,8.835724400009047,0.54,0.09555555555555556,-0.6522222222222223,-0.04363323129985824,-0.20200528465288456,2.500152545568729
1590503791.0400887,-1.29,-3.1482754869969347,8.71340428161772,0.54,0.09555555555555556,-0.6522222222222223,-0.0453165062703169,-0.2029885831377688,2.4864687604209403
1590503791.0500886,-1.2522204251386322,-3.0846645101663586,8.75311506469501,0.54,0.09555555555555556,-0.6522222222222223,-0.04251800300817841,-0.1973915766134918,2.4695433015352424
1590503791.0600886,-1.2270851519393888,-3.0635425759696946,8.715425759696945,0.54,0.09555555555555556,-0.6522222222222223,-0.042860361116443244,-0.1987806885208104,2.450485258935422
1590503791.0700886,-1.3393082064356094,-3.136698132708606,8.765220147454006,0.5504157957999342,0.045370357610418244,-0.6645317990766898,-0.05571813011698152,-0.19606482597276204,2.42098914717927
1590503791.0800886,-1.2605180861795648,-3.0143428447903156,8.960876206946246,0.5522222222222222,0.03666666666666667,-0.6666666666666666,-0.07458498489275613,-0.2080835568001463,2.3847256338430496
1590503791.0900886,-1.2586851726472579,-2.9044631008801622,8.563111712931619,0.5522222222222222,0.03666666666666667,-0.6666666666666666,-0.043198966912513674,-0.18954399752197662,2.3732306525660776
1590503791.1000886,-1.3410994299091756,-2.8565686168252657,8.473942514035505,0.5522222222222222,0.03666666666666667,-0.6666666666666666,-0.005965957443298307,-0.15885185141982974,2.3215743685285655
1590503791.1100886,-1.466537137967596,-2.9082581521233655,8.75215126769471,0.5522222222222222,0.03666666666666667,-0.6666666666666666,-0.038232828587041745,-0.1741105247753323,2.2447775872043225
1590503791.1200886,-1.6057989824077268,-2.905910658847879,8.699441617799241,0.5495704457475757,0.01103282741175118,-0.6666666666666666,-0.05685720279827261,-0.18576172806371846,2.145846879318425
1590503791.1300886,-1.6370688524590162,-2.8535628415300547,8.85,0.5455555555555556,-0.027777777777777776,-0.6666666666666666,-0.03239898562141331,-0.1598380635696976,2.006526358141766
1590503791.1400886,-1.7831268017547526,-2.913523710048047,8.669031961562565,0.5455555555555556,-0.027777777777777776,-0.6666666666666666,-0.024608636573793297,-0.14213007822923543,1.9005640886082549
1590503791.1500885,-1.7844664875409475,-2.8542202510213848,8.726108064338032,0.5455555555555556,-0.027777777777777776,-0.6666666666666666,-0.0355818249125365,-0.14407024400212634,1.8048235539310489
1590503791.1600885,-1.7885062646828505,-2.769786609240407,8.630014682850431,0.5455555555555556,-0.027777777777777776,-0.6666666666666666,-0.028850424084362513,-0.13619250821609458,1.6988673990951062
1590503791.1700885,-1.9207579725774149,-2.8407579725774146,8.825432136804807,0.5528690152176519,-0.03677895890035776,-0.6835438812715041,-0.012081820589434248,-0.10565900226853864,1.5951826379455425
1590503791.1800885,-1.8986209764617816,-2.7304603676287114,8.870231223488314,0.56,-0.045555555555555564,-0.7,-0.03703802828681314,-0.11748364567469316,1.455920858156253
1590503791.1900885,-1.9640367559952614,-2.704756187365927,8.958305318093043,0.56,-0.045555555555555564,-0.7,-0.03147975653423593,-0.11438289600396657,1.3627388917877017
1590503791.2000885,-1.9992111222482087,-2.6484222444964174,8.880345621264432,0.56,-0.045555555555555564,-0.7,-0.037917637600770285,-0.10586221783027305,1.2556560548016975
1590503791.2100885,-2.082885080157899,-2.6366641827116735,8.641998509627003,0.56,-0.045555555555555564,-0.7,-0.019708705775438914,-0.09332708520934721,1.1446707688262763
1590503791.2200885,-1.9682408665605466,-2.520819194782001,8.68,0.546425696574394,-0.0835636051472523,-0.7126693498638988,0.024313706328096447,-0.04272112109437522,0.9332621669301897
1590503791.2300885,-1.92,-2.48,8.68,0.5433333333333333,-0.09222222222222222,-0.7155555555555555,0.02836160034490785,-0.03381575425739013,0.8933904108645974
1590503791.2400885,-2.1745005515657714,-2.727015241225602,9.2488835858529,0.5433333333333333,-0.09222222222222222,-0.7155555555555555,-0.005115748091036477,-0.06321049922553638,0.793774886250324
1590503791.2500885,-2.1841352957128417,-2.62792470971082,8.999984715134481,0.5433333333333333,-0.09222222222222222,-0.7155555555555555,0.019222426801365083,-0.0449487738151787,0.599763279201669
1590503791.2600884,-2.1965458058649694,-2.6111140315980905,9.029024352125482,0.5433333333333333,-0.09222222222222222,-0.7155555555555555,-0.0013489700970176766,-0.041977209323680244,0.49138152920828576
1590503791.2700884,-2.2558460105557283,-2.657118907171686,9.169497050605402,0.5412525440684397,-0.09782434716616648,-0.7197171340853427,-0.033455756392815866,-0.04390179038415494,0.40941409073346335
1590503791.2800884,-2.3981425508369068,-2.660632521787246,8.830632521787246,0.5288888888888889,-0.13111111111111112,-0.7444444444444445,-0.005661146183320503,-0.01158953006422037,0.2522272684620817
1590503791.2900884,-2.478590161988963,-2.689530053996321,8.833489982001227,0.5288888888888889,-0.13111111111111112,-0.7444444444444445,-0.009436779062738482,-0.012328573430498226,0.14999340743367512
1590503791.3000884,-2.5461192180957806,-2.7060198696826303,8.739701954760548,0.5288888888888889,-0.13111111111111112,-0.7444444444444445,-0.0032508178860379865,-0.0019266488240262704,0.05303313714047433
1590503791.3100884,-2.490841636077609,-2.681729155742003,8.753504195070793,0.5288888888888889,-0.13111111111111112,-0.7444444444444445,0.00047405663922073303,-0.0013303616635506723,-0.043653251791409046
1590503791.3200884,-2.5084481015502136,-2.721932711750169,8.834773084700068,0.5160435857110761,-0.11734828627774034,-0.7504083352055718,-0.0018015495578817002,0.006966636989134015,-0.12599977809417304
1590503791.3300884,-2.641246185964349,-2.831246185964349,8.853003051228521,0.4977777777777778,-0.09777777777777777,-0.7588888888888888,-0.0020457237639302413,0.020617700301381544,-0.22001357924414547
1590503791.3400884,-2.6467199379625415,-2.841375950370033,8.755503801480133,0.4977777777777778,-0.09777777777777777,-0.7588888888888888,-0.001448630046392232,0.029342518694845075,-0.31232328455477754
1590503791.3500884,-2.5904130560369727,-2.80309317487827,8.737627300486919,0.4977777777777778,-0.09777777777777777,-0.7588888888888888,0.00024729818928099015,0.052146113617184194,-0.3965217157406788
1590503791.3600883,-2.4376997505733464,-2.7238498752866733,8.76917069822723,0.4977777777777778,-0.09777777777777777,-0.7588888888888888,0.007565822769617266,0.05219942206180025,-0.4953599957472737
1590503791.3700883,-2.376785009861933,-2.7309590729783038,8.779307199211045,0.49685020819636205,-0.114474030243261,-0.7625991672145518,0.003718130071009247,0.05537660558923392,-0.5913077395532564
1590503791.3800883,-2.3627163833075735,-2.8110675970542776,8.99097281571052,0.4955555555555556,-0.13777777777777778,-0.7677777777777778,0.013249145988367034,0.07216434728391348,-0.7149613532896696
1590503791.3900883,-2.23121271302068,-2.724333984322748,8.540974076353033,0.4955555555555556,-0.13777777777777778,-0.7677777777777778,0.011652152920206597,0.08468143382116339,-0.8243666405190742
1590503791.4000883,-2.1684236874491565,-2.765783150122025,8.8152210008135,0.4955555555555556,-0.13777777777777778,-0.7677777777777778,-0.014810551816498783,0.07911480004625253,-0.9317929286951038
1590503791.4100883,-2.1890929096666847,-2.8360619397777898,8.862411572110997,0.4955555555555556,-0.13777777777777778,-0.7677777777777778,-0.005001256069485611,0.0863526066358141,-1.0164250104855452
1590503791.4200883,-2.2251068892173476,-2.87,8.700100940913515,0.49803774068599765,-0.1497750059082479,-0.7756380306908444,0.013844612409392455,0.10769039025937514,-1.111938096627805
1590503791.4300883,-2.2,-2.88751493372046,8.888263642637854,0.5022222222222222,-0.17,-0.7888888888888889,0.006917283042197413,0.12409014658995922,-1.241051776716857
1590503791.4400883,-2.248634781744059,-2.9534982599184647,8.834863478174405,0.5022222222222222,-0.17,-0.7888888888888889,0.0051619062779631915,0.1335523097508955,-1.3332167013909273
1590503791.4500883,-2.252941832373165,-2.9800538933283773,8.771551756179148,0.5022222222222222,-0.17,-0.7888888888888889,0.0017032447936322671,0.14615368830405542,-1.423778650236799
1590503791.4600883,-2.1545807096017717,-2.9709918790984493,8.750838580796456,0.5022222222222222,-0.17,-0.7888888888888889,0.008851565735953894,0.16071016120425385,-1.5133147507197946
1590503791.4700882,-2.125745236483219,-3.025745236483219,8.83055285811007,0.5029220105103653,-0.17244925900850072,-0.7741933348378846,0.006948799932131936,0.16150326327395703,-1.5909846409038233
1590503791.4800882,-2.1533327658415335,-3.0800017024753994,8.827779291089245,0.5044444444444445,-0.17777777777777778,-0.7422222222222222,0.0023025967356765735,0.15804915686878804,-1.669457437859913
1590503791.4900882,-2.13,-3.15,8.784118625277163,0.5044444444444445,-0.17777777777777778,-0.7422222222222222,-0.0010267354039240487,0.16227704227365264,-1.7549540196297126
1590503791.5000882,-2.147048788209223,-3.184097576418446,8.59,0.5044444444444445,-0.17777777777777778,-0.7422222222222222,0.007245090166765655,0.1740859489503457,-1.8149299654262192
1590503791.5100882,-2.156603533208765,-3.3030189400373704,8.633396466791234,0.5044444444444445,-0.17777777777777778,-0.7422222222222222,0.001399624650176146,0.16726760677471836,-1.893641195604552
1590503791.5200882,-2.0685604724964737,-3.302034555712271,8.65406911142454,0.5134271665883091,-0.15681809277542705,-0.7362337407929792,0.01647342953742929,0.17197229994316549,-1.948010207795377
1590503791.5300882,-2.0255290852318724,-3.320238232913149,8.824603908870127,0.5244444444444445,-0.13111111111111112,-0.7288888888888889,0.018197837827945387,0.16724339519645215,-2.0027798240695285
1590503791.5400882,-1.968418014980059,-3.382895496254985,8.668747122337148,0.5244444444444445,-0.13111111111111112,-0.7288888888888889,0.039165674250219454,0.18753818463432806,-2.0470692951816405
1590503791.5500882,-1.9161022849965845,-3.491246281647313,8.630640548222903,0.5244444444444445,-0.13111111111111112,-0.7288888888888889,0.015923201826243905,0.17300283450573356,-2.1103708471560134
1590503791.5600882,-1.9073171842470507,-3.57453656315059,8.989268736988203,0.5244444444444445,-0.13111111111111112,-0.7288888888888889,-0.0022243371967508863,0.15287584639017776,-2.1606111236009524
1590503791.5700881,-1.8684416331224842,-3.58,8.76056354226567,0.5261567950929653,-0.13111111111111112,-0.7451562200498371,0.029041566169074707,0.17629431268491313,-2.189906464248308
1590503791.5800881,-1.765544182031202,-3.5330801011284456,8.541848060677067,0.5288888888888889,-0.13111111111111112,-0.7711111111111111,0.048860030705043356,0.1802301062819935,-2.2182122325379336
1590503791.5900881,-1.6166118894539871,-3.444407926302658,8.741348479032723,0.5288888888888889,-0.13111111111111112,-0.7711111111111111,0.05247112220181224,0.19061789030465656,-2.2378297724182814
1590503791.6000881,-1.5684599219453619,-3.4488501951365955,8.76728910237166,0.5288888888888889,-0.13111111111111112,-0.7711111111111111,0.06469730142646798,0.18787374309716356,-2.2505944729461915
1590503791.610088,-1.6187212360970153,-3.6314833992667923,8.851057144632463,0.5288888888888889,-0.13111111111111112,-0.7711111111111111,0.04491097708128995,0.18059061596270182,-2.2627540939102824
1590503791.620088,-1.6635199351779033,-3.820600081027621,8.945239627272944,0.5160710606939248,-0.12241329912167119,-0.7358620835749599,0.013862293493701123,0.17960311374747032,-2.26526717650584
1590503791.630088,-1.5475546349524052,-3.753535271254684,8.689419089068355,0.4977777777777778,-0.11,-0.6855555555555556,0.03278829102750641,0.1830456298064128,-2.2490368868196247
1590503791.640088,-1.391961248773988,-3.606993541462331,8.645290634195089,0.4977777777777778,-0.11,-0.6855555555555556,0.052031923807911065,0.18107086472271283,-2.2363100736444745
1590503791.650088,-1.3687295468525733,-3.6578913266352266,8.956594627844987,0.4977777777777778,-0.11,-0.6855555555555556,0.04625422233439791,0.17288489170105475,-2.231978365927842
1590503791.660088,-1.4251560470986475,-3.91149131126253,8.933664735836118,0.4977777777777778,-0.11,-0.6855555555555556,0.022162150708189592,0.1718972773607495,-2.2133839274887688
1590503791.670088,-1.357838685673432,-3.8564134700964443,8.921425215576987,0.4977777777777778,-0.11,-0.6855555555555556,0.022829712981272,0.17523508872616153,-2.1966948706617084
1590503791.680088,-1.2388913233116263,-3.742071490881058,8.540816951696995,0.5022222222222222,0.0033333333333333327,-0.6577777777777778,0.05346661947235727,0.1752084290161149,-2.1516362667958124
1590503791.690088,-1.2571998110905585,-3.8935999055452792,8.983142587272226,0.5022222222222222,0.0033333333333333327,-0.6577777777777778,0.0275762227883338,0.1728311879650917,-2.112141312321497
1590503791.700088,-1.12641842174255,-3.84,8.822139473914184,0.5022222222222222,0.0033333333333333327,-0.6577777777777778,0.04441461046248753,0.15844704621409092,-2.0635700909892156
1590503791.710088,-1.0753204476093592,-3.6869132393547446,8.933727655863974,0.5022222222222222,0.0033333333333333327,-0.6577777777777778,0.08644449521020273,0.1382666459840672,-2.0247217539600086
1590503791.720088,-0.9613088449807717,-3.217600450868585,9.17501723909296,0.5040336776240503,0.029418291119656985,-0.6483582096882721,0.17185657334522014,0.024044614499189328,-1.974263450803566
1590503791.730088,-0.9044878081102571,-3.568975616220514,9.150034455340577,0.5077777777777778,0.08333333333333333,-0.6288888888888889,-0.0213734024006402,0.20738274634144524,-1.868551497860723
1590503791.740088,-0.8044603596318971,-3.4091349967271185,8.88698432867429,0.5077777777777778,0.08333333333333333,-0.6288888888888889,-0.07988173435098733,0.2891333911894092,-1.7889858573394868
1590503791.750088,-0.6428916473034121,-3.2892564510211573,8.126380701968937,0.5077777777777778,0.08333333333333333,-0.6288888888888889,0.03467399809243856,0.08030206100609902,-1.7803186798758366
1590503791.760088,-0.712819515115235,-3.6063733413149754,8.392438391699093,0.5077777777777778,0.08333333333333333,-0.6288888888888889,0.015031328214478253,0.10049094928461216,-1.7287313849907406
1590503791.770088,-0.6626987399770905,-3.6509324169530353,8.48791981672394,0.5020684739722541,0.1207033218785796,-0.6221415298459972,0.03643524755913764,0.12268260181268675,-1.6612335708306532
1590503791.780088,-0.6488031478607847,-3.7381469740634006,9.044852139215251,0.4955555555555556,0.16333333333333333,-0.6144444444444445,0.03631750731136344,0.11395602804203694,-1.5952523128338287
1590503791.790088,-0.5713051841426225,-3.517234342012667,8.946482289467511,0.4955555555555556,0.16333333333333333,-0.6144444444444445,0.040662425439012856,0.10843630745775301,-1.5458543517320162
1590503791.800088,-0.5,-3.4225851824906024,8.930255850612344,0.4955555555555556,0.16333333333333333,-0.6144444444444445,0.05105212395893957,0.11124304753279911,-1.4985040198949064
1590503791.810088,-0.48928285887341005,-3.5821514233797696,8.637549969715323,0.4955555555555556,0.16333333333333333,-0.6144444444444445,0.03714582740602703,0.10666673279976913,-1.4107896865748026
1590503791.820088,-0.46387825560266505,-3.6583652331920047,9.082130526953362,0.4955555555555556,0.16333333333333333,-0.6144444444444445,0.029524993508196352,0.0983530958203175,-1.3650646831878188
1590503791.830088,-0.3953722459468652,-3.4444669513623825,8.601770908128945,0.51,0.23555555555555555,-0.6288888888888889,0.04617482043984742,0.09916901315217619,-1.2756552412208526
1590503791.840088,-0.41914855825554587,-3.729782699066551,9.140700653792374,0.51,0.23555555555555555,-0.6288888888888889,-0.0005098596091574897,0.06977495534354347,-1.2246479056117547
1590503791.850088,-0.35,-3.535212935784541,8.553641536639374,0.51,0.23555555555555555,-0.6288888888888889,0.051254638306469306,0.08660490875423212,-1.111707112010734
1590503791.8600879,-0.33871155829667204,-3.605153766813312,8.449429136758793,0.51,0.23555555555555555,-0.6288888888888889,0.04082228755697369,0.07924255227546596,-1.0374199811973017
1590503791.8700879,-0.32,-3.6755086183310537,8.741823255813953,0.5032629274965801,0.24453831889344885,-0.6273917616659067,0.013228210927153742,0.08185415122504705,-0.9757763383654999
1590503791.8800879,-0.32,-3.6602079343365252,8.611767441860465,0.4803119015047879,0.27513968688250495,-0.6222915336677307,0.058292445082255215,0.05598394272859991,-0.925704967082054
1590503791.8900878,-0.30774108505619535,-3.7596697655057585,8.715151935618149,0.48,0.27555555555555555,-0.6222222222222222,0.024034300210098135,0.05587877930289358,-0.8195338109334296
1590503791.9000878,-0.29916974003777996,-3.85958487001889,8.811811190069264,0.48,0.27555555555555555,-0.6222222222222222,0.019194530052622154,0.05378412949901636,-0.7491619167641814
1590503791.9100878,-0.26534910213127316,-3.858721857459456,8.772094612787638,0.48,0.27555555555555555,-0.6222222222222222,0.025431216895505964,0.05002589145442581,-0.6875397002355611
1590503791.9200878,-0.2821828624547658,-3.91,8.81852561335945,0.47878729863624125,0.2840444651018669,-0.62052444031296,0.010454534387672285,0.04315700458793538,-0.6316844938748375
1590503791.9300878,-0.28651697305893714,-3.913483026941063,8.697864215528503,0.4744444444444445,0.3144444444444445,-0.6144444444444445,0.02342238944025924,0.03879199463236223,-0.5677720217280614
1590503791.9400878,-0.2820713302120628,-3.917928669787937,8.729286697879372,0.4744444444444445,0.3144444444444445,-0.6144444444444445,0.015536482626073728,0.03246007180377033,-0.5159869037213097
1590503791.9500878,-0.27915983353248996,-3.84495900119494,8.652710041616878,0.4744444444444445,0.3144444444444445,-0.6144444444444445,0.023090742321461816,0.0246101924266286,-0.4518196469872466
1590503791.9600878,-0.24350272412085192,-3.660254086181278,8.645922568928512,0.4744444444444445,0.3144444444444445,-0.6144444444444445,0.03134241206909671,0.01721704490223175,-0.39401164450357645
1590503791.9700878,-0.2019544328875681,-3.5979316493313522,8.555901271256397,0.4744444444444445,0.3144444444444445,-0.6144444444444445,0.043428320079068335,0.015706306400985293,-0.33962505845870417
1590503791.9800878,-0.2098123217720008,-3.788029378606008,8.995589561642019,0.4755451289873334,0.3408608734737788,-0.622149236244667,-0.015768758691359665,0.017432820001112702,-0.2418515586472793
1590503791.9900877,-0.20416874176065622,-3.8658312582393437,8.524987549436062,0.4755555555555556,0.3411111111111111,-0.6222222222222222,0.019302927372466947,0.0103949286973593,-0.14051057299246497
1590503792.0000877,-0.19173996211766028,-3.89670854978152,8.68844851189918,0.4755555555555556,0.3411111111111111,-0.6222222222222222,0.004546270445175625,-0.00835389852094969,-0.06336889539627598
1590503792.0100877,-0.24680081765842132,-3.9281718958048124,8.774972713463233,0.4755555555555556,0.3411111111111111,-0.6222222222222222,0.005404300104239235,-0.0014896612484408128,-0.002448789602759696
1590503792.0200877,-0.23586321413101025,-3.888968571016027,8.73241035760697,0.48413555587642326,0.3420303968597755,-0.6258993652168798,0.002332079343875924,-0.012751227501876076,0.07714573491472541
1590503792.0300877,-0.20111282170452566,-3.8288871782954743,8.781561029454483,0.5377777777777778,0.3477777777777778,-0.6488888888888888,0.004048044959828393,-0.019004397744621343,0.1383399418528075
1590503792.0400877,-0.14717890857121366,-3.8571789085712136,8.644871563428486,0.5377777777777778,0.3477777777777778,-0.6488888888888888,0.00204155899918655,-0.027578502899487104,0.187315653560013
1590503792.0500877,-0.11158875103391233,-3.810467493796526,8.62205624483044,0.5377777777777778,0.3477777777777778,-0.6488888888888888,-0.012534394565615023,-0.0315474397657215,0.21757990487874954
1590503792.0600877,-0.14648870116978416,-3.774199155264029,8.606947272125659,0.5377777777777778,0.3477777777777778,-0.6488888888888888,0.0023481620417887,-0.031142808003213632,0.2562037445756027
1590503792.0700877,-0.19281296907835485,-3.9643740618432903,8.797341639147403,0.5610629107041596,0.3643430401280897,-0.652795790386604,-0.008112951607795616,-0.0331851944640257,0.2799692032107475
1590503792.0800877,-0.2223203589352205,-3.9145995513309746,8.72,0.7033333333333334,0.4655555555555556,-0.6766666666666666,-0.0013394521049484684,-0.03700537283072883,0.3120694587138289
1590503792.0900877,-0.24712041006970226,-3.8857591798605955,8.688324510766725,0.7033333333333334,0.4655555555555556,-0.6766666666666666,0.0023130085755466902,-0.03989813723725954,0.33822610325734936
1590503792.1000876,-0.2458706778479948,-3.905870677847995,8.651094744935964,0.7033333333333334,0.4655555555555556,-0.6766666666666666,-0.005774349718017919,-0.04113137392932969,0.3711810114175778
1590503792.1100876,-0.23593583913735874,-3.85021393349834,8.723529423051096,0.7033333333333334,0.4655555555555556,-0.6766666666666666,-0.0039199919525871795,-0.04062323822660803,0.41075320077468586
1590503792.1200876,-0.16471502590673576,-3.627642487046632,8.644715025906736,0.7380411629245827,0.48074841681059305,-0.7037125791594703,0.004620487899952605,-0.041258696157390244,0.4533419256406708
1590503792.1300876,-0.23854827466016032,-3.585644823980481,8.753389682816312,1.2922222222222222,0.7233333333333334,-1.1355555555555557,0.005242755545431729,-0.04292983745265767,0.5057941663676455
1590503792.1400876,-0.20340808468049737,-3.5688639717731676,8.775675221794371,1.2922222222222222,0.7233333333333334,-1.1355555555555557,-0.019139268261090723,-0.0580118765084685,0.5651253421468138
1590503792.1500876,-0.14066474808479593,-3.5914125896801914,8.36174496372259,1.2922222222222222,0.7233333333333334,-1.1355555555555557,-0.028307215769395277,-0.027778358933862064,0.6044380867499806
1590503792.1600876,-0.20866847715941794,-3.735920513963763,8.540254752543472,1.2922222222222222,0.7233333333333334,-1.1355555555555557,-0.02274367369445926,-0.07970475163326492,0.6164924279123418
1590503792.1700876,-0.23983187148911006,-3.8193274859564403,8.74067251404356,1.2882058189065186,0.711470932842767,-1.131707280750742,-0.006636684572525742,-0.05466991895338861,0.6413534801813878
1590503792.1800876,-0.23156479747708683,-3.786259189908347,8.773740810091653,1.090714606397074,0.12818293310557038,-0.9424831422533206,-0.011145673979271464,-0.06098250412283262,0.6386480865373405
1590503792.1900876,-0.23121736089524403,-3.715130556419024,8.634869443580977,1.0533333333333332,0.017777777777777778,-0.9066666666666666,-0.004761703551367709,-0.05890486225480863,0.6308227452148291
1590503792.2000875,-0.23936606310226918,-3.6825357475909235,8.667464252409077,1.0533333333333332,0.017777777777777778,-0.9066666666666666,-0.007428360112813671,-0.05890486225480863,0.6183783479280812
1590503792.2100875,-0.22849759615384616,-3.6760096153846153,8.701502403846153,1.0533333333333332,0.017777777777777778,-0.9066666666666666,-0.002509435237618049,-0.05546848307100668,0.5970069673194245
1590503792.2200875,-0.22121098546042003,-3.709697253634895,8.71,1.0394742775085262,0.02369815113983127,-0.9006117393645665,-0.0043302986245512785,-0.05447549011395371,0.5795293881576855
1590503792.2300875,-0.25617321571772256,-3.694259823576584,8.715740176423417,0.5955555555555555,0.21333333333333332,-0.7066666666666667,-0.0034812110521434615,-0.0519424401505217,0.548089195073231
1590503792.2400875,-0.24271916599839616,-3.6740787489975943,8.735921251002406,0.5955555555555555,0.21333333333333332,-0.7066666666666667,-0.004215015631297413,-0.05047483099221379,0.5268088622777662
1590503792.2500875,-0.19,-3.6005773022960628,8.661778372129922,0.5955555555555555,0.21333333333333332,-0.7066666666666667,-0.002438625782733243,-0.049407323341615975,0.4713547087183397
1590503792.2600875,-0.1982629419572825,-3.5650422348256305,8.71322070713165,0.5955555555555555,0.21333333333333332,-0.7066666666666667,-0.0034527617763090734,-0.04600437650324908,0.4274991109864168
1590503792.2700875,-0.2401765773029631,-3.5402648659544447,8.779381979439629,0.5949081054446907,0.21397097359403344,-0.706607807565679,-0.004315169140595232,-0.04143230813910909,0.38236154157083757
1590503792.2800875,-0.25708566821205403,-3.5656285023180807,8.72020016125781,0.5329081054446908,0.2750315796546396,-0.7009714439293153,0.0002960700763216034,-0.03958781245234236,0.3325601580281358
1590503792.2900875,-0.26808909095192107,-3.5104454547596053,8.753247273326894,0.5222222222222223,0.2855555555555556,-0.7,-0.004154875288766271,-0.029758062121421246,0.25189107457340826
1590503792.3000875,-0.2615296413268693,-3.4715296413268693,8.644588923980608,0.5222222222222223,0.2855555555555556,-0.7,-0.0019376284710671595,-0.021983473634481894,0.19136881684439241
1590503792.3100874,-0.269967009313834,-3.479967009313834,8.669901027941501,0.5222222222222223,0.2855555555555556,-0.7,0.0054253641076778035,-0.022903847706825017,0.1398278687931777
1590503792.3200874,-0.23016020215986843,-3.5098798483800984,8.839319140820558,0.5222222222222223,0.2855555555555556,-0.7,-0.0010646177653854247,-0.015302212808246587,0.08095739505873703
1590503792.3300874,-0.1708265165197068,-3.55438011261022,8.72904971847445,0.5222222222222223,0.29459594886504475,-0.7262993259912414,0.009398261026779063,-0.010430511658361681,0.03876511066763567
1590503792.3400874,-0.13426547207479184,-3.5361610751326875,8.756161075132686,0.5222222222222223,0.2977777777777777,-0.7355555555555555,0.004409852212396444,-0.002274719729814151,-0.04489472183325118
1590503792.3500874,-0.20234260115888397,-3.4748916589570045,8.694891658957005,0.5222222222222223,0.2977777777777777,-0.7355555555555555,0.005152458492285568,-0.0037599322895924,-0.09984758654504641
1590503792.3600874,-0.2209647340541325,-3.4138589362165304,8.688070531891734,0.5222222222222223,0.2977777777777777,-0.7355555555555555,0.006439748534661702,0.005492623091808401,-0.19609264430305978
1590503792.3700874,-0.18257686536950152,-3.4006442163423753,8.774202052918621,0.5222222222222223,0.2977777777777777,-0.7355555555555555,0.009606657737413002,0.01675056150309295,-0.28665052847256245
1590503792.3800874,0.026939820319725194,-3.6015300898401374,8.772240718721099,0.5166666666666667,0.23222222222222225,-0.7355555555555555,0.019468047175175515,0.024910329349553926,-0.39840394726400075
1590503792.3900874,0.013086272955476284,-3.6084568635222616,8.827654908178095,0.5166666666666667,0.23222222222222225,-0.7355555555555555,0.01871245337959074,0.03397745489657113,-0.4686741702533842
1590503792.4000874,-0.06484645569373133,-3.4873992151962985,8.616477949358686,0.5166666666666667,0.23222222222222225,-0.7355555555555555,0.02139368260539093,0.04222520073395814,-0.5898714679613747
1590503792.4100873,-0.10578802491068465,-3.38095113523222,8.755679284696328,0.5166666666666667,0.23222222222222225,-0.7355555555555555,0.01782085668654597,0.039545581294824425,-0.6613279863382739
1590503792.4200873,-0.054599528857479394,-3.333066352571653,8.74229976442874,0.5166666666666667,0.23222222222222225,-0.7355555555555555,0.02651817341300351,0.049341998051050426,-0.732133435921749
1590503792.4300873,-0.00174966854491216,-3.4667092724560824,8.876709272456083,0.4478652681103377,0.2581344372629175,-0.644416040584834,0.02025304332016249,0.058073158017366996,-0.7944206346858765
1590503792.4400873,3.476282213558807,-18.62186674092451,-3.05385904511164,0.4311111111111111,0.2644444444444444,-0.6222222222222222,-1.0531597579858045,0.8112143630485332,-3.392314401014784
1590503792.4500873,-0.4017468064734593,0.11089745685528127,0.17923075126690174,0.4311111111111111,0.2644444444444444,-0.6222222222222222,-3.7344784296358515,0.5381240124492548,-5.633008408595437
1590503792.4600873,-0.15881500390287126,-0.38650661378451934,0.5395814434294635,0.4311111111111111,0.2644444444444444,-0.6222222222222222,-3.3493084574248058,-0.7266528030129269,-0.8537874611326421
1590503792.4700873,-0.43311997637180655,-0.44844644627750474,-0.03557414400540082,0.4311111111111111,0.2644444444444444,-0.6222222222222222,-3.332899601837915,-0.3231880009352488,-0.5806282769508648
1590503792.4800873,0.85979904944551,-1.4133085966813974,4.284374218294005,0.4188888888888889,0.4033333333333333,-0.6788888888888889,-3.138925743777938,0.026517020317472842,-0.23895360927888365
1590503792.4900873,4.343448293286844,-4.959339043432123,15.543704995073146,0.4188888888888889,0.4033333333333333,-0.6788888888888889,-2.7832539284947067,0.199386332829184,-0.07200445038053736
1590503792.5000873,0.11688301192106505,0.43909054172372763,-1.1104813326448602,0.4188888888888889,0.4033333333333333,-0.6788888888888889,-0.3926727800966676,0.510362898438274,-0.10754916098110849
1590503792.5100873,0.018862685205387072,-0.025644921355891873,0.13582521768451117,0.4188888888888889,0.4033333333333333,-0.6788888888888889,1.9043908227536144,0.2378374377136443,-0.25673405749759687
1590503792.5200872,0.1852470396889938,-0.5164787670825317,0.8928740305849217,0.4188888888888889,0.4033333333333333,-0.6788888888888889,2.364486162890793,-0.2621872810547694,-0.3275179559802398
1590503792.5300872,1.3488499686589728,-2.327831938350356,8.730266583090593,0.4,0.5111111111111111,-0.5788888888888889,4.117318486048861,-0.005695640141533892,-0.5518734183770492
1590503792.5400872,0.7921050108771801,-2.2195759743372294,7.245613362339147,0.4,0.5111111111111111,-0.5788888888888889,4.905983892967535,0.20011650882975623,-0.6564664776903278
1590503792.5500872,0.8758372333964489,0.838507020113608,-1.5871405094494657,0.4,0.5111111111111111,-0.5788888888888889,5.152396626565269,-0.1512813084245538,-0.6790240212112836
1590503792.5600872,0.5012257511342932,0.16420635204172773,-0.8978553820870995,0.4,0.5111111111111111,-0.5788888888888889,2.0827099512679457,-0.5541981164441439,-0.32596101702373215
1590503792.5700872,0.3255819315931061,0.3282924882490318,-0.3641883702367931,0.4,0.5111111111111111,-0.5788888888888889,0.26800445327934996,-0.5193039458192463,-0.04250983070359404
1590503792.5800872,0.7075033717305268,-0.776872360653563,4.730836410267749,0.3888888888888889,0.4133333333333333,-0.6877777777777778,-0.7660625130780337,0.4041551081792083,0.22212398452776888
1590503792.5900872,-0.10135975763696035,-0.11017217874274177,0.6476485735925273,0.3888888888888889,0.4133333333333333,-0.6877777777777778,-1.1964043102977355,1.1828436946549918,0.3872705943928888
1590503792.6000872,0.19710220960375263,-4.254148253302062,14.22252047072378,0.3888888888888889,0.4133333333333333,-0.6877777777777778,0.08588017884327512,0.17375419958280447,0.14112211993268936
1590503792.6100872,0.43009011233181094,-2.3125823972349093,8.570406534172736,0.3888888888888889,0.4133333333333333,-0.6877777777777778,0.1583601009576059,-0.3580789951522202,0.06958349550815508
1590503792.6200871,0.17270960042229921,-2.6447609648619497,9.150305019393635,0.3888888888888889,0.4133333333333333,-0.6877777777777778,0.0317452011593298,-0.0298122192703264,0.17311402651457405
1590503792.6300871,0.1770617927901401,-3.052175997980903,10.868809784208976,0.3955555555555556,0.4033333333333333,-0.6666666666666666,-0.16115890297815236,0.17040276812426794,0.3006097778235918
1590503792.6400871,0.02,-2.0499072651157864,6.4428631233109,0.3955555555555556,0.4033333333333333,-0.6666666666666666,0.08677882291548458,-0.2795171942113456,0.28413306567945484
1590503792.650087,0.03394699125077545,-2.8241363082122914,8.953670182043767,0.3955555555555556,0.4033333333333333,-0.6666666666666666,0.02397634252530459,0.05400231911665269,0.4239741221899047
1590503792.660087,0.15955975784542326,-2.501132051254626,7.365565918668578,0.3955555555555556,0.4033333333333333,-0.6666666666666666,-0.18253579670635753,0.039321361351368656,0.4993363720516961
1590503792.670087,0.14778126964173477,-2.9704211187932117,8.61852922690132,0.3955555555555556,0.4033333333333333,-0.6666666666666666,-0.005323199368511916,-0.015377217341188243,0.5555804806142194
1590503792.680087,0.14600454474220342,-2.9757773076320326,8.759500078357624,0.39889141374566855,0.3913242438489265,-0.6833459576172317,0.028737946367109066,-0.052143198666738784,0.6573847007337738
1590503792.690087,0.14353883416103558,-3.0190631360416833,8.920888423023692,0.4011111111111111,0.38333333333333336,-0.6944444444444444,-0.06346729330748085,-0.05274590448353064,0.7613125211428551
1590503792.700087,15.142448358504202,-19.843259786206108,1.954288811960284,0.4011111111111111,0.38333333333333336,-0.6944444444444444,-0.1258447823106135,-0.09515785789951432,1.2761115882448184
1590503792.710087,6.023208233780556,-9.328144826318692,5.223963242051093,0.4011111111111111,0.38333333333333336,-0.6944444444444444,-0.41813819380937217,-0.47224428274864416,2.970827415009632
1590503792.720087,-1.1478911672928747,0.46278577341909166,13.415416162516717,0.4011111111111111,0.38333333333333336,-0.6944444444444444,0.026076051787924714,-0.24872508308100322,0.7856769320359351
1590503792.730087,-1.3295342845336768,-0.07142801584793758,5.970241851194673,0.4355555555555555,0.3911111111111111,-0.7022222222222222,0.7667111802652501,0.5953884384675135,-0.1277091577016368
1590503792.740087,-1.525965445351313,-1.4607378903477644,9.584913724272534,0.4355555555555555,0.3911111111111111,-0.7022222222222222,0.09206986317677493,-0.07929329473510656,-0.1298482499276244
1590503792.750087,-1.046676033016383,-2.93630071000276,11.255686043302642,0.4355555555555555,0.3911111111111111,-0.7022222222222222,-0.4827119288418528,-0.08591539674080668,-0.13941293042919922
1590503792.760087,-0.2153452172183754,-2.543581074973334,7.376143944461519,0.4355555555555555,0.3911111111111111,-0.7022222222222222,0.009244935338394248,-0.008793027335195974,-0.00792559667751863
1590503792.770087,1.7789434671776974,-7.3359401948908936,7.467138104966283,0.4355555555555555,0.3911111111111111,-0.7022222222222222,0.13001033342738472,0.08715756292728963,0.08471635254143302
1590503792.780087,0.49479148038608795,-8.836240456702662,9.870927161427883,0.4544444444444444,0.3566666666666667,-0.6944444444444444,-0.14357956073384573,-0.12713294269075887,-0.10256222753236155
1590503792.790087,-6.753879271125158,-7.698753442041999,8.767626846730359,0.4544444444444444,0.3566666666666667,-0.6944444444444444,-0.030277417126138854,0.07340685453827847,-1.0484888495282565
1590503792.800087,0.8215859200307759,-2.295907528070977,8.642066071986727,0.4544444444444444,0.3566666666666667,-0.6944444444444444,0.07873683783088747,0.1307536063455725,-0.5356507627553675
1590503792.810087,2.308265273945605,-5.845942451714623,8.024789515175403,0.4544444444444444,0.3566666666666667,-0.6944444444444444,0.0035007197733266243,-0.1175576123183217,0.478136607618123
1590503792.820087,0.20863539613716986,-4.55640599132834,9.628443831296808,0.4544444444444444,0.3566666666666667,-0.6944444444444444,-0.021747132695868643,-0.04632259999452076,0.29689309524997115
1590503792.830087,-1.125096505365777,-4.42515035968395,8.713824049687489,0.4295241121462671,0.36648376726897897,-0.6846273438421322,0.014595859591423798,0.015115203788216354,-0.10042754889099753
1590503792.840087,-0.6472964833433722,-4.440296066348515,8.429216976323959,0.4177777777777778,0.3711111111111111,-0.68,0.0027098676766488666,0.020682016185708994,-0.13726748113713635
1590503792.850087,-0.14568299071354868,-4.545991348519723,8.56185014683705,0.4177777777777778,0.3711111111111111,-0.68,-0.02488728828521916,-0.012417237015959736,0.0652241309524885
1590503792.860087,-0.09511291478475359,-4.447086715221413,8.614887085215248,0.4177777777777778,0.3711111111111111,-0.68,-0.018353449259560086,-0.007102717178527781,0.020075915079410492
1590503792.870087,-0.16552989812490773,-4.5228241547320245,8.530822973571535,0.4177777777777778,0.3711111111111111,-0.68,0.0011037474558695838,0.000102689163874169,-0.002181661564992912
1590503792.880087,-0.13423993359920644,-4.548433305666336,8.631520132801588,0.42198667035559967,0.375320003688933,-0.6849103746741255,0.011481360010437017,0.0008043046897602268,-0.0014929831273765694
1590503792.890087,-0.10852976771422994,-4.316907671286356,8.803383954714036,0.4244444444444445,0.37777777777777777,-0.6877777777777778,0.003994190933121514,0.0010106420507595508,-0.001090830782496456
1590503792.9000869,-0.13781558116928205,-4.476165347405453,8.5503879090867,0.4244444444444445,0.37777777777777777,-0.6877777777777778,-0.002795926087006956,0.001090830782496456,0.0019433784347517062
1590503792.9100869,-0.09307117282755951,-4.311670456744726,8.605086123475905,0.4244444444444445,0.37777777777777777,-0.6877777777777778,-0.002248664162166284,-0.00300448195879588,-0.0008898229909763407
1590503792.9200869,-0.10330586884581616,-4.453017491726886,8.649917606537448,0.4244444444444445,0.37777777777777777,-0.6877777777777778,0.002898396398713991,-0.003272492347489368,-0.00036510821625261266
1590503792.9300869,-0.11818464384828861,-4.276276040703053,8.817323589269195,0.4344478980367972,0.36049908520916846,-0.6877777777777778,0.011703796929920716,0.0002987322339040245,0.0008928061453483482
1590503792.9400868,-0.13431049804876166,-4.448967968780186,8.756981762683049,0.43666666666666665,0.3566666666666667,-0.6877777777777778,0.0068458366761796055,0.0003103141932742227,0.001090830782496456
1590503792.9500868,-0.11551383932587639,-4.531837946441959,8.589407143071341,0.43666666666666665,0.3566666666666667,-0.6877777777777778,-0.003649754212560638,-0.0008903419269496067,0.001090830782496456
1590503792.9600868,-0.10230121025817408,-4.437614523098089,8.544602420516348,0.43666666666666665,0.3566666666666667,-0.6877777777777778,-0.013852230750833933,-0.001930638466331622,-0.0005887845851738757
1590503792.9700868,-0.10445296574532081,-4.423358897235962,8.59788855468917,0.43666666666666665,0.3566666666666667,-0.6877777777777778,-0.01296225926156809,-0.0012101751433132696,-0.0020623172041760985
1590503792.9800868,-0.11237042831996871,-4.424592215920204,8.67829649911989,0.43587652389334375,0.3575884999022101,-0.6877777777777778,-0.007433778170410035,0.00012928680895616122,-0.002626058302708562
1590503792.9900868,-0.1179703722068987,-4.394207394551709,8.709925930517247,0.43,0.3644444444444445,-0.6877777777777778,0.00743057688446884,-0.00022139804737252586,-0.0004427960947450517
1590503793.0000868,-0.13032898415657038,-4.402565703634669,8.629013047530288,0.43,0.3644444444444445,-0.6877777777777778,0.0035164805933413246,0.0003875346638281911,0.0015142520508187062
1590503793.0100868,-0.13518806389207513,-4.423307424971323,8.6,0.43,0.3644444444444445,-0.6877777777777778,-0.0031494048179583865,-0.0004838716264827375,0.002222690741503239
1590503793.0200868,-0.12196035090142986,-4.4659801754507145,8.61607929819714,0.43,0.3644444444444445,-0.6877777777777778,-0.005667995023259716,-0.002620156400852422,0.000652335946636946
1590503793.0300868,-0.11809785289185545,-4.403315029757011,8.69668497024299,0.43539856859457027,0.37524158163358506,-0.6877777777777778,0.011536773841829155,0.0020275399764489582,-0.0008833387206563877
1590503793.0400867,-0.10639858561540777,-4.369597878423112,8.737202828769185,0.43666666666666665,0.37777777777777777,-0.6877777777777778,0.015271630954950384,0.003272492347489368,-0.001090830782496456
1590503793.0500867,-0.1,-4.370317388065878,8.682936977571794,0.43666666666666665,0.37777777777777777,-0.6877777777777778,0.0051425589074515325,0.001021587448045179,-0.001090830782496456
1590503793.0600867,-0.10713560104663691,-4.465627212559643,8.591457595813452,0.43666666666666665,0.37777777777777777,-0.6877777777777778,-0.006698443111971465,-0.0026475774371535503,0.0004659158721606379
1590503793.0700867,-0.13750842220671783,-4.438106050034885,8.628139738861757,0.43666666666666665,0.37777777777777777,-0.6877777777777778,-0.004635112105375502,-0.0025223165044644456,0.001090830782496456
1590503793.0800867,-0.12693786203264876,-4.4407495172898015,8.64231262067755,0.4409374329569169,0.3726528582294775,-0.6988817701324284,0.0034360116538351597,0.000334027435503786,0.00025226778233089
1590503793.0900867,-0.139575194095658,-4.404324547110131,8.672625323492763,0.44222222222222224,0.3711111111111111,-0.7022222222222222,0.00545415391248228,-0.0024680399329846487,0.0
1590503793.1000867,-0.13402254125855362,-4.411954917482893,8.626090165034213,0.44222222222222224,0.3711111111111111,-0.7022222222222222,-0.0006458924249506054,-0.003491887938923983,0.0017428703821236813
1590503793.1100867,-0.12321818696349401,-4.399654560890482,8.623563626073013,0.44222222222222224,0.3711111111111111,-0.7022222222222222,-0.0058805667756711595,-0.0025327113053537184,-3.76815614140367e-05
1590503793.1200867,-0.11419402253797158,-4.430641842234198,8.62419402253797,0.44222222222222224,0.3711111111111111,-0.7022222222222222,-0.002569144327026195,-0.0015483276711867873,-0.00045749688869033134
1590503793.1300867,-0.11,-4.4459878979216,8.662036306235201,0.43832997164488874,0.3711111111111111,-0.6866532199128884,0.004147797237416806,-0.0018550723962265435,0.0007642416137300875
1590503793.1400867,-0.12280874361098204,-4.414382512778037,8.692808743610982,0.43666666666666665,0.3711111111111111,-0.68,0.008947196866473285,0.0013113813889980932,0.001090830782496456
1590503793.1500866,-0.13,-4.378875149464843,8.671833532619791,0.43666666666666665,0.3711111111111111,-0.68,0.0055314591357744835,-0.0013362351003878394,0.001090830782496456
1590503793.1600866,-0.1224396100808369,-4.385120779838326,8.66,0.43666666666666665,0.3711111111111111,-0.68,-0.0025004818885599337,-0.004097202952639268,0.00026612017734655574
1590503793.1700866,-0.13235117539277222,-4.427053526178317,8.641473236910842,0.43666666666666665,0.3711111111111111,-0.68,-0.005036975245908258,-0.002342366782218521,0.0
1590503793.1800866,-0.12608942202835333,-4.408268266085059,8.657821155943294,0.43202980734278446,0.36106458257603297,-0.6900465285350782,-0.002419336581724419,-0.0018495351151859212,0.0015174086653789304
1590503793.1900866,-0.11370541391927058,-4.427767516484376,8.688883758242188,0.43,0.3566666666666667,-0.6944444444444444,0.0023423333474702317,-0.002181661564992912,0.000808395913006237
1590503793.2000866,-0.1159346300691363,-4.408457589516046,8.658457589516045,0.43,0.3566666666666667,-0.6944444444444444,0.004363323129985824,-0.002829029281207208,-0.000647367716214296
1590503793.2100866,-0.1424779482777122,-4.385619487069428,8.635619487069429,0.43,0.3566666666666667,-0.6944444444444444,-0.0005406044517525087,-0.003272492347489368,0.0001351511129381272
1590503793.2200866,-0.13526308533615183,-4.394947382932769,8.65484214879831,0.43,0.3566666666666667,-0.6944444444444444,-0.004902998889572095,-0.003272492347489368,0.001090830782496456
1590503793.2300866,-0.10327502527805865,-4.420174924165824,8.656550050556117,0.43,0.36638051904280416,-0.6944444444444444,-0.0032534110810210275,-0.001805330459848533,0.00035724983867603847
1590503793.2400866,-0.12061903162339845,-4.43,8.65515475790585,0.43,0.3711111111111111,-0.6944444444444444,0.001754416455019493,-0.0022154245025000005,-0.0005622968600017722
1590503793.2500865,-0.13087084263720766,-4.4163062639558115,8.637177106593018,0.43,0.3711111111111111,-0.6944444444444444,0.006449990499441085,-0.0037704106409687703,0.0004029240979417513
1590503793.2600865,-0.1307655722614299,-4.4,8.63153114452286,0.43,0.3711111111111111,-0.6944444444444444,0.005287131954683651,-0.0008402978457985127,0.0015944906842950267
1590503793.2700865,-0.1311450873497708,-4.4,8.658854912650229,0.43,0.3711111111111111,-0.6944444444444444,0.0008576895236925425,0.0012157404354741818,0.0001249096529777258
1590503793.2800865,-0.11064281076401414,-4.414035783853979,8.660642810764013,0.43,0.36799204803244917,-0.6876864744406769,-0.0026920170678058058,-0.001020711005625787,-7.011977687066892e-05
1590503793.2900865,-0.12032516155503128,-4.402899784593291,8.663550107703355,0.43,0.3644444444444445,-0.68,-0.0003163174296971468,-0.0007035741060968013,-0.0003872566763996547
1590503793.3000865,-0.12423359347286271,-4.413065626108549,8.635401560837176,0.43,0.3644444444444445,-0.68,0.002348865531334423,-0.0006290173744189834,0.0007962213407604942
1590503793.3100865,-0.11380984998972532,-4.411429549969176,8.640950750051374,0.43,0.3644444444444445,-0.68,0.0019220111115936936,-0.001090830782496456,0.000155939711149401
1590503793.3200865,-0.11588901840139108,-4.4,8.677667055204173,0.43,0.3644444444444445,-0.68,-0.003405915003151375,-0.001090830782496456,-0.00044843852740390874
1590503793.3300865,-0.12,-4.393323419831361,8.676646839662723,0.4426113180963171,0.3592515487577257,-0.68,-0.00800158852892998,-0.00036252886552083337,0.0
1590503793.3400865,-0.11252974091315184,-4.419881036347393,8.632648704565758,0.4488888888888889,0.3566666666666667,-0.68,-0.005467130833908509,-0.0008148788565157848,-0.0016297577130315697
1590503793.3500865,-0.11646186045547796,-4.4235381395445215,8.58769069772261,0.4488888888888889,0.3566666666666667,-0.68,0.0005708342779365281,0.0010238081066131232,0.0013427365835230539
1590503793.3600864,-0.126793880617402,-4.392824477530392,8.624351044939216,0.4488888888888889,0.3566666666666667,-0.68,0.005495784580509804,-4.1630668027524756e-05,0.0025313949364825557
1590503793.3700864,-0.12441200954547978,-4.391175980909041,8.67235196181808,0.4488888888888889,0.3566666666666667,-0.68,0.004106763894943925,-0.002309941182513862,0.0015721063649842093
1590503793.3800864,-0.12,-4.408609564596717,8.68569521770164,0.4436274883020065,0.360014830676501,-0.6862180188754065,0.0003033459477948745,-0.0028029134431898587,0.0006212518781969466
1590503793.3900864,-0.12330852764456204,-4.426617055289124,8.676691472355438,0.43666666666666665,0.3644444444444445,-0.6944444444444444,-0.0014598528051071582,-0.001820757185050035,0.00036090437994287686
1590503793.4000864,-0.12606438287871236,-4.436064382878713,8.656225340075492,0.43666666666666665,0.3644444444444445,-0.6944444444444444,0.0010732730760051662,-0.0015201400128985226,0.0006615215520943895
1590503793.4100864,-0.1158361178843433,-4.3966555284626265,8.658361178843432,0.43666666666666665,0.3644444444444445,-0.6944444444444444,0.006727397320186232,-0.002635870643637392,-0.00045420907864447994
1590503793.4200864,-0.12,-4.39674370123295,8.694418766255684,0.43666666666666665,0.3644444444444445,-0.6944444444444444,0.002156452062127427,-0.0009640252504711866,-0.0006088181572608627
1590503793.4300864,-0.1242549926515086,-4.401490014696983,8.694254992651508,0.44186721324073275,0.3644444444444445,-0.691607782676772,-0.002181661564992912,-0.0009282953927123597,-0.0006266830861402762
1590503793.4400864,-0.13,-4.40440907953977,8.7,0.4488888888888889,0.3644444444444445,-0.6877777777777778,-0.0037534483159349973,-8.594589707013088e-05,0.0
1590503793.4500864,-0.13454196487829378,-4.424541964878293,8.636412491703886,0.4488888888888889,0.3644444444444445,-0.6877777777777778,-0.003967799381804092,0.0006953070343147243,0.0009909030204521252
1590503793.4600863,-0.1351460607848923,-4.4251460607848925,8.58426969607554,0.4488888888888889,0.3644444444444445,-0.6877777777777778,0.000465751591110172,-0.0016203134137170727,0.0011226963025516784
1590503793.4700863,-0.12525273005939078,-4.405758190178172,8.647978159524873,0.4488888888888889,0.3644444444444445,-0.6877777777777778,0.003272492347489368,-0.0026995083833965794,0.0005178468184036675
1590503793.4800863,-0.11684089162182935,-4.39,8.699477325134511,0.44678281663677516,0.3644444444444445,-0.6877777777777778,0.0018940712818289731,-0.0018940712818289731,0.001090830782496456
1590503793.4900863,-0.10452357046651158,-4.411905718133953,8.676188563732094,0.44222222222222224,0.3644444444444445,-0.6877777777777778,-0.002882988156487021,-0.00010394080016392086,-0.00010394080016392086
1590503793.5000863,-0.10580361999901093,-4.43,8.593571040007912,0.44222222222222224,0.3644444444444445,-0.6877777777777778,-0.0024640929265358717,-0.0004577540480131387,0.000808399420953496
1590503793.5100863,-0.11,-4.424105929003021,8.589470354984893,0.44222222222222224,0.3644444444444445,-0.6877777777777778,0.0014809428485931867,0.0,0.002824604972765323
1590503793.5200863,-0.11412021417661178,-4.411759571646776,8.651202141766118,0.44222222222222224,0.3644444444444445,-0.6877777777777778,0.004171383638354652,0.0004494456454326418,0.0023736010566240843
1590503793.5300863,-0.1221105819136594,-4.397889418086341,8.716331745740979,0.4410496767146337,0.36585149905355074,-0.6877777777777778,0.004072781280242309,0.0008606020104564608,0.0006303732384164657
1590503793.5400863,-0.1198033752335117,-4.4001966247664885,8.724705062850267,0.43666666666666665,0.3711111111111111,-0.6877777777777778,-0.00387152882570925,-0.0011122792172851177,-0.0005346911738538971
1590503793.5500863,-0.1154391482189472,-4.4154391482189475,8.639291073153688,0.43666666666666665,0.3711111111111111,-0.6877777777777778,-0.005951665664199898,-0.002181661564992912,0.0
1590503793.5600863,-0.12574511400651467,-4.42,8.608725570032574,0.43666666666666665,0.3711111111111111,-0.6877777777777778,-0.0023206803088534128,-0.0009282721235413652,0.0
1590503793.5700862,-0.11968152625613902,-4.42515923687193,8.650636947487722,0.43666666666666665,0.3711111111111111,-0.6877777777777778,0.0011255708788185002,0.0,0.0
1590503793.5800862,-0.1174042475948448,-4.418893628607733,8.688510618987113,0.42679433654020693,0.3686430285794962,-0.6931252899296102,0.0017778225051088092,-0.0008076781197682055,0.0
1590503793.5900862,-0.12570624375775552,-4.408587512484489,8.685649950062045,0.41,0.3644444444444445,-0.7022222222222222,-0.00031429766197652205,-0.002181661564992912,0.0
1590503793.6000862,-0.11451228787374626,-4.4254877121262535,8.590610590863717,0.41,0.3644444444444445,-0.7022222222222222,-0.002181661564992912,-0.0015830450337132457,0.0005986165312796662
1590503793.6100862,-0.10464311547705159,-4.43,8.571427538091793,0.41,0.3644444444444445,-0.7022222222222222,-0.002181661564992912,-0.001090830782496456,0.0005064853289053592
1590503793.6200862,-0.10877338215394412,-4.421226617846056,8.611933455384861,0.41,0.3644444444444445,-0.7022222222222222,0.0006894210310452809,-0.001090830782496456,0.00047851376600636545
1590503793.6300862,-0.12,-4.41,8.676591972056125,0.42084206579440725,0.36128217525440903,-0.6940906728764167,0.0048068303467755,0.0006831980846622467,0.0006473235657067802
1590503793.6400862,-0.12,-4.41,8.73,0.43666666666666665,0.3566666666666667,-0.6822222222222222,0.003207808346796789,0.0010261467818038776,0.0011231727828427452
1590503793.6500862,-0.13030666537680177,-4.399693334623199,8.663006675050788,0.43666666666666665,0.3566666666666667,-0.6822222222222222,-0.001719876181979998,-0.001090830782496456,0.0010573787792023304
1590503793.6600862,-0.13134781749950622,-4.398652182500494,8.617304365000988,0.43666666666666665,0.3566666666666667,-0.6822222222222222,-0.0038914197796200353,-0.0006189274321306674,0.0009438067007315771
1590503793.6700861,-0.12,-4.412452812679795,8.647358438039383,0.43666666666666665,0.3566666666666667,-0.6822222222222222,-0.0019346905600807116,-0.0013378017874086563,0.002181661564992912
1590503793.6800861,-0.11959871261480493,-4.42,8.671003218462987,0.4367781353847764,0.356956485333752,-0.6824674534020636,0.0021378879017530826,-0.005366606586002621,0.0021160010701331677
1590503793.6900861,-0.10642876206923621,-4.42,8.70392809482691,0.4404364549807677,0.3664681162833294,-0.6905157565132445,0.0007012691558468463,-0.0024933690941901484,-3.892704872618651e-05
1590503793.700086,-0.10437740850239577,-4.42,8.667471097971251,0.44222222222222224,0.3711111111111111,-0.6944444444444444,-0.0014325035825925017,-0.0006133295882989555,-0.00013582839410145498
1590503793.710086,-0.11409327901079802,-4.424093279010798,8.6,0.44222222222222224,0.3711111111111111,-0.6944444444444444,-0.004165507296754394,-0.0008930149492650265,0.001090830782496456
1590503793.720086,-0.12,-4.43,8.621224158978567,0.44222222222222224,0.3711111111111111,-0.6944444444444444,-0.004065035955697133,-0.002644700883921294,0.0006277914635680738
1590503793.730086,-0.11705402627580659,-4.42116207882742,8.664729868620967,0.4464775176016127,0.36685581573172066,-0.6924804619616488,-0.0008962380358825562,-0.0016657129361014231,-0.00032135588227758893
1590503793.740086,-0.11713146314631463,-4.396434268426843,8.696434268426842,0.4566666666666666,0.3566666666666667,-0.6877777777777778,0.0025706225412048633,0.0010147786363570578,-0.0007018698062845046
1590503793.750086,-0.13,-4.397506140124095,8.648716229317477,0.4566666666666666,0.3566666666666667,-0.6877777777777778,0.003272492347489368,-0.001090830782496456,0.0004093964352547373
1590503793.760086,-0.13127958204998247,-4.41,8.582559164099965,0.4566666666666666,0.3566666666666667,-0.6877777777777778,0.0027141693519490556,-0.001230411531381534,0.0009512500336113778
1590503793.770086,-0.1300115654126131,-4.416658956391592,8.62996530376216,0.4566666666666666,0.3566666666666667,-0.6877777777777778,-0.0007276410519339923,-0.0018184718344304482,0.0007263794611249275
1590503793.780086,-0.11,-4.427105116279069,8.690723720930231,0.4547367441860465,0.3566666666666667,-0.6867324031007752,7.894570686346445e-05,-0.0013276679030868493,0.0021027158581294475
1590503793.790086,-0.10851964762525493,-4.39,8.701480352374745,0.43,0.3566666666666667,-0.6733333333333333,0.0014137935703591874,-0.0038788789481917266,0.001090830782496456
1590503793.800086,-0.10105064695009243,-4.39,8.704746765249538,0.43,0.3566666666666667,-0.6733333333333333,0.0029859728388151605,-0.001090830782496456,0.0011481346842312976
1590503793.810086,-0.11165630993479095,-4.402515535097813,8.61,0.43,0.3566666666666667,-0.6733333333333333,-0.003091816961266902,-0.001545908480633451,0.0017265838668559172
1590503793.820086,-0.10757714828295617,-4.416211425858522,8.625154296565912,0.43,0.3566666666666667,-0.6733333333333333,-0.003950053800456386,-0.0013551229059340368,0.0006775614529670184
1590503793.830086,-0.12449978659837815,-4.412249893299189,8.654499786598379,0.43149992886612604,0.35841658367714707,-0.6748332621994594,-0.0020453659134453926,0.00024542528680879505,-0.00024542528680879505
1590503793.840086,-0.13611343304203655,-4.416113433042036,8.668056716521019,0.43666666666666665,0.3644444444444445,-0.68,0.002605620252590927,0.0004548927510994339,-0.0004548927510994339
1590503793.850086,-0.12422224742034244,-4.408444494840685,8.634666515477946,0.43666666666666665,0.3644444444444445,-0.68,0.002981595892758087,-0.00033935858202259624,0.001260510073507754
1590503793.860086,-0.13,-4.424182053691616,8.616728214766464,0.43666666666666665,0.3644444444444445,-0.68,0.001090830782496456,0.0017254702749061356,0.0
1590503793.870086,-0.13,-4.4190831931488,8.647277871234134,0.43666666666666665,0.3644444444444445,-0.68,0.0006938844838345326,0.0014877770811583793,0.0003969462986619234
1590503793.880086,-0.1272885120760856,-4.408134463771743,8.670845951695657,0.44208964251449545,0.3662521030603874,-0.6860255287198098,0.000887332348131972,0.00129432921686094,0.001090830782496456
1590503793.890086,-0.12,-4.420932697918693,8.695466348959346,0.4566666666666666,0.3711111111111111,-0.7022222222222222,0.002283403125040967,-0.0015853753937206563,0.001090830782496456
1590503793.900086,-0.12,-4.41,8.665252658517588,0.4566666666666666,0.3711111111111111,-0.7022222222222222,0.001765709829345609,-0.0015067825181437591,0.00041595173564730307
1590503793.910086,-0.12,-4.41,8.611916358029596,0.4566666666666666,0.3711111111111111,-0.7022222222222222,0.0032202317892651416,-5.2260558224226546e-05,-0.0010385702242722294
1590503793.920086,-0.12718394795511861,-4.4012642081795255,8.677183947955118,0.4566666666666666,0.3711111111111111,-0.7022222222222222,-0.002012381659197073,0.0017365742196550065,0.0004764635313627113
1590503793.930086,-0.12,-4.429107681872138,8.670892318127862,0.45379141936577916,0.3705162323592034,-0.7022222222222222,-0.004265986321820717,-0.002181661564992912,-0.0009934939743313491
1590503793.940086,-0.12380334232349456,-4.4161966576765055,8.68,0.4244444444444445,0.3644444444444445,-0.7022222222222222,-0.003272492347489368,-0.001766781276708965,-0.00041488028828394686
1590503793.9500859,-0.1257981749086244,-4.41,8.64218357417762,0.4244444444444445,0.3644444444444445,-0.7022222222222222,-0.0005224042560862778,-0.0001741347520287592,-0.0001741347520287592
1590503793.9600859,-0.12416200083290917,-4.4016759983341815,8.610810004164547,0.4244444444444445,0.3644444444444445,-0.7022222222222222,0.0023644846224267265,0.00018282305743381436,0.001090830782496456
1590503793.9700859,-0.12409634510413539,-4.3929518274479324,8.654759137239662,0.4244444444444445,0.3644444444444445,-0.7022222222222222,0.00012484750904970113,-0.0017348196314609593,0.0007688363580142044
1590503793.9800858,-0.11109559670892183,-4.400547798354461,8.69054779835446,0.4251139757665634,0.36401837905764156,-0.7010048925456424,-0.002121906034228225,-0.0029737146936659343,0.0
1590503793.9900858,-0.13,-4.415977608598299,8.6940223914017,0.43666666666666665,0.3566666666666667,-0.68,-0.0008734788003384817,0.0017469576006769634,0.0
1590503794.0000858,-0.12247081082426747,-4.4211770270606685,8.632354054121338,0.43666666666666665,0.3566666666666667,-0.68,0.0016426142640256324,0.0008213071320128162,0.0
1590503794.0100858,-0.11809040413713848,-4.398090404137139,8.598316414479985,0.43666666666666665,0.3566666666666667,-0.68,0.0034807969424230905,0.0017403984712115452,-0.0004412630937813666
1590503794.0200858,-0.1329037745156407,-4.412903774515641,8.660326421609485,0.43666666666666665,0.3566666666666667,-0.68,0.0018649089022839528,0.00045732545707853763,-0.00045732545707853763
1590503794.0300858,-0.13986602756854924,-4.4199330137842745,8.709933013784276,0.43666666666666665,0.35680808201097586,-0.6800521003900086,0.001083523719884836,-0.001083523719884836,0.001090830782496456
1590503794.0400858,-0.12,-4.412408005164623,8.7,0.43666666666666665,0.37777777777777777,-0.6877777777777778,-0.0010506904631921964,-0.0005253452315960982,0.0008281581666984069
1590503794.0500858,-0.11748688184379692,-4.414973763687594,8.669842582125563,0.43666666666666665,0.37777777777777777,-0.6877777777777778,-0.0029926298075672987,-0.001907522900509207,0.0
1590503794.0600858,-0.11041016382932056,-4.400820327658641,8.584921965951846,0.43666666666666665,0.37777777777777777,-0.6877777777777778,0.000867121117051714,-0.0011355727155854044,0.0
1590503794.0700858,-0.1086678256390445,-4.4026643487219115,8.672664348721911,0.43666666666666665,0.37777777777777777,-0.6877777777777778,0.0018910262048763493,0.000435953040174844,0.0017457085248180678
1590503794.0800858,-0.10191632863305647,-4.416167342733887,8.686167342733887,0.43666666666666665,0.37777777777777777,-0.6877777777777778,0.0004180780524634701,0.002645375268794163,-0.00046371370380125093
1590503794.0900857,-0.1290844825184566,-4.410915517481543,8.677253447555369,0.43666666666666665,0.3566666666666667,-0.68,-0.0019819266348366795,0.0027731550220987874,9.986746507811613e-05
1590503794.1000857,-0.1131559296428186,-4.42,8.619201683392685,0.43666666666666665,0.3566666666666667,-0.68,0.0,-0.0010618031715151648,0.001464116913655705
1590503794.1100857,-0.10406762822218674,-4.415932371777814,8.576270512888748,0.43666666666666665,0.3566666666666667,-0.68,0.0006655641114768946,0.001090830782496456,0.001737952157341649
1590503794.1200857,-0.11894974009615555,-4.401050259903845,8.635798960384623,0.43666666666666665,0.3566666666666667,-0.68,0.0031006439725790743,0.001090830782496456,0.00011456558327352937
1590503794.1300857,-0.12148268504199049,-4.41,8.672224027562986,0.4372432664052185,0.3577374947525487,-0.6805765997385519,0.0030298885748068272,-0.00016173584845502727,0.002181661564992912
1590503794.1400857,-0.13790419513341035,-4.41,8.696856292700115,0.44362940921854843,0.3695974742630186,-0.6869627425518818,0.0003429252693872833,-0.0019530447187347231,0.002181661564992912
