time,acc_x,acc_y,acc_z,mag_x,mag_y,mag_z,gyr_x,gyr_y,gyr_z
1590500125.1696413,-0.11,-4.33,8.7,0.4955555555555556,0.3288888888888889,-0.6222222222222222,-0.017453292519943295,-0.01308996938995747,-0.05563236990731925
1590500125.1796412,-0.16811093996615134,-4.311908456462623,8.680954228231311,0.4955555555555556,0.3288888888888889,-0.6222222222222222,-0.0074276351718267535,-0.007115364713354096,-0.07256521166314146
1590500125.1896412,-0.30370167531899517,-4.3438121588985865,8.696906079449294,0.4955555555555556,0.3288888888888889,-0.6222222222222222,-0.003947481102551164,0.001585020459834878,-0.06386482648995248
1590500125.1996412,-0.35382669416256607,-4.321357371827593,8.698765338832512,0.4955555555555556,0.3233333333333333,-0.5988888888888889,-0.003811214910468405,0.010504265902730282,-0.022300971511393687
1590500125.2096412,-0.31100761581967046,-4.261410662147538,8.690201523163934,0.4955555555555556,0.3233333333333333,-0.5988888888888889,-0.007547884409233037,0.007701763778656808,0.019736560349708426
1590500125.2196412,-0.41031291484923194,-4.270208609899488,8.610417219798975,0.4955555555555556,0.3233333333333333,-0.5988888888888889,-0.008726646259971648,0.007556170142511957,0.06250162489464829
1590500125.2296412,-0.45803868765408684,-4.302025791769391,8.674051583538782,0.4955555555555556,0.3233333333333333,-0.5988888888888889,-0.008726646259971648,-0.00459133634608057,0.11195932988391785
1590500125.2396412,0.17535071734722685,-3.922789569591664,8.786802607602084,0.4955555555555556,0.3233333333333333,-0.5988888888888889,-0.0008070014451007461,-0.019955262967274373,0.1701126570238501
1590500125.2496412,0.01690588569803808,-4.583382712539096,8.487121694626103,0.5009912172621868,0.3233333333333333,-0.5847561684516476,0.003225410143115481,0.001640216214693204,0.08929099738779364
1590500125.2596412,0.002772327617977922,-4.469901897123602,8.62455344764044,0.5011111111111111,0.3233333333333333,-0.5844444444444444,-0.006188508676641633,0.002181661564992912,0.0651907935434108
1590500125.2696412,-0.259736556536837,-4.329912185512279,8.610351257950883,0.5011111111111111,0.3233333333333333,-0.5844444444444444,0.014142483873911836,0.009798318893197062,0.015228525119090534
1590500125.2796412,-0.21772283343628443,-4.315907611145428,8.666369555418287,0.5011111111111111,0.3233333333333333,-0.5844444444444444,0.008031835547863141,0.006742994730172712,0.008354045752285752
1590500125.2896411,-0.19355207530112473,-4.329343774096626,8.7157916987955,0.5011111111111111,0.3233333333333333,-0.5844444444444444,0.00756423233590798,0.00545415391248228,0.0047507944380070465
1590500125.2996411,-0.21991021911558503,-4.3100897808844145,8.700089780884415,0.49778775343160164,0.33396807790776356,-0.5844444444444444,0.008074106505521766,0.00936939243918157,0.0050158628844357055
1590500125.3096411,-0.22367850735557948,-4.29,8.704482238966632,0.4955555555555556,0.3411111111111111,-0.5844444444444444,0.003184818829269344,0.008438341288896338,0.007234552571764619
1590500125.319641,-0.22,-4.299498464951885,8.596018420577384,0.4955555555555556,0.3411111111111111,-0.5844444444444444,-0.002998947412996823,0.006599693681877244,0.010744180864269032
1590500125.329641,-0.22939164123033576,-4.328174923691007,8.665133129842687,0.4955555555555556,0.3411111111111111,-0.5844444444444444,-0.003272492347489368,0.0044960464245361095,0.01090830782496456
1590500125.339641,-0.2223527468470044,-4.33,8.700589012611983,0.4955555555555556,0.3411111111111111,-0.5844444444444444,-0.0007699346052401673,0.001860765387736623,0.0075715641686322915
1590500125.349641,-0.22,-4.33,8.71,0.5071082950525371,0.3358598658852104,-0.5928464368058856,0.0030932387669790205,5.975119350344919e-05,0.0013895867500137013
1590500125.359641,-0.21008945954604824,-4.310178919092096,8.719910540453952,0.5077777777777778,0.33555555555555555,-0.5933333333333334,0.005434636867158761,0.0010810722598346965,9.758522661759477e-06
1590500125.369641,-0.21,-4.31,8.626256340886032,0.5077777777777778,0.33555555555555555,-0.5933333333333334,0.009544492673497062,6.824609224276106e-05,-0.001022584690253695
1590500125.379641,-0.21,-4.3006215879705,8.657513648117996,0.5077777777777778,0.33555555555555555,-0.5933333333333334,0.00777142493592557,-0.0030690781598138005,-6.780472922518922e-05
1590500125.389641,-0.21716129149679675,-4.314322582993594,8.717290331974374,0.5077777777777778,0.33555555555555555,-0.5933333333333334,0.0037299368739071906,-0.003272492347489368,0.0
1590500125.399641,-0.2107473484582426,-4.301494696916485,8.767757954625273,0.49646898144896323,0.33555555555555555,-0.6066982744492051,0.0031909692771391377,-0.003272492347489368,-0.0010093077121462255
1590500125.409641,-0.21,-4.309613434421479,8.721932827892603,0.4955555555555556,0.33555555555555555,-0.6077777777777778,0.00222382932824327,-0.0011751663089971717,0.00100649525599574
1590500125.419641,-0.21840370794708885,-4.301596292052911,8.635962920529112,0.4955555555555556,0.33555555555555555,-0.6077777777777778,0.002181661564992912,0.0016592762122419268,0.0001741284509169949
1590500125.429641,-0.21371332159624412,-4.287426643192489,8.645146713615024,0.4955555555555556,0.33555555555555555,-0.6077777777777778,0.000810121100498395,-0.0005614193639961219,0.0006857702322472585
1590500125.439641,-0.21,-4.299212149836172,8.704828349617735,0.4955555555555556,0.33555555555555555,-0.6077777777777778,0.0,-0.001483088083685222,0.001090830782496456
1590500125.449641,-0.22220939057660355,-4.303895304711698,8.723895304711698,0.4989470529379454,0.34776494613215914,-0.602351381965954,-0.0006659189538240657,-0.0004249118286723903,0.001090830782496456
1590500125.459641,-0.22113681121365408,-4.308863188786345,8.702273622427308,0.5011111111111111,0.3555555555555556,-0.5988888888888889,-0.002057654698418808,0.0029004717477670566,0.003024478614341161
1590500125.469641,-0.20666974295870932,-4.323330257041291,8.633348714793547,0.5011111111111111,0.3555555555555556,-0.5988888888888889,-0.0014546088290314121,0.00036428140364336845,0.003272492347489368
1590500125.479641,-0.2168824326358573,-4.321558783682072,8.6590885142255,0.5011111111111111,0.3555555555555556,-0.5988888888888889,0.0016715507978959318,-0.002011624642627252,0.002351698487358572
1590500125.489641,-0.22,-4.307659234109236,8.682340765890764,0.5011111111111111,0.3555555555555556,-0.5988888888888889,0.0015085771993315145,-0.002181661564992912,0.002181661564992912
1590500125.499641,-0.22,-4.315015029653099,8.757567633438946,0.49193525965643925,0.3355355160180898,-0.5988888888888889,0.005185544918920921,-0.002181661564992912,-0.0002751669168617678
1590500125.509641,-0.21111466785776323,-4.302229335715526,8.717802675004343,0.4888888888888889,0.3288888888888889,-0.5988888888888889,0.008483463457670147,-0.004120140327684324,-0.001090830782496456
1590500125.519641,-0.2183968969305621,-4.3,8.634427927624941,0.4888888888888889,0.3288888888888889,-0.5988888888888889,0.006894727530110219,-0.005279282494916538,-0.0038387088772885974
1590500125.529641,-0.22855116987809673,-4.291448830121904,8.67130701926858,0.4888888888888889,0.3288888888888889,-0.5988888888888889,0.004679408829101859,-0.0026557901136669637,-0.0024977472641089463
1590500125.539641,-0.2201373461012312,-4.304793980848153,8.694793980848154,0.4888888888888889,0.3288888888888889,-0.5988888888888889,0.0038253988064915387,-0.002719585888487197,-0.0011058129180043415
1590500125.549641,-0.21191751283961266,-4.318082487160387,8.71,0.4912325156928599,0.332510857585935,-0.5965452620849179,0.0024358195349766984,-0.002854155941233033,-0.00020916820312816742
1590500125.559641,-0.21465983924681373,-4.304659839246813,8.699319678493628,0.5011111111111111,0.3477777777777778,-0.5866666666666667,-0.0005083096091909519,-0.001090830782496456,0.0006567327374200564
1590500125.5696409,-0.23507576571735625,-4.316717177144905,8.589696937130576,0.5011111111111111,0.3477777777777778,-0.5866666666666667,0.003647122285221538,0.000732730360114313,0.000358100422382143
1590500125.5796409,-0.22330682275144095,-4.314435607583814,8.620079531745677,0.5011111111111111,0.3477777777777778,-0.5866666666666667,0.0031493610232926437,0.001090830782496456,0.00121396210669318
1590500125.5896409,-0.2139590454797018,-4.313959045479701,8.683754272878211,0.5011111111111111,0.3477777777777778,-0.5866666666666667,0.0026135264328491286,0.001090830782496456,0.0026135264328491286
1590500125.5996408,-0.21013456508900702,-4.315067282544503,8.729865434910993,0.4950822342210598,0.3417489008877265,-0.597080181294937,0.0016582643349454162,1.4678774133821239e-05,0.003272492347489368
1590500125.6096408,-0.2145296788842037,-4.302735160557898,8.747264839442101,0.4888888888888889,0.33555555555555555,-0.6077777777777778,0.0015849420986678152,-0.00029835973316254835,0.0016875502488215525
1590500125.6196408,-0.22,-4.3068742797992225,8.660634362610105,0.4888888888888889,0.33555555555555555,-0.6077777777777778,0.002181661564992912,0.002249602803745694,0.002590565984993586
1590500125.6296408,-0.22768016817670397,-4.317680168176704,8.65840084088352,0.4888888888888889,0.33555555555555555,-0.6077777777777778,0.0005061087926132369,0.0024347159612995305,0.003272492347489368
1590500125.6396408,-0.22389915395209903,-4.313899153952099,8.682201692095802,0.4888888888888889,0.33555555555555555,-0.6077777777777778,0.0,0.0008506634313284649,0.0026069932806571444
1590500125.6496408,-0.22,-4.294977814236176,8.705022185763825,0.4780395325039048,0.3305481603009475,-0.5969284213927937,0.0008193331325779711,-0.0024579993977339137,-0.0010956709653189723
1590500125.6596408,-0.22,-4.29711679715877,8.70288320284123,0.4744444444444445,0.3288888888888889,-0.5933333333333334,-0.0004618135002174438,-0.0024961702061324182,-0.001405339423635962
1590500125.6696408,-0.2123750310182249,-4.31524993796355,8.616125341200474,0.4744444444444445,0.3288888888888889,-0.5933333333333334,-0.0002590756944063654,-0.005508681917353273,-0.0019225858705865465
1590500125.6796408,-0.2182450585062959,-4.32,8.622980234025185,0.4744444444444445,0.3288888888888889,-0.5933333333333334,0.0,-0.005645588332763551,0.00051652752165264
1590500125.6896408,-0.20738999855261253,-4.307389998552613,8.680440005789551,0.4744444444444445,0.3288888888888889,-0.5933333333333334,0.0,-0.006141922799789035,-0.000284706992117055
1590500125.6996408,-0.2047988582642048,-4.3,8.72919543305682,0.47764368328724766,0.33475416010069475,-0.595999365702336,0.0,-0.003927613537262682,-4.388231941003496e-05
1590500125.7096407,-0.21,-4.3128318401102685,8.762831840110268,0.4811111111111111,0.3411111111111111,-0.5988888888888889,0.0,0.0017086424551743245,0.00039096247307876086
1590500125.7196407,-0.21,-4.313721110779337,8.694653329352045,0.4811111111111111,0.3411111111111111,-0.5988888888888889,-0.0006849205641784257,0.0012177306549540912,0.0
1590500125.7296407,-0.21687707051585423,-4.31,8.677508282063418,0.4811111111111111,0.3411111111111111,-0.5988888888888889,-0.001090830782496456,0.005251204148464808,-0.0007501720212092582
1590500125.7396407,-0.22,-4.31,8.708903589784773,0.4811111111111111,0.3411111111111111,-0.5988888888888889,-0.0004034768612659052,0.00626110763501409,-0.001090830782496456
1590500125.7496407,-0.22,-4.31538141216309,8.74152564865236,0.49546154354601707,0.3411111111111111,-0.5911157379866482,0.002348084016319649,0.00545415391248228,8.321122566336855e-05
1590500125.7596407,-0.2132765760197775,-4.32,8.712936032138442,0.5077777777777778,0.3411111111111111,-0.5844444444444444,0.004363323129985824,0.004720742128342125,0.0003574189983563017
1590500125.7696407,-0.21,-4.330581760475403,8.647672958098388,0.5077777777777778,0.3411111111111111,-0.5844444444444444,0.0037861776270071475,0.0009004501121137641,0.0017314365089360299
1590500125.7796407,-0.20498214158154154,-4.324946424744624,8.635089292092292,0.5077777777777778,0.3411111111111111,-0.5844444444444444,0.003819855789995715,-0.004918478777524648,0.0027251289049830207
1590500125.7896407,-0.2043630866102461,-4.2969107401692614,8.66,0.5077777777777778,0.3411111111111111,-0.5844444444444444,0.005791139884332193,-0.010967387904283386,-0.00019803302558436993
1590500125.7996407,-0.21,-4.282361309840154,8.662361309840154,0.5014809515373678,0.3426853176712136,-0.5881175930846836,0.008150973369605484,-0.015786788847080676,-0.003014913401424222
1590500125.8096406,-0.21,-4.296439270190205,8.663560729809795,0.4811111111111111,0.3477777777777778,-0.6,0.0034957383162098152,-0.0146436308638285,-0.002181661564992912
1590500125.8196406,-0.21,-4.31447189669329,8.623820258266775,0.4811111111111111,0.3477777777777778,-0.6,-0.0007893195197074453,-0.01308996938995747,-0.002181661564992912
1590500125.8296406,-0.22391237648332807,-4.292175247033344,8.651737129449984,0.4811111111111111,0.3477777777777778,-0.6,-0.0003320283562117534,-0.015366376668811578,-0.002181661564992912
1590500125.8396406,-0.283191591017678,-4.262269469660774,8.72910176779742,0.4811111111111111,0.3477777777777778,-0.6,0.0,-0.015717761461313005,-0.0008922610127252424
1590500125.8496406,-0.3559176097964454,-4.232041195101777,8.787958804898222,0.4846031009524322,0.3422903651699875,-0.5970068658502963,0.0,-0.01674088224493759,0.003918003439965886
1590500125.8596406,-0.3510917533432392,-4.2317369985141156,8.793697251114413,0.4888888888888889,0.33555555555555555,-0.5933333333333334,0.002963923387284668,-0.017951338624982816,0.01998955513165339
1590500125.8696406,-0.16075498288705456,-4.315667807529696,8.72627179383934,0.4888888888888889,0.33555555555555555,-0.5933333333333334,0.003500541206870145,-0.01680208828473925,0.038569290420260936
1590500125.8796406,-0.03887493576567318,-4.3670416880781096,8.69,0.4888888888888889,0.33555555555555555,-0.5933333333333334,0.0006454035417250035,-0.015594332725812884,0.04011528801255097
1590500125.8896406,-0.05013038130381304,-4.383420254202542,8.730260762607626,0.4888888888888889,0.33555555555555555,-0.5933333333333334,0.0007319613196530134,-0.019663398872868464,0.027931618912233773
1590500125.8996406,-0.10623281556864846,-4.359178122954234,8.742294530738558,0.5034436641605005,0.33555555555555555,-0.5976141495896897,0.0027719033952885606,-0.022657151956325172,0.010299401836484793
1590500125.9096406,-0.18076911128370132,-4.327211583268612,8.702019305447687,0.5077777777777778,0.33555555555555555,-0.5988888888888889,0.007415543423315251,-0.018764395356599694,-0.0009125072415078535
1590500125.9196405,-0.19501737751653667,-4.300069510066147,8.620243285231513,0.5077777777777778,0.33555555555555555,-0.5988888888888889,0.009270166058223723,-0.01256161433567463,-0.003816012145741442
1590500125.9296405,-0.19433323809135067,-4.288666476182701,8.580332666639455,0.5077777777777778,0.33555555555555555,-0.5988888888888889,0.008399428193088655,-0.0033816689293368436,-0.0029452742806063744
1590500125.9396405,-0.19593150545897434,-4.2918630109179485,8.640342472705129,0.5077777777777778,0.33555555555555555,-0.5988888888888889,0.006988788603355695,0.0048444850152546725,0.0002405809426344243
1590500125.9496405,-0.19080604926722794,-4.281209073900842,8.672821172435297,0.5072851921144718,0.3352868724664796,-0.5992471330076569,0.007547889142185097,0.00903438843348698,0.0022695879002830066
1590500125.9596405,-0.2154768228672611,-4.31,8.74,0.4955555555555556,0.3288888888888889,-0.6077777777777778,0.0036618678203156024,0.02173932001394687,0.0037658944325969315
1590500125.9696405,-0.21446708840486867,-4.304467088404868,8.70126961883408,0.4955555555555556,0.3288888888888889,-0.6077777777777778,0.007010037792833566,0.02557639175143486,0.004479586404449532
1590500125.9796405,-0.21394251626898048,-4.296057483731019,8.67394251626898,0.4955555555555556,0.3288888888888889,-0.6077777777777778,0.01090830782496456,0.02379892256540939,0.0058842157231519775
1590500125.9896405,-0.22,-4.293424187830534,8.700545126983204,0.4955555555555556,0.3288888888888889,-0.6077777777777778,0.010534786875904926,0.020322531853690585,0.006171463745919102
1590500125.9996405,-0.2120547156227502,-4.296027357811375,8.751917926565875,0.5004110071194304,0.3288888888888889,-0.6020395168386529,0.00851743292630926,0.01398650821018638,0.005887501951201894
1590500126.0096405,-0.20514845436402884,-4.295148454364028,8.72366391072374,0.5077777777777778,0.3288888888888889,-0.5933333333333334,0.0048601569442104755,0.007041818509203387,0.006544984694978735
1590500126.0196404,-0.21,-4.322233656622492,8.672588781125835,0.5077777777777778,0.3288888888888889,-0.5933333333333334,0.0016556152107380009,0.006262592480857963,0.004928107558227369
1590500126.0296404,-0.21714922150244345,-4.301403113990226,8.705746107512217,0.5077777777777778,0.3288888888888889,-0.5933333333333334,0.00031097169392136715,0.003425548340678381,0.005143182218560912
1590500126.0396404,-0.21433353891223064,-4.2956664610877695,8.72,0.5077777777777778,0.3288888888888889,-0.5933333333333334,0.0006181150182357148,0.0003273165102857672,0.00421792387601085
1590500126.0496404,-0.20376965194838462,-4.306230348051615,8.738691044154846,0.5001629079369145,0.3288888888888889,-0.5877952461763419,0.0031297074146071193,0.0016276713936510948,0.0019132412594155925
1590500126.0596404,-0.20689773428747799,-4.2893067971375665,8.694818125700175,0.4955555555555556,0.3288888888888889,-0.5844444444444444,0.0066206013970645005,0.004024918436515593,-0.00041402139555599495
1590500126.0696404,-0.20309651833288728,-4.293806963334226,8.607868664995985,0.4955555555555556,0.3288888888888889,-0.5844444444444444,0.009141921539252494,0.00888164131531773,-0.000337777751607805
1590500126.0796404,-0.20706947032206546,-4.2929305296779345,8.608277881288261,0.4955555555555556,0.3288888888888889,-0.5844444444444444,0.009817477042468105,0.009365988656313728,0.0015423191686508315
1590500126.0896404,-0.21404079808200252,-4.285959201917998,8.656367182738023,0.4955555555555556,0.3288888888888889,-0.5844444444444444,0.009817477042468105,0.00828586356660155,0.0008593134848826158
1590500126.0996404,-0.21972205290747288,-4.280277947092527,8.707498476167256,0.4955555555555556,0.3288888888888889,-0.5844444444444444,0.009817477042468105,0.0076661348019185895,-0.0009998728091662628
1590500126.1096404,-0.21060623682488916,-4.3,8.725909355237334,0.4955555555555556,0.3411111111111111,-0.5844444444444444,0.004875673431730452,0.006611114873985935,-0.0005784804807518278
1590500126.1196404,-0.24248523002421307,-4.294378692493947,8.683786924939469,0.4955555555555556,0.3411111111111111,-0.5844444444444444,0.0012973754972451798,0.004569867844734547,-0.001090830782496456
1590500126.1296403,-0.24093313087890203,-4.29381337382422,8.666693616769537,0.4955555555555556,0.3411111111111111,-0.5844444444444444,-0.0006748562272339593,0.0005177633439429254,-0.0019227798930214492
1590500126.1396403,-0.21,-4.3,8.707111706197399,0.4955555555555556,0.3411111111111111,-0.5844444444444444,-0.0003150639788771325,-0.002811789522747177,-0.002642364389735103
1590500126.1496403,-0.21671235187449922,-4.29664382406275,8.716780879686247,0.49070774586841726,0.3411111111111111,-0.5892922541315828,-0.0007247287801138791,-0.003997221127603247,-0.0014569327848790328
1590500126.1596403,-0.23,-4.302638081395349,8.716298449612403,0.4811111111111111,0.3411111111111111,-0.5988888888888889,0.00045953360725807583,-0.003272492347489368,-0.0012625943504767602
1590500126.1696403,-0.22566734146226639,-4.3113346829245325,8.648336707311332,0.4811111111111111,0.3411111111111111,-0.5988888888888889,-0.00032702840840532154,-0.002327252886888183,0.0004726197303005925
1590500126.1796403,-0.22,-4.2978264598404055,8.626520620478782,0.4811111111111111,0.3411111111111111,-0.5988888888888889,-0.0019445651136851395,-0.001090830782496456,0.0013279272338042284
1590500126.1896403,-0.22,-4.29,8.69647579616657,0.4811111111111111,0.3411111111111111,-0.5988888888888889,-0.001090830782496456,0.0001765999449917094,0.0013367077466674682
1590500126.1996403,-0.21699144714334587,-4.293008552856654,8.766991447143345,0.4854567985707226,0.3411111111111111,-0.6079145474588513,-0.001090830782496456,0.002181661564992912,0.0
1590500126.2096403,-0.21518553345388788,-4.294814466546112,8.765185533453888,0.4955555555555556,0.3411111111111111,-0.6288888888888889,-0.0005251768309798489,0.0010503536619596977,0.0
1590500126.2196403,-0.21426853759682846,-4.295731462403172,8.712685375968285,0.4955555555555556,0.3411111111111111,-0.6288888888888889,0.0,0.003126027809050314,0.0006252055618100629
1590500126.2296402,-0.2153108388704319,-4.3,8.685932516611295,0.4955555555555556,0.3411111111111111,-0.6288888888888889,-0.0011586453041491634,0.0019782180000347898,-6.781452165270738e-05
1590500126.2396402,-0.21720162467658238,-4.297201624676582,8.708395125970252,0.4955555555555556,0.3411111111111111,-0.6288888888888889,-0.002181661564992912,-0.0013960861768726957,-0.001090830782496456
1590500126.2496402,-0.21113900813783731,-4.291139008137837,8.726582975586489,0.4955555555555556,0.3411111111111111,-0.6288888888888889,-0.002181661564992912,-0.002057415051166219,-0.001090830782496456
1590500126.2596402,-0.21,-4.286573018080667,8.716011126564673,0.4955555555555556,0.3411111111111111,-0.5933333333333334,-0.0018078358281262545,-0.002929313038726227,-0.001777189400022738
1590500126.2696402,-0.21,-4.28613248998117,8.657735020037661,0.4955555555555556,0.3411111111111111,-0.5933333333333334,-0.001090830782496456,-0.0036943722455047515,-0.000916021870946761
1590500126.2796402,-0.20533901504935542,-4.29,8.65932196990129,0.4955555555555556,0.3411111111111111,-0.5933333333333334,-0.002107699954679624,-0.0022556231753062,-0.001164792392809744
1590500126.2896402,-0.2,-4.305096874383751,8.67905812463025,0.4955555555555556,0.3411111111111111,-0.5933333333333334,-0.0012963161118160656,-0.001090830782496456,0.0006587254118911007
1590500126.2996402,-0.20778128926626815,-4.324437421467464,8.707781289266268,0.4938263801630515,0.3396701316173577,-0.5933333333333334,0.002706621023545732,-0.0005249594585528198,0.0013328545790774577
1590500126.3096402,-0.22754787727291054,-4.28,8.73,0.4888888888888889,0.33555555555555555,-0.5933333333333334,0.001090830782496456,0.0014920584254717077,-0.0009570882348380388
1590500126.3196402,-0.21,-4.296670796986519,8.689990087232355,0.4888888888888889,0.33555555555555555,-0.5933333333333334,0.001090830782496456,0.0036359223891200766,-0.00036370037043287367
1590500126.3296402,-0.2105845725587869,-4.328830854882426,8.611169145117573,0.4888888888888889,0.33555555555555555,-0.5933333333333334,0.001090830782496456,0.0023729624875111536,-0.0009632968341509616
1590500126.3396401,-0.2235970314576872,-4.299208905626938,8.662373283119186,0.4888888888888889,0.33555555555555555,-0.5933333333333334,0.001090830782496456,0.004669403384551621,0.001090830782496456
1590500126.3496401,-0.22182701347539957,-4.296345973049201,8.728172986524601,0.49388349176503354,0.33555555555555555,-0.5933333333333334,0.0015365980467946002,0.002380957818893079,-0.0006922382746961213
1590500126.3596401,-0.21,-4.298986817240045,8.74525329568999,0.5011111111111111,0.33555555555555555,-0.5933333333333334,0.001035570235353754,0.000517785117676877,-0.00212640101785021
1590500126.36964,-0.20497163424866513,-4.285028365751335,8.679602879481312,0.5011111111111111,0.33555555555555555,-0.5933333333333334,-0.0010970192294413967,-0.0010970192294413967,0.0005546980616656393
1590500126.37964,-0.2,-4.286203593676857,8.632778437938857,0.5011111111111111,0.33555555555555555,-0.5933333333333334,-0.001353414188963231,-0.0025957852530077525,0.001353414188963231
1590500126.38964,-0.20385689264372553,-4.281928446321863,8.675785338965587,0.5011111111111111,0.33555555555555555,-0.5933333333333334,-0.000841443444111989,-0.0034828532085173654,0.0006310825830839918
1590500126.39964,-0.22,-4.2877196792156695,8.706840962352992,0.4965504695424499,0.3340353416993352,-0.591813119477113,-0.004363323129985824,-0.0038658343088829703,0.003023747936937941
1590500126.40964,-0.21765122340218618,-4.28,8.720604893608744,0.4811111111111111,0.3288888888888889,-0.5866666666666667,-0.004107111348575562,-0.0009006026579416026,0.0014130262207621264
1590500126.41964,-0.21,-4.285370464135021,8.652406751054851,0.4811111111111111,0.3288888888888889,-0.5866666666666667,-0.003272492347489368,0.0003433585501022595,8.082273645838704e-05
1590500126.42964,-0.2033423109575807,-4.299986533563629,8.633315378084838,0.4811111111111111,0.3288888888888889,-0.5866666666666667,-0.0036356129548773828,-0.0007291791354408523,0.0007277101751084411
1590500126.43964,-0.1910635557246992,-4.318404666412952,8.657872888550601,0.4811111111111111,0.3288888888888889,-0.5866666666666667,-0.004305315163815713,0.0019496297003124695,5.800796617011061e-05
1590500126.44964,-0.2139305296137856,-4.3,8.733583177682714,0.4867885427754681,0.3267052613256746,-0.5975848044827379,-0.0013241530261466588,-0.0017529072955697854,0.0008953987567235323
1590500126.45964,-0.2244376577897223,-4.295562342210277,8.774437657789722,0.4955555555555556,0.3233333333333333,-0.6144444444444445,-0.0004840733719214259,-0.00012268403865360415,-0.00012268403865360415
1590500126.46964,-0.2325045387592916,-4.295009077518583,8.757459151166374,0.4955555555555556,0.3233333333333333,-0.6144444444444445,-0.001364033579955533,0.0002712223901192246,0.001090830782496456
1590500126.47964,-0.23968828143733087,-4.309376562874661,8.692805467064021,0.4955555555555556,0.3233333333333333,-0.6144444444444445,-0.0021476583446294077,-0.0020796519039024,0.001090830782496456
1590500126.48964,-0.2175494381043645,-4.279802247582541,8.707549438104365,0.4955555555555556,0.3233333333333333,-0.6144444444444445,-0.001358145617513664,-0.002716291235027328,0.00055620111246204
1590500126.49964,-0.21024165868106978,-4.30903336527572,8.700241658681069,0.4955555555555556,0.3233333333333333,-0.6144444444444445,-0.002155300692176071,-0.004310601384352142,-0.001038109036862774
1590500126.50964,-0.21,-4.292919825931627,8.689561218478612,0.4744444444444445,0.3288888888888889,-0.5844444444444444,-0.002452301526535844,-0.008137502697853719,-0.002181661564992912
1590500126.51964,-0.21,-4.301829506404249,8.636340987191502,0.4744444444444445,0.3288888888888889,-0.5844444444444444,0.0029799343260044544,-0.011999138607461015,-0.0025807979454986834
1590500126.52964,-0.21,-4.306349997395335,8.630950007813992,0.4744444444444445,0.3288888888888889,-0.5844444444444444,0.006544984694978735,-0.013591752686404945,-0.0067522442484017195
1590500126.53964,-0.21,-4.295688728439631,8.655748362080493,0.4744444444444445,0.3288888888888889,-0.5844444444444444,0.006544984694978735,-0.016048937222130032,-0.010751545567306156
1590500126.54964,-0.2030650948231676,-4.279246540235776,8.715427985648386,0.47778347286291933,0.330429978928185,-0.5844444444444444,0.005284183354881601,-0.012919998832356791,-0.008304515434351544
1590500126.55964,-0.18852932761087265,-4.31,8.8,0.4888888888888889,0.33555555555555555,-0.5844444444444444,0.000780695678765227,-0.006865835637584274,-0.0026522221400269103
1590500126.56964,-0.20553402744259808,-4.305534027442598,8.75087430186858,0.4888888888888889,0.33555555555555555,-0.5844444444444444,0.0009743240678796863,0.0012284726725859904,-0.001090830782496456
1590500126.57964,-0.20405230685478384,-4.3,8.698104613709567,0.4888888888888889,0.33555555555555555,-0.5844444444444444,0.002181661564992912,0.00589619201821424,-0.0024169450996923358
1590500126.58964,-0.21,-4.306162107078467,8.716162107078468,0.4888888888888889,0.33555555555555555,-0.5844444444444444,0.0018455707606813716,0.006544984694978735,-0.003691141521362743
1590500126.59964,-0.21,-4.3158492808005,8.72377392120075,0.48727472031130564,0.33555555555555555,-0.5844444444444444,0.002449150464190448,0.006092211467747404,-0.0024080481786085775
1590500126.60964,-0.21327707037804758,-4.293445859243905,8.693445859243905,0.4811111111111111,0.33555555555555555,-0.5844444444444444,0.007635815477475192,0.004363323129985824,-0.003272492347489368
1590500126.6196399,-0.21582741170454747,-4.284172588295453,8.671654823409094,0.4811111111111111,0.33555555555555555,-0.5844444444444444,0.007332376293784255,0.0033012859870675455,-0.0028173335719529633
1590500126.6296399,-0.19364043517359336,-4.306359564826407,8.627280870347185,0.4811111111111111,0.33555555555555555,-0.5844444444444444,0.005718893829084843,-0.0023459026393803945,-0.0003971098749038461
1590500126.6396399,-0.21814781239562955,-4.3018521876043705,8.675556562813112,0.4811111111111111,0.33555555555555555,-0.5844444444444444,0.003272492347489368,-0.002464323045967112,0.00020204232538056406
1590500126.6496398,-0.21,-4.302557332144222,8.712404446426296,0.48607288968162965,0.33555555555555555,-0.5902331861100494,0.003272492347489368,0.0008202077424638119,0.0008202077424638119
1590500126.6596398,-0.21,-4.28,8.743911845272683,0.5011111111111111,0.33555555555555555,-0.6077777777777778,0.002940435018231378,0.0019923439755479386,0.0009961719877739695
1590500126.6696398,-0.20996469691499176,-4.2800353030850085,8.72982348457496,0.5011111111111111,0.33555555555555555,-0.6077777777777778,0.002177810595808506,0.006543059210386532,0.003266715893712759
1590500126.6796398,-0.18718509718509718,-4.3,8.635629805629806,0.5011111111111111,0.33555555555555555,-0.6077777777777778,0.0003070582640231914,0.00545415391248228,0.0006141165280463828
1590500126.6896398,-0.18026449526449526,-4.3,8.649471009471009,0.5011111111111111,0.33555555555555555,-0.6077777777777778,0.0010619788248628585,0.00545415391248228,0.002123957649725717
1590500126.6996398,-0.2032600017483027,-4.318369999125848,8.719780005244909,0.49785110936280835,0.33646111159675074,-0.6063288881118655,-0.003272492347489368,0.005833762643370568,0.0009130252695944141
1590500126.7096398,-0.22,-4.300314118221788,8.763542745481192,0.4811111111111111,0.3411111111111111,-0.5988888888888889,-0.002568115147536356,0.002181661564992912,0.001408754399906024
1590500126.7196398,-0.21713609634283873,-4.277136096342839,8.724224867085548,0.4811111111111111,0.3411111111111111,-0.5988888888888889,-0.001403234209230025,0.0009320478580586362,0.003113709423051548
1590500126.7296398,-0.2118596411018402,-4.27371928220368,8.66743856440736,0.4811111111111111,0.3411111111111111,-0.5988888888888889,-0.0017759508133363263,-0.0027902276924777905,-0.00020285537582829283
1590500126.7396398,-0.21745551163978138,-4.29,8.702544488360218,0.4811111111111111,0.3411111111111111,-0.5988888888888889,0.0002775606229030393,-0.00545415391248228,-0.001090830782496456
1590500126.7496397,-0.21,-4.29,8.710897175624178,0.4811111111111111,0.3406126802087909,-0.5975929685428564,0.00040576403078651524,-0.005062687197219457,-0.0008950974248650443
1590500126.7596397,-0.20630001806521542,-4.293699981934784,8.72739996386957,0.4811111111111111,0.33555555555555555,-0.5844444444444444,-0.005334168438235594,0.0013308017309898274,0.001090830782496456
1590500126.7696397,-0.2065057673599852,-4.296747116320008,8.69120674480011,0.4811111111111111,0.33555555555555555,-0.5844444444444444,-0.0029176577824877414,0.005099319347480653,0.001090830782496456
1590500126.7796397,-0.2175067133683596,-4.2875067133683595,8.597479859894921,0.4811111111111111,0.33555555555555555,-0.5844444444444444,-0.002181661564992912,0.004363323129985824,0.001090830782496456
1590500126.7896397,-0.21112252384446073,-4.28,8.624490095377842,0.4811111111111111,0.33555555555555555,-0.5844444444444444,-0.002487782455898924,0.004546995664529431,0.0012745033170400632
1590500126.7996397,-0.22511005135730008,-4.28,8.6804402054292,0.4811111111111111,0.33555555555555555,-0.5844444444444444,-0.0063022888514042315,0.006835699501832616,0.003563207154343248
1590500126.8096397,-0.2104029869690303,-4.309194026061939,8.72838805212388,0.4955555555555556,0.33555555555555555,-0.5933333333333334,-0.005366235794329642,0.0019618662696113173,0.0
1590500126.8196397,-0.2192756811643256,-4.2914486376713485,8.692897275342697,0.4955555555555556,0.33555555555555555,-0.5933333333333334,-0.0034305142039484926,-0.0028774377063415578,0.0
1590500126.8296397,-0.21,-4.3,8.652446791930037,0.4955555555555556,0.33555555555555555,-0.5933333333333334,-0.005187250316917427,-0.006788671890306543,0.0005338071911297057
1590500126.8396397,-0.21,-4.3,8.659710277946143,0.4955555555555556,0.33555555555555555,-0.5933333333333334,-0.0043949269034574065,-0.010750288957606643,0.0021184540180497454
1590500126.8496397,-0.19,-4.2907799016340284,8.752339704902084,0.49503562113287014,0.3350356211328701,-0.5933333333333334,-0.00318741827651765,-0.00864157218899993,0.0009206826405530197
1590500126.8596396,-0.19,-4.298336245878898,8.775008737636695,0.4899980583029568,0.3299980583029568,-0.5933333333333334,-0.0023631489859732347,-0.007817302898455515,-0.0007278559405358108
1590500126.8696396,-0.21,-4.3063106843202865,8.75417479024201,0.4888888888888889,0.3288888888888889,-0.5933333333333334,-0.0008048838219555304,-0.0028700504365116028,0.0004024419109777652
1590500126.8796396,-0.21,-4.29,8.656148316727263,0.4888888888888889,0.3288888888888889,-0.5933333333333334,-0.0038600351022258094,-0.0005875427547364415,0.0019300175511129047
1590500126.8896396,-0.20737341655279387,-4.29,8.704746833105588,0.4888888888888889,0.3288888888888889,-0.5933333333333334,-0.001322114141890486,0.0022368940132996905,0.0008043149747956474
1590500126.8996396,-0.19937453392990306,-4.288749067859806,8.69,0.48965334741900735,0.32965334741900737,-0.5933333333333334,0.001090830782496456,0.005522381676749163,6.82277642668831e-05
1590500126.9096396,-0.19232625234660608,-4.276978757039818,8.687673747653394,0.5011111111111111,0.3411111111111111,-0.5933333333333334,0.0018520950827562097,0.006798739461731987,0.001090830782496456
1590500126.9196396,-0.2,-4.3,8.676323877068558,0.5011111111111111,0.3411111111111111,-0.5933333333333334,0.00456382453267873,0.007535564776128738,0.0011910814838429092
1590500126.9296396,-0.20580277899966362,-4.294197221000337,8.651605557999327,0.5011111111111111,0.3411111111111111,-0.5933333333333334,0.005911999699293028,0.006228492197135882,0.002181661564992912
1590500126.9396396,-0.22,-4.28,8.68,0.5011111111111111,0.3411111111111111,-0.5933333333333334,0.004363323129985824,0.00545415391248228,0.002181661564992912
1590500126.9496396,-0.22,-4.289555666941856,8.746889668592994,0.5011111111111111,0.3411111111111111,-0.5933333333333334,0.004363323129985824,0.006496515477228348,0.002181661564992912
1590500126.9596395,-0.20350493595496452,-4.2982475320225175,8.766495064045035,0.4910307941947005,0.336529148876379,-0.5979152955680654,0.001664324587049541,0.004745652333021214,0.001281995384014151
1590500126.9696395,-0.21763436880370127,-4.3,8.752365631196298,0.4888888888888889,0.33555555555555555,-0.5988888888888889,0.001090830782496456,0.004363323129985824,0.0030144420145937095
1590500126.9796395,-0.1829146781890881,-4.275829356378176,8.642914678189088,0.4888888888888889,0.33555555555555555,-0.5988888888888889,0.001227835358074416,0.002022690530506496,-0.00029597561006437605
1590500126.9896395,-0.1964394427963369,-4.302878885592674,8.656439442796337,0.4888888888888889,0.33555555555555555,-0.5988888888888889,-0.0031981335098072608,0.0012850290525262165,0.0033923317798370215
1590500126.9996395,-0.21,-4.309770980864848,8.660343528702727,0.4887234861801684,0.3356191719819865,-0.5990670148828956,-0.004375814186106018,-1.2491056120194464e-05,-0.0010658486702560671
1590500127.0096395,-0.21,-4.28810016840267,8.697599326389321,0.4744444444444445,0.3411111111111111,-0.6144444444444445,-0.0050396749548967746,-0.0012980702612892087,0.001090830782496456
1590500127.0196395,-0.20943575091297847,-4.281128498174043,8.72605025639085,0.4744444444444445,0.3411111111111111,-0.6144444444444445,-0.003334042374801227,-0.0019970114830573354,0.0012754808644320327
1590500127.0296395,-0.20149936611856423,-4.297001267762871,8.67049556282995,0.4744444444444445,0.3411111111111111,-0.6144444444444445,-0.004199767658349616,0.0006001643675878346,0.0038726567150772027
1590500127.0396395,-0.22,-4.316118705456245,8.76,0.4744444444444445,0.3411111111111111,-0.6144444444444445,-0.00700074014283565,0.0006674472260700946,0.003939939573559463
1590500127.0496395,-0.2203404177017205,-4.29982979114914,8.759829791149139,0.474803774240705,0.34101655063841096,-0.6140851146481839,-0.0044561576569716755,-0.0009794293501134339,0.0021630946595957417
1590500127.0596395,-0.23666436219543038,-4.291667818902285,8.744996543293146,0.4955555555555556,0.33555555555555555,-0.5933333333333334,-0.01127292360106147,0.004362568993537255,0.001090830782496456
1590500127.0696394,-0.22251951774723885,-4.298740241126381,8.723779276620858,0.4955555555555556,0.33555555555555555,-0.5933333333333334,-0.017444776296146044,-0.0002663205277761765,0.001090830782496456
1590500127.0796394,-0.1980569594481305,-4.26805695944813,8.565829121655609,0.4955555555555556,0.33555555555555555,-0.5933333333333334,-0.02375525781067284,-0.003060539502927552,0.00545415391248228
1590500127.0896394,-0.19955737956428352,-4.247256827247622,8.604336069346425,0.4955555555555556,0.33555555555555555,-0.5933333333333334,-0.0286608340729078,-0.002181661564992912,0.006322944231542532
1590500127.0996394,-0.2478194998465787,-4.182907333537894,8.676729249769867,0.4955555555555556,0.33555555555555555,-0.5933333333333334,-0.03568027493057101,-0.002181661564992912,0.010710094767582043
1590500127.1096394,-0.34430085161492874,-4.00711510537263,8.750725638711197,0.49992133572291336,0.33031661935472617,-0.6046843617684636,-0.041140729410242785,-0.001324442633682954,0.022909372863303967
1590500127.1196394,-0.3844721438399291,-3.858694993120496,8.748291784240106,0.5011111111111111,0.3288888888888889,-0.6077777777777778,-0.04491039951575845,-0.0050374957798242385,0.06485725575372722
1590500127.1296394,-0.2937596706092156,-3.568720988172353,8.700600823476961,0.5011111111111111,0.3288888888888889,-0.6077777777777778,-0.05717030656953659,-0.009509889710024637,0.1469999969396153
1590500127.1396394,-0.40001577784790154,-3.391540128326496,8.636450404964762,0.5011111111111111,0.3288888888888889,-0.6077777777777778,-0.08285710588290644,-0.0017927397157923245,0.19501821555544116
1590500127.1496394,-0.7886387434554974,-3.022303664921466,8.798429319371728,0.5011111111111111,0.3292728330424666,-0.6077777777777778,-0.14287598788331854,0.020166091586361182,0.24741869716917003
1590500127.1596394,-0.93,-3.06,9.1,0.5011111111111111,0.33555555555555555,-0.6077777777777778,-0.160352125026979,-0.04254240051736178,0.35124751196385884
1590500127.1696393,-0.5210195445423611,-2.7568733094843383,9.027826978448651,0.5011111111111111,0.33555555555555555,-0.6077777777777778,-0.11101556478727824,-0.05723839718450669,0.40320835732269267
1590500127.1796393,-0.17815770562487754,-2.4758069292916094,8.505018401167222,0.5011111111111111,0.33555555555555555,-0.6077777777777778,0.032841486847853985,-0.04096362837680998,0.5591749764768604
1590500127.1896393,-0.3080803354172126,-2.636640586980122,8.250479916145697,0.5011111111111111,0.33555555555555555,-0.6077777777777778,0.02429474078999501,-0.03570948680477429,0.7514259286414797
1590500127.1996393,-0.3392424242424243,-2.756969696969697,9.000555555555556,0.5011111111111111,0.33555555555555555,-0.6077777777777778,-0.050459187560025445,-0.10936404981483408,0.8633099256503013
1590500127.2096393,-0.3940535056412618,-2.8627023370941744,8.986220786322818,0.4955555555555556,0.3288888888888889,-0.5844444444444444,-0.032578271662061516,-0.08986111023749774,0.9993169901562865
1590500127.2196393,-0.41216152429196407,-2.874774349527976,8.835320630900299,0.4955555555555556,0.3288888888888889,-0.5844444444444444,-0.007558078400067263,-0.08195999657581535,1.0631843255882192
1590500127.2296393,-0.4011535871330666,-2.8611535871330664,8.779423206433465,0.4955555555555556,0.3288888888888889,-0.5844444444444444,-0.01831366731214329,-0.08676311525770013,1.1792312458644754
1590500127.2396393,-0.4458696358247737,-3.1170435629897284,8.938826072835045,0.4955555555555556,0.3288888888888889,-0.5844444444444444,-0.02906826436102189,-0.08425008142981538,1.274265929394828
1590500127.2496393,-0.48844098899760463,-3.1681291867971253,8.930311802200478,0.4955555555555556,0.3288888888888889,-0.5844444444444444,-0.026281975811414754,-0.0861076071295535,1.3309204632368397
1590500127.2596393,-0.508351386334219,-3.17917569316711,8.792364602493357,0.5067702916486894,0.31053750255466994,-0.5926006161485418,-0.031184503058627654,-0.0951838475189029,1.390047248987994
1590500127.2696393,-0.5089037993793508,-3.1079417931728592,8.666979786966367,0.5077777777777778,0.3088888888888889,-0.5933333333333334,-0.042303246641202615,-0.11208714004141537,1.4557075951815492
1590500127.2796392,-0.5018681539880903,-3.0305496938689926,8.519231233749895,0.5077777777777778,0.3088888888888889,-0.5933333333333334,-0.040768306927699345,-0.12436665774944157,1.4871738593083665
1590500127.2896392,-0.5639909138563691,-3.1753212184751587,8.675321218475158,0.5077777777777778,0.3088888888888889,-0.5933333333333334,-0.035489517792487484,-0.13344413977163586,1.5450467734608802
1590500127.2996392,-0.6128499038965578,-3.2404665385287434,8.740466538528743,0.5077777777777778,0.3088888888888889,-0.5933333333333334,-0.029271547253109508,-0.13788554729976302,1.5770249076633953
1590500127.3096392,-0.6714809857854902,-3.0837024644637254,8.810740492892746,0.5277777777777778,0.2888888888888889,-0.6077777777777778,-0.03175489057234001,-0.14463586524283306,1.620448408743773
1590500127.3196392,-0.6917811255615056,-3.132849800898409,8.822493575786108,0.5277777777777778,0.2888888888888889,-0.6077777777777778,-0.04764402815154067,-0.1520945794407097,1.6561891897919103
1590500127.3296392,-0.7329186527785951,-3.198669844445752,8.880086113890034,0.5277777777777778,0.2888888888888889,-0.6077777777777778,-0.06469617893313168,-0.1377348735193699,1.6884985281149252
1590500127.3396392,-0.7703630735404733,-3.2281846322976335,8.80891077937858,0.5277777777777778,0.2888888888888889,-0.6077777777777778,-0.026021518062211643,-0.1259026878987757,1.7369771665906169
1590500127.3496392,-0.7764301625875137,-3.1978491870624315,8.79070951223746,0.5277777777777778,0.2888888888888889,-0.6077777777777778,-0.02337425106514812,-0.11531361991052161,1.7614643863134545
1590500127.3596392,-0.8325840472111175,-3.2391570531125073,8.786573005901388,0.5416541235696004,0.2625968652833302,-0.6172721196353407,-0.02468463051823581,-0.1090830782496456,1.7973826254165304
1590500127.3696392,-0.8938846715628793,-3.27,8.701899853936514,0.5488888888888889,0.2488888888888889,-0.6222222222222222,-0.02396219221218068,-0.12460730422378544,1.8307749030564666
1590500127.3796391,-1.0094937491087133,-3.2702025003565147,8.750303750534773,0.5488888888888889,0.2488888888888889,-0.6222222222222222,-0.05456362848705807,-0.16579523425834367,1.8524184282579823
1590500127.3896391,-0.9606735020028642,-3.2895714078163594,8.7789591332683,0.5488888888888889,0.2488888888888889,-0.6222222222222222,-0.05654287095023818,-0.164695411519234,1.8708950118078074
1590500127.3996391,-1.0564317884643324,-3.2286343164317888,8.630969054191485,0.5488888888888889,0.2488888888888889,-0.6222222222222222,-0.03090364970583233,-0.16184660915874446,1.8879878259707445
1590500127.4096391,-1.156964600947691,-3.3002750162594072,8.917720895661061,0.5526053248268243,0.21915740138540477,-0.6266819453477449,-0.0469732227926735,-0.16946988119958226,1.9042744353765426
1590500127.419639,-1.1307015150427229,-3.149429166367488,8.862104545128169,0.5544444444444444,0.20444444444444448,-0.6288888888888889,-0.040659705068315524,-0.16210315633117162,1.9413726991624969
1590500127.429639,-1.12,-3.12,8.721495031433786,0.5544444444444444,0.20444444444444448,-0.6288888888888889,-0.04156080766639985,-0.1544340970386872,1.9739413907756247
1590500127.439639,-1.2768228752978554,-3.2474185861795077,8.778212867355043,0.5544444444444444,0.20444444444444448,-0.6288888888888889,-0.055372442000449565,-0.1495087991787319,2.003422934267873
1590500127.449639,-1.3144166094000542,-3.1725626288498785,8.68535432414985,0.5544444444444444,0.20444444444444448,-0.6288888888888889,-0.03686102142595128,-0.15132095205015128,2.030136035319904
1590500127.459639,-1.42,-3.25,8.8,0.5544444444444444,0.16333333333333333,-0.6144444444444445,-0.03381575425739013,-0.13744467859455345,2.0682151636132806
1590500127.469639,-1.420949440933398,-3.242879192999514,8.787182547399125,0.5544444444444444,0.16333333333333333,-0.6144444444444445,-0.033971106166837066,-0.13848035799086633,2.069924034617197
1590500127.479639,-1.4479646096389827,-3.102450649119687,8.55144317979726,0.5544444444444444,0.16333333333333333,-0.6144444444444445,-0.03882585487783357,-0.1607984092551727,2.105148214659562
1590500127.489639,-1.5691763738218034,-3.139746576560555,8.877782544904855,0.5544444444444444,0.16333333333333333,-0.6144444444444445,-0.06527015959209798,-0.18419144804086815,2.1193874556595502
1590500127.499639,-1.5446621251748678,-3.0302025424244268,8.702634876224074,0.5544444444444444,0.16333333333333333,-0.6144444444444445,-0.03781051312749105,-0.1825077799870813,2.134225188429172
1590500127.509639,-1.604735185496055,-3.0819279838845053,8.943326338761121,0.5544444444444444,0.1161805438979352,-0.6456132374610636,-0.04527872490595412,-0.17903029031914303,2.1439990162155285
1590500127.519639,-1.5881824075623223,-3.0263648151246447,9.008182407562323,0.5544444444444444,0.09777777777777777,-0.6577777777777778,-0.04105503257865499,-0.17845707350522103,2.150013259744519
1590500127.529639,-1.613485229415462,-2.934343180389692,8.953257385292268,0.5544444444444444,0.09777777777777777,-0.6577777777777778,-0.04074091850541368,-0.16528280357652225,2.1590158562419557
1590500127.539639,-1.666153444852075,-2.8706598566187607,8.67307933088755,0.5544444444444444,0.09777777777777777,-0.6577777777777778,-0.03138245006228613,-0.1830436338858711,2.160564172176739
1590500127.549639,-1.69,-2.8331917296771563,8.6389323251655,0.5544444444444444,0.09777777777777777,-0.6577777777777778,-0.030635941286143997,-0.16188503095826934,2.172818453475424
1590500127.559639,-1.7568574675393,-2.83668574675393,8.66325701298428,0.5626159126992477,0.07029193001162107,-0.6763492965386945,-0.041476545510688814,-0.159660286854398,2.1754718653001577
1590500127.569639,-1.9166721934369602,-2.8942880829015545,8.704288082901556,0.5666666666666667,0.05666666666666665,-0.6855555555555556,-0.03495805567369972,-0.15593642694750545,2.173038764316241
1590500127.579639,-2.0071587496923455,-2.9675139059808027,8.883607186807778,0.5666666666666667,0.05666666666666665,-0.6855555555555556,-0.047492914394184425,-0.16857513125129103,2.158205669354854
1590500127.589639,-1.6640268615632858,-2.5567543068672585,8.62090978121589,0.5666666666666667,0.05666666666666665,-0.6855555555555556,-0.03646494431162064,-0.17117542767208221,2.142986693082069
1590500127.599639,-1.804203175817869,-2.6093914291180407,8.895275875263057,0.5666666666666667,0.05666666666666665,-0.6855555555555556,-0.055341516480580145,-0.15864471503138025,2.124729651874251
1590500127.609639,-2.14,-2.88,9.17,0.5544444444444444,0.0033333333333333327,-0.6855555555555556,-0.04908738521234052,-0.17235126363444006,2.0867592869157203
1590500127.619639,-2.142913962389749,-2.8786287235812944,9.165029122982194,0.5544444444444444,0.0033333333333333327,-0.6855555555555556,-0.0490312915675092,-0.17240735727927137,2.08589918436164
1590500127.629639,-2.31,-2.8,8.88,0.5544444444444444,0.0033333333333333327,-0.6855555555555556,-0.04581489286485115,-0.17562375598192942,2.036581070920884
1590500127.639639,-2.31,-2.8,8.88,0.5544444444444444,0.0033333333333333327,-0.6855555555555556,-0.04581489286485115,-0.17562375598192942,2.036581070920884
1590500127.649639,-2.0028480537701068,-2.486170837547718,8.753132891774609,0.5544444444444444,0.0033333333333333327,-0.6855555555555556,7.249901477846682e-05,-0.17271027078322276,2.000890877236727
1590500127.659639,-1.7678436667012842,-2.2030311212656213,8.353905909232527,0.5486354107768584,-0.02571183500459646,-0.6963437609382152,0.002539569764407921,-0.19244302458668194,1.9456534695094043
1590500127.6696389,-2.063301695970126,-2.151019397334163,8.473495669311758,0.5466666666666666,-0.03555555555555556,-0.7,-0.05824307121294085,-0.13398670371397897,1.9035631930839263
1590500127.6796389,-2.2674250617857927,-2.122095823035701,8.713932023392958,0.5466666666666666,-0.03555555555555556,-0.7,-0.033920280974405234,-0.13566799132745458,1.8799347329802356
1590500127.6896389,-2.208546032036195,-2.2093174599547565,9.069406347828073,0.5466666666666666,-0.03555555555555556,-0.7,-0.06281176780697087,-0.11199628912879632,1.8472329323443237
1590500127.6996388,-2.1920428730036723,-2.2359142539926555,9.181614142966948,0.5466666666666666,-0.03555555555555556,-0.7,-0.04136902843558342,-0.14814253405487035,1.8087845061477
1590500127.7096388,-2.0783492355443154,-2.1655661570295437,8.7595997624248,0.5301258126732319,-0.06519125229379281,-0.7130948427448025,-0.024757244143426435,-0.08915494536605706,1.775512372967648
1590500127.7196388,-2.3223465596671127,-2.333710803982761,8.884543022737406,0.52,-0.08333333333333333,-0.7211111111111111,-0.009577880089498902,-0.07828757489264059,1.7023203020651645
1590500127.7296388,-2.3320411170240427,-2.3156012411378253,8.879841737592956,0.52,-0.08333333333333333,-0.7211111111111111,-0.028710260033903198,-0.12934113460322239,1.6363082892107261
1590500127.7396388,-2.5022678951098514,-2.347422631703284,8.80471651311127,0.52,-0.08333333333333333,-0.7211111111111111,-0.044038073057312034,-0.12438846749245494,1.5635850668841975
1590500127.7496388,-2.562704610721123,-2.3751364071474153,8.928659460753032,0.52,-0.08333333333333333,-0.7211111111111111,-0.0331661808853946,-0.10404042232459355,1.5299322446181058
1590500127.7596388,-2.54,-2.29,8.76,0.4922222222222222,-0.1288888888888889,-0.7588888888888888,-0.02617993877991494,-0.08726646259971647,1.4966198335851375
1590500127.7696388,-2.54,-2.29,8.76,0.4922222222222222,-0.1288888888888889,-0.7588888888888888,-0.02617993877991494,-0.08726646259971647,1.4966198335851375
1590500127.7796388,-2.6396295092622686,-2.4228393456830246,8.652068031632544,0.4922222222222222,-0.1288888888888889,-0.7588888888888888,0.003706768495867062,-0.07911554243359412,1.5011481225663166
1590500127.7896388,-2.651736001744482,-2.507847987788627,8.869655949410026,0.4922222222222222,-0.1288888888888889,-0.7588888888888888,-0.030748329533804776,-0.10359139423973533,1.5074827617077897
1590500127.7996387,-2.6592714137186424,-2.5107285862813575,8.827285862813575,0.4922222222222222,-0.1288888888888889,-0.7588888888888888,-0.03674152229948362,-0.10807172390149007,1.5212609015445426
1590500127.8096387,-2.654322795474605,-2.481596325122362,8.723408087940303,0.4907832517585386,-0.13403888844312498,-0.7617668298162561,-0.03366704836800062,-0.10705012257404219,1.5373024477042103
1590500127.8196387,-2.5128377852467714,-2.143918981071997,8.902432336812312,0.4711111111111111,-0.20444444444444448,-0.8011111111111111,-0.015021046689224236,-0.11486152903335795,1.5493924631428022
1590500127.8296387,-2.475446899322119,-1.9847815716796384,8.820893798644239,0.4711111111111111,-0.20444444444444448,-0.8011111111111111,-0.01763473248815919,-0.09193364632552953,1.5080020763006645
1590500127.8396387,-2.325578000862228,-1.8237510008006406,8.700962000369525,0.4711111111111111,-0.20444444444444448,-0.8011111111111111,-0.018449766473344703,-0.08765447104858685,1.4071620016512547
1590500127.8496387,-2.330121288163948,-1.777409033877039,8.91590966122961,0.4711111111111111,-0.20444444444444448,-0.8011111111111111,-0.015810431103059255,-0.054948034410144564,1.2818415940205259
1590500127.8596387,-2.067472424188686,-1.5936586274162086,8.642660932789502,0.450923883273236,-0.23947522216311012,-0.7785489152923095,-0.0018648196180783977,-0.04305032645912467,1.1564693340797467
1590500127.8696387,-2.1360931783071795,-1.5547849418651922,8.837401414749166,0.43333333333333335,-0.27,-0.7588888888888888,-0.008964165150574585,-0.06341089184296478,0.9455737013776796
1590500127.8796387,-2.3412137362741205,-1.5638152747065828,8.882775604316683,0.43333333333333335,-0.27,-0.7588888888888888,-0.03461647200533253,-0.07458634590496473,0.7458639744579662
1590500127.8896387,-2.1648673349056606,-1.3917810288915096,8.845696860259434,0.43333333333333335,-0.27,-0.7588888888888888,-0.01879994756171921,0.012739999873727592,0.5387123856287949
1590500127.8996387,-1.939719565686345,-1.3971165600057525,8.981349680017257,0.43333333333333335,-0.27,-0.7588888888888888,-0.025236335248352962,-0.034369287933386214,0.40942102265355657
1590500127.9096386,-1.8966921706320092,-1.4462072459211124,9.11889739021067,0.4236089857806659,-0.2833259577573591,-0.7491645413362215,-0.032461543272335136,-0.07790002081947964,0.2772430867058509
1590500127.9196386,-2.25081072245832,-1.49385134030729,9.0614865969271,0.4033333333333333,-0.3111111111111111,-0.7288888888888889,-0.0029285543645806295,0.028305035116770072,0.13348185867561416
1590500127.9296386,-2.2428935609112886,-1.4985744634092741,8.82573401216028,0.4033333333333333,-0.3111111111111111,-0.7288888888888889,0.004835622253855525,0.041782271016336386,-0.0018498016104322307
1590500127.9396386,-2.432727316730802,-1.51195454875481,8.960272755875021,0.4033333333333333,-0.3111111111111111,-0.7288888888888889,-0.013516385779484875,0.008756399310429635,-0.12755779536783154
1590500127.9496386,-2.366763962952568,-1.5066741509963515,9.476415941622228,0.4033333333333333,-0.3111111111111111,-0.7288888888888889,-0.0145448186401464,0.0178160863670548,-0.20431998390058653
1590500127.9596386,-2.1759640198754835,-1.4583856079501933,9.153811104346289,0.41084704300899283,-0.3174688654520538,-0.7444942859075663,-0.014180800172453925,0.028757831767070828,-0.26194127699671554
1590500127.9696386,-2.197002338443265,-1.4850012991351471,8.728001558962177,0.4177777777777778,-0.3233333333333333,-0.7588888888888888,-0.002835933292633319,0.0771770572867593,-0.3196139861261053
1590500127.9796386,-2.5528618725351766,-1.7416252008374313,8.817491114465163,0.4177777777777778,-0.3233333333333333,-0.7588888888888888,0.00758955647696132,0.08867722933984275,-0.3832361684764979
1590500127.9896386,-2.684668460458587,-1.8859075807206365,9.072103182030885,0.4177777777777778,-0.3233333333333333,-0.7588888888888888,-0.003200161640011712,0.02057818836731154,-0.46242093234612086
1590500127.9996386,-2.5291918302298275,-1.834844405301124,8.805215987250461,0.4177777777777778,-0.3233333333333333,-0.7588888888888888,-0.005799693457029995,0.015596903848070236,-0.5451514215445288
1590500128.0096385,-2.5153246516156513,-1.794556279032029,8.840530233878983,0.3760425836900005,-0.3457130750905473,-0.7346945734756847,0.00939129209547802,0.03725587949820783,-0.6294990636849263
1590500128.0196385,-2.6901222343126587,-1.726405875952122,8.759755531374683,0.3411111111111111,-0.3644444444444445,-0.7144444444444444,0.02875365845966148,0.0879465601811576,-0.7576979855476798
1590500128.0296385,-2.3165953229346106,-1.5881572551148029,8.939606862212992,0.3411111111111111,-0.3644444444444445,-0.7144444444444444,0.001133715462479444,0.02955657963593443,-0.9078445815661145
1590500128.0396385,-2.230205562273277,-1.5195888754534461,8.417303506650544,0.3411111111111111,-0.3644444444444445,-0.7144444444444444,0.010352999772448225,0.054255311458798944,-0.9913910704509598
1590500128.0496385,-2.2650698738861568,-1.591922870915908,8.552009543750305,0.3411111111111111,-0.3644444444444445,-0.7144444444444444,0.01580942428760737,0.07800202300708785,-1.0450921102175172
1590500128.0596385,-2.22468579001368,-1.7044177496580026,8.98937158002736,0.34976791685666514,-0.3459765921872625,-0.6922253096975224,0.001800579607291089,0.10220942668757405,-1.0959431657691932
1590500128.0696385,-2.2756339547426427,-1.7870423261812638,8.923803024973619,0.3744444444444445,-0.2933333333333333,-0.6288888888888889,0.0017053999085431155,0.10617928645084665,-1.1524396875154637
1590500128.0796385,-2.2705668556185397,-1.7470445704123596,8.764542625319551,0.3744444444444445,-0.2933333333333333,-0.6288888888888889,0.01855649017359843,0.08829545902641953,-1.167188937271208
1590500128.0896385,-2.1751642843562577,-1.710985706137546,8.885678483156749,0.3744444444444445,-0.2933333333333333,-0.6288888888888889,0.011292437426613153,0.051945374306063094,-1.1688789453748192
1590500128.0996385,-2.2941574585635363,-1.7360635359116021,9.022859116022099,0.3744444444444445,-0.2933333333333333,-0.6288888888888889,0.0082625911757052,0.06775204230290141,-1.1545735696719774
1590500128.1096385,-2.3554404343848674,-1.7541178032873963,8.707793844247057,0.4139708442765663,-0.2578265673824443,-0.6288888888888889,0.04247843850346795,0.11102379584181747,-1.1143156253270767
1590500128.1196384,-1.9707428013135397,-1.739074280131354,8.710925719868646,0.44,-0.2344444444444445,-0.6288888888888889,0.005919149138706177,0.06673266181849137,-1.106450856426682
1590500128.1296384,-1.872315753346299,-1.6531575334629904,8.31273492735385,0.44,-0.2344444444444445,-0.6288888888888889,-0.030187397242315027,0.07751794712805349,-1.1038403591178418
1590500128.1396384,-2.037292104760084,-1.7896879181800802,8.600626075320207,0.44,-0.2344444444444445,-0.6288888888888889,0.00298852392499567,0.12494568883327023,-1.0804337429511675
1590500128.1496384,-2.326114965510347,-2.025063081075677,9.227755873238028,0.44,-0.2344444444444445,-0.6288888888888889,0.01875219139531221,0.07379708518631987,-1.0747697141526573
1590500128.1596384,-1.9626879377431907,-1.885055252918288,9.005265369649806,0.4597935149156939,-0.20887782101167318,-0.6445587548638133,0.018296755139000476,0.006320536711405148,-1.0852752704552342
1590500128.1696384,-1.9920028618906942,-1.9087707717872968,9.125234951994091,0.4666666666666667,-0.2,-0.65,0.035250868435165374,0.07360700945098708,-1.0818690920113783
1590500128.1796384,-2.0053932826800205,-1.9646106026592989,9.353049127957176,0.4666666666666667,-0.2,-0.65,0.019387299142562313,0.08810709549120085,-1.0886474256323708
1590500128.1896384,-1.7315399212316505,-2.0558378088077336,9.95844432509846,0.4666666666666667,-0.2,-0.65,-0.0833609525177945,0.042047757772631464,-1.1379303014299742
1590500128.1996384,-1.5704819802627992,-1.713943078349054,8.27477545753594,0.4666666666666667,-0.2,-0.65,0.058964614794263834,0.07092911913283691,-1.1510642367168022
1590500128.2096384,-1.8951320559295701,-1.9317149344699838,8.44782695295383,0.4756107061130365,-0.19333262513997884,-0.6477233354136513,0.10197757782892004,0.1742382622692609,-1.1644762653822653
1590500128.2196383,-2.1251235271759787,-2.2200494108703914,9.075222348916762,0.5277777777777778,-0.15444444444444444,-0.6344444444444445,-0.047050214155785475,0.053727458455331424,-1.257606412393529
1590500128.2296383,-2.0233102561566607,-2.17443675205222,8.979930768469982,0.5277777777777778,-0.15444444444444444,-0.6344444444444445,-0.024195815654517623,0.05332782670240314,-1.280512457010916
1590500128.2396383,-1.8905907662082513,-2.181248330058939,9.03248330058939,0.5277777777777778,-0.15444444444444444,-0.6344444444444445,0.015273088253441734,0.06531513256277806,-1.2886811264833078
1590500128.2496383,-1.6928445458469508,-2.116627612998705,8.981583523463033,0.5277777777777778,-0.15444444444444444,-0.6344444444444445,0.02016277977096011,0.053965753745395674,-1.308699427461494
1590500128.2596383,-1.8182482002056908,-2.1617194225421854,9.256926256046928,0.5243966827071616,-0.15202937653686138,-0.6383085530965773,0.011667376965635589,0.055010438884106394,-1.3385900400509365
1590500128.2696383,-1.7241976943449135,-2.257916342109363,9.2707680324038,0.52,-0.14888888888888888,-0.6433333333333333,0.01763164224828572,0.10494704693638963,-1.3650838925365263
1590500128.2796383,-1.5797228958697573,-2.179273400635422,8.403220536536763,0.52,-0.14888888888888888,-0.6433333333333333,0.05543220072588659,0.15272369208257583,-1.3980373422645191
1590500128.2896383,-1.7577517578911501,-2.2716946999969023,8.474815847349998,0.52,-0.14888888888888888,-0.6433333333333333,0.058535136070065066,0.1374116999109207,-1.4563378244820149
1590500128.2996383,-2.0158615559458624,-2.4434972621138544,9.027832420704618,0.52,-0.14888888888888888,-0.6433333333333333,-0.006270783714111508,0.07802400744158078,-1.535851986996033
1590500128.3096383,-1.9138099744487556,-2.348435696034825,8.830272546607363,0.5487225429271422,-0.1237566638276395,-0.6339985068820122,-0.0009499219135546896,0.11268198366936491,-1.5943790002688958
1590500128.3196383,-1.6822650513235038,-2.20014725073528,8.542412302058784,0.5644444444444444,-0.11,-0.6288888888888889,0.02181661564992912,0.11372560527735032,-1.6326944774994756
1590500128.3296382,-1.6905414487719232,-2.284839245596481,8.679678491192963,0.5644444444444444,-0.11,-0.6288888888888889,0.017863046528501736,0.0856625177358388,-1.6620754214147964
1590500128.3396382,-1.8133793533154063,-2.4767587066308128,9.093931593100283,0.5644444444444444,-0.11,-0.6288888888888889,0.0046265333647077,0.08973426423912367,-1.6765466726813865
1590500128.3496382,-1.8596916480408703,-2.5693832960817407,9.145269807964238,0.5644444444444444,-0.11,-0.6288888888888889,0.01616064585212979,0.09139129866404042,-1.665174211968894
1590500128.3596382,-1.8958138799266147,-2.666744480293541,9.151861200733853,0.6039800229153047,-0.11790711569417206,-0.6409821246564462,0.029756624338592035,0.0932794542218626,-1.6523801455269942
1590500128.3696382,-1.651420224420689,-2.5325373481176547,8.790099594980413,0.6588888888888889,-0.1288888888888889,-0.6577777777777778,0.013040139260593048,0.13132596603093272,-1.6306203304111866
1590500128.3796382,-1.516041261503298,-2.5648170499428593,8.366762034605129,0.6588888888888889,-0.1288888888888889,-0.6577777777777778,0.026211147864796197,0.0993442253558447,-1.6071706573817113
1590500128.3896382,-1.766174655554934,-2.8895790219438076,8.617879448887894,0.6588888888888889,-0.1288888888888889,-0.6577777777777778,0.03486009401375189,0.10427922925915944,-1.5829343690368725
1590500128.3996382,-2.0143884378927344,-3.153309330525458,9.057841785265445,0.6588888888888889,-0.1288888888888889,-0.6577777777777778,0.032002939553568796,0.12944001625590668,-1.5579339272111992
1590500128.4096382,-1.7752428866901449,-2.9985382078372185,8.807334115937168,0.8010097452810853,-0.19797541630176207,-0.6751481046701573,0.046390034904121455,0.13365649750383793,-1.5404249611327379
1590500128.4196382,-1.4427778198048264,-2.848890233754444,8.351112792193057,1.0588888888888892,-0.3233333333333333,-0.7066666666666667,0.0723585794387932,0.15841298949797653,-1.5372230160535798
1590500128.4296381,-1.4425451876019575,-3.0911822185970634,8.770459216965742,1.0588888888888892,-0.3233333333333333,-0.7066666666666667,0.06346535349360458,0.15043446238409566,-1.57076755235158
1590500128.4396381,-1.4052428216944346,-3.0852428216944343,8.907063452676356,1.0588888888888892,-0.3233333333333333,-0.7066666666666667,0.008726646259971648,0.09794709188347796,-1.6248480167757042
1590500128.4496381,-1.1999096603528736,-2.8670138005041053,8.612306156572085,1.0588888888888892,-0.3233333333333333,-0.7066666666666667,0.010602273045277874,0.08608174158815585,-1.7047216054230532
1590500128.459638,-1.2156704828536598,-3.0174990724545503,9.065792388827052,1.0420190455999012,-0.38968805027001874,-0.7465919624506046,0.016402355373950926,0.12503975232360848,-1.776943195509449
1590500128.469638,-1.2543081895100658,-3.22,8.983543102093947,1.0255555555555556,-0.4544444444444444,-0.7855555555555556,0.01963495408493621,0.13635384781205698,-1.8195057452040888
1590500128.479638,-1.1940518134715026,-3.214894645941278,8.625364421416235,1.0255555555555556,-0.4544444444444444,-0.7855555555555556,0.04413889448124348,0.14916272574649034,-1.832314623138522
1590500128.489638,-1.184842377842828,-3.299594685881558,8.638964197252871,1.0255555555555556,-0.4544444444444444,-0.7855555555555556,0.049170898489991684,0.1370097954825494,-1.8826019914878365
1590500128.499638,-1.2516079188797682,-3.4622466717251843,8.644229150858797,1.0255555555555556,-0.4544444444444444,-0.7855555555555556,0.03103581749396794,0.1103853482608663,-1.9347445643301397
1590500128.509638,-1.2687280744732974,-3.5251827535521802,8.57562861342479,0.8955604551145953,-0.29569285208775653,-0.7603443845609451,0.00378920729139803,0.13196978767356513,-1.960391163833701
1590500128.519638,-1.1731566443949517,-3.409781737193764,8.99346844840386,0.6588888888888889,-0.006666666666666667,-0.7144444444444444,-0.014443506561349143,0.16504617962806473,-1.988986674298454
1590500128.529638,-1.0927229364466453,-3.3790764548221506,8.949108254213419,0.6588888888888889,-0.006666666666666667,-0.7144444444444444,0.043634098493729755,0.1570778982917466,-2.035685656083091
1590500128.539638,-1.12,-3.489641705481906,8.794169353875551,0.6588888888888889,-0.006666666666666667,-0.7144444444444444,0.038536173670049176,0.16263149626435605,-2.0693895035957746
1590500128.549638,-1.12,-3.5272115729129343,8.70650632986982,0.6588888888888889,-0.006666666666666667,-0.7144444444444444,0.03921921313485045,0.1523859042923369,-2.0987602005822295
1590500128.559638,-1.1179771704119497,-3.5752391267494206,8.838451091563224,0.6394183561775718,0.027710992651752496,-0.7047091780887859,0.0472043978784382,0.16015731693775434,-2.153143929142301
1590500128.569638,-0.9638346910391417,-3.4448181998807867,8.933785018875422,0.5877777777777777,0.11888888888888888,-0.6788888888888889,0.049319075676574314,0.15856622285178115,-2.186951649979833
1590500128.579638,-0.9002273860576443,-3.6070456434294074,8.591193776802633,0.5877777777777777,0.11888888888888888,-0.6788888888888889,0.053425904371207436,0.14880547757685952,-2.230073404623419
1590500128.589638,-0.963530902945437,-3.7345103009818126,8.949613310799936,0.5877777777777777,0.11888888888888888,-0.6788888888888889,0.04463851447270212,0.1797304362829575,-2.2505120281858146
1590500128.599638,-0.8122070005098535,-3.7501933009687214,8.42149010219237,0.5877777777777777,0.11888888888888888,-0.6788888888888889,0.04777689388522749,0.17717499371835577,-2.2905460685626378
1590500128.609638,-0.793960396039604,-3.79409900990099,8.60409900990099,0.5872145214521451,0.150994499449945,-0.6969130913091309,0.04626202548262692,0.17227566150099968,-2.3198104234589385
1590500128.619638,-0.7469222955815135,-3.8107668867445406,8.710507872016251,0.5866666666666667,0.18222222222222226,-0.7144444444444444,0.04318559733731018,0.17521794920276298,-2.330615921048997
1590500128.629638,-0.7642909310194647,-3.9634108345338204,8.882298234446715,0.5866666666666667,0.18222222222222226,-0.7144444444444444,0.047653835709677496,0.18235676454289843,-2.3317281450132628
1590500128.639638,-0.7151386846157839,-4.072569342307892,8.736839409617083,0.5866666666666667,0.18222222222222226,-0.7144444444444444,0.050553239212483086,0.17805543302535307,-2.332631748774251
1590500128.649638,-0.6847987787954481,-4.051331297992413,8.647337404015174,0.5866666666666667,0.18222222222222226,-0.7144444444444444,0.055777591990399306,0.18046664501795864,-2.325941672448604
1590500128.659638,0.7210427546752768,-5.286070383773593,7.148853663293389,0.5531338259619621,0.19753069297871778,-0.6841919903304176,-0.29511491103352194,0.5316172694630547,-3.4577015009284713
1590500128.669638,-4.1478526078443005,-11.601327360113926,2.758403845012757,0.4844444444444445,0.2288888888888889,-0.6222222222222222,-1.6999864720902291,1.265422220187871,-10.599887185201982
1590500128.679638,-8.97955790589539,-10.423546148842364,-0.323573373165972,0.4844444444444445,0.2288888888888889,-0.6222222222222222,-3.745171766588886,1.350177634110062,-14.491524241984695
1590500128.689638,2.1443739038933707,-0.2714047702560505,-0.4961364433532095,0.4844444444444445,0.2288888888888889,-0.6222222222222222,-4.1005073297090515,0.07587108792588526,-4.570831399125652
1590500128.699638,-0.11737731712178592,-0.36787402830376714,-0.1130647797488539,0.4844444444444445,0.2288888888888889,-0.6222222222222222,-3.78666940649772,-1.2240542047007652,-1.5538260264017696
1590500128.7096379,-0.12721821984661863,-0.2927112866992021,0.8851588039352389,0.4648239385097392,0.29034723836083354,-0.6253961275940128,-3.6684302687848542,-0.8862452326348463,-1.3547916571104766
1590500128.7196379,0.7477736448525708,-0.46688442016350884,4.302455732496416,0.4088888888888889,0.4655555555555556,-0.6344444444444445,-2.9909357314585208,-0.17462443004828815,-1.227170090969942
1590500128.7296379,0.25092079689018465,-0.4677283770651118,2.5578644314868804,0.4088888888888889,0.4655555555555556,-0.6344444444444445,-1.4631793505590434,1.5842997305922144,-0.9653325031202195
1590500128.7396379,0.16104553188041804,-0.333135582921494,1.5947824677955116,0.4088888888888889,0.4655555555555556,-0.6344444444444445,-0.07312183049805054,1.5197732980189225,-0.7953134290051626
1590500128.7496378,0.09417657045840408,-0.129028284506737,0.5952234223169454,0.4088888888888889,0.4655555555555556,-0.6344444444444445,1.661538174770281,0.6184212992592866,-0.7304512716641821
1590500128.7596378,0.8062818336162988,-1.015372069501138,5.1860296933135865,0.4088888888888889,0.4655555555555556,-0.6344444444444445,2.7606082110494228,-0.040194354059868376,-0.6494671637278241
1590500128.7696378,1.0073362902944156,-2.0190399189746095,9.148282052177557,0.35,0.6177777777777778,-0.5433333333333333,4.392459660968344,0.23550774867856886,-0.4853149696173043
1590500128.7796378,1.0558430002161538,-1.6955058001296923,5.859554002449745,0.35,0.6177777777777778,-0.5433333333333333,5.4104843699336636,0.09008545731661254,-0.4367857713312874
1590500128.7896378,2.563996680290564,-0.7261800139213621,11.152678434382196,0.35,0.6177777777777778,-0.5433333333333333,5.840071558008158,-0.042736292676116755,-0.2673094567914534
1590500128.7996378,4.033118392311053,2.2285647298674824,5.083753021697976,0.35,0.6177777777777778,-0.5433333333333333,4.180682537880879,-0.3372985391459958,-0.007944876256625495
1590500128.8096378,-0.5929907462098838,0.1250408544989171,-1.7280025595589683,0.35230010281989016,0.607427315088272,-0.5617341558924548,0.6454354891159508,-0.4391983479221941,0.4927413548525846
1590500128.8196378,0.3052776718397043,0.17001584181652832,1.094156716636841,0.3588888888888889,0.5777777777777777,-0.6144444444444445,-0.24930361989273092,0.10966630326243633,0.8293106066718798
1590500128.8296378,1.6108594164456234,-3.0255837754199817,12.961902961980549,0.3588888888888889,0.5777777777777777,-0.6144444444444445,-1.2558365642841025,0.43076041976888235,1.1258374568064164
1590500128.8396378,1.6585870407882561,-4.252433040738239,15.422730637457173,0.3588888888888889,0.5777777777777777,-0.6144444444444445,-1.1752853421135185,-0.016388186433670515,1.2051094309942108
1590500128.8496377,0.7025604243714745,-2.0582001568979043,6.778406365572117,0.3588888888888889,0.5777777777777777,-0.6144444444444445,-0.03679770069434127,-0.3002578864079225,1.2330652713878527
1590500128.8596377,1.0263110093775383,-3.983130768662778,13.41267961308425,0.36054903312084147,0.5586861191103234,-0.6268955261840885,0.43058090508013364,0.3372684788378608,1.4407996310421556
1590500128.8696377,0.02,-1.58,3.68,0.3655555555555556,0.5011111111111111,-0.6644444444444444,0.4494222823885398,0.6010477611555471,1.5849771269673507
1590500128.8796377,-0.07600283375314862,-2.2760205447103274,6.384079817380353,0.3655555555555556,0.5011111111111111,-0.6644444444444444,-0.1440071797787978,-0.2419711512762882,1.5282522519072375
1590500128.8896377,0.1900294544867657,-2.7400294544867654,8.57707714654616,0.3655555555555556,0.5011111111111111,-0.6644444444444444,-0.3913106315750704,-0.6327840532135415,1.5797813763603894
1590500128.8996377,0.42921200493353434,-4.140267233109497,13.55291489653282,0.3655555555555556,0.5011111111111111,-0.6644444444444444,-0.022851686547284946,0.08031934897436697,1.8698270234243402
1590500128.9096377,0.09254468568296165,-3.212379255662797,8.962743397482331,0.3655555555555556,0.5011111111111111,-0.6644444444444444,0.35335263449080345,0.13585427255618004,1.976418247718465
1590500128.9196377,-0.045294541524049714,-2.1455863808322824,5.337198702936408,0.42777777777777776,0.4955555555555556,-0.6433333333333333,-0.05152510019286089,-0.18237704199729118,2.0479545195244766
1590500128.9296377,0.19649540623311115,-3.2034174022698614,9.43251594307332,0.42777777777777776,0.4955555555555556,-0.6433333333333333,-0.4009963914258912,-0.3191983494139964,2.0858688577242868
1590500128.9396377,0.1404363463267573,-3.251739038451367,9.254789231501562,0.42777777777777776,0.4955555555555556,-0.6433333333333333,-0.04453759330946483,-0.19473813217769942,2.221926415609717
1590500128.9496377,0.014727878563495,-3.259133654202147,8.722376897445391,0.42777777777777776,0.4955555555555556,-0.6433333333333333,0.21600307257813203,-0.10439585793803735,2.3050090428122636
1590500128.9596376,-0.1553797694753577,-3.2253831478537363,7.35722853736089,0.43147531354884294,0.4869279720897368,-0.6472362877583465,-0.12984740638280318,-0.17067469660903709,1.7146935556158964
1590500128.9696376,-1.2727546961761114,-5.245655889418344,7.845680699405348,0.4477777777777778,0.4488888888888889,-0.6644444444444444,-0.6597289844132433,-0.40380985026002963,-1.2338029012365064
1590500128.9796376,-12.642198839271874,-14.526188024178964,7.275852032996366,0.4477777777777778,0.4488888888888889,-0.6644444444444444,-0.16487074975819965,0.34677143690323187,-2.872880907427618
1590500128.9896376,0.9016399506781752,-0.0782200623776021,4.736506128962066,0.4477777777777778,0.4488888888888889,-0.6644444444444444,0.4767460625133848,0.047595177439954714,-0.7567624114124918
1590500128.9996376,-0.7061213700099609,0.46350279672055783,1.6419303118534978,0.4477777777777778,0.4488888888888889,-0.6644444444444444,0.9942897298851509,0.2742520850029799,-0.16339969777936472
1590500129.0096376,0.42392699440682957,-1.263591404180159,6.493275439112943,0.44896837078467927,0.44928575322452274,-0.6606742332559229,0.1322440992207557,-0.11180988760928617,0.018042005041161085
1590500129.0196376,0.22072676461455487,-2.3347742241252516,9.943104806419454,0.4544444444444444,0.4511111111111111,-0.6433333333333333,-0.7097664506883609,-0.089364532252125,0.2691437992665789
1590500129.0296376,-0.10144241612054461,-2.6706527317001423,11.39629345143735,0.4544444444444444,0.4511111111111111,-0.6433333333333333,-0.5729322658123941,-0.06468951530727851,0.3880325172735666
1590500129.0396376,-1.4592967157189285,-6.175982559195785,8.393603625426433,0.4544444444444444,0.4511111111111111,-0.6433333333333333,0.23581073360325006,0.056651746968723216,0.6777862611150236
1590500129.0496376,-1.317482282830452,-6.596646623000107,6.021303285729625,0.4544444444444444,0.4511111111111111,-0.6433333333333333,0.12188274117612002,0.009476746155935066,1.0716471006435893
1590500129.0596375,2.118215672055624,-4.9540681653372,9.427248219084587,0.456686051747264,0.45021446818998323,-0.6404939640830951,-0.1848230661112266,-0.26356115186888796,1.4282061356981026
1590500129.0696375,-1.7002872010804797,-0.6128225550170812,9.807751847143878,0.4711111111111111,0.4444444444444444,-0.6222222222222222,-0.09305700005730562,-0.10195903114257931,0.22611497810044018
1590500129.0796375,-2.016850718995789,-2.8537590371017716,8.199942400889807,0.4711111111111111,0.4444444444444444,-0.6222222222222222,0.23226817974465447,0.2515367647874835,-0.5363091164633714
1590500129.0896375,-2.0485979319745984,-4.046279715397148,6.803915117864149,0.4711111111111111,0.4444444444444444,-0.6222222222222222,0.07235827265521917,0.08429415997815468,-0.11548018042590145
1590500129.0996375,-0.6819676164511088,-3.453608405093593,9.376805864946636,0.4711111111111111,0.4444444444444444,-0.6222222222222222,-0.13756541456140292,-0.143883760909478,0.2944794841022118
1590500129.1096375,-0.2977012019399733,-4.6904979967667115,8.252950376045547,0.468233288817038,0.4428948478245589,-0.6293060924845559,-0.09001232451003871,-0.09700450612207026,0.15126599608452093
1590500129.1196375,-0.3828771329731411,-4.129043417421386,8.869690986123528,0.4566666666666666,0.43666666666666665,-0.6577777777777778,0.0489132050570758,0.047590402602365786,-0.09615685855774858
1590500129.1296375,-0.007259387463315524,-4.148927496425615,8.203372902400481,0.4566666666666666,0.43666666666666665,-0.6577777777777778,0.04712370100779002,0.03720523859620715,0.0075348301083604146
1590500129.1396375,-0.03882158175934984,-4.535564376552036,8.82672623974716,0.4566666666666666,0.43666666666666665,-0.6577777777777778,0.0006445333211048329,-0.004970302452822012,0.01183845674601645
1590500129.1496375,-0.0105928161980764,-4.36,8.365998490662983,0.4566666666666666,0.43666666666666665,-0.6577777777777778,-0.005755153077484955,-0.00461582263319668,-0.0013756633935685246
1590500129.1596375,0.09716228584273993,-4.36,9.093345429438495,0.4566666666666666,0.43666666666666665,-0.6577777777777778,-0.0006126651028588049,-0.008289028329358215,0.0008282600241283967
1590500129.1696374,-0.0768271818531334,-4.383654363706267,8.557422145328719,0.4888888888888889,0.4311111111111111,-0.6644444444444444,0.0008096304596729746,0.0069436139371021055,0.0005747726210731999
1590500129.1796374,-0.03505073750191773,-4.344644837486576,8.618235693777807,0.4888888888888889,0.4311111111111111,-0.6644444444444444,0.009332942283030585,-0.0002810095999619379,0.0016417807766365665
1590500129.1896374,-0.016240486310171,-4.4199238904813685,8.480829544331323,0.4888888888888889,0.4311111111111111,-0.6644444444444444,-0.006061000640918148,0.0015665125759805657,0.0
1590500129.1996374,-0.00386610664926072,-4.304175724380623,8.795205040156654,0.4888888888888889,0.4311111111111111,-0.6644444444444444,0.0030643686323398468,-0.0008096795730679345,-0.00014057560471426078
1590500129.2096374,-0.02172077645656554,-4.369642847007407,8.63451301189091,0.4888888888888889,0.4311111111111111,-0.6644444444444444,-0.007972271315360446,0.0004887486560732767,-0.0007897897192848663
1590500129.2196374,-0.038479022956010404,-4.366083908175959,8.721101436164197,0.47758352494754175,0.4254584291404376,-0.6390073755764133,0.0063333070264540384,-0.0026088409158676407,-0.00016591285790543175
1590500129.2296374,-0.031369441978006965,-4.403152790109965,8.55149716549416,0.4755555555555556,0.4244444444444445,-0.6344444444444445,-0.0014798969901459666,0.0004932989967153223,-0.0009414478360511726
1590500129.2396374,-0.009163946682226802,-4.3658523732244126,8.721639466822268,0.4755555555555556,0.4244444444444445,-0.6344444444444445,0.009357920243744555,-0.0009084322435293967,9.119926948352967e-05
1590500129.2496374,-0.001515836691526412,-4.419389143159315,8.645158366915265,0.4755555555555556,0.4244444444444445,-0.6344444444444445,-0.004824829226072377,0.0007601265176255369,0.0009254786500609964
1590500129.2596374,-0.009230895915678524,-4.374614624505929,8.722308959156786,0.4755555555555556,0.4244444444444445,-0.6344444444444445,0.005454333561820634,0.001090830782496456,8.389624101216137e-05
1590500129.2696373,-0.01710337192842365,-4.398413487713695,8.616346049145221,0.46213807524631084,0.42918002573006026,-0.6454941341108813,-0.00275330741587614,0.0003159731065918829,-0.0015497153518091462
1590500129.2796373,-0.01094640741515088,-4.337571259321207,8.760125444281831,0.4566666666666666,0.4311111111111111,-0.65,0.005306140285503354,0.001975187496747015,0.0007811196801276107
1590500129.2896373,-0.03364164172208048,-4.369402736203467,8.590866866223354,0.4566666666666666,0.4311111111111111,-0.65,-0.0011917244667806366,0.003041295916299509,0.00023119643118985902
1590500129.2996373,-0.01726097993930255,-4.353695100303487,8.733979309423374,0.4566666666666666,0.4311111111111111,-0.65,0.0027200290621395757,0.0,0.0020322711951887076
1590500129.3096373,-0.0012494512416254683,-4.433752743791873,8.581869786795442,0.4566666666666666,0.4311111111111111,-0.65,-0.006886198545898778,0.0,0.00115897777627613
1590500129.3196373,-0.011290924977299594,-4.4287090750227005,8.668381675204303,0.4955555555555556,0.4311111111111111,-0.65,0.0021459477849838197,-0.0024632977056192992,-0.0019000254243665248
1590500129.3296373,-0.018476759923932225,-4.421523240076068,8.603709160684609,0.4955555555555556,0.4311111111111111,-0.65,-0.004124876181196701,-0.0040310036971644295,-0.0003323194328213946
1590500129.3396373,-0.023005726363390596,-4.317051537270515,8.65046277863796,0.4955555555555556,0.4311111111111111,-0.65,0.005832509114954016,0.00016393694204737958,0.0009268938404490764
1590500129.3496373,-0.03611544544016869,-4.458346336320506,8.562012475839044,0.4955555555555556,0.4311111111111111,-0.65,-0.0032333520126122325,0.000949584392824757,-0.0001412463896716989
1590500129.3596373,-0.014005271481286247,-4.392015814443859,8.687303461606046,0.4955555555555556,0.4311111111111111,-0.65,0.003198236883574568,0.000145635780801407,-0.000945195001695049
1590500129.3696373,-0.02419860267063541,-4.443893712017859,8.653205589317459,0.47268002903064293,0.4263782435542327,-0.6452671324431215,-0.00260639965771865,0.002323240929234825,-0.00031641713941818115
1590500129.3796372,-0.028154467106032834,-4.2998428421011585,8.74708126974223,0.4633333333333333,0.4244444444444445,-0.6433333333333333,0.004027795781510965,0.0032053868777943964,0.001090830782496456
1590500129.3896372,-0.003619701283001212,-4.43069492649066,8.575337908981009,0.4633333333333333,0.4244444444444445,-0.6433333333333333,-0.00043275051867318337,0.0023132776177575663,0.001090830782496456
1590500129.3996372,-0.010948258979280092,-4.338534330813521,8.66431044612432,0.4633333333333333,0.4244444444444445,-0.6433333333333333,0.006291108367784582,-0.001090830782496456,0.0018713445396796942
1590500129.4096372,-0.01916239081900435,-4.412461517371039,8.615025655085974,0.4633333333333333,0.4244444444444445,-0.6433333333333333,-0.005357187853147521,-0.001090830782496456,-0.0008167238189969455
1590500129.4196372,-0.029081811667613845,-4.342754564997159,8.744490870005682,0.4633333333333333,0.4311111111111111,-0.6433333333333333,-0.00020031761941918067,0.001931264540718936,-0.0009405925679320705
1590500129.4296372,-0.009454232565762518,-4.397271162828813,8.628362697697288,0.4633333333333333,0.4311111111111111,-0.6433333333333333,-0.00400611917957561,-0.003272492347489368,0.002003059589787805
1590500129.4396372,-0.002580021306236171,-4.362900106531181,8.607740063918708,0.4633333333333333,0.4311111111111111,-0.6433333333333333,0.0004930415687894336,-0.003272492347489368,-0.0002465207843947168
1590500129.4496372,-0.009923903663607124,-4.399543421981643,8.581065348709501,0.4633333333333333,0.4311111111111111,-0.6433333333333333,-0.0010659283146446895,0.0010825299598792005,-1.660164523451106e-05
1590500129.4596372,-0.00169785047462148,-4.350187102847729,8.6962300933553,0.4633333333333333,0.4311111111111111,-0.6433333333333333,0.0016260412964549137,0.00018520675617933273,-0.0018112480526342465
1590500129.4696372,-0.02,-4.37,8.68,0.4833333333333333,0.4444444444444444,-0.65,-0.005355073207438512,0.002181661564992912,0.0
1590500129.4796371,-0.02,-4.37,8.68,0.4833333333333333,0.4444444444444444,-0.65,-8.12889286939027e-05,0.002181661564992912,0.0
1590500129.4896371,-0.002276054295361327,-4.397723945704639,8.562518298624488,0.4833333333333333,0.4444444444444444,-0.65,-0.00034599375609243124,0.0020575220605922413,0.0012149702868971268
1590500129.4996371,-0.019448785228377067,-4.377795140913508,8.662204859086492,0.4833333333333333,0.4444444444444444,-0.65,0.005093384688090449,0.0010307025784311507,0.0020012769527969964
1590500129.509637,-0.011296598639455783,-4.345186394557823,8.694813605442176,0.4833333333333333,0.4444444444444444,-0.65,-0.00024220895741962171,0.00014143697084613904,-0.0006665198699580387
1590500129.519637,-0.038643990307685276,-4.390339002423079,8.718304987884608,0.4711111111111111,0.4311111111111111,-0.6433333333333333,0.0008689542154353884,0.0,0.001090830782496456
1590500129.529637,-0.00029259818040506397,-4.399926850454899,8.670365747725507,0.4711111111111111,0.4311111111111111,-0.6433333333333333,-0.005406277647169035,0.0,0.001090830782496456
1590500129.539637,-0.019206330895415638,-4.4384126617908315,8.573968345522921,0.4711111111111111,0.4311111111111111,-0.6433333333333333,0.0018786460233539545,-0.001047542847976605,4.328793451985097e-05
1590500129.549637,-0.010354096061703868,-4.3789377118148884,8.632832768493632,0.4711111111111111,0.4311111111111111,-0.6433333333333333,-0.002065783899772709,-0.004208819576358886,0.0010135790056829872
1590500129.559637,-0.01852343110903354,-4.354429706672899,8.69818744887227,0.4711111111111111,0.4311111111111111,-0.6433333333333333,0.0006076247428735957,-0.000644274719497147,-0.0007686934227478825
1590500129.569637,-0.028640351920104626,-4.372039472119843,8.713881583640472,0.4711111111111111,0.4244444444444445,-0.6355555555555555,-0.004066693934203409,7.41572989456038e-05,-0.002107504266047308
1590500129.579637,-0.009485320293032057,-4.400514679706968,8.625882562344257,0.4711111111111111,0.4244444444444445,-0.6355555555555555,-0.0001122856934973775,0.001090830782496456,-0.0010346879357477673
1590500129.589637,-0.0016268525284319785,-4.408373147471568,8.563014820227457,0.4711111111111111,0.4244444444444445,-0.6355555555555555,-0.0018267374016737534,0.001090830782496456,-0.00017746208165957925
1590500129.599637,-0.019656152023197964,-4.36,8.632750783814418,0.4711111111111111,0.4244444444444445,-0.6355555555555555,0.002181661564992912,-0.0032349843517298893,3.7507995759478947e-05
1590500129.609637,-0.013482343936293918,-4.36,8.68214124850965,0.4711111111111111,0.4244444444444445,-0.6355555555555555,0.002181661564992912,-0.0025615263610878404,0.0007109659864015274
1590500129.619637,-0.01688467186264543,-4.366884671862645,8.716884671862646,0.4741709652722869,0.4244444444444445,-0.6600343888449616,0.004434665163541167,-0.001430660365476827,0.001090830782496456
1590500129.629637,-0.02,-4.38265490218188,8.688362744545302,0.4755555555555556,0.4244444444444445,-0.6711111111111111,0.0026932825425870946,0.00028960490245113655,0.001090830782496456
1590500129.639637,-0.027269983448544442,-4.368190049654367,8.633650082757278,0.4755555555555556,0.4244444444444445,-0.6711111111111111,0.0018838629558876581,0.0002977986091052539,0.0002977986091052539
1590500129.649637,-0.015444719364500587,-4.381832920953249,8.649110561270998,0.4755555555555556,0.4244444444444445,-0.6711111111111111,0.002181661564992912,0.0007938674082538669,0.0015877348165077338
1590500129.659637,-0.0025599757060431215,-4.375119951412087,8.68232007288187,0.4755555555555556,0.4244444444444445,-0.6711111111111111,0.0013700808127559494,0.00027925003025949357,0.0013700808127559494
1590500129.669637,0.0,-4.3841654797934835,8.69,0.47240767115700355,0.4331011265404625,-0.666389284513283,-0.00045438335825994,0.000772607070378198,0.001090830782496456
1590500129.679637,-0.00024846144350984854,-4.39,8.619254615669469,0.4711111111111111,0.43666666666666665,-0.6644444444444444,0.0009824190261588372,-0.0010637278434120513,0.0
1590500129.689637,-0.007644641943959513,-4.39,8.59706607416812,0.4711111111111111,0.43666666666666665,-0.6644444444444444,-0.0022447735189573773,-0.0002569297071329976,0.0
1590500129.699637,-0.03,-4.370187135374923,8.630187135374923,0.4711111111111111,0.43666666666666665,-0.6644444444444444,0.0,-0.002181661564992912,0.0
1590500129.709637,-0.03,-4.37800488341317,8.63800488341317,0.4711111111111111,0.43666666666666665,-0.6644444444444444,0.0,-0.002181661564992912,0.0
1590500129.719637,-0.02,-4.37,8.68010308036897,0.4755555555555556,0.43666666666666665,-0.65,0.0010964529444736299,-5.622161977173998e-06,-0.001079586458542108
1590500129.729637,-0.01971403520604303,-4.370428947190936,8.698570176030215,0.4755555555555556,0.43666666666666665,-0.65,0.0021504676449970598,-0.001090830782496456,0.001090830782496456
1590500129.739637,-0.0008551966007958461,-4.398717205098807,8.604275983003978,0.4755555555555556,0.43666666666666665,-0.65,9.32874777234442e-05,-0.001090830782496456,0.001090830782496456
1590500129.749637,-0.029825698324022345,-4.3602324022346375,8.669593296089385,0.4755555555555556,0.43666666666666665,-0.65,0.0,-0.0021753237772063404,-0.0010781552069233128
1590500129.7596369,-0.018371691038097496,-4.371628308961903,8.658371691038097,0.4755555555555556,0.43666666666666665,-0.65,0.0006342258682011331,-0.0009132098285906456,-0.0004566049142953228
1590500129.7696369,-0.01946536383857642,-4.375267318080712,8.67839609151573,0.4697711665430922,0.4340373989337288,-0.65,0.0005745752703640571,0.0,0.0005162555121323988
1590500129.7796369,-0.024353158899848404,-4.37,8.715646841100153,0.4633333333333333,0.4311111111111111,-0.65,0.0,-0.0012319496191823026,0.0017068055920876073
1590500129.7896369,-0.02,-4.378155275927297,8.630291964799737,0.4633333333333333,0.4311111111111111,-0.65,-0.0035584104084990073,-0.0004024563607434083,0.0012920589628681602
1590500129.7996368,-0.0026157380549045074,-4.414768523890191,8.627384261945096,0.4633333333333333,0.4311111111111111,-0.65,-0.0005706655178474482,-0.0018963288060691878,0.001090830782496456
1590500129.8096368,-0.007160296611840808,-4.391358813552636,8.651480889835522,0.4633333333333333,0.4311111111111111,-0.65,-0.0007810671956001032,-0.002962728760593015,0.001871897978096559
1590500129.8196368,-0.00168382597143806,-4.388316174028562,8.693264696114246,0.457789217314292,0.4311111111111111,-0.6444558839809587,-0.001090830782496456,0.0012632769639870948,-0.0005398000218929657
1590500129.8296368,-0.008918262746155921,-4.372163474507688,8.7,0.4566666666666666,0.4311111111111111,-0.6433333333333333,-0.00011799922950663042,0.002181661564992912,0.0008548323234831951
1590500129.8396368,-0.01626609012137503,-4.388798270364125,8.631073008664874,0.4566666666666666,0.4311111111111111,-0.6433333333333333,0.0020505731970878504,0.0008146127669343454,-0.0002762180155621106
1590500129.8496368,-0.011852345083024678,-4.3755570352490745,8.622590619667902,0.4566666666666666,0.4311111111111111,-0.6433333333333333,0.0006061785109107822,-0.0008887712788595287,-0.00020205950363692729
1590500129.8596368,-0.002846266862561774,-4.384307466274876,8.658614932549753,0.4566666666666666,0.4311111111111111,-0.6433333333333333,0.0,-0.0003104795508881992,0.0
1590500129.8696368,0.0,-4.372356704530618,8.678821647734692,0.4625477651564608,0.4360120265192729,-0.6364720517619068,0.0028868774704023915,-0.0009622924901341303,0.0
1590500129.8796368,0.0,-4.37919521205143,8.689195212051429,0.4633333333333333,0.43666666666666665,-0.6355555555555555,0.003272492347489368,-8.778874676826929e-05,-0.0010030420357281867
1590500129.8896368,-0.026286103542234332,-4.397524069028156,8.619903723887374,0.4633333333333333,0.43666666666666665,-0.6355555555555555,-0.0005506664386117437,0.001911579393050556,-0.002046620479021734
1590500129.8996367,-0.008233820459290185,-4.385489213639527,8.653532359081419,0.4633333333333333,0.43666666666666665,-0.6355555555555555,-0.0026737120265198453,0.0013902209429812174,0.0009841009230538663
1590500129.9096367,-0.0042556184023471765,-4.388511236804694,8.67,0.4633333333333333,0.43666666666666665,-0.6355555555555555,-0.003272492347489368,0.00016239887212871832,0.001717445609809043
1590500129.9196367,-0.01,-4.395213344615013,8.671595551794995,0.46528345219388373,0.4338301301422297,-0.6401649274077655,-0.00275034924357471,-0.001264878483801342,0.001090830782496456
1590500129.9296367,-0.01,-4.3780843558282205,8.655746932515338,0.4755555555555556,0.4188888888888889,-0.6644444444444444,0.0008818664194077944,-0.002181661564992912,0.0019726972019042505
1590500129.9396367,-0.01,-4.372760316651644,8.592082533213153,0.4755555555555556,0.4188888888888889,-0.6644444444444444,0.001090830782496456,0.00018751927058120862,0.0006022076746101648
1590500129.9496367,-0.01,-4.385824575356473,8.61747372606942,0.4755555555555556,0.4188888888888889,-0.6644444444444444,-0.0006353626093811376,0.0019539274784352526,-0.0017261933918775935
1590500129.9596367,-0.016492314621924443,-4.383507685378075,8.649476943865773,0.4755555555555556,0.4188888888888889,-0.6644444444444444,0.000325572545352948,5.705657321880553e-05,-0.00147345990106821
1590500129.9696367,-0.013736396939984914,-4.38,8.68505441224006,0.46790004070442603,0.4300241832178046,-0.6686201798177878,0.00040757767977611084,0.0009589285256645793,0.0002756754229442343
1590500129.9796367,-0.002644376899696048,-4.365288753799392,8.677933130699088,0.4633333333333333,0.43666666666666665,-0.6711111111111111,0.00240712203067607,0.0005769135445421987,0.001090830782496456
1590500129.9896367,-0.006083311050842278,-4.378249933152527,8.61525020054242,0.4633333333333333,0.43666666666666665,-0.6711111111111111,0.0006181471659855203,0.0006635862953759619,0.0024180033732483803
1590500129.9996367,-0.01,-4.382663928815879,8.631352498288843,0.4633333333333333,0.43666666666666665,-0.6711111111111111,0.001309892898570693,0.001090830782496456,0.0016720098934446018
1590500130.0096366,-0.003831554616537552,-4.386168445383462,8.67467378153385,0.4633333333333333,0.43666666666666665,-0.6711111111111111,0.0001630425336642139,0.0017637037929393554,0.00041795777205355666
1590500130.0196366,-0.022299332902948138,-4.39743311096765,8.675133778064701,0.4724182467382382,0.4424479751970606,-0.6554189879571847,-0.0019016574078188522,0.0005600083143481194,0.0
1590500130.0296366,-0.03,-4.406907191930424,8.69072157579127,0.4755555555555556,0.4444444444444444,-0.65,-0.0029351193228246445,0.0007534577578317326,-0.0007534577578317326
1590500130.0396366,-0.006218808249654258,-4.394145872166436,8.6128022969154,0.4755555555555556,0.4444444444444444,-0.65,-0.0015430752804408406,0.0002261222489721924,0.0015032948180763348
1590500130.0496366,-0.01902129276190821,-4.39,8.609021292761907,0.4755555555555556,0.4444444444444444,-0.65,0.0009840703842601947,0.0,0.0007983941204884784
1590500130.0596366,-0.021417560917768426,-4.385708780458884,8.641456097705579,0.4755555555555556,0.4444444444444444,-0.65,0.0012454626910130284,0.00046809943698994177,0.00046809943698994177
1590500130.0696366,-0.004871351691086931,-4.374871351691087,8.680257296617826,0.46586810874983087,0.437606246699227,-0.65,0.0,-0.0005875154518917747,0.0005313820377003791
1590500130.0796366,-0.007114611179346387,-4.3913438335380395,8.668656166461961,0.4566666666666666,0.4311111111111111,-0.65,0.0,-0.0029577452529853574,0.0
1590500130.0896366,-0.028300384795488326,-4.381699615204512,8.629499358674186,0.4566666666666666,0.4311111111111111,-0.65,0.0006654207688816257,-0.0012762300408444907,0.0006654207688816257
1590500130.0996366,-0.01810670595016973,-4.377297764683277,8.617297764683276,0.4566666666666666,0.4311111111111111,-0.65,0.0026829560544832133,0.001592125271986757,0.0002947681465030775
1590500130.1096365,-0.022812374524387675,-4.3735938127378065,8.652030936310968,0.4566666666666666,0.4311111111111111,-0.65,0.0025736857210855945,0.0014828549385891385,-0.0006988066264037734
1590500130.1196365,-0.02446601477514524,-4.392135940899419,8.681067970449709,0.46035599014990314,0.43418554734714154,-0.65,0.00037066913504726906,0.0004871666391812417,-0.001090830782496456
1590500130.1296365,-0.004924991089654279,-4.402462495544827,8.69,0.4633333333333333,0.43666666666666665,-0.65,0.000553597594084891,0.0008222141882906735,0.000553597594084891
1590500130.1396365,-0.011262584855540615,-4.383106122716689,8.628055783294526,0.4633333333333333,0.43666666666666665,-0.65,0.0004765520699513507,0.001090830782496456,0.0004765520699513507
1590500130.1496365,-0.01153386454183267,-4.37,8.613864541832669,0.4633333333333333,0.43666666666666665,-0.65,0.0,0.001552586840824139,-0.00046175605832768303
1590500130.1596365,0.0,-4.37,8.670823515329765,0.4633333333333333,0.43666666666666665,-0.65,-0.0007871082464353457,0.0017881074417752392,-0.0003037225360611103
1590500130.1696365,-0.005442071351867319,-4.3736280475679115,8.69,0.4679691718923314,0.43444952648627627,-0.6514109073875212,-0.002181661564992912,-9.644500773533875e-05,0.0008929514841244902
1590500130.1796365,-0.014844622079273484,-4.400103585280484,8.66474103679879,0.4888888888888889,0.4244444444444445,-0.6577777777777778,-0.0016305964731163913,-0.0038009586368527182,0.0
1590500130.1896365,-0.019604551389666106,-4.403465149536778,8.600790897220667,0.4888888888888889,0.4244444444444445,-0.6577777777777778,0.00033485242636230816,0.0006697048527246163,-0.0007128416044293821
1590500130.1996365,-0.01620854884574909,-4.393104274422875,8.642061530194129,0.4888888888888889,0.4244444444444445,-0.6577777777777778,0.0003386238097787973,0.0006772476195575946,-0.0003386238097787973
1590500130.2096364,-0.012888488838596852,-4.384223022322806,8.672888488838597,0.4815071951902525,0.42637010367017575,-0.6577777777777778,0.0,-0.0006301705080077767,-0.00031508525400388834
1590500130.2196364,-0.01720316839831293,-4.375593663203374,8.677203168398313,0.4704807918709781,0.4292465567099864,-0.6577777777777778,0.0,-0.0015714875640770874,-0.0007857437820385437
1590500130.2296364,-0.02,-4.388070297191378,8.673976567602875,0.4633333333333333,0.4311111111111111,-0.6577777777777778,0.0,-0.0015246070174857592,0.0002232783125178492
1590500130.2396364,-0.0269390393690607,-4.3861219212618785,8.614487685047514,0.4633333333333333,0.4311111111111111,-0.6577777777777778,0.0,0.0011799645409214037,0.001090830782496456
1590500130.2496364,-0.03744484406033603,-4.38,8.649558752482688,0.4633333333333333,0.4311111111111111,-0.6577777777777778,0.0008121065071900449,0.002181661564992912,0.0002787242753064111
1590500130.2596364,-0.028119526583855484,-4.385940236708072,8.675940236708072,0.4633333333333333,0.4311111111111111,-0.6577777777777778,0.00044285147684839266,0.002181661564992912,0.0006479793056480633
1590500130.2696364,-0.023661804990005184,-4.39,8.683661804990004,0.4678088727655619,0.43314544721666953,-0.6602189811044479,0.000399440960259678,0.001782220604733234,0.000691389822236778
1590500130.2796364,-0.027150207284572105,-4.39,8.69,0.4755555555555556,0.43666666666666665,-0.6644444444444444,0.0001582382971795827,0.0001582382971795827,-0.00031086416177229104
1590500130.2896364,-0.02,-4.382045562411011,8.650227812055054,0.4755555555555556,0.43666666666666665,-0.6644444444444444,-0.0026155088339687212,-0.0013139670270412933,-0.001090830782496456
1590500130.2996364,-0.017231235128704305,-4.37,8.606612589227774,0.4755555555555556,0.43666666666666665,-0.6644444444444444,-0.0026684415572685314,0.0006040507902208365,-0.0007888053873860377
1590500130.3096364,-0.01,-4.37,8.66375780562424,0.4755555555555556,0.43666666666666665,-0.6644444444444444,-0.0005905828533456463,0.003182157423294531,-0.0005002479291508097
1590500130.3196363,-0.01,-4.37,8.674526981106428,0.46886631024119135,0.42997742135230244,-0.660795765182064,0.0,0.0025722818852983234,-0.0004938170342672892
1590500130.3296363,-0.020184865576570645,-4.385277298364856,8.659815134423429,0.4633333333333333,0.4244444444444445,-0.6577777777777778,0.0011109964886511776,0.0005353325381708672,0.0
1590500130.3396363,-0.013760036186814428,-4.394586678728938,8.612106751102568,0.4633333333333333,0.4244444444444445,-0.6577777777777778,0.001000658069389489,-0.0005905017478017115,-0.0005905017478017115
1590500130.3496363,-0.006734444620360528,-4.3967344446203604,8.600203333861081,0.4633333333333333,0.4244444444444445,-0.6577777777777778,0.0022038418484720767,-0.001090830782496456,0.0018476250154663128
1590500130.3596363,-0.01528728782607024,-4.378850848695719,8.652298302608562,0.4633333333333333,0.4244444444444445,-0.6577777777777778,0.0021189850841701304,6.267648082278134e-05,0.0021189850841701304
1590500130.3696363,-0.016360351705269314,-4.363639648294731,8.69727929658946,0.4609069011368462,0.4288929034713375,-0.6549469402152095,0.0002967827030258628,0.0002967827030258628,0.0006938067427611594
1590500130.3796363,-0.01,-4.383573425747254,8.705475524750916,0.4566666666666666,0.43666666666666665,-0.65,-0.001090830782496456,-0.0005972870948619983,0.0004935436876344577
1590500130.3896363,-0.0041910957343222355,-4.3767643829372895,8.6477198616089,0.4566666666666666,0.43666666666666665,-0.65,-0.0017244839410540836,-0.0012673063171152552,-0.00017647553461879926
1590500130.3996363,0.0,-4.366291617165541,8.628874851496624,0.4566666666666666,0.43666666666666665,-0.65,-0.0008090436298217754,-0.002181661564992912,-0.001090830782496456
1590500130.4096363,-0.010730656652123489,-4.375365328326062,8.650730656652124,0.4566666666666666,0.43666666666666665,-0.65,0.0005852665296268333,0.00015940455351442107,-0.0005055642528696227
1590500130.4196362,-0.009936076348248852,-4.38,8.675095885477626,0.47008523153566817,0.433871132318958,-0.65,0.0016397326680976708,0.001632759679391697,0.0005489018856012148
