time,acc_x,acc_y,acc_z,mag_x,mag_y,mag_z,gyr_x,gyr_y,gyr_z
1590503916.455715,-0.2,-4.36,8.64,0.4888888888888889,0.2677777777777778,-0.6288888888888889,0.0,-0.004363323129985824,0.002181661564992912
1590503916.465715,-0.18366801004614217,-4.351834005023071,8.672663979907716,0.4888888888888889,0.2677777777777778,-0.6288888888888889,0.0008907718690545501,-0.006144866868094924,0.002181661564992912
1590503916.475715,-0.18911137070026493,-4.389111370700265,8.69,0.4888888888888889,0.2733333333333333,-0.6077777777777778,-0.0020362599358360175,-0.002181661564992912,0.002181661564992912
1590503916.485715,-0.1716128830388619,-4.371612883038862,8.69,0.4888888888888889,0.2733333333333333,-0.6077777777777778,0.0008269234123929104,-0.002181661564992912,0.002181661564992912
1590503916.495715,-0.17847813501959386,-4.386956270039187,8.613696784823654,0.4888888888888889,0.2733333333333333,-0.6077777777777778,-0.0016836324147638012,0.0005928016322673453,0.002181661564992912
1590503916.505715,-0.21,-4.369943409693427,8.670226361226293,0.4888888888888889,0.2733333333333333,-0.6077777777777778,0.0021693154753126957,0.0022063537443533445,0.001090830782496456
1590503916.515715,-0.21,-4.362815580178098,8.698737679287609,0.4888888888888889,0.2733333333333333,-0.6077777777777778,0.0006142643057712352,0.0053164560834362655,0.001090830782496456
1590503916.5257149,-0.23908420570031327,-4.36,8.729389470466876,0.47488538244059,0.26148421249246495,-0.6077777777777778,0.0021150631241573753,0.00866004781913611,-0.0010242323416609193
1590503916.5357149,-0.21197275204359672,-4.352993188010899,8.701972752043597,0.4744444444444445,0.2611111111111111,-0.6077777777777778,0.0014173369445052725,0.007962321639484009,-0.001090830782496456
1590503916.5457149,-0.19064498790647677,-4.340644987906477,8.643224939532384,0.4744444444444445,0.2611111111111111,-0.6077777777777778,0.002111304298720633,0.005594868445026838,-7.035726627227881e-05
1590503916.5557148,-0.2054279145512022,-4.3554279145512025,8.670855829102404,0.4744444444444445,0.2611111111111111,-0.6077777777777778,-0.0020256494605511836,0.00040538068182936586,-0.000841462205108819
1590503916.5657148,-0.21725306329603403,-4.345493873407932,8.709012253184136,0.4744444444444445,0.2611111111111111,-0.6077777777777778,-0.0016901194053475432,-0.0002996443114255436,0.0020739151017871932
1590503916.5757148,-0.21331474922384014,-4.34,8.70662949844768,0.4744444444444445,0.26928197317086205,-0.5981213044344358,-0.00036158304896210527,-0.002187743200603052,0.0018139968804206663
1590503916.5857148,-0.2299649709597957,-4.37,8.699579651517547,0.4744444444444445,0.2733333333333333,-0.5933333333333334,-0.002181661564992912,-0.003280134498556599,3.821075533615464e-06
1590503916.5957148,-0.22048611268051255,-4.37,8.585833352166151,0.4744444444444445,0.2733333333333333,-0.5933333333333334,-0.002181661564992912,-0.005348100577349288,0.00103780411492996
1590503916.6057148,-0.20021823966592928,-4.3897817603340705,8.629454400835177,0.4744444444444445,0.2733333333333333,-0.5933333333333334,0.002134049055881436,-0.0011384432916079316,0.002169758437715043
1590503916.6157148,-0.19225165686549053,-4.3745033137309814,8.699735088210586,0.4744444444444445,0.2733333333333333,-0.5933333333333334,0.0004912353240993095,0.0005995954583971465,0.0030268746854397134
1590503916.6257148,-0.18062995829544384,-4.37,8.710629958295444,0.49943122232326076,0.26188106013887585,-0.6204023427020511,0.0020442259849210807,0.002112943774956996,0.0042946053399499085
1590503916.6357148,-0.19621685279187817,-4.361891573604061,8.734325279187818,0.5011111111111111,0.2611111111111111,-0.6222222222222222,0.0012971694539631968,0.004835137898082057,0.0034788310189561088
1590503916.6457148,-0.22549316317228807,-4.35150227894257,8.655022789425708,0.5011111111111111,0.2611111111111111,-0.6222222222222222,0.001090830782496456,0.008235026625635963,0.0014185772053869133
1590503916.6557148,-0.23709007878954177,-4.364180157579083,8.661270236368626,0.5011111111111111,0.2611111111111111,-0.6222222222222222,0.001090830782496456,0.005633015782388699,0.001864238401892193
1590503916.6657147,-0.24,-4.363529467953004,8.689411596140987,0.5011111111111111,0.2611111111111111,-0.6222222222222222,0.0003850052288971636,0.002951672022787239,6.41849041950345e-05
1590503916.6757147,-0.22252509006690685,-4.3687374549665465,8.708737454966547,0.4836362011780179,0.27179022273689024,-0.6154264239149082,0.0009531084838185548,0.0002754445973558023,-0.00013772229867790116
1590503916.6857147,-0.2265752334832238,-4.356849533033552,8.683699066067105,0.4811111111111111,0.2733333333333333,-0.6144444444444445,0.001090830782496456,-0.0035862335428009564,-0.0007172467085601913
1590503916.6957147,-0.23,-4.368310453192193,8.605913413827324,0.4811111111111111,0.2733333333333333,-0.6144444444444445,0.001090830782496456,-0.006452834211657521,0.0009065298158540261
1590503916.7057147,-0.21131278832868886,-4.332625576657378,8.628030817506968,0.4811111111111111,0.2733333333333333,-0.6144444444444445,-0.0009476277905128684,-0.005525755408474073,0.0041485186420104425
1590503916.7157147,-0.23949287921030818,-4.344746439605154,8.681612538618038,0.4811111111111111,0.2733333333333333,-0.6144444444444445,0.0005177562428562413,-0.00545415391248228,0.0051676166426621725
1590503916.7257147,-0.25,-4.375346107423054,8.716897404948703,0.4811111111111111,0.2789658016495675,-0.6144444444444445,-0.0007523901637388048,-0.0008461015468941282,0.00729737485871754
1590503916.7357147,-0.2591855734431549,-4.36162885311369,8.72,0.4811111111111111,0.28,-0.6144444444444445,-0.001090830782496456,0.0010019906266675296,0.008637806104142722
1590503916.7457147,-0.24300079106970202,-4.351500395534851,8.64350355981366,0.4811111111111111,0.28,-0.6144444444444445,0.0035449843123179633,0.00016366776353357213,0.010580972297897414
1590503916.7557147,-0.19355650195746482,-4.35,8.65786609882552,0.4811111111111111,0.28,-0.6144444444444445,0.002336843237521373,0.0040529597849289015,0.009895067878732336
1590503916.7657146,-0.19714345507816056,-4.3428565449218395,8.67428691015632,0.4811111111111111,0.28,-0.6144444444444445,0.001402431495729097,0.005142553199249639,0.009817477042468105
1590503916.7757146,-0.16805501460564753,-4.347986246348587,8.703958739045765,0.48732263604890186,0.2702390322406145,-0.6259801336146273,-0.00413615522968745,0.006325318247846264,0.011559805713196073
1590503916.7857146,-0.1887055095075573,-4.364352754753779,8.688470867869333,0.4888888888888889,0.2677777777777778,-0.6288888888888889,-0.006236975247434484,0.004196520690122123,0.01121631727250881
1590503916.7957146,-0.19218263923733067,-4.377817360762669,8.640913196186654,0.4888888888888889,0.2677777777777778,-0.6288888888888889,-0.006544984694978735,0.0024197505717093986,0.008350082497624652
1590503916.8057146,-0.19,-4.365431133888533,8.680991031390134,0.4888888888888889,0.2677777777777778,-0.6288888888888889,-0.007339593076001618,-0.0009967719590986196,0.007635815477475192
1590503916.8157146,-0.18387821788399908,-4.36,8.706121782116002,0.4888888888888889,0.2677777777777778,-0.6288888888888889,-0.005632466964714164,-0.0015138787274059024,0.005632466964714164
1590503916.8257146,-0.1953445113963846,-4.36,8.71,0.49826609029779056,0.2771549791866795,-0.6288888888888889,-0.0026894965926314244,0.002256822292212343,0.0026894965926314244
1590503916.8357146,-0.2117171207534477,-4.36,8.71,0.5011111111111111,0.28,-0.6288888888888889,-0.002181661564992912,0.002633422547484927,0.002181661564992912
1590503916.8457146,-0.22,-4.36669734704927,8.616237141310233,0.5011111111111111,0.28,-0.6288888888888889,-0.0014510943327524593,0.0014510943327524593,0.002181661564992912
1590503916.8557146,-0.21466686890297446,-4.359333737805949,8.575333131097025,0.5011111111111111,0.28,-0.6288888888888889,-0.001090830782496456,0.0028360938528138183,0.0015999072082204576
1590503916.8657146,-0.21393372114611053,-4.357867442292221,8.619337211461104,0.5011111111111111,0.28,-0.6288888888888889,-0.0028072404288702964,0.0056506303647662045,0.001090830782496456
1590503916.8757145,-0.23357396773311456,-4.376786983866557,8.700360951599672,0.48753714337799653,0.27170479749643,-0.6190854677483062,-0.004713808820287529,0.009856850754059444,0.001090830782496456
1590503916.8857145,-0.2317565436770735,-4.38,8.726486912645854,0.4811111111111111,0.2677777777777778,-0.6144444444444445,-0.0034641015388644945,0.008210643051600571,0.001090830782496456
1590503916.8957145,-0.2239976507439311,-4.373997650743931,8.681981205951448,0.4811111111111111,0.2677777777777778,-0.6144444444444445,-0.002617737613907901,0.007635815477475192,0.003055094983240857
1590503916.9057145,-0.22,-4.377010747787779,8.692064486726673,0.4811111111111111,0.2677777777777778,-0.6144444444444445,-0.0014169076154701222,0.006106307578429612,0.0013043073318946647
1590503916.9157145,-0.2265757020167905,-4.360272893949628,8.716575702016792,0.4811111111111111,0.2677777777777778,-0.6144444444444445,-0.001090830782496456,0.0025849626419066356,0.0
1590503916.9257145,-0.23781603255603642,-4.35,8.727816032556037,0.47155818243151104,0.2677777777777778,-0.6144444444444445,0.0006143629993273431,0.00023823389158455642,0.0
1590503916.9357145,-0.21494468711423415,-4.366703541923844,8.679889374228468,0.4688888888888889,0.2677777777777778,-0.6144444444444445,0.0020018676678589054,0.0009110368853624493,0.0
1590503916.9457145,-0.22681318153432292,-4.361593409232839,8.577527501561224,0.4688888888888889,0.2677777777777778,-0.6144444444444445,0.002181661564992912,0.001090830782496456,-0.004585083992335106
1590503916.9557145,-0.22378187517610595,-4.36,8.597308748943364,0.4688888888888889,0.2677777777777778,-0.6144444444444445,0.000146784974800215,-0.0016223380044271395,-0.002062692928827785
1590503916.9657145,-0.22,-4.369278542124708,8.64319635531177,0.4688888888888889,0.2677777777777778,-0.6144444444444445,0.0004273671224518064,-0.002260360410857193,0.0
1590503916.9757144,-0.23314505407638964,-4.373427472961805,8.689717581114584,0.4820339429652785,0.2758108663800159,-0.6239380946107259,0.001464710083787595,-0.003241685226112407,0.0
1590503916.9857144,-0.24,-4.359812625754527,8.705093687122737,0.4888888888888889,0.28,-0.6288888888888889,0.0005351957115077871,-0.0021407828460311483,-0.0005556350709886689
1590503916.9957144,-0.2324673592587393,-4.357532640741261,8.679869437034958,0.4888888888888889,0.28,-0.6288888888888889,0.0008216836394054099,0.00041084181970270497,-0.001912514421901866
1590503917.0057144,-0.2063382390327957,-4.356338239032795,8.684647043868818,0.4888888888888889,0.28,-0.6288888888888889,0.002181661564992912,0.001090830782496456,-0.002527358877182617
1590503917.0157144,-0.22256670155529848,-4.355641675388824,8.715641675388826,0.4888888888888889,0.28,-0.6288888888888889,0.002181661564992912,0.0004754194645982001,-0.001566250247094656
1590503917.0257144,-0.23482536163924178,-4.354825361639242,8.725174638360759,0.49233864779606107,0.28,-0.6214144112566826,0.0010527306025524953,0.0005644654812202083,-0.001090830782496456
1590503917.0357144,-0.23,-4.3647632987373965,8.685710103787812,0.4955555555555556,0.28,-0.6144444444444445,0.0016104260713942769,-0.0021300213602920975,-0.00431168292528501
1590503917.0457144,-0.23555018786902845,-4.358899624261943,8.636698872785828,0.4955555555555556,0.28,-0.6144444444444445,0.002181661564992912,-0.004483355502724296,-0.0036378591796298876
1590503917.0557144,-0.23432207447788134,-4.3556779255221185,8.632711702088475,0.4955555555555556,0.28,-0.6144444444444445,0.002181661564992912,-0.006692885100532143,-0.002181661564992912
1590503917.0657144,-0.23,-4.342893788104721,8.672808282527038,0.4955555555555556,0.28,-0.6144444444444445,0.0015596621480836567,-0.006391816643656682,-0.0028036609819021676
1590503917.0757143,-0.22320973225669358,-4.343580535486613,8.717161070973226,0.48122054587524205,0.2754731548377957,-0.6197257638003495,0.006275753935550425,-0.008416967142798834,-0.004013195655068506
1590503917.0857143,-0.20219494584837544,-4.344064981949458,8.712194945848376,0.4744444444444445,0.2733333333333333,-0.6222222222222222,0.008726646259971648,-0.009817477042468105,-0.004363323129985824
1590503917.0957143,-0.19621396807115207,-4.34,8.656502223501937,0.4744444444444445,0.2733333333333333,-0.6222222222222222,0.008048807494625368,-0.010495315807814383,-0.004363323129985824
1590503917.1057143,-0.20720707566364266,-4.361621226990928,8.644414151327286,0.4744444444444445,0.2733333333333333,-0.6222222222222222,0.006849645478906942,-0.008549797829259808,-0.003577153131417574
1590503917.1157143,-0.21526622484301344,-4.364733775156987,8.681597349058082,0.4744444444444445,0.2733333333333333,-0.6222222222222222,0.004247160628456082,-0.005337991410952539,-0.003272492347489368
1590503917.1257143,-0.22461478209104865,-4.355385217908951,8.719229564182099,0.48982705141460664,0.2764098547273658,-0.6088906295147484,0.001678266929049988,-0.0022657030756035204,-0.003272492347489368
1590503917.1357143,-0.23,-4.343815424588403,8.736184575411597,0.5077777777777778,0.28,-0.5933333333333334,0.0037893608767528095,-0.002440095829624633,-0.003272492347489368
1590503917.1457143,-0.22493601427811954,-4.34506398572188,8.684296157059315,0.5077777777777778,0.28,-0.5933333333333334,0.004349363610972332,-0.003272492347489368,-0.00492967779975429
1590503917.1557143,-0.22,-4.35,8.639785823872353,0.5077777777777778,0.28,-0.5933333333333334,0.004873694034297145,-0.003272492347489368,-0.00974738806859429
1590503917.1657143,-0.22,-4.344595385601367,8.677023071993164,0.5077777777777778,0.28,-0.5933333333333334,0.007134536670333955,-0.005041148273555027,-0.01485862531602313
1590503917.1757143,-0.20957896615918192,-4.329578966159182,8.7,0.4938830659900203,0.2736315904306112,-0.6043333134986414,0.00934095315232544,-0.007113363919928818,-0.022046253986947664
1590503917.1857142,-0.2,-4.344959051724138,8.681280711206897,0.4811111111111111,0.2677777777777778,-0.6144444444444445,0.006824392536572925,-0.005593857833279375,-0.0272707695624114
1590503917.1957142,-0.1952349736080368,-4.350469947216074,8.631879788864294,0.4811111111111111,0.2677777777777778,-0.6144444444444445,0.0028039718896573722,-0.004363323129985824,-0.0283103370559637
1590503917.2057142,-0.2020997325697615,-4.34,8.605124665712202,0.4811111111111111,0.2677777777777778,-0.6144444444444445,0.0007608617638196869,-0.0030434470552787476,-0.029782400146081082
1590503917.2157142,-0.2031024620444741,-4.347685010844436,8.663055032533308,0.4811111111111111,0.2677777777777778,-0.6144444444444445,0.0016766092785859678,0.0016766092785859678,-0.028447500311668306
1590503917.2257142,-0.16,-4.364936410162116,8.709872820324232,0.48824148134527834,0.2677777777777778,-0.6215748146786118,0.003286365498012981,0.005440280761958667,-0.01970431983755427
1590503917.2357142,-0.1549033603336274,-4.375096639666372,8.72,0.4955555555555556,0.2677777777777778,-0.6288888888888889,0.0032935758520672527,0.004321156120830054,-0.010845057311230904
1590503917.2457142,-0.17794343240651966,-4.35205656759348,8.63616970278044,0.4955555555555556,0.2677777777777778,-0.6288888888888889,0.002534429755727384,0.003400923814498538,-0.003978028728958312
1590503917.2557142,-0.2153874195723894,-4.355645699287316,8.646937097861947,0.4955555555555556,0.2677777777777778,-0.6288888888888889,-2.817394635359861e-05,0.007160834952110961,2.817394635359861e-05
1590503917.2657142,-0.21541656685670485,-4.365416566856704,8.709062425142529,0.4955555555555556,0.2677777777777778,-0.6288888888888889,0.0016930793302609916,0.006635865485031022,-0.00010227355154245033
1590503917.2757142,-0.2004808629246074,-4.3504808629246075,8.707468104874346,0.48818013349749856,0.2677777777777778,-0.6238425474807446,0.00578279483462623,-5.245400803230264e-05,-0.0014194717046404062
1590503917.2857141,-0.2065924674885999,-4.3521232899848,8.7355308224962,0.4744444444444445,0.2677777777777778,-0.6144444444444445,0.004363323129985824,-0.001694149925634337,-0.0004875116393585749
1590503917.2957141,-0.2000697069943289,-4.350139413988658,8.679651465028355,0.4744444444444445,0.2677777777777778,-0.6144444444444445,0.003264888493972438,7.603853516929566e-06,-0.0016400481005031486
1590503917.3057141,-0.20001849752371859,-4.360018497523718,8.639981502476282,0.4744444444444445,0.2677777777777778,-0.6144444444444445,0.0027260680728275295,-0.0010867952488420147,-0.0016372550571582944
1590503917.3157141,-0.19494495340699092,-4.354944953406991,8.659889906813982,0.4744444444444445,0.2677777777777778,-0.6144444444444445,0.00381190308692501,-0.0027330816080537263,-0.00216965226136774
1590503917.325714,-0.20482604817127564,-4.340695807314898,8.694130240856378,0.4744444444444445,0.2704589156507087,-0.6144444444444445,0.004889763320289644,-0.003234541945600553,-0.0022196119668817273
1590503917.335714,-0.19092265837543723,-4.345436455499417,8.700922658375438,0.4744444444444445,0.2733333333333333,-0.6144444444444445,0.0033731387632548785,-0.0022823079807584223,-0.00039715906608732215
1590503917.345714,-0.18048546782893687,-4.360485467828937,8.686601725197441,0.4744444444444445,0.2733333333333333,-0.6144444444444445,0.002075748914649696,-0.00098491813215324,0.0
1590503917.355714,-0.19,-4.369845113843183,8.620103257437878,0.4744444444444445,0.2733333333333333,-0.6144444444444445,5.631819587973383e-06,0.0011133580608483494,-5.631819587973383e-06
1590503917.365714,-0.19,-4.3374088508281625,8.6607291933747,0.4744444444444445,0.2733333333333333,-0.6144444444444445,-0.0003224218568437297,0.005171503384614242,-0.0008081802546284189
1590503917.375714,-0.19,-4.330239474898724,8.718084200810216,0.4744444444444445,0.2733333333333333,-0.6144444444444445,-0.004232709834404612,0.004389445789102066,-2.612265911624244e-05
1590503917.385714,-0.2036717118251266,-4.333671711825127,8.754686847300507,0.5011111111111111,0.2733333333333333,-0.6077777777777778,-0.00694550632330917,0.009016433785807236,0.001090830782496456
1590503917.395714,-0.21,-4.334798635707727,8.707180899908172,0.5011111111111111,0.2733333333333333,-0.6077777777777778,-0.006501053821277252,0.005933672993178282,-4.393087370148396e-05
1590503917.405714,-0.2144236847519123,-4.338847369503824,8.657694739007649,0.5011111111111111,0.2733333333333333,-0.6077777777777778,-0.005936703062426896,0.003880773980041208,-0.001090830782496456
1590503917.415714,-0.22591864125527708,-4.35,8.677040679372361,0.5011111111111111,0.2733333333333333,-0.6077777777777778,-0.0062221728913882494,0.002949680543898882,-0.001090830782496456
1590503917.425714,-0.22611388081549524,-4.341668328489297,8.672777223836901,0.4921622787477636,0.2733333333333333,-0.6096292603357117,-0.006665946412952069,0.0030905059403452534,-0.0007878826573790088
1590503917.435714,-0.1993929902466101,-4.32,8.67373800650226,0.4688888888888889,0.2733333333333333,-0.6144444444444445,-0.010842093332537233,0.004771076385769528,0.0003415387633563759
1590503917.445714,-0.23170502092050207,-4.331705020920502,8.624884937238493,0.4688888888888889,0.2733333333333333,-0.6144444444444445,-0.01436678910294234,0.005826131773459105,0.003006060351973759
1590503917.455714,-0.2686601773638767,-4.317071858108898,8.628660177363876,0.4688888888888889,0.2733333333333333,-0.6144444444444445,-0.01589689902895688,0.008886351625488188,0.011241271944057295
1590503917.465714,-0.35815646206341295,-4.295456235862439,8.713612697925852,0.4688888888888889,0.2733333333333333,-0.6144444444444445,-0.017849405074343294,0.00932182926350262,0.026275417316756543
1590503917.475714,-0.45169124024284474,-4.274411679676207,8.78610291991905,0.4766830490507854,0.27116828884391764,-0.6118463910571456,-0.020060059576351423,0.007451329785726008,0.05050713663841715
1590503917.485714,-0.4936250028350457,-4.231099997731963,8.775274999432991,0.4888888888888889,0.2677777777777778,-0.6077777777777778,-0.02175662008059402,0.0059695715190629575,0.09042987434300029
1590503917.495714,-0.5341926662995385,-4.1887110005506925,8.741614667400922,0.4888888888888889,0.2677777777777778,-0.6077777777777778,-0.025229716025211086,0.005383849898585981,0.13163751318978456
1590503917.505714,-0.5649678867618633,-4.105289019143232,8.69,0.4888888888888889,0.2677777777777778,-0.6077777777777778,-0.029994343507784016,-0.000791850505358389,0.17826325766645737
1590503917.515714,-0.571832710066397,-3.9536654201327943,8.69,0.4888888888888889,0.2677777777777778,-0.6077777777777778,-0.0328219768616169,-0.016059679813006662,0.2323237131432041
1590503917.525714,-0.5526265740670075,-3.915253148134015,8.69,0.4888888888888889,0.2677777777777778,-0.6077777777777778,-0.0356153961097432,-0.023043227933322447,0.26305132487259353
1590503917.535714,-0.4939815070807606,-3.7481479433539153,8.739907535403804,0.4955555555555556,0.28,-0.6077777777777778,-0.046259294236075554,-0.03489649871710432,0.2899387874584451
1590503917.545714,-0.46774880441952504,-3.6631414907651716,8.70549760883905,0.4955555555555556,0.28,-0.6077777777777778,-0.04212549143222271,-0.035666177607983414,0.2887389191471612
1590503917.555714,-0.4419033073122902,-3.614048346343855,8.653806614624582,0.4955555555555556,0.28,-0.6077777777777778,-0.04003612660162484,-0.030452637019685445,0.2851484403125834
1590503917.565714,-0.48159416707859615,-3.597101458230351,8.730289792387543,0.4955555555555556,0.28,-0.6077777777777778,-0.03689854422985873,-0.027460471937432174,0.28171891229706764
1590503917.5757139,-0.6075543631742446,-3.3612934199378706,8.801078791301892,0.4936370767830808,0.2745643101446547,-0.6096962565502526,-0.018512701461204328,-0.04772977683660997,0.27021212370403386
1590503917.5857139,-0.7274219893150032,-2.6845319358900195,8.646132983972505,0.4888888888888889,0.2611111111111111,-0.6144444444444445,-0.01280786118064815,-0.06376076116604902,0.2714055064016429
1590503917.5957139,-0.4016913776646516,-2.1752230353165767,8.428234171174037,0.4888888888888889,0.2611111111111111,-0.6144444444444445,-0.06606623749058077,-0.03303513173241685,0.2937031513531438
1590503917.6057138,-0.052318598097921803,-2.33994716449454,8.62492074674181,0.4888888888888889,0.2611111111111111,-0.6144444444444445,-0.14558057024794238,0.08584749885200268,0.33201801726012353
1590503917.6157138,-0.014392824443012646,-2.6811214351113977,9.023614229034555,0.4888888888888889,0.2611111111111111,-0.6144444444444445,-0.13165778966601244,0.07588981035692874,0.33834453262461583
1590503917.6257138,0.06230941129061802,-2.705307176612815,8.916609883870022,0.4900682614695143,0.2611111111111111,-0.6158203791218408,-0.024150890423639253,-0.08976949505355565,0.33520154580458433
1590503917.6357138,-0.033465394454815736,-2.667161492544193,8.955576759086403,0.4955555555555556,0.2611111111111111,-0.6222222222222222,0.06644712910609586,0.017813257376100025,0.5080645498031083
1590503917.6457138,-0.10815365057680631,-2.6344704386763813,8.65263357619915,0.4955555555555556,0.2611111111111111,-0.6222222222222222,0.05485951182730256,-0.010505496867751712,0.6183548272130144
1590503917.6557138,-0.23094347577318036,-2.785660854639082,8.705057367422532,0.4955555555555556,0.2611111111111111,-0.6222222222222222,-0.023566208757001234,-0.048754062119318216,0.7061175268750052
1590503917.6657138,-0.2651059600623834,-3.012658940093575,9.106917219656891,0.4955555555555556,0.2611111111111111,-0.6222222222222222,-0.09492539497674428,-0.10458105372234408,0.7847151307347653
1590503917.6757138,-0.25227974679673404,-2.9934196201951013,9.177461392617962,0.4955555555555556,0.2611111111111111,-0.6222222222222222,-0.09212714932613734,-0.12137052762598573,0.8343839910330385
1590503917.6857138,-0.29271212684256165,-3.027627276105537,8.915930261365045,0.4888888888888889,0.2677777777777778,-0.6144444444444445,-0.008855889372006561,-0.061049500701455935,0.9531276176778326
1590503917.6957138,-0.3369238074932646,-3.0707714224797935,8.594995251293781,0.4888888888888889,0.2677777777777778,-0.6144444444444445,0.006921583805281042,-0.05869552541497575,1.0205579001746379
1590503917.7057137,-0.35223379944501876,-3.1010648022199248,8.534571793895205,0.4888888888888889,0.2677777777777778,-0.6144444444444445,-0.01383234446082453,-0.06995205380745377,1.060692805857695
1590503917.7157137,-0.3908549843375714,-3.1101114796388427,8.697137460843928,0.4888888888888889,0.2677777777777778,-0.6144444444444445,-0.02366170154783334,-0.08551464102520978,1.097400088275769
1590503917.7257137,-0.45749989515621725,-3.177499056405955,8.905001467812959,0.4936113091493674,0.2588885161109946,-0.6144444444444445,-0.023725603829345594,-0.09844767254390867,1.1241014187163445
1590503917.7357137,-0.4556639765223771,-3.1081120078258744,8.940144289557349,0.5077777777777778,0.23222222222222225,-0.6144444444444445,-0.02020744683603364,-0.10349980668034545,1.1534042935458089
1590503917.7457137,-0.5051440228478172,-3.135201631986944,8.549481517747859,0.5077777777777778,0.23222222222222225,-0.6144444444444445,-0.005242716993613078,-0.07532388163233691,1.193674575703461
1590503917.7557137,-0.57359445124439,-3.2310322317421463,8.303059975520195,0.5077777777777778,0.23222222222222225,-0.6144444444444445,-0.03436317239793303,-0.10220430200555533,1.2093548209211717
1590503917.7657137,-0.61,-3.1903019664587142,8.838161871100885,0.5077777777777778,0.23222222222222225,-0.6144444444444445,-0.049184288722563,-0.13231896159936196,1.247746675412878
1590503917.7757137,-0.6428982839108422,-3.16,8.483838845420474,0.5103365331930655,0.2263736384158503,-0.6144444444444445,-0.012719808454428234,-0.09280897889789376,1.2990798032398674
1590503917.7857137,-0.7067162312607708,-3.0976083939546446,9.00537798721996,0.5155555555555555,0.21444444444444444,-0.6144444444444445,-0.06479831964708203,-0.13741223864357102,1.3312866622179782
1590503917.7957137,-0.7003196535053605,-2.9760734166018517,9.171689008860625,0.5155555555555555,0.21444444444444444,-0.6144444444444445,-0.05502970216155513,-0.14159878899451114,1.3640813066336759
1590503917.8057137,-0.7320154587572463,-3.1120154587572464,8.606611179661492,0.5155555555555555,0.21444444444444444,-0.6144444444444445,-0.026373201701126454,-0.11650747272592685,1.4462652175573525
1590503917.8157136,-0.7852538145745471,-3.1635025430496984,8.74751271524849,0.5155555555555555,0.21444444444444444,-0.6144444444444445,-0.04390455197703633,-0.13725364450577196,1.486998938705235
1590503917.8257136,-0.8028840845721652,-3.1752560563814436,8.806280281907217,0.5155555555555555,0.21444444444444444,-0.6144444444444445,-0.03749400490466115,-0.13661258979853444,1.5132821817019733
1590503917.8357136,-0.9274917801784877,-3.414983560356975,9.016028651949272,0.5275223109441052,0.18833515996033606,-0.6492568237565889,-0.028498402514436527,-0.13528581739114864,1.573020002509333
1590503917.8457136,-0.87,-3.055875121834782,8.81941041911165,0.5277777777777778,0.18777777777777774,-0.65,-0.00019092196716301302,-0.15836897977947384,1.6302645813530787
1590503917.8557136,-0.877828270455659,-2.880064919157276,8.234797893189613,0.5277777777777778,0.18777777777777774,-0.65,0.029015644524270932,-0.17485640649835799,1.6692504856524777
1590503917.8657136,-0.9442238669273991,-2.967039778212332,8.647472709720537,0.5277777777777778,0.18777777777777774,-0.65,-0.05970426660012881,-0.12406328276741972,1.7200078506920815
1590503917.8757136,-0.9929215382448232,-3.0252810254965485,8.667903930131004,0.5345693446651328,0.17957130112222375,-0.6483021082781613,-0.04682397664406713,-0.12340693567784036,1.7574305743558911
1590503917.8857136,-1.0516650621740875,-3.1116746891295626,9.071655435218613,0.5544444444444444,0.15555555555555556,-0.6433333333333333,-0.017904742443666008,-0.12116830629010147,1.7905110648280316
1590503917.8957136,-1.0480739473642913,-3.161926052635709,9.000092434205364,0.5544444444444444,0.15555555555555556,-0.6433333333333333,-0.00048069754668791324,-0.09168020076798564,1.8138314085335758
1590503917.9057136,-1.0744031010185027,-3.1355968989814973,9.033003876273128,0.5544444444444444,0.15555555555555556,-0.6433333333333333,-0.016277055752388934,-0.1096306078199186,1.8131133922514981
1590503917.9157135,-1.2132500647165416,-3.1839645353352317,8.79082190007766,0.5544444444444444,0.15555555555555556,-0.6433333333333333,-0.06944311216093767,-0.17172014616126388,1.7851640597190517
1590503917.9257135,-1.1589619466735697,-2.9745675085980547,8.395294182907437,0.5544444444444444,0.15555555555555556,-0.6433333333333333,-0.03137365840624667,-0.16664421899397175,1.7809341204129747
1590503917.9357135,-1.330596751533427,-3.2558895589898227,9.071734571497105,0.5577777777777778,0.10222222222222224,-0.68,-0.06538232182185055,-0.16182502505675259,1.7647074685529807
1590503917.9457135,-1.424017407394716,-3.3349378062570674,8.741169173834082,0.5577777777777778,0.10222222222222224,-0.68,-0.028539337396299776,-0.1296854003451019,1.7639235752673306
1590503917.9557135,-1.3297267917069857,-3.061562866731177,8.817715921022833,0.5577777777777778,0.10222222222222224,-0.68,-0.03227548439356286,-0.13901715391723685,1.733100026269727
1590503917.9657135,-1.2905701876718332,-2.9853970594094914,8.58975534924493,0.5577777777777778,0.10222222222222224,-0.68,-0.006005111038789212,-0.10122063840671092,1.7233882406915533
1590503917.9757135,-1.449337570227517,-3.1692329760529145,9.107838387058214,0.5577777777777778,0.10222222222222224,-0.68,-0.031527604450092714,-0.13403527279267258,1.688750571061927
1590503917.9857135,-1.4585681463854927,-3.07575038975958,8.518797899401001,0.5701539892234895,0.09079802704156524,-0.68,-0.03443801204026659,-0.13323754646444094,1.6577629384779506
1590503917.9957135,-1.469463196907504,-3.041560594588132,8.875805204638743,0.5722222222222222,0.08888888888888889,-0.68,-0.03640187481892977,-0.12458893373956952,1.6134769667371311
1590503918.0057135,-1.4026031164069659,-2.9245554537121907,8.97609532538955,0.5722222222222222,0.08888888888888889,-0.68,-0.05281180745321978,-0.15376214731164067,1.5797454385444243
1590503918.0157135,-1.599083575701037,-3.1412039730011525,9.05373465766705,0.5722222222222222,0.08888888888888889,-0.68,-0.02610381667350685,-0.10583443017926178,1.5639543760947616
1590503918.0257134,-1.5306345358619706,-2.9424069585056327,8.815820618850706,0.5721237542975743,0.087214934169875,-0.6811816150957746,-0.05748225590421507,-0.14746206869323197,1.4989739546724596
1590503918.0357134,-1.76,-3.215986077050866,8.743457004983782,0.57,0.05111111111111112,-0.7066666666666667,-0.02057645469821266,-0.10863763338774807,1.4664334366939071
1590503918.0457134,-1.7881308713961774,-3.2423072562358275,9.165169258179462,0.57,0.05111111111111112,-0.7066666666666667,-0.05149714242686419,-0.11320682144100733,1.4310622993399287
1590503918.0557134,-1.9057450972228005,-3.261986925927468,8.736803930549195,0.57,0.05111111111111112,-0.7066666666666667,-0.027277900362796627,-0.10303288934700214,1.3886628767670288
1590503918.0657134,-1.8647917510918997,-3.1435938133189247,9.146560853707957,0.57,0.05111111111111112,-0.7066666666666667,-0.08388016706779539,-0.13518339900540696,1.3330008400624678
1590503918.0757134,-1.8982555395507064,-3.153427625731711,8.499250360109107,0.5683524540201116,0.04771910468192917,-0.711221646728711,-0.01300151009759529,-0.10348954913313538,1.3045250977769451
1590503918.0857134,-1.8749423948758475,-2.9850576051241524,8.80126148983072,0.5511111111111111,0.012222222222222223,-0.7588888888888888,-0.021665805787556777,-0.09799882558524661,1.2505558034567352
1590503918.0957134,-1.9089418031066332,-3.0426267317380353,8.492630142737196,0.5511111111111111,0.012222222222222223,-0.7588888888888888,0.014525605966868674,-0.047365588733996704,1.2185166299415233
1590503918.1057134,-2.1666513652283315,-3.2549311435274917,8.601857934645857,0.5511111111111111,0.012222222222222223,-0.7588888888888888,-0.008761697947871922,-0.034241122254046574,1.1462154167175465
1590503918.1157134,-2.152389404604033,-3.190752320718148,8.78013244244959,0.5511111111111111,0.012222222222222223,-0.7588888888888888,-0.04143220785012042,-0.09180344922467487,1.084763743329984
1590503918.1257133,-1.7876789320170519,-2.778509086829706,8.437886470720215,0.5511111111111111,0.012222222222222223,-0.7588888888888888,-0.003109858949470773,-0.07581065904658398,1.0413543742801266
1590503918.1357133,-2.0360453853901044,-3.0525328390511497,8.959749073220905,0.5540541615178939,-0.02799946667047616,-0.7716421073182811,-0.018554548453595672,-0.05889443710365269,0.9963494608030466
1590503918.1457133,-2.0864692355933383,-3.0032346177966693,8.84451025480222,0.5544444444444444,-0.03333333333333333,-0.7733333333333333,-0.04704487405864231,-0.07505611535632091,0.9051037995924917
1590503918.1557133,-2.2591427334391687,-3.09130947226632,8.79216673882715,0.5544444444444444,-0.03333333333333333,-0.7733333333333333,-0.03551956403494798,-0.07228051417615161,0.8505207138835597
1590503918.1657133,-2.181421951809171,-3.074482230639052,8.856120557659763,0.5544444444444444,-0.03333333333333333,-0.7733333333333333,-0.060186208228969626,-0.06360201001986016,0.8073277387988085
1590503918.1757133,-2.2997235877185913,-3.2096841002498184,8.889921025062455,0.5544444444444444,-0.03333333333333333,-0.7733333333333333,-0.037142089287954615,-0.06544553953514134,0.7778312665543092
1590503918.1857133,-2.098720606622837,-2.8838381801314887,8.67,0.5288888888888889,-0.10666666666666667,-0.78,-0.02794291984128843,-0.04161678046322713,0.7462791227608788
1590503918.1957133,-2.0902619691041826,-2.9092140926874523,8.67,0.5288888888888889,-0.10666666666666667,-0.78,-0.025174837186290114,-0.049921028428222075,0.7112167424642335
1590503918.2057133,-2.1461623628983504,-2.9591420675360567,8.627878227826237,0.5288888888888889,-0.10666666666666667,-0.78,-0.014367972000648415,-0.027970148572956106,0.6856253856982899
1590503918.2157133,-2.1435848518346825,-2.9535848518346826,8.645220197553757,0.5288888888888889,-0.10666666666666667,-0.78,-0.026145669196796888,-0.04159568869678627,0.6291211235766132
1590503918.2257133,-1.9798751929364513,-2.7962801852189934,8.413015285545947,0.5288888888888889,-0.10666666666666667,-0.78,-0.026265571521873154,-0.005598190719040323,0.6067948224955436
1590503918.2357132,-1.9161725739848587,-2.753620956641431,8.829624053682037,0.507563087864189,-0.13574730442762103,-0.7305629158063777,0.004412403007759885,0.011604153510805168,0.5711287427388645
1590503918.2457132,-1.7540132867728473,-2.635509965079635,8.685917937143344,0.5044444444444445,-0.14,-0.7233333333333334,-0.030201988238850168,-0.05065325370805599,0.5219661528297597
1590503918.2557132,-1.9259187358916479,-2.8024177808647335,8.85984511199861,0.5044444444444445,-0.14,-0.7233333333333334,-0.07122259391247958,0.009226697183012219,0.49175579799759517
1590503918.2657132,-1.8312392776523703,-2.7514365341205074,8.320900503559646,0.5044444444444445,-0.14,-0.7233333333333334,-0.05136119631296193,0.0052544176631086886,0.4830167830538074
1590503918.2757132,-1.908117563195701,-2.971914240280748,9.234694302791029,0.5044444444444445,-0.14,-0.7233333333333334,-0.03328376714440426,-0.005366645800687997,0.46840741547106113
1590503918.2857132,-1.7486570932617957,-2.7258513492188734,8.914508442480669,0.517771114968527,-0.16284572089842722,-0.7090547577718164,-0.036306745618208534,-0.03831902459049567,0.43790512676845306
1590503918.2957132,-1.7143368421052632,-2.6662947368421053,8.361452631578947,0.52,-0.16666666666666666,-0.7066666666666667,0.008423510126730527,-0.013129009649541555,0.3828448608825298
1590503918.3057132,-1.6465187667560321,-2.6037337801608578,9.105371849865952,0.52,-0.16666666666666666,-0.7066666666666667,-0.08987550757102046,0.022858285935230482,0.2983969360206641
1590503918.3157132,-1.6146339491450055,-2.525853579658002,7.701947689695598,0.52,-0.16666666666666666,-0.7066666666666667,0.03373615893207153,-0.1193533005580672,0.17256434098177487
1590503918.3257132,-1.6994118122650281,-2.559764724906011,9.219471439544003,0.52,-0.16666666666666666,-0.7066666666666667,-0.06151649291648794,0.07392635222201954,0.07268777399493584
1590503918.3357131,-1.6648084174938234,-2.4786290147804606,8.562943522170691,0.5011111111111111,-0.15777777777777774,-0.7511111111111111,-0.061758417141923046,0.03210473243965437,-0.09156817797496289
1590503918.3457131,-1.8702034146469004,-2.5522375611159043,8.677119512641514,0.5011111111111111,-0.15777777777777774,-0.7511111111111111,0.022463664515526345,0.035464877522103956,-0.211277640108358
1590503918.3557131,-1.8723823757543654,-2.651535973060406,9.003918348814771,0.5011111111111111,-0.15777777777777774,-0.7511111111111111,0.0034913642761894457,0.012956636226528168,-0.36074020997428075
1590503918.3657131,-1.800968425433701,-2.572187139370779,8.85315556480448,0.5011111111111111,-0.15777777777777774,-0.7511111111111111,0.025995963365587092,0.04238572734343278,-0.43950630678717245
1590503918.375713,-1.8836686400290232,-2.659522930030837,8.841708580003628,0.5011111111111111,-0.15777777777777774,-0.7511111111111111,0.021789183435036438,0.08905358595537088,-0.5039694698513799
1590503918.385713,-2.0104294037258144,-2.784386463353233,9.303220527943608,0.47828222525913666,-0.19537829565161793,-0.7202249714290281,0.003837993524562173,0.03716192063960323,-0.6036744091826655
1590503918.395713,-1.756904484802555,-2.5101561696484156,8.385747151324871,0.4633333333333333,-0.22,-0.7,0.02212756457139102,0.100562835703113,-0.6675179646117647
1590503918.405713,-1.7421650661473373,-2.6905412665368345,9.082111342421596,0.4633333333333333,-0.22,-0.7,0.03516788336781386,0.046343349870084476,-0.7348125066120502
1590503918.415713,-1.7703317440064468,-2.697582936001612,8.58919447988718,0.4633333333333333,-0.22,-0.7,-0.00400659267514316,0.02483579439551984,-0.7862770143547584
1590503918.425713,-1.8134002243171967,-2.7918506168722907,8.570301009427384,0.4633333333333333,-0.22,-0.7,0.01806985048685435,0.05935238427155079,-0.8412871293480598
1590503918.435713,-1.82,-2.861105110511051,9.111051105110512,0.46982287117600646,-0.19566423308997566,-0.6691746952473026,-0.02906514747125245,0.02542304469361028,-0.9147663958984145
1590503918.445713,-1.6608058198097368,-2.700906547285954,8.32493564633464,0.4722222222222222,-0.18666666666666668,-0.6577777777777778,0.04208091866421834,0.05757230288257036,-0.9771920970113481
1590503918.455713,-1.800481952006453,-2.8030200981380657,9.041140686966457,0.4722222222222222,-0.18666666666666668,-0.6577777777777778,0.03334787825933207,0.0251223967770954,-1.0325515146650028
1590503918.465713,-1.8195371747665148,-2.7909256504669706,8.861107805603648,0.4722222222222222,-0.18666666666666668,-0.6577777777777778,-0.014090573685238243,0.1311032620913971,-1.0654188860490486
1590503918.475713,-1.7749152796802583,-2.8050282401065805,8.917627080479612,0.4722222222222222,-0.18666666666666668,-0.6577777777777778,0.027079695587318906,0.11258361078529837,-1.0873240889252913
1590503918.485713,-1.8557439517044165,-2.8985813172348056,8.996678089964142,0.54,-0.13444444444444445,-0.6355555555555555,0.033876160664482215,0.11714921510747922,-1.1202379088185412
1590503918.495713,-1.8328229828516773,-2.891881988567785,9.289903668784588,0.54,-0.13444444444444445,-0.6355555555555555,-0.011256218032176028,0.0241375158233776,-1.1569869579661751
1590503918.505713,-1.8525857765160787,-2.903644951299496,8.227881650433165,0.54,-0.13444444444444445,-0.6355555555555555,0.05832717202591079,0.11918261975415319,-1.1322245832084314
1590503918.515713,-1.722001356852103,-2.7953369516056084,8.264050203527814,0.54,-0.13444444444444445,-0.6355555555555555,0.045667869991407484,0.10348264151174033,-1.1316281497810317
1590503918.525713,-1.7478697421981004,-2.8643193125282678,9.221180461329716,0.54,-0.13444444444444445,-0.6355555555555555,0.01556863689392047,0.08749242392870038,-1.1372717559868106
1590503918.535713,-1.701286940747147,-2.861881156791191,9.01584048769169,0.5228602198925146,-0.06949369877397384,-0.6247304312771438,-0.016135768108464725,-0.01390037840464993,-1.1536778175065794
1590503918.545713,-1.7558705028796529,-2.901169064299783,8.719453239921215,0.5188888888888888,-0.054444444444444434,-0.6222222222222222,0.015713848624884615,0.0715902813470864,-1.1178519955189339
1590503918.555713,-1.6722138066457553,-2.92777930788259,9.04336546553439,0.5188888888888888,-0.054444444444444434,-0.6222222222222222,0.0007252176191488192,0.08423545909579562,-1.0987080868174997
1590503918.565713,-1.6406932269552115,-2.8656440898507056,8.671686584029585,0.5188888888888888,-0.054444444444444434,-0.6222222222222222,0.026600915643842017,0.11519578706988691,-1.082633471547885
1590503918.575713,-1.6157865697752658,-2.87974700578657,8.638988023146279,0.5188888888888888,-0.054444444444444434,-0.6222222222222222,0.07045040550257188,0.07649012313344714,-1.0783444325625104
1590503918.585713,-1.7624671724540415,-3.1899562299387223,9.137401517362125,0.5455555555555556,-0.015555555555555557,-0.6144444444444445,-0.00022999800316257743,0.08889554691393206,-1.0786751288382068
1590503918.595713,-1.5788824044353662,-2.945176539247155,8.586647213306097,0.5455555555555556,-0.015555555555555557,-0.6144444444444445,0.020749612260405618,0.04884356368348371,-1.0748606542448307
1590503918.605713,-1.4919213770644335,-2.9880786229355665,8.325764131193301,0.5455555555555556,-0.015555555555555557,-0.6144444444444445,0.07489102670208513,0.07442896509358873,-1.0490069753208087
1590503918.615713,-1.568052552445049,-3.224157657335147,8.885881005226606,0.5455555555555556,-0.015555555555555557,-0.6144444444444445,-0.009848248670470086,0.045467579591437976,-1.0536097649078116
1590503918.6257129,-1.4904900036915425,-3.206147001107463,8.772784005906468,0.5455555555555556,-0.015555555555555557,-0.6144444444444445,0.0018779736308501896,0.055999215775982554,-1.041600062683054
1590503918.6357129,-1.3471114440104863,-3.056518823676279,8.910074545681523,0.5544444444444444,0.0033333333333333327,-0.6222222222222222,0.015724144906970966,0.07635815477475191,-1.0255748700975342
1590503918.6457129,-1.4368722914771814,-3.1387996005207497,9.037235746259341,0.5544444444444444,0.0033333333333333327,-0.6222222222222222,0.021435788809949972,0.07635815477475191,-1.0280227174845256
1590503918.6557128,-1.2017437621516527,-3.210871881075826,8.48418745949449,0.5544444444444444,0.0033333333333333327,-0.6222222222222222,0.08824342952420526,0.03643411486802481,-1.0386611198798634
1590503918.6657128,-1.2527114387556708,-3.2363557193778356,8.314295204147763,0.5544444444444444,0.0033333333333333327,-0.6222222222222222,0.05303192617461322,0.14484848044440024,-1.0442208309350622
1590503918.6757128,-1.2971893558466283,-3.3366923252012333,8.966846276408631,0.5544444444444444,0.0033333333333333327,-0.6222222222222222,0.003372530877255836,0.10842598852942181,-1.0961306802463877
1590503918.6857128,-1.2760296483566997,-3.240912663755459,9.050530452769479,0.5612385147731045,0.02522533772568248,-0.626751602441329,-0.031268209345126405,0.048295222945400944,-1.161910905773045
1590503918.6957128,-1.2408816800409765,-3.1704408400204884,9.171183199590233,0.5644444444444444,0.03555555555555556,-0.6288888888888889,0.0409731835392156,0.09613986908789492,-1.213839022480438
1590503918.7057128,-1.1740279130152547,-3.104027913015255,8.586251217137294,0.5644444444444444,0.03555555555555556,-0.6288888888888889,0.03855568637362665,0.076648223608508,-1.2768692487883322
1590503918.7157128,-1.17,-3.044224734982332,8.364082449941108,0.5644444444444444,0.03555555555555556,-0.6288888888888889,0.07062781124506652,0.0935197367872064,-1.3029438431780016
1590503918.7257128,-1.1766492892772755,-3.169582942654615,8.602412331695607,0.5644444444444444,0.03555555555555556,-0.6288888888888889,0.030336984716586163,0.1250288535107122,-1.343469777347113
1590503918.7357128,-1.1422149725274724,-3.4861564217032965,8.931140109890109,0.6148244810744811,0.02820846688034188,-0.6687730845543346,-0.038125790753169186,0.08786338528237722,-1.4074844055041125
1590503918.7457128,-1.1810801930382995,-3.3767594208851013,8.578494301262964,0.6177777777777778,0.027777777777777776,-0.6711111111111111,0.017894261899827117,0.08866972416408947,-1.4328499713264544
1590503918.7557127,-1.1591895773016792,-3.4116208453966417,8.808104226983207,0.6177777777777778,0.027777777777777776,-0.6711111111111111,0.020460574659584018,0.11045372260286927,-1.4511585543307512
1590503918.7657127,-1.1261098125031084,-3.469816979161486,8.804439250012432,0.6177777777777778,0.027777777777777776,-0.6711111111111111,0.028746025019139212,0.11932490891924293,-1.4690670115415903
1590503918.7757127,-1.1538942259414227,-3.5195432635983264,8.667019246861924,0.6177777777777778,0.027777777777777776,-0.6711111111111111,0.034715164776213364,0.11691031399079402,-1.4720053419534522
1590503918.7857127,-1.18,-3.600307373354967,8.759669190553453,0.751132243655229,-0.05686637421629308,-0.630386094585662,0.026112880316451575,0.11218536795746474,-1.458987449829516
1590503918.7957127,-1.1678132787165045,-3.6626535244922342,8.88484024577573,0.8033333333333333,-0.09,-0.6144444444444445,0.013840425221684168,0.1112647398146385,-1.4361310046042246
1590503918.8057127,-1.0867688996502556,-3.6314151197202045,8.92,0.8033333333333333,-0.09,-0.6144444444444445,0.029496158269344576,0.10087998380995204,-1.3966660434662155
1590503918.8157127,-0.9086171273733135,-3.353307302937358,8.479015110174435,0.8033333333333333,-0.09,-0.6144444444444445,0.0370882466048795,0.09923784960832278,-1.3419317852528059
1590503918.8257127,-0.9144781503648438,-3.4344445355415267,8.503434451094531,0.8033333333333333,-0.09,-0.6144444444444445,0.05268309330533634,0.08121730194820419,-1.2755741592778578
1590503918.8357127,-0.7895647868940996,-3.353343984877807,8.587558395967417,1.2927883043041242,-0.13588640352851164,-0.4877105680323647,0.0010213620594561462,0.09450102869669104,-1.2057947440866166
1590503918.8457127,-0.7,-3.1719677734375002,8.230530598958333,1.55,-0.16,-0.4211111111111111,0.04322736554973017,0.07663654388070151,-1.1302977645869943
1590503918.8557127,-0.7210213222773376,-3.216056859406234,8.649476197527207,1.55,-0.16,-0.4211111111111111,0.05683460966771264,0.088046325444995,-1.0911262444360252
1590503918.8657126,-0.7776439597005269,-3.271762639800351,9.000872539051668,1.55,-0.16,-0.4211111111111111,-0.0028193826759356985,0.06545176263375699,-1.0725436633223628
1590503918.8757126,-0.6994413766533967,-3.227174136381148,8.866429305252344,1.55,-0.16,-0.4211111111111111,0.03084794368104881,0.06933884710179283,-1.0539086049672988
1590503918.8857126,-0.6521775230967138,-3.1832662846450708,8.711976377031926,0.9272034459907224,0.1023864655206019,-0.6696356501513793,0.05273811557527859,0.04295163746628573,-1.0366235981232321
1590503918.8957126,-0.6255586109867621,-3.3022069450661893,8.80591268572403,0.8511111111111112,0.13444444444444445,-0.7,0.05345070834232633,0.03926990816987242,-1.0351984125891367
1590503918.9057126,-0.5468673020527859,-3.4518878299120233,8.691860459433041,0.8511111111111112,0.13444444444444445,-0.7,0.029518088903975392,0.07738482060872763,-1.005061039963065
1590503918.9157126,-0.49458419442837065,-3.529582127800281,8.78041373894354,0.8511111111111112,0.13444444444444445,-0.7,0.020135012124477752,0.0900388969076643,-0.9981101659842572
1590503918.9257126,-0.4235835116567181,-3.4058245297893905,8.616871044036492,0.8511111111111112,0.13444444444444445,-0.7,0.028800930323307147,0.05744042899347764,-1.0083669730051246
1590503918.9357126,-0.42296570537802025,-3.35296570537802,8.786691348402183,0.6441597384602061,0.20678585346843334,-0.7192299948038452,0.007936580395096492,0.07664425341723832,-1.0126746274120515
1590503918.9457126,-0.4057763851586591,-3.37211180742067,8.856055903710335,0.6,0.2222222222222222,-0.7233333333333334,0.019357173640970136,0.07583644837842814,-1.0188969323397794
1590503918.9557126,-0.2699544871046797,-3.2811389893803247,8.662277978760649,0.6,0.2222222222222222,-0.7233333333333334,0.043638195986579836,0.08675955535547551,-1.0285913056603082
1590503918.9657125,-0.2674909660045573,-3.2954061270053168,8.40586645798329,0.6,0.2222222222222222,-0.7233333333333334,0.01627780039377344,0.06359209285654133,-1.0576008033900872
1590503918.9757125,-0.28,-3.403117187816027,8.838888394482424,0.6,0.2222222222222222,-0.7233333333333334,0.017793324962397796,0.07086863413470315,-1.0719062076343429
1590503918.9857125,-0.24979205711735833,-3.3216162427487728,8.709952699687639,0.5630791809212157,0.24236085081065,-0.7107466904655659,0.027026415678960605,0.07936361018905183,-1.0953302039248736
1590503918.9957125,-0.21555539443155453,-3.2392589907192573,8.875187064965196,0.5511111111111111,0.2488888888888889,-0.7066666666666667,0.018584459997558166,0.0698535067748916,-1.1195157091347836
1590503919.0057125,-0.22473944449221775,-3.3184366669533065,8.733647777108951,0.5511111111111111,0.2488888888888889,-0.7066666666666667,0.022793757645050414,0.07808236436463609,-1.133202649832755
1590503919.0157125,-0.23746563465936218,-3.387328173296811,8.749587615912345,0.5511111111111111,0.2488888888888889,-0.7066666666666667,0.026717856816879434,0.09321355042346081,-1.150490040326725
1590503919.0257125,-0.22151587823463428,-3.430806869608943,8.749193130391058,0.5511111111111111,0.2488888888888889,-0.7066666666666667,0.027942871196047183,0.08162560206856143,-1.1679597297028268
1590503919.0357125,-0.15191640378548896,-3.464520899053628,8.875208990536278,0.5365902120574834,0.24082172274798458,-0.7187674158780232,0.02440163942560265,0.09337862060901418,-1.1822515210020679
1590503919.0457125,-0.16458261299086194,-3.5460817485798963,8.798586070634725,0.5311111111111111,0.23777777777777775,-0.7233333333333334,0.022152970856633696,0.09465698259004347,-1.1982227901554052
1590503919.0557125,-0.10112892931227062,-3.5513196106590077,8.711319610659007,0.5311111111111111,0.23777777777777775,-0.7233333333333334,0.031202251114070476,0.09475833088441608,-1.217573500783621
1590503919.0657125,-0.08510422698320788,-3.5702084539664156,8.684895773016791,0.5311111111111111,0.23777777777777775,-0.7233333333333334,0.0373780084007511,0.10917403345096549,-1.234354616195895
1590503919.0757124,3.6547036324740154,-7.001765888022128,5.739205220736003,0.5311111111111111,0.23777777777777775,-0.7233333333333334,-1.045614636151608,1.0735707077720509,-2.77758967921859
1590503919.0857124,2.2284867837159945,-3.738211460544086,2.0314950800694582,0.48283435161961114,0.2801671275751924,-0.6921300619546809,-3.0997489909072544,0.698717525124006,-3.728931241565072
1590503919.0957124,-0.5607878961474723,0.16601960022096285,-0.04842420770505555,0.44,0.31777777777777777,-0.6644444444444444,-4.419290357291522,0.23707430666289872,-2.912679592138444
1590503919.1057124,-0.6094279845144979,-0.5546519712412104,-0.2958718495694082,0.44,0.31777777777777777,-0.6644444444444444,-4.340931408559518,0.6742852797761224,-0.9759702741815948
1590503919.1157124,-0.5136601488723475,-0.4785112765248306,-0.4779157871347628,0.44,0.31777777777777777,-0.6644444444444444,-4.422520302411434,0.6769369411029948,-0.6660017291080809
1590503919.1257124,-0.1354848002578617,-0.9518437115977356,1.817871230282641,0.44,0.31777777777777777,-0.6644444444444444,-4.494078380388685,0.6978016101596473,-0.4711280767157966
1590503919.1357124,-0.36881001197702035,-1.2358967540244818,3.4431144312945334,0.4348206491951036,0.38108095428206673,-0.6414251075337939,-3.8179766948500715,-0.13875949495113382,-0.40808809748098235
1590503919.1457124,1.2919625180540388,-1.734338253425864,4.05178955155529,0.43,0.44,-0.62,-2.0155137073439846,-1.8698942728511823,-0.43851278332271654
1590503919.1557124,0.8578988068161939,-1.5111487455824206,4.881052521081913,0.43,0.44,-0.62,0.25864357797036575,-0.6211833393541064,-0.39985423543002285
1590503919.1657124,-0.07698596826915416,-0.7903938451726062,2.8795192537670413,0.43,0.44,-0.62,2.4440690281194324,0.6252364532631007,-0.34807259692147674
1590503919.1757123,0.23426971519723505,-0.9695766175933003,3.372213286364693,0.43,0.44,-0.62,3.3377735907380686,-0.02344504971926953,-0.3684283414828635
1590503919.1857123,2.235639084660228,-2.5488492995736536,8.950935351953362,0.42194171331341784,0.5132571516962016,-0.5687199938126589,4.711545112248679,-0.21411272308520646,-0.4120693719328823
1590503919.1957123,2.1019719593642794,-3.1634679571104227,8.752186241527319,0.4177777777777778,0.5511111111111111,-0.5422222222222223,5.903412681431737,0.0032880030750441352,-0.4237165054653077
1590503919.2057123,1.9810284074037416,-2.3941561912303277,14.07808472730872,0.4177777777777778,0.5511111111111111,-0.5422222222222223,6.869354343766158,0.020650421125357775,-0.3966614006194462
1590503919.2157123,-0.05139636819035687,-0.7995522855353788,5.617479649342519,0.4177777777777778,0.5511111111111111,-0.5422222222222223,4.066003436759766,-0.25827724069210933,-0.003042304511733984
1590503919.2257123,-0.7563127107061502,-0.057597630979498826,-1.1240225968109339,0.4177777777777778,0.5511111111111111,-0.5422222222222223,1.4954005680384368,-0.39173014566535336,0.35188745939676835
1590503919.2357123,-0.2880141167493323,0.2796848107168596,-1.0561384543643224,0.4237229688037268,0.5154399649554171,-0.5834139029020118,0.21700730197347995,-0.17992939072321015,0.6266655676283688
1590503919.2457123,0.6546510075514205,-1.16682882055989,5.450750552797363,0.43333333333333335,0.4577777777777778,-0.65,-0.6129587922743808,0.33886394982518053,0.8921592725472669
1590503919.2557123,2.5429212443622067,-4.956255348675842,18.917530935584598,0.43333333333333335,0.4577777777777778,-0.65,-1.5041168825701015,0.3986112911878509,1.0904467777662696
1590503919.2657123,1.1335172901742283,-4.169563986910763,15.064912885822942,0.43333333333333335,0.4577777777777778,-0.65,-0.1745914848779484,-0.06324753996271476,1.078105484580615
1590503919.2757123,0.018523075705722924,-3.1021461494332456,10.122956024608811,0.43333333333333335,0.4577777777777778,-0.65,0.7185525338221102,0.1370200937895763,1.157426960946284
1590503919.2857122,-0.19395751740644038,-1.6755393276762403,4.057774967362924,0.4259480768300938,0.4033954344357412,-0.6587280304129194,0.35623513753499114,0.03164017461989971,1.196437104638345
1590503919.2957122,-0.07247228055913106,-3.5858117110403542,11.21169297473071,0.4211111111111111,0.36777777777777776,-0.6644444444444444,-0.3377127660093335,-0.1799892468311045,1.197057447317094
1590503919.3057122,-0.013736908482754837,-3.8935735044141033,12.951876770667692,0.4211111111111111,0.36777777777777776,-0.6644444444444444,-0.2985133572851858,-0.18079046299358276,1.2370999034977914
1590503919.3157122,-0.12268145465519843,-2.7129244001810777,8.410977818017203,0.4211111111111111,0.36777777777777776,-0.6644444444444444,0.10399928336245637,-0.08162614155052023,1.3062296163587575
1590503919.3257122,-0.18673722613496693,-2.8088822990030633,8.282447080398775,0.4211111111111111,0.36777777777777776,-0.6644444444444444,0.011356881312165557,-0.09051586441520029,1.3420217414443647
1590503919.3357122,-0.15610043089161418,-2.843707325157441,8.822436194895593,0.441445880749825,0.36777777777777776,-0.6644444444444444,-0.1313203706033979,-0.11584716916079695,1.3668447764601588
1590503919.3457122,-0.24266284399481383,-2.8218262997388655,8.295817278720257,0.4544444444444444,0.36777777777777776,-0.6644444444444444,0.03547778667404386,-0.11533759172477145,1.3970672471314631
1590503919.3557122,-0.29302587836516525,-3.032902027247246,8.895691284792386,0.4544444444444444,0.36777777777777776,-0.6644444444444444,-0.0062185389533425395,-0.11910178409821924,1.4217402483489576
1590503919.3657122,-0.24335964837415722,-3.005730989161048,9.132766066399249,0.4544444444444444,0.36777777777777776,-0.6644444444444444,-0.07299507794733005,-0.12296421881800629,1.4438848636618462
1590503919.3757122,-0.26038861428327936,-2.9307772285665585,8.81604208094237,0.4544444444444444,0.36777777777777776,-0.6644444444444444,-0.021828225727003582,-0.12537614808514735,1.463378385631431
1590503919.3857121,3.5448864520693317,-12.360732224973468,4.797332861690838,0.47563345517431116,0.35012026883622216,-0.6674714459772825,-0.12807418364562762,-0.0893954154682506,1.1102683297797207
1590503919.3957121,2.055852711223203,-8.623976544766709,4.486939974779319,0.5011111111111111,0.3288888888888889,-0.6711111111111111,-0.4640964462034278,-0.07610279307681668,-2.4108087421988356
1590503919.4057121,0.18957632091636745,-2.7716886134779237,10.717038471469145,0.5011111111111111,0.3288888888888889,-0.6711111111111111,0.16924707001552253,0.39108540593867724,-4.1845649158030245
1590503919.415712,0.18344236337314512,-1.6293526058631924,5.847698154180239,0.5011111111111111,0.3288888888888889,-0.6711111111111111,0.8207073451403571,0.6836738501360933,-3.984200114456264
1590503919.425712,-0.0057302671177435205,-1.7369444386791475,4.931709387517902,0.5011111111111111,0.3288888888888889,-0.6711111111111111,0.4047935131968168,0.3639058672727986,-3.5899681178780383
1590503919.435712,-9.015267119763886,-15.054648939914975,10.465166932928975,0.49697507965304666,0.33243405871008697,-0.6711111111111111,-0.38257666471424273,0.12213326130660307,-2.571933650841641
1590503919.445712,-6.693454583732953,-11.014090154155653,11.862913752368476,0.4933333333333334,0.33555555555555555,-0.6711111111111111,-0.3026522496660011,-0.10273847939141029,-0.11280921371513108
1590503919.455712,-0.03631589438776428,-1.0074262000978562,9.479475925556784,0.4933333333333334,0.33555555555555555,-0.6711111111111111,0.24390806691341704,-0.09188116921847617,1.2864019972086016
1590503919.465712,-0.9686946742404026,-1.9857249056459914,6.727157180435363,0.4933333333333334,0.33555555555555555,-0.6711111111111111,0.3747330808292173,0.12912989570501543,1.48332297604212
1590503919.475712,-0.4198155459868588,-2.124843333283669,7.342899712442451,0.4933333333333334,0.33555555555555555,-0.6711111111111111,-0.15905208981293326,-0.15115233089478372,1.5143085135959238
1590503919.485712,-0.17843999550106854,-2.9204184006298504,10.118152063884827,0.4913811719716568,0.33755533060898035,-0.6721109986378235,-0.34585727918934533,-0.42427256586490913,1.518965608290843
1590503919.495712,3.3715120476870117,-8.636404374107968,8.279665225421878,0.4477777777777778,0.38222222222222224,-0.6944444444444444,-0.026409648821909465,-0.12728205265513853,1.4015855861386588
1590503919.505712,3.065276898439536,-9.58214032996909,8.244042307549067,0.4477777777777778,0.38222222222222224,-0.6944444444444444,-0.02289590883821199,-0.07019391068882147,0.1527972758356576
1590503919.515712,-0.6430145106738917,-1.2686631268865696,7.717940138924247,0.4477777777777778,0.38222222222222224,-0.6944444444444444,0.12153859090961561,0.18046420104598387,-1.0294918327294957
1590503919.525712,-1.5536573886229001,-3.930327030755498,7.974465633368498,0.4477777777777778,0.38222222222222224,-0.6944444444444444,0.15198345326058976,0.14437366263502188,-1.0052381427699217
1590503919.535712,-3.3961547581903275,-7.398115444617784,9.333507644305772,0.45474279771190845,0.3740280811232449,-0.6858405962905183,-0.14309548836542152,0.003388348446822221,-0.5934238580267108
1590503919.545712,-0.9966256975090266,-5.5183781319522955,8.865821875341917,0.4666666666666667,0.36,-0.6711111111111111,-0.020846647915582633,-0.015304014931643628,0.3477111737522053
1590503919.555712,0.034539571491036314,-2.6583572365544383,8.881309575863577,0.4666666666666667,0.36,-0.6711111111111111,0.07754287713553187,-0.06979499751623444,0.5171502104235133
1590503919.565712,-0.8578319574478326,-3.4702247948205733,8.504989530433946,0.4666666666666667,0.36,-0.6711111111111111,-0.03337497450318828,-0.00329971782876326,-0.07563369968287958
1590503919.575712,-1.051662198391421,-4.806177709689774,8.490505553427806,0.4666666666666667,0.36,-0.6711111111111111,-0.04988743919490686,0.04348742511713466,-0.2326180976820248
1590503919.585712,-0.44833614766507507,-4.959583090718528,8.83202253406312,0.45695440782578317,0.36399916540506966,-0.6785381325776692,-0.018521384428552848,0.005206693988841531,-0.010460707701274524
1590503919.595712,-0.16207339449541283,-4.427987155963303,8.677866055045872,0.4477777777777778,0.36777777777777776,-0.6855555555555556,0.006997329202949744,-0.004536254835688014,0.033503316302990686
1590503919.605712,-0.13111954012156624,-4.433244828723555,8.578842529331386,0.4477777777777778,0.36777777777777776,-0.6855555555555556,-0.007639953058306882,-0.0006023392517587505,-0.0030323841629522055
1590503919.615712,-0.13527882256745707,-4.396654129190515,8.534721177432543,0.4477777777777778,0.36777777777777776,-0.6855555555555556,-0.009939136338242852,0.0012124900782712043,-0.003394151643264116
1590503919.625712,-0.13,-4.434890958938252,8.560087232849398,0.4477777777777778,0.36777777777777776,-0.6855555555555556,-0.0048968439865629265,-0.0008169336334052295,-0.001090830782496456
1590503919.635712,-0.13,-4.369555112468067,8.612355910025546,0.4477777777777778,0.36777777777777776,-0.6855555555555556,0.002230191266451102,-0.00010423010810382675,-0.001090830782496456
1590503919.645712,-0.1385274957086427,-4.469077409881496,8.756747461377783,0.4811111111111111,0.36777777777777776,-0.6711111111111111,0.0038814472274746187,-0.00048187590251120514,-0.00016062530083706835
1590503919.655712,-0.13,-4.296303640130216,8.677898786623262,0.4811111111111111,0.36777777777777776,-0.6711111111111111,0.0009475765180002138,-0.0031865397887916227,-0.0010621799295972075
1590503919.6657119,-0.12400230370512574,-4.53,8.576009214820502,0.4811111111111111,0.36777777777777776,-0.6711111111111111,-0.003709075955734446,0.00032712358712568896,-0.0006542471742513779
1590503919.6757119,-0.11272969805769567,-4.5136218116538265,8.548661829605804,0.4811111111111111,0.36777777777777776,-0.6711111111111111,-0.0012883699645163467,0.001090830782496456,-0.0018838976981673903
1590503919.6857119,-0.12834742505764796,-4.40173712528824,8.71347425057648,0.47798958066444613,0.36649244171150397,-0.6676223417883679,0.004183055168235833,0.0009105628207464651,0.0001802679617499908
1590503919.6957119,-0.12349549047602465,-4.3460180380959015,8.640486471428074,0.4622222222222222,0.36,-0.65,0.0028911934863722795,-0.00019064943055854418,0.001090830782496456
1590503919.7057118,-0.14,-4.382098489087857,8.644231711788201,0.4622222222222222,0.36,-0.65,-0.0035176729999895845,-0.0007067888006226193,0.0007067888006226193
1590503919.7157118,-0.14501213337727314,-4.514866532849996,8.577542466820457,0.4622222222222222,0.36,-0.65,-0.01063229126398415,0.00027336946869537296,-0.00027336946869537296
1590503919.7257118,-0.1500579449131805,-4.3997102754340975,8.613429908188635,0.4622222222222222,0.36,-0.65,-0.007267991343643947,0.001090830782496456,-0.001090830782496456
1590503919.7357118,-0.13,-4.4794898127118925,8.61589282775419,0.4670649053319143,0.36,-0.6554124105343617,-0.004811346121460456,0.0008111664868885137,-0.001090830782496456
1590503919.7457118,-0.1342687284920145,-4.432806185476044,8.715731271507986,0.4811111111111111,0.36,-0.6711111111111111,0.005613692606736923,-0.0009312920882418124,-0.001090830782496456
1590503919.7557118,-0.13689080213487087,-4.412689625618451,8.682017219213838,0.4811111111111111,0.36,-0.6711111111111111,0.003685001381954797,-0.001503339816961885,-0.001090830782496456
1590503919.7657118,-0.1254867013355937,-4.334513298664406,8.62,0.4811111111111111,0.36,-0.6711111111111111,0.0008687962013303656,0.0001641081704578183,-0.001090830782496456
1590503919.7757118,-0.1024778174400816,-4.371563148053714,8.621651878293386,0.4811111111111111,0.36,-0.6711111111111111,-0.006364792725842231,0.001090830782496456,-0.001090830782496456
1590503919.7857118,-0.12386639469658338,-4.471376508584056,8.635910929797722,0.4811111111111111,0.36,-0.6711111111111111,-0.004809371494829182,0.001090830782496456,-0.001090830782496456
1590503919.7957118,-0.13,-4.390638519248672,8.692554076994687,0.4666666666666667,0.36,-0.6577777777777778,0.005314850622148687,0.0023209648553265045,-6.965164516679632e-05
1590503919.8057117,-0.13,-4.39829472646624,8.723178905864959,0.4666666666666667,0.36,-0.6577777777777778,0.003644525320129855,0.003991290157345337,-0.0009048142961762126
1590503919.8157117,-0.12541085749537323,-4.37529714168209,8.606118856672836,0.4666666666666667,0.36,-0.6577777777777778,0.0028615297571928933,0.001090830782496456,0.0004233670612551534
1590503919.8257117,-0.10041221290357946,-4.458763361289262,8.63958778709642,0.4666666666666667,0.36,-0.6577777777777778,-0.005431671186273944,0.0011357962349131273,-0.0032500096212810326
1590503919.8357117,-0.12,-4.3986877588976245,8.629185687716628,0.4650628164304299,0.36,-0.6577777777777778,-0.004363323129985824,0.0026999191520780488,-0.0023248048638457417
1590503919.8457117,-0.12064740958723766,-4.391618523968094,8.688705180825524,0.4544444444444444,0.36,-0.6577777777777778,-0.0041867695533252805,-0.0011614522131606732,-0.0031312494861609336
1590503919.8557117,-0.1306805563190589,-4.424467593865098,8.64378703754604,0.4544444444444444,0.36,-0.6577777777777778,0.0004131017129689454,-0.002255898743198102,0.0007519662477327006
1590503919.8657117,-0.11295569533707098,-4.39295569533707,8.62704430466293,0.4544444444444444,0.36,-0.6577777777777778,-0.0015744553011001938,0.0,-0.0001612081728679126
1590503919.8757117,-0.12355396010532498,-4.41,8.62289207978935,0.4544444444444444,0.36,-0.6577777777777778,-0.005418053941332584,0.0003515769371155866,-0.0007392538453808693
1590503919.8857117,-0.11,-4.423684510792051,8.65,0.4568338034716279,0.36,-0.6590810645198779,-0.006569566504948467,0.001090830782496456,-0.00042649958901069005
1590503919.8957117,-0.12187323741694948,-4.452295779360451,8.6737464748339,0.4666666666666667,0.36,-0.6644444444444444,-2.30460879433788e-05,0.0015225538779063625,-0.001318215374173099
1590503919.9057117,-0.14,-4.413867366124277,8.67906107100578,0.4666666666666667,0.36,-0.6644444444444444,0.0036943565490439615,0.0017597973634383183,0.0
1590503919.9157116,-0.14,-4.412957056328123,8.640564415507816,0.4666666666666667,0.36,-0.6644444444444444,0.003979190142152234,0.0003225648068292757,0.00038413298783359013
1590503919.9257116,-0.13626206068391583,-4.407475878632169,8.661868969658043,0.4666666666666667,0.36,-0.6644444444444444,0.0020492545667628592,-0.0004792118921332015,0.0006830848555876197
1590503919.9357116,-0.12454891994917408,-4.4309021601016525,8.667725540025414,0.4666666666666667,0.36,-0.6644444444444444,-0.0017838617751879783,0.0014373462788422173,-0.000594620591729326
1590503919.9457116,-0.13,-4.4,8.66965723003899,0.4811111111111111,0.38222222222222224,-0.68,-0.002144271162514393,0.001090830782496456,-0.0021567346300072326
1590503919.9557116,-0.13,-4.4,8.629887684884917,0.4811111111111111,0.38222222222222224,-0.68,0.001918142628234247,0.0013666013977423862,-0.0005515412304918606
1590503919.9657116,-0.128806055905082,-4.398806055905082,8.607163664569507,0.4811111111111111,0.38222222222222224,-0.68,0.0037121276443276216,0.0017909442735979907,-0.0019211833707296312
1590503919.9757116,-0.12221103756217931,-4.396633112686538,8.66221103756218,0.4811111111111111,0.38222222222222224,-0.68,-0.002296764699537013,-0.000608457215680233,-0.00048237356681622294
1590503919.9857116,-0.1294278410288847,-4.420572158971115,8.66885568205777,0.48003036638789326,0.38095075784196597,-0.6808264518471666,-0.006544984694978735,0.001090830782496456,-0.002119248703175502
1590503919.9957116,-0.12185224100147098,-4.433704482002942,8.653704482002942,0.4622222222222222,0.36,-0.6944444444444444,-0.005534743944475428,0.001090830782496456,-0.0012928789325971175
1590503920.0057116,-0.13,-4.445168271584789,8.655504814754366,0.4622222222222222,0.36,-0.6944444444444444,-0.0008273008780976875,0.0008273008780976875,-0.002181661564992912
1590503920.0157115,-0.13,-4.431477068712257,8.614431206136771,0.4622222222222222,0.36,-0.6944444444444444,-8.056160095962889e-05,8.056160095962889e-05,-0.002181661564992912
1590503920.0257115,-0.12595355069227335,-4.407976775346137,8.66606967396159,0.4622222222222222,0.36,-0.6944444444444444,0.00261039362778741,0.00087013120926247,0.00022069957323398595
1590503920.0357115,-0.11154361493798742,-4.400771807468994,8.687684577593018,0.4622222222222222,0.36,-0.6944444444444444,0.00025257340360170617,8.41911345339022e-05,0.0010066396479625538
1590503920.0457115,-0.12553327874605216,-4.4444667212539475,8.67,0.4744444444444445,0.3744444444444445,-0.6711111111111111,-0.00030179353921635485,-0.0007890372432801012,-0.00030179353921635485
1590503920.0557115,-0.14,-4.42485316774826,8.641692422615435,0.4744444444444445,0.3744444444444445,-0.6711111111111111,-0.000529398477242199,0.00028071615262712847,-0.0008101146298693275
1590503920.0657115,-0.1421043774541375,-4.407895622545863,8.583148151995513,0.4744444444444445,0.3744444444444445,-0.6711111111111111,0.0013203827529929262,0.0008612788119999857,0.00022955197049647023
1590503920.0757115,-0.14881811089774363,-4.400590944551128,8.671181889102256,0.4744444444444445,0.3744444444444445,-0.6711111111111111,0.001988275412857161,0.0,0.001026368731784539
1590503920.0857115,-0.13623319731156985,-4.406883401344215,8.68376680268843,0.4744444444444445,0.3744444444444445,-0.6711111111111111,-7.092625737127427e-05,0.0,0.0003399681750417274
1590503920.0957115,-0.14796571331579395,-4.4279657133157935,8.698982856657896,0.46745777815496903,0.3684558733391798,-0.6790958725847973,-0.0059902190610900815,0.0029396329671561756,-0.000979877655718725
1590503920.1057115,-0.13,-4.4343996560894166,8.618001719552916,0.4666666666666667,0.36777777777777776,-0.68,-0.0063050206802420464,0.002552600303279302,-0.001090830782496456
1590503920.1157115,-0.12922120696982575,-4.447663620909477,8.544672758181045,0.4666666666666667,0.36777777777777776,-0.68,-0.004944435066177625,-8.495314105077583e-05,-0.0011757839235472319
1590503920.1257114,-0.12145550117817654,-4.421455501178176,8.613099510603588,0.4666666666666667,0.36777777777777776,-0.68,0.0009320602335849725,-0.001090830782496456,-0.0017053499182584616
1590503920.1357114,-0.12990272491088153,-4.429902724910881,8.689124524197933,0.4666666666666667,0.36777777777777776,-0.68,1.0611066158052775e-05,-0.001090830782496456,0.0010589975840222979
1590503920.1457114,-0.13,-4.413622034802189,8.69,0.47303587535470454,0.36140856908973995,-0.68,-0.0017865588592428476,-0.00019755135287503217,-0.0015890075063678154
1590503920.1557114,-0.11,-4.428536146628421,8.665361466284214,0.4744444444444445,0.36,-0.68,-0.0031128107156114535,0.00031936326375582954,0.00015968163187791477
1590503920.1657114,-0.11,-4.4217390247459765,8.597390247459769,0.4744444444444445,0.36,-0.68,-0.0023713597374363862,0.0018022652201059631,0.0009011326100529816
1590503920.1757114,-0.12103715196965778,-4.421037151969657,8.646222911817947,0.4744444444444445,0.36,-0.68,0.002068525835529957,0.0008645593235705469,-0.0012039665119594105
1590503920.1857114,-0.1282680803379019,-4.428268080337902,8.689608482027412,0.4744444444444445,0.36,-0.68,0.0012797539105192021,-0.0007129845264509636,-0.0019927384369701658
1590503920.1957114,-0.13125062429477813,-4.407498751410444,8.674997502820887,0.4744444444444445,0.36,-0.6711111111111111,-0.0015000966259210249,0.002181661564992912,-0.002181661564992912
1590503920.2057114,-0.13900908233292023,-4.3919818353341595,8.64396367066832,0.4744444444444445,0.36,-0.6711111111111111,-0.004039046081734765,0.002181661564992912,-0.002181661564992912
1590503920.2157114,-0.12851823328615436,-4.438518233286155,8.578890600283074,0.4744444444444445,0.36,-0.6711111111111111,-0.006827637105504471,0.0012524664568906003,-0.00016163567439414432
1590503920.2257113,-0.12,-4.429692265836368,8.630461601245447,0.4744444444444445,0.36,-0.6711111111111111,-0.0021480929751414466,0.002181661564992912,-0.0011076150774221886
1590503920.2357113,-0.12,-4.417013195084718,8.649480207372925,0.4744444444444445,0.36,-0.6711111111111111,-0.0007650209082062779,0.002181661564992912,-0.001799151110889773
1590503920.2457113,-0.12776911917098446,-4.394461761658031,8.698845595854923,0.46840179620034544,0.366042648244099,-0.6607522855497985,0.0008474794344593192,0.0013341821305335928,-0.002181661564992912
1590503920.2557113,-0.13234839920140476,-4.44,8.644167608784548,0.4666666666666667,0.36777777777777776,-0.6577777777777778,-0.0002561706138482404,0.004107152516137583,0.0002561706138482404
1590503920.2657113,-0.13796374816630833,-4.435927496332617,8.574253762835843,0.4666666666666667,0.36777777777777776,-0.6577777777777778,-0.0008687101643858801,0.003272492347489368,0.00042446892816472824
1590503920.2757113,-0.13050200759631037,-4.42100401519262,8.632510037981552,0.4666666666666667,0.36777777777777776,-0.6577777777777778,0.00016428160173071965,0.003327252881399608,-0.002126901031082672
1590503920.2857113,-0.139605208898535,-4.43921041779707,8.678026044492675,0.4666666666666667,0.36777777777777776,-0.6577777777777778,0.003143297261649256,0.004320258101372453,-0.0011338958111098267
1590503920.2957113,-0.1315732437257167,-4.423146487451433,8.688426756274282,0.4666666666666667,0.36777777777777776,-0.6886758841168166,0.0005148428053143518,0.002524890101869146,-0.00017161426843811717
1590503920.3057113,-0.12086368501281095,-4.401727370025622,8.69963577984627,0.4666666666666667,0.36777777777777776,-0.6944444444444444,0.000996617362660953,0.000996617362660953,-0.0012792576221674619
1590503920.3157113,-0.12766532611163364,-4.415330652223267,8.618016086660397,0.4666666666666667,0.36777777777777776,-0.6944444444444444,0.000254673414452072,0.000254673414452072,-0.002763145518585224
1590503920.3257113,-0.1201768775408316,-4.429823122459168,8.639115612295843,0.4666666666666667,0.36777777777777776,-0.6944444444444444,-0.0032146093076079497,-0.0021430728717386333,-5.788303988141837e-05
1590503920.3357112,-0.14166710230540017,-4.43,8.654444734870268,0.4666666666666667,0.36777777777777776,-0.6944444444444444,-0.0016968162033406716,-0.00296949963706726,-0.0023635142162230444
1590503920.3457112,-0.13156926675408442,-4.402353900131127,8.706076833114789,0.46257094816757427,0.36061027040436616,-0.6811333593223944,-0.001090830782496456,-0.0012620112306268136,-0.0012620112306268136
1590503920.3557112,-0.11098032227681186,-4.393921289107247,8.650196777231882,0.4622222222222222,0.36,-0.68,-0.001090830782496456,-0.001967788421730236,0.001304703925759132
1590503920.3657112,-0.12223688052907326,-4.4311184402645365,8.562236880529074,0.4622222222222222,0.36,-0.68,-0.0013348365962844635,0.0003660087206820111,0.0026624778130193497
1590503920.3757112,-0.13664656875375764,-4.438323284376879,8.576646568753757,0.4622222222222222,0.36,-0.68,-0.0029066897444507043,0.0027237884429313726,-0.0012671550573962534
1590503920.3857112,-0.13149479359374175,-4.431494793593742,8.639536444843808,0.4622222222222222,0.36,-0.68,-0.0014169441556028544,0.0014169441556028544,-0.0003261133731063987
1590503920.3957112,-0.13,-4.421903295624428,8.682386817502287,0.4622222222222222,0.35640146472196815,-0.68,0.0006755960914330305,0.0028572576564259424,0.0008832134369647432
1590503920.4057112,-0.12,-4.407862426962911,8.681449707851643,0.4622222222222222,0.3555555555555556,-0.68,0.003389078870923927,0.0012074173059310146,0.0018319019946892359
1590503920.4157112,-0.1214874712049269,-4.397437356024635,8.612974942409853,0.4622222222222222,0.3555555555555556,-0.68,0.003552033440780148,0.0023439195028340473,-0.0009285728446553209
1590503920.4257112,-0.12904524622948088,-4.44,8.631909507541039,0.4622222222222222,0.3555555555555556,-0.68,-0.0008825358219790926,0.003272492347489368,0.0
1590503920.4357111,-0.12205532872260645,-4.44,8.645889342554787,0.4622222222222222,0.3555555555555556,-0.68,0.0006424276147428091,0.003272492347489368,0.0
1590503920.4457111,-0.12,-4.434060180541625,8.6737592778335,0.46486214198150005,0.3522556558564583,-0.6879197592778336,0.002386698364029859,0.0026245585567226666,0.0006479337907667013
1590503920.4557111,-0.11155426703506247,-4.421554267035062,8.65621706814025,0.4666666666666667,0.35,-0.6933333333333334,0.003272492347489368,0.0003390884652131256,0.0020121173323863492
1590503920.465711,-0.13076037371262375,-4.438479252574753,8.602281121137871,0.4666666666666667,0.35,-0.6933333333333334,-0.002098717659799801,0.0010078868773033451,0.0009249429721102342
1590503920.475711,-0.13911571943664217,-4.421768561126716,8.627347158309927,0.4666666666666667,0.35,-0.6933333333333334,-0.0011872908283838595,9.64600458874035e-05,-0.000897910690721649
1590503920.485711,-0.1343628438298512,-4.431274312340298,8.63563715617015,0.4666666666666667,0.35,-0.6933333333333334,-0.0029355858253378997,0.0,0.0001390059127311734
1590503920.495711,-0.12501351142680667,-4.42504053428042,8.664932442865966,0.46445044952302517,0.3549864885731933,-0.6789279218996637,-0.0016436155138827664,-0.001087883046441223,-0.0005409937871653789
1590503920.505711,-0.12,-4.422931404072883,8.683534297963558,0.4622222222222222,0.36,-0.6644444444444444,0.003206726826036607,-0.000771064202632811,-6.576552145276049e-05
1590503920.515711,-0.13826159924478165,-4.411738400755218,8.606953603020873,0.4622222222222222,0.36,-0.6644444444444444,0.002371291670603638,-0.0029880471890732785,9.4815052805363e-05
1590503920.525711,-0.12599076868453754,-4.417004615657731,8.628018462630925,0.4622222222222222,0.36,-0.6644444444444444,0.0006534914891909358,-0.0009802372337864036,0.0015281700758019762
1590503920.535711,-0.12777147462723581,-4.42,8.647771474627236,0.4622222222222222,0.36,-0.6644444444444444,0.0016954727497557986,0.0016954727497557986,-0.002057020309396585
1590503920.545711,-0.13717065219633978,-4.43434130439268,8.678682608785358,0.4654091787539288,0.36,-0.6692248792420042,0.0006172679357242619,0.0006172679357242619,-0.0017080987182207178
1590503920.555711,-0.12999750262224666,-4.419997502622246,8.67997752360022,0.4666666666666667,0.36,-0.6711111111111111,0.002181116721687135,0.0,-0.0010902859391906789
1590503920.565711,-0.12043942146289865,-4.410878842925797,8.591757685851595,0.4666666666666667,0.36,-0.6711111111111111,9.586689164389742e-05,0.0,0.0011387642283184048
