time,acc_x,acc_y,acc_z,mag_x,mag_y,mag_z,gyr_x,gyr_y,gyr_z
1590504067.849864,-0.23,-4.39,8.73,0.4577777777777778,0.32666666666666666,-0.6377777777777778,0.0,-0.014180800172453925,-0.002181661564992912
1590504067.859864,-0.2324722061098221,-4.39,8.762472206109821,0.4577777777777778,0.3388888888888889,-0.6377777777777778,0.0008090275575809345,-0.018801671782578185,0.0005514790774424997
1590504067.869864,-0.24220079502599123,-4.376795229844053,8.703976149220264,0.4577777777777778,0.3388888888888889,-0.6377777777777778,0.005193048315742429,-0.023147515928457207,-0.001090830782496456
1590504067.879864,-0.24916809682955468,-4.3333276126817815,8.481646644386235,0.4577777777777778,0.3388888888888889,-0.6377777777777778,0.011363912696996319,-0.023000065069906078,-0.000364858313393946
1590504067.889864,-0.23817684058102176,-4.370607719806326,8.611823159418977,0.4577777777777778,0.3388888888888889,-0.6377777777777778,0.004297031182798497,-0.011733970818711708,0.007867837292630837
1590504067.899864,-0.1812380650708177,-4.38958731164306,8.668761934929183,0.4577777777777778,0.3388888888888889,-0.6377777777777778,0.0022266788813256316,-0.0034525616128202475,0.015114070347785866
1590504067.909864,-0.18790151748574951,-4.366295447542751,8.693704552457248,0.47358081274927677,0.3485462991492494,-0.6263644747428062,0.004767427115559778,-0.000686726796922501,0.013547787254572471
1590504067.919864,-0.21,-4.388951682713541,8.627379206783854,0.4777777777777778,0.3511111111111111,-0.6233333333333333,0.005396977074187659,0.003272492347489368,0.011827608092577154
1590504067.929864,-0.21,-4.374132143803551,8.590330359508878,0.4777777777777778,0.3511111111111111,-0.6233333333333333,0.0045886966129165905,0.003272492347489368,0.009402766708763948
1590504067.939864,-0.2,-4.360856718583892,8.659423904422807,0.4777777777777778,0.3511111111111111,-0.6233333333333333,0.007448908476826046,-0.0003738140012982911,0.00545415391248228
1590504067.949864,-0.2,-4.367934391927237,8.737278311199608,0.4777777777777778,0.3511111111111111,-0.6233333333333333,0.005904799686550862,-0.0034620315818486604,0.00545415391248228
1590504067.959864,-0.19910498672403434,-4.359552493362018,8.78,0.4777777777777778,0.3511111111111111,-0.6522222222222223,0.0023769231714261788,-0.005698230920523863,0.006544984694978735
1590504067.969864,-0.18284706475182666,-4.351423532375913,8.78,0.4777777777777778,0.3511111111111111,-0.6522222222222223,0.005923851520768105,-0.010131891357201273,0.006544984694978735
1590504067.979864,-0.15,-4.400952790267125,8.642460658555938,0.4777777777777778,0.3511111111111111,-0.6522222222222223,0.010804374529700253,-0.01090830782496456,-0.000493448743616074
1590504067.9898639,-0.15,-4.359353676276117,8.607794730230097,0.4777777777777778,0.3511111111111111,-0.6522222222222223,0.015342133936297266,-0.01090830782496456,-0.0027623284469145823
1590504067.9998639,-0.17524615623544026,-4.333169229176373,8.6,0.4777777777777778,0.3511111111111111,-0.6522222222222223,0.012690557155935757,-0.0072364032434534785,-0.0014365400567338273
1590504068.0098639,-0.18,-4.367997496605567,8.66839549389002,0.47271144489703554,0.3511111111111111,-0.646311500528023,0.003709370816429627,8.682953784637428e-05,0.0005671227757098214
1590504068.0198638,-0.19274360956866052,-4.336859023921652,8.62176917129402,0.4711111111111111,0.3511111111111111,-0.6444444444444445,-0.00044892206589700924,0.00902592763723632,0.002181661564992912
1590504068.0298638,-0.21,-4.377402801746015,8.579090193888945,0.4711111111111111,0.3511111111111111,-0.6444444444444445,-0.003555802727858588,0.012041549346441438,0.0024649719453621317
1590504068.0398638,-0.2114560946385439,-4.362912189277088,8.647280473192719,0.4711111111111111,0.3511111111111111,-0.6444444444444445,-0.005612989197877454,0.01963495408493621,0.004522158415380998
1590504068.0498638,-0.21943323380056676,-4.378866467601133,8.687166169002833,0.4711111111111111,0.3511111111111111,-0.6444444444444445,-0.006483160093296705,0.01963495408493621,0.00539232931080025
1590504068.0598638,-0.21,-4.38,8.78,0.4777777777777778,0.3511111111111111,-0.6322222222222222,0.0003257551580970184,0.014131487901610819,0.003272492347489368
1590504068.0698638,-0.21138344125809436,-4.378616558741905,8.763398704902867,0.4777777777777778,0.3511111111111111,-0.6322222222222222,0.0017289314719614271,0.007032175353433212,0.0028197622544578835
1590504068.0798638,-0.21890072502874305,-4.367801450057486,8.652305075201202,0.4777777777777778,0.3511111111111111,-0.6322222222222222,-0.0007310938893739592,0.0026729308589518736,0.0
1590504068.0898638,-0.21124737472580468,-4.351247374725804,8.592494749451609,0.4777777777777778,0.3511111111111111,-0.6322222222222222,0.0023177290398144956,-0.0025898639894576633,0.0
1590504068.0998638,-0.22429767109009163,-4.364297671090092,8.618595342180184,0.4777777777777778,0.3511111111111111,-0.6322222222222222,0.003741295539301073,-0.006860563487917396,0.0
1590504068.1098638,-0.20413740235087977,-4.37862086588304,8.638620865883041,0.4777777777777778,0.3453638671890844,-0.6494639539883024,0.00812488548078327,-0.013428599198468453,-0.0009403905876993613
1590504068.1198637,-0.18417375077752435,-4.364173750777525,8.647913124611238,0.4777777777777778,0.34444444444444444,-0.6522222222222223,0.008726646259971648,-0.012454424190120224,-0.001090830782496456
1590504068.1298637,-0.18820843212039995,-4.3791042160602,8.6135831357592,0.4777777777777778,0.34444444444444444,-0.6522222222222223,0.005161009303682336,-0.0025884882602894978,0.000895401043296493
1590504068.1398637,-0.17379651582311104,-4.371898257911556,8.642406968353779,0.4777777777777778,0.34444444444444444,-0.6522222222222223,0.0028028650139055675,0.002913848415856294,-0.000676695149888019
1590504068.1498637,-0.18711341919401744,-4.378556709597008,8.701340257582054,0.4777777777777778,0.34444444444444444,-0.6522222222222223,0.0012482693424629159,0.007163499797575813,0.0007759536625635364
1590504068.1598637,-0.22781813689152458,-4.364872745243391,8.74025450951322,0.4668525382313373,0.34024242923427506,-0.619446503582901,0.0002657670253376588,0.012586198020427972,0.0002657670253376588
1590504068.1698637,-0.22968755538675784,-4.388750221547031,8.697500443094063,0.4633333333333333,0.3388888888888889,-0.6088888888888889,-6.81648403899545e-05,0.010942390245159537,3.408242019497725e-05
1590504068.1798637,-0.22,-4.351852345616903,8.622778518425354,0.4633333333333333,0.3388888888888889,-0.6088888888888889,-0.002181661564992912,0.011493989702775825,0.0008887712206223797
1590504068.1898637,-0.21899184199227137,-4.37,8.65,0.4633333333333333,0.3388888888888889,-0.6088888888888889,-0.002181661564992912,0.005225308948837897,-0.001200803761341526
1590504068.1998637,-0.21178823529411764,-4.37,8.65,0.4633333333333333,0.3388888888888889,-0.6088888888888889,-0.002181661564992912,-0.004204190168774575,-0.0019865953544758986
1590504068.2098637,-0.21837240903743965,-4.379457469679147,8.652712651604267,0.4711111111111111,0.34444444444444444,-0.6233333333333333,0.0,-0.00884500801485657,-0.001090830782496456
1590504068.2198637,-0.19285239118971323,-4.370950797063238,8.69524601468381,0.4711111111111111,0.34444444444444444,-0.6233333333333333,0.0,-0.010700876084067168,-0.001090830782496456
1590504068.2298636,-0.17232048484848486,-4.371160242424242,8.59464096969697,0.4711111111111111,0.34444444444444444,-0.6233333333333333,0.0019285359346885222,-0.011239761716547846,-0.0009642679673442611
1590504068.2398636,-0.19392232662192393,-4.377058255033557,8.631961163310963,0.4711111111111111,0.34444444444444444,-0.6233333333333333,-0.0005348243272749961,-0.004384505257932287,-0.00042785946181999696
1590504068.2498636,-0.22394863534675616,-4.354538523489933,8.64697431767338,0.4711111111111111,0.34444444444444444,-0.6233333333333333,-0.0046290270574986065,0.0038039002025149335,-0.003703221645998886
1590504068.2598636,-0.23,-4.365377198218467,8.657688599109234,0.4651310895817071,0.34444444444444444,-0.6233333333333333,-0.006292849970744971,0.010486330262058427,-0.0018472349551977496
1590504068.2698636,-0.22280522763695462,-4.377194772363046,8.631220910547817,0.4633333333333333,0.34444444444444444,-0.6233333333333333,-0.005760156778312268,0.015138450274126887,-0.0003060028658299879
1590504068.2798636,-0.21931897278650825,-4.360681027213492,8.555448217707935,0.4633333333333333,0.34444444444444444,-0.6233333333333333,-0.004363323129985824,0.011701984428183177,0.00014857708963891936
1590504068.2898636,-0.21288846301264852,-4.367111536987352,8.606892295898813,0.4633333333333333,0.34444444444444444,-0.6233333333333333,-0.004363323129985824,0.008896145224794975,0.0015514966913330198
1590504068.2998636,-0.2177048524262131,-4.3622951475737874,8.63,0.4633333333333333,0.34444444444444444,-0.6233333333333333,-0.0018419160696540953,0.0017525323367011594,-0.00033974549533881664
1590504068.3098636,-0.21277360979430315,-4.36,8.67335834123418,0.47377145251933994,0.34444444444444444,-0.6385890459898045,-0.0034556614473079637,-0.002364830664811508,0.000485722994044549
1590504068.3198636,-0.2292528030117031,-4.390747196988297,8.691494393976594,0.4777777777777778,0.34444444444444444,-0.6444444444444445,-0.01111207419382029,4.075327377114593e-05,0.0012538438775810397
1590504068.3298635,-0.21208977821425648,-4.407910221785744,8.725820443571488,0.4777777777777778,0.34444444444444444,-0.6444444444444445,-0.015792563136271476,0.0009768510622613835,0.00499823503154199
1590504068.3398635,-0.1886590111399359,-4.346034449870288,8.741340988860065,0.4777777777777778,0.34444444444444444,-0.6444444444444445,-0.005673572701613692,-0.005234735123350868,0.004143904340854412
1590504068.3498635,-0.17265756142224936,-4.418040973599878,8.75734243857775,0.4777777777777778,0.34444444444444444,-0.6444444444444445,-0.00829180378910695,-0.0026165040358576102,0.0015256732533611536
1590504068.3598635,-0.21,-4.331216433941998,8.601520542427497,0.4711111111111111,0.3511111111111111,-0.6322222222222222,-0.010576576927763369,-0.000858619154455622,0.0032061461680491297
1590504068.3698635,-0.21,-4.36875939849624,8.6484492481203,0.4711111111111111,0.3511111111111111,-0.6322222222222222,-0.00033832157727803694,0.00630815959088411,0.001158495097952063
1590504068.3798635,-0.22,-4.34086068214908,8.50086068214908,0.4711111111111111,0.3511111111111111,-0.6322222222222222,0.0,0.009786181756396053,0.0
1590504068.3898635,-0.2201699500919359,-4.399915024954033,8.560509850275809,0.4711111111111111,0.3511111111111111,-0.6322222222222222,0.0,0.007598738119120834,0.0
1590504068.3998635,-0.2311872865773575,-4.394406356711321,8.593561859732072,0.4711111111111111,0.3511111111111111,-0.6322222222222222,0.0,0.005195128163236996,0.0
1590504068.4098635,-0.23299883216549883,-4.3794982482482485,8.630501751751751,0.4683884347310273,0.3444988970451933,-0.6372786212138064,0.00038185446936489634,0.0028906378781244717,0.0
1590504068.4198635,-0.21437917137556772,-4.371241657248865,8.689345800371026,0.4633333333333333,0.3322222222222222,-0.6466666666666666,0.0017039680711632486,0.0009553869876593264,0.0006131372886667928
1590504068.4298635,-0.2176919759962629,-4.38,8.635388264041108,0.4633333333333333,0.3322222222222222,-0.6466666666666666,0.0013425971454981713,-0.0016781288389894813,0.00025176636300171533
1590504068.4398634,-0.17232982606828431,-4.389534034786343,8.781612626154176,0.4633333333333333,0.3322222222222222,-0.6466666666666666,-0.0009891729427705675,-0.004261665290259935,0.0010400018626335117
1590504068.4498634,-0.1946089972457411,-4.381797000918086,8.732579006426604,0.4633333333333333,0.3322222222222222,-0.6466666666666666,-0.00019602239176229287,-0.0007840895670491715,0.001090830782496456
1590504068.4598634,-0.249014498246944,-4.360739126314792,8.692217378944376,0.4711111111111111,0.34444444444444444,-0.6322222222222222,-0.007662690868686135,0.009736850868835276,0.0032456169562784256
1590504068.4698634,-0.20986605281445447,-4.389732105628909,8.776651320361362,0.4711111111111111,0.34444444444444444,-0.6322222222222222,-0.00865358940336074,0.00658881880894528,0.0021962729363150936
1590504068.4798634,-0.20257922168172343,-4.375158443363447,8.594480542043085,0.4711111111111111,0.34444444444444444,-0.6322222222222222,-0.004679239550142459,0.00897342872087625,0.00299114290695875
1590504068.4898634,-0.21971047734452764,-4.399806984896352,8.679806984896352,0.4711111111111111,0.34444444444444444,-0.6322222222222222,-0.005401517208345717,0.00545415391248228,0.004342268448331199
1590504068.4998634,-0.20155883498506946,-4.3877058899900465,8.667705889990046,0.4711111111111111,0.34444444444444444,-0.6322222222222222,-0.002101455501918455,0.00545415391248228,0.0030222437657602937
1590504068.5098634,-0.22372219147758715,-4.368759269507471,8.60941671278362,0.46361729078275843,0.34444444444444444,-0.6272263420033204,-0.0024523469677994484,0.0005494599768833828,0.0015685748230430498
1590504068.5198634,-0.20407920187315484,-4.36,8.585306932708948,0.4577777777777778,0.34444444444444444,-0.6233333333333333,-0.0010238684530812707,-0.004942219685941644,0.00025596711327031767
1590504068.5298634,-0.19999725039716487,-4.3799945007943295,8.599997250397164,0.4577777777777778,0.34444444444444444,-0.6233333333333333,0.005452654236776171,-0.0032730922177718114,0.0010905308473552343
1590504068.5398633,-0.1900996316932666,-4.3899003683067335,8.7188044196808,0.4577777777777778,0.34444444444444444,-0.6233333333333333,0.003294228611074858,-0.002192529696785657,-0.0021490571696146776
1590504068.5498633,-0.19752491935191563,-4.382475080648084,8.704950161296168,0.4577777777777778,0.34444444444444444,-0.6233333333333333,0.0016308096145148,0.0002808625344689398,0.0002808625344689398
1590504068.5598633,-0.22425432485155095,-4.38,8.712127162425775,0.46586255272829474,0.34444444444444444,-0.6408503457261201,-0.0008934715292590858,0.001090830782496456,0.00042939667857794207
1590504068.5698633,-0.2240010855921566,-4.387999457203922,8.688002171184314,0.4711111111111111,0.34444444444444444,-0.6522222222222223,-0.00043645073273274764,0.0028360416147566207,0.0017452108322601643
1590504068.5798633,-0.22,-4.371834857761987,8.589174288809938,0.4711111111111111,0.34444444444444444,-0.6522222222222223,-0.000990754816082527,0.00030022789924178707,0.0002001519328278579
1590504068.5898633,-0.2106025810883753,-4.37,8.636384513469748,0.4711111111111111,0.34444444444444444,-0.6522222222222223,-6.57314000149982e-05,0.0020501987649629155,0.0030752981474443733
1590504068.5998633,-0.21758883785290103,-4.377588837852901,8.662766513558703,0.4711111111111111,0.34444444444444444,-0.6522222222222223,0.000827813793331877,-0.0011295936083345962,0.0007890509674937369
1590504068.6098633,-0.2011708566853483,-4.370585428342674,8.698243714971976,0.4711111111111111,0.3507208255493283,-0.6250245707677252,6.386032571348353e-05,-0.004235602478558857,0.0
1590504068.6198633,-0.21619891778387984,-4.37,8.72429837667582,0.4711111111111111,0.3511111111111111,-0.6233333333333333,-0.0008835139080892693,-0.006130350946164362,-0.0008835139080892693
1590504068.6298633,-0.22,-4.376423521977805,8.633647170332926,0.4711111111111111,0.3511111111111111,-0.6233333333333333,-0.001090830782496456,-0.006544984694978735,0.00031056431858998267
1590504068.6398633,-0.22,-4.370964549763033,8.670354502369667,0.4711111111111111,0.3511111111111111,-0.6233333333333333,-0.00010521605727662506,-0.0045737552445390735,0.00010521605727662506
1590504068.6498632,-0.22731684216390885,-4.3846336843278175,8.68,0.4711111111111111,0.3511111111111111,-0.6233333333333333,-0.0031925746652239025,-0.004363323129985824,0.0023944309989179266
1590504068.6598632,-0.23,-4.380781532890766,8.726092335546168,0.4475528062764031,0.3398440957553812,-0.6171876885938443,-0.0013465868229308995,-0.0063744806680224395,0.0012613348094527516
1590504068.6698632,-0.17550463448607934,-4.38,8.67550463448608,0.4455555555555555,0.3388888888888889,-0.6166666666666667,0.00039529977265305525,-0.008031115250128246,-0.00039529977265305525
1590504068.6798632,-0.18236620107868898,-4.363816899460656,8.585267597842622,0.4455555555555555,0.3388888888888889,-0.6166666666666667,0.003738784416179251,-0.0060786926262888525,-0.001090830782496456
1590504068.6898632,-0.1807490094483389,-4.36,8.607003962206644,0.4455555555555555,0.3388888888888889,-0.6166666666666667,0.002345070077518669,-0.00545415391248228,0.000927422269970699
1590504068.6998632,-0.224308006969169,-4.367384667828195,8.669077342625558,0.4455555555555555,0.3388888888888889,-0.6166666666666667,-0.0002349653306589405,-0.00223198471827981,0.001090830782496456
1590504068.7098632,-0.24,-4.37,8.724734242854497,0.45616879642776303,0.34950212976109635,-0.6349986281732068,-0.001090830782496456,-0.001090830782496456,0.001090830782496456
1590504068.7198632,-0.21688938867307297,-4.37,8.73,0.4577777777777778,0.3511111111111111,-0.6377777777777778,-0.0019311563237538977,-0.0019311563237538977,0.0036118074062687815
1590504068.7298632,-0.2510373702730391,-4.363160438287827,8.675283506302614,0.4577777777777778,0.3511111111111111,-0.6377777777777778,-0.002927742010435179,-0.004419902901319711,0.005109403575428091
1590504068.7398632,-0.2783447093844905,-4.318276453077547,8.63331058123102,0.4577777777777778,0.3511111111111111,-0.6377777777777778,-0.004182758934248295,-0.00545415391248228,0.00545415391248228
1590504068.7498631,-0.3569415938173065,-4.2330584061826935,8.622305840618269,0.4577777777777778,0.3511111111111111,-0.6377777777777778,-0.009399138669401237,-0.014686482401410537,0.007132759092287418
1590504068.7598631,-0.8858785161027314,-3.976517607952586,8.581086267992097,0.4707490217804119,0.3392208041086965,-0.6518299587806314,-0.031071248774582408,-0.04822830765357054,0.017186682243083645
1590504068.7698631,-0.8574287490931702,-3.987028500362732,8.903541506891907,0.4711111111111111,0.3388888888888889,-0.6522222222222223,-0.056710629399214244,-0.12710327718910455,0.058318759745867324
1590504068.779863,-0.7793159130945391,-3.7308250146799766,8.488772753963593,0.4711111111111111,0.3388888888888889,-0.6522222222222223,-0.013967181813110081,-0.12786644130385422,0.15711838503553255
1590504068.789863,-0.7955127398122555,-3.553461780563234,8.439903664577574,0.4711111111111111,0.3388888888888889,-0.6522222222222223,0.023120662816250793,-0.0827109402147507,0.31581618534199296
1590504068.799863,-0.5715601393535925,-3.2201841950950296,8.319462936773482,0.4711111111111111,0.3388888888888889,-0.6522222222222223,-0.015826246033215984,-0.04825824695829299,0.4309551429700982
1590504068.809863,-0.5802934973637961,-3.2952583479789106,9.177383128295256,0.4711111111111111,0.3388888888888889,-0.6411515329037297,-0.11007920421552461,0.04669963523061936,0.6395790100978346
1590504068.819863,-0.6759158521710203,-3.2693514660921634,8.87847513742139,0.4711111111111111,0.3388888888888889,-0.6377777777777778,-0.0917340010488088,-0.00899909907647839,0.7543175990282045
1590504068.829863,-0.6893673358654367,-3.2104217760897087,8.471054440224272,0.4711111111111111,0.3388888888888889,-0.6377777777777778,-0.015999206603293743,-0.07533633694355175,0.865134204226329
1590504068.839863,-0.49235594564195234,-3.0466393155458853,8.724316191248871,0.4711111111111111,0.3388888888888889,-0.6377777777777778,-0.02696703132837532,-0.07396803396483814,0.9795228785039324
1590504068.849863,-0.3836599979689245,-2.918202498222809,8.822680004062152,0.4711111111111111,0.3388888888888889,-0.6377777777777778,-0.05978898132407889,-0.06802720746421434,1.130649374008027
1590504068.859863,-0.46054831241623007,-2.95,8.738414767881077,0.48205271922342713,0.33502714484924795,-0.629410665691889,-0.031740690266122355,-0.093079486149428,1.3332332664033646
1590504068.869863,-0.5189632586224542,-3.000685702589295,8.882057107767885,0.49,0.3322222222222222,-0.6233333333333333,-0.03415324084581372,-0.11551497200381285,1.5619458721900483
1590504068.879863,-0.6013475351679809,-3.0497281396533253,8.803250557594703,0.49,0.3322222222222222,-0.6233333333333333,-0.038621340773068405,-0.1368244830280453,1.714751200588266
1590504068.889863,-0.6747963443900193,-3.1071945165850288,8.728597258292515,0.49,0.3322222222222222,-0.6233333333333333,-0.038855292781226375,-0.15797301731686544,1.8865546692521726
1590504068.899863,-0.7083952610652512,-3.148395261065251,8.71547298524633,0.49,0.3322222222222222,-0.6233333333333333,-0.04127651987207587,-0.16788475113118115,2.0427095774050223
1590504068.909863,-0.7405934118923481,-3.187457882523131,8.754915765046261,0.4999153464666861,0.32383231367348786,-0.6294350850051401,-0.045537590865202024,-0.1824923966563445,2.196037380632102
1590504068.919863,-0.75,-3.179754140454487,8.712513801514957,0.5044444444444445,0.32,-0.6322222222222222,-0.0461695634203361,-0.1935121764054825,2.324134022571547
1590504068.929863,-0.8111844362604936,-3.2189475490083947,8.686118443626048,0.5044444444444445,0.32,-0.6322222222222222,-0.04114296221106644,-0.1990192155086676,2.430995584270129
1590504068.939863,-0.8644991146332259,-3.293497343899678,8.81324247438242,0.5044444444444445,0.32,-0.6322222222222222,-0.054785961976287,-0.20466688411956477,2.540922530331197
1590504068.949863,-0.8832844166825782,-3.243577916587109,8.820146749952265,0.5044444444444445,0.32,-0.6322222222222222,-0.05239189343288207,-0.2052009478488391,2.603918527869317
1590504068.959863,-0.9003990618930705,-3.159201876213859,8.76960093810693,0.5052425682305854,0.31756128843123604,-0.6327986449566574,-0.04136450793544882,-0.20389829452742078,2.653896557145091
1590504068.969863,-0.9160334189246159,-3.14,8.787150385160771,0.5244444444444445,0.2588888888888889,-0.6466666666666666,-0.042560627713206206,-0.19555132762951016,2.7556879890722996
1590504068.979863,-0.93,-3.1304755307726944,8.789043396945242,0.5244444444444445,0.2588888888888889,-0.6466666666666666,-0.048515882519623306,-0.18751945211086463,2.8270187115893606
1590504068.989863,-0.9859191375745288,-3.1310073675546546,8.604558850099371,0.5244444444444445,0.2588888888888889,-0.6466666666666666,-0.04145156973486533,-0.2417329234544599,2.900810213328144
1590504068.999863,-1.090031563486359,-3.223406981468171,8.75340698146817,0.5244444444444445,0.2588888888888889,-0.6466666666666666,-0.051300034157604354,-0.2635439875352606,2.9602326187678543
1590504069.009863,-1.1059917676296989,-3.2138847468157814,8.864131717924822,0.5320155500327914,0.2384023678851265,-0.643103793448621,-0.07090400086226964,-0.2328156174273191,3.034956997713209
1590504069.019863,-1.1407713059472717,-3.211542611894543,8.842216227263437,0.5433333333333333,0.20777777777777776,-0.6377777777777778,-0.05953827088330421,-0.23855539565872128,3.098753390151938
1590504069.0298629,-1.2146768619319164,-3.3001292552272337,8.670387765681701,0.5433333333333333,0.20777777777777776,-0.6377777777777778,-0.05119854898700101,-0.23107283163438438,3.148492709642122
1590504069.0398629,-1.2961897060607286,-3.3461897060607284,8.747271257025027,0.5433333333333333,0.20777777777777776,-0.6377777777777778,-0.06340976007495794,-0.26661103078131965,3.168424188778579
1590504069.0498629,-1.3611599730760602,-3.3386201480816693,8.805360107695758,0.5433333333333333,0.20777777777777776,-0.6377777777777778,-0.07103053429609298,-0.2680193504436109,3.1787048852556294
1590504069.0598629,-1.269045780474352,-3.0275190292333147,8.682506343077772,0.5567938959367531,0.15393552736409877,-0.6579686216829074,-0.06758987283350681,-0.26041433955794324,3.172765986098387
1590504069.0698628,-1.3550796966531946,-3.0801062622042594,8.850123972571636,0.5633333333333334,0.12777777777777774,-0.6677777777777778,-0.07199869544754683,-0.2607066251152626,3.138302774129791
1590504069.0798628,-1.4949718368509874,-3.173918513161067,8.75719113682688,0.5633333333333334,0.12777777777777774,-0.6677777777777778,-0.06307668573397812,-0.2544378160787921,3.1026031334230137
1590504069.0898628,-1.5862158301251787,-3.176795477107092,8.706409045785817,0.5633333333333334,0.12777777777777774,-0.6677777777777778,-0.04052935142459611,-0.23397703570697712,3.0600754167289566
1590504069.0998628,-1.636583484141347,-3.2010140648315715,8.826333936565389,0.5633333333333334,0.12777777777777774,-0.6677777777777778,-0.043233325815352205,-0.23147736051599366,3.0198603435613287
1590504069.1098628,-1.67701616202946,-3.221290234588107,8.94596767594108,0.5573566027156452,0.11244616445414315,-0.6711559298660362,-0.06113052452955648,-0.24023788699977758,2.9730592233057385
1590504069.1198628,-1.7,-3.0891897460759954,8.835090600569663,0.5377777777777778,0.06222222222222223,-0.6822222222222222,-0.05912116419531697,-0.23206203571710238,2.880049099687272
1590504069.1298628,-1.6590097887686759,-2.8760391550747038,8.731442555383822,0.5377777777777778,0.06222222222222223,-0.6822222222222222,-0.0444293523129878,-0.21877558303228403,2.80033065494041
1590504069.1398628,-1.6498958111843502,-2.720208377631299,8.7563193706145,0.5377777777777778,0.06222222222222223,-0.6822222222222222,-0.04904192426541954,-0.21959029024467247,2.6874813992474054
1590504069.1498628,-1.7737801151928074,-2.743344805787736,8.855017208681604,0.5377777777777778,0.06222222222222223,-0.6822222222222222,-0.052268662131961505,-0.20479878647380453,2.4995993173954267
1590504069.1598628,-1.850447065209346,-2.7252517825861684,8.898268239125608,0.5421228743979232,0.030937526557175722,-0.6904779058004984,-0.04572352155630768,-0.18127297889126676,2.3117938475546933
1590504069.1698627,-1.8947247843894641,-2.58826745696114,8.799527155272886,0.5488888888888889,-0.017777777777777778,-0.7033333333333334,-0.0370882466048795,-0.1679879405044542,2.2154773192503017
1590504069.1798627,-1.9645857845179568,-2.5256903591367386,8.78375735355387,0.5488888888888889,-0.017777777777777778,-0.7033333333333334,-0.03761860069618109,-0.16003262913493044,2.0584925082250325
1590504069.1898627,-1.9294583633400295,-2.4747291816700145,8.74576393890005,0.5488888888888889,-0.017777777777777778,-0.7033333333333334,-0.03312527652295164,-0.14703111434480345,1.8328646701426998
1590504069.1998627,-1.97891879841721,-2.4548648498021515,8.768738598153412,0.5488888888888889,-0.017777777777777778,-0.7033333333333334,-0.03158495069370592,-0.13693366260238912,1.6848422605585616
1590504069.2098627,-2.10474594768095,-2.4415243139142997,8.943221633766651,0.5330690632857219,-0.04519880882326718,-0.7001693682126999,-0.029840410453382267,-0.12376270898407117,1.551953822496519
1590504069.2198627,-2.1042562605277935,-2.3755375631667603,8.870868950028074,0.5155555555555555,-0.07555555555555556,-0.6966666666666667,-0.016177712609298477,-0.10968713268587765,1.3927033611088577
1590504069.2298627,-2.071781339748153,-2.310493875647414,8.773068803848892,0.5155555555555555,-0.07555555555555556,-0.6966666666666667,-0.021849309245388707,-0.10012942437107739,1.238749086009593
1590504069.2398627,-2.11424427480916,-2.31212213740458,8.840305343511451,0.5155555555555555,-0.07555555555555556,-0.6966666666666667,-0.018356489305246977,-0.08439033319304262,1.0806030642589421
1590504069.2498627,-2.134915719161589,-2.2917591138471844,8.852988043637582,0.5155555555555555,-0.07555555555555556,-0.6966666666666667,-0.0025076065629246174,-0.0680915089572012,0.9294142312011787
1590504069.2598627,-2.1343240076168155,-2.241081001904204,8.794774669205605,0.5155555555555555,-0.09074063223909423,-0.7069268536150036,-0.003007094672122938,-0.05689027925847404,0.7708247259256162
1590504069.2698627,-2.2735523121738073,-2.2404454424080593,8.741781769632237,0.5155555555555555,-0.11666666666666667,-0.7244444444444444,-0.009987542844157229,-0.043851887330601386,0.5912096630553811
1590504069.2798626,-2.3858336546070653,-2.230185256579348,8.68546314144837,0.5155555555555555,-0.11666666666666667,-0.7244444444444444,-0.00495925941608721,-0.03326023468717128,0.4481693641961816
1590504069.2898626,-2.4002968972150205,-2.205346380084191,8.72485155139249,0.5155555555555555,-0.11666666666666667,-0.7244444444444444,-0.009255868420150784,-0.029484817589542495,0.32022876205208706
1590504069.2998626,-2.4340061983471073,-2.1946177685950414,8.784311983471074,0.5155555555555555,-0.11666666666666667,-0.7244444444444444,-0.011982460616158383,-0.02080917482394582,0.20265427231827857
1590504069.3098626,-2.4748030239852064,-2.185354157979659,8.83,0.5092563115518571,-0.12296591067036507,-0.7335433524497865,-0.009654264757112254,-0.013210208175243255,0.11250141945264198
1590504069.3198626,-2.4263907144778813,-2.1195860717168222,8.837988393097351,0.4955555555555556,-0.13666666666666666,-0.7533333333333333,-0.001833102161261964,-0.005066772520796695,0.0220162176851905
1590504069.3298626,-2.4737658954584405,-2.17,8.85935115681234,0.4955555555555556,-0.13666666666666666,-0.7533333333333333,0.0011262196886021251,0.015682426423923423,-0.10588758902114685
1590504069.3398626,-2.5042389046996383,-2.178477809399277,8.817174063533574,0.4955555555555556,-0.13666666666666666,-0.7533333333333333,0.00527619436401101,0.02070195624330921,-0.19289833382094682
1590504069.3498626,-2.4724797814545005,-2.2178904803062105,8.842383318928263,0.4955555555555556,-0.13666666666666666,-0.7533333333333333,0.01943470804642817,0.03381575425739013,-0.3262568265611199
1590504069.3598626,-2.349483578219533,-2.1919965427830594,8.93301210025929,0.4955555555555556,-0.13666666666666666,-0.7533333333333333,0.02367159366597214,0.03381575425739013,-0.4011084725063967
1590504069.3698626,-2.2864574256360606,-2.1688144801247917,8.835885643590984,0.4955555555555556,-0.13666666666666666,-0.7822222222222223,0.019443262182057615,0.06159922778287259,-0.5715207538394197
1590504069.3798625,-2.399036512950095,-2.2445182564750477,8.841627795325332,0.4955555555555556,-0.13666666666666666,-0.7822222222222223,0.006682720169903177,0.06506208175842514,-0.7105800163712462
1590504069.3898625,-2.34935190305041,-2.208012855957976,8.84734333241176,0.4955555555555556,-0.13666666666666666,-0.7822222222222223,0.01061383578832022,0.06683047521069517,-0.8308338641406907
1590504069.3998625,-2.3152660722665415,-2.1882128578132334,8.728888033786955,0.4955555555555556,-0.13666666666666666,-0.7822222222222223,0.015535027429582658,0.07436623941081756,-0.9290351776289432
1590504069.4098625,-2.4186178320384757,-2.273100998890122,8.742746577876433,0.4921841575204505,-0.13360175936202573,-0.7822222222222223,0.004513448565090774,0.0816241676177559,-1.027147007936739
1590504069.4198625,-2.3233403512019066,-2.2978969530111284,8.999216620780603,0.4833333333333333,-0.12555555555555556,-0.7822222222222223,0.022572320643822967,0.08060677448511284,-1.13651969087929
1590504069.4298625,-2.227469929489838,-2.278875524217706,8.791405594727868,0.4833333333333333,-0.12555555555555556,-0.7822222222222223,0.017229862988038344,0.10607345304634139,-1.2162632017482964
1590504069.4398625,-2.2868416608362083,-2.3247369055948273,8.75894762237931,0.4833333333333333,-0.12555555555555556,-0.7822222222222223,0.013721613811070104,0.12550280669516045,-1.2943573472232242
1590504069.4498625,-2.3052035419033814,-2.393089762175293,8.772113779728087,0.4833333333333333,-0.12555555555555556,-0.7822222222222223,0.022477319840918136,0.12721045230786943,-1.3629355572316197
1590504069.4598625,-2.3839703027154147,-2.508089091853756,8.811252426918974,0.4870181483405799,-0.12555555555555556,-0.784232121317084,0.019514532857422787,0.14506429671593754,-1.4272489139683602
1590504069.4698625,-2.3211352800953517,-2.5174235200635677,8.84855880015892,0.4955555555555556,-0.12555555555555556,-0.7888888888888889,0.022176271269962588,0.1432191854983097,-1.5088881586327172
1590504069.4798625,-2.2781186783546863,-2.5168644639244775,8.745621487974827,0.4955555555555556,-0.12555555555555556,-0.7888888888888889,0.0293852502700422,0.1523070947650609,-1.5711322310817073
1590504069.4898624,-2.332016957443339,-2.6164519810859286,8.777338985814445,0.4955555555555556,-0.12555555555555556,-0.7888888888888889,0.02021549732218852,0.15448444077546133,-1.6259794159983865
1590504069.4998624,-2.1802974407639155,-2.556765813587972,8.781947006316539,0.4955555555555556,-0.12555555555555556,-0.7888888888888889,0.02744716706714,0.16492783359934438,-1.7076144756128897
1590504069.5098624,-2.031038521989265,-2.5070128406630885,8.850357344088254,0.4955555555555556,-0.12555555555555556,-0.7888888888888889,0.03016077078649879,0.17239024382758103,-1.7483185314032716
1590504069.5198624,-2.0901569872688963,-2.691277858563077,8.718901089117725,0.4888888888888889,-0.13777777777777778,-0.7888888888888889,0.009279426223823311,0.17399487438078817,-1.8495842459321539
1590504069.5298624,-2.1009868000094793,-2.8709868000094794,8.827532999976302,0.4888888888888889,-0.13777777777777778,-0.7888888888888889,-0.009736744655480013,0.17174482717387213,-1.927133753371634
1590504069.5398624,-2.068225887728021,-2.8705242382504115,8.66540329895522,0.4888888888888889,-0.13777777777777778,-0.7888888888888889,0.005590494018179127,0.1873721834395114,-1.9766073469450927
1590504069.5498624,-1.9342870118074478,-2.807998183469573,8.561425976385106,0.4888888888888889,-0.13777777777777778,-0.7888888888888889,0.022908437196079066,0.18157646216484968,-2.0222736511535127
1590504069.5598624,-1.8925095440609236,-2.8850572643655426,8.644980911878154,0.49558100638468555,-0.134710557258871,-0.7835909625380498,-0.003517090463410243,0.18598873060673485,-2.105913373533171
1590504069.5698624,-1.8847028792372085,-2.9284702879237208,8.645297120762793,0.5155555555555555,-0.12555555555555556,-0.7677777777777778,0.018710989004555936,0.19062647722748177,-2.1677524590372776
1590504069.5798624,-1.7866670488945968,-3.008886340702688,8.712222731859462,0.5155555555555555,-0.12555555555555556,-0.7677777777777778,0.018180554736206816,0.19950105214776984,-2.264078904009352
1590504069.5898623,-1.7441405983945513,-3.1286198005351498,8.711549501337874,0.5155555555555555,-0.12555555555555556,-0.7677777777777778,0.02012355924253508,0.1945059280357436,-2.336725747832574
1590504069.5998623,-1.713850272929163,-3.1823530022207924,8.736149727070837,0.5155555555555555,-0.12555555555555556,-0.7677777777777778,0.026769106490275984,0.19945286510970475,-2.4014494212933575
1590504069.6098623,-1.7595604170926191,-3.285964015538745,8.791138826415866,0.5363347645334969,-0.10717394761353052,-0.7777677820940957,0.02827551147104901,0.20214805025727975,-2.4627700627197235
1590504069.6198623,-1.713288780445673,-3.3197415356711004,8.8092246070133,0.5733333333333334,-0.07444444444444444,-0.7955555555555556,0.02948062521201841,0.2067581279565549,-2.519368967925159
1590504069.6298623,-1.4370357142857144,-3.1905714285714284,8.514869047619047,0.5733333333333334,-0.07444444444444444,-0.7955555555555556,0.04275796945771227,0.20302308774370645,-2.5634770124200856
1590504069.6398623,-1.306862787625451,-3.1599059486957035,8.367576552240866,0.5733333333333334,-0.07444444444444444,-0.7955555555555556,0.04808809327895392,0.20842995890014693,-2.6076613658736543
1590504069.6498623,-1.4732032028706226,-3.4266016014353116,8.748710379427203,0.5733333333333334,-0.07444444444444444,-0.7955555555555556,0.025932800262211328,0.21450166382807662,-2.646709079589955
1590504069.6598623,-1.431396770549538,-3.405698385274769,9.048323144394978,0.5733333333333334,-0.07444444444444444,-0.7955555555555556,0.024412675486138208,0.20538091517163787,-2.682432011827673
1590504069.6698623,-1.2812481119833217,-3.3692043738166655,8.371029421150041,0.5222222222222223,-0.08444444444444445,-0.7466666666666667,0.054119520093391715,0.22690473049390242,-2.712574501730477
1590504069.6798623,-1.1830982619609844,-3.3602816601782712,8.719015253047418,0.5222222222222223,-0.08444444444444445,-0.7466666666666667,0.024920007992907424,0.20257180374349884,-2.745667282111026
1590504069.6898623,-1.0866030723488602,-3.44723282127519,8.65553435744962,0.5222222222222223,-0.08444444444444445,-0.7466666666666667,0.043935083673227446,0.2118335180344367,-2.779532601320113
1590504069.6998622,-1.1074249541560952,-3.4538923359039413,8.708203923735839,0.5222222222222223,-0.08444444444444445,-0.7466666666666667,0.0430192159723147,0.22799012772386518,-2.801625809959913
1590504069.7098622,-1.0017974291220473,-3.5325820038543303,8.891797429122049,0.5216230791815398,-0.0644730097550315,-0.7324869480371835,0.03608299964929737,0.2117674380104013,-2.824553034086461
1590504069.7198622,-1.006517052482771,-3.5869814454850677,8.889318960947165,0.5188888888888888,0.02666666666666667,-0.6677777777777778,0.04228741713530024,0.23199235474428792,-2.826393214866525
1590504069.7298622,-0.876448200528918,-3.5066032348319345,8.538689203173508,0.5188888888888888,0.02666666666666667,-0.6677777777777778,0.06429136969126165,0.22126183985597234,-2.82852421901331
1590504069.7398622,-0.9108857435634687,-3.645624439605482,8.967962725758936,0.5188888888888888,0.02666666666666667,-0.6677777777777778,0.034139426539656445,0.2310686851956764,-2.8273879777012487
1590504069.7498622,-0.7494104887074136,-3.5833986219216536,9.345008931989282,0.5188888888888888,0.02666666666666667,-0.6677777777777778,0.11756976122404574,0.17966770802215662,-2.8187688902347676
1590504069.7598622,-0.497719669701461,-3.234672877408427,7.857925047639212,0.5110633542710612,0.0641640200437575,-0.6651692662385019,0.19124206002697658,0.1057024959580088,-2.806921704598904
1590504069.7698622,-0.5071799901912702,-3.4007699852869053,8.728930848455125,0.4922222222222222,0.15444444444444444,-0.6588888888888889,0.02790097979378993,0.22231120647613406,-2.7578641704986713
1590504069.7798622,-0.5870062208398134,-3.557604976671851,9.19670813893209,0.4922222222222222,0.15444444444444444,-0.6588888888888889,-0.052209739886033724,0.34452609429628345,-2.69715431993196
1590504069.7898622,-0.43376437494829156,-3.413220195251096,8.542970546868537,0.4922222222222222,0.15444444444444444,-0.6588888888888889,0.014455267709251096,0.27447168821736917,-2.6641055748388003
1590504069.7998621,-0.34804502424740097,-3.3506968997412576,8.602180096989603,0.4922222222222222,0.15444444444444444,-0.6588888888888889,0.055931396432809394,0.11630718931515335,-2.6612961232813372
1590504069.8098621,-0.41952806656027763,-3.591139860248207,8.88811226624111,0.4922222222222222,0.15444444444444444,-0.6588888888888889,0.026867650776112258,0.21838473503623596,-2.6081307348849405
1590504069.8198621,-0.3311784964300714,-3.5364759904801906,8.883255214895703,0.4922222222222222,0.2466666666666667,-0.6522222222222223,0.04327939468736429,0.1701683498207538,-2.52800346905727
1590504069.829862,-0.27742807850869333,-3.4205753719304535,8.485448781143575,0.4922222222222222,0.2466666666666667,-0.6522222222222223,0.06092961546652076,0.19759539806252205,-2.4264708576414917
1590504069.839862,-0.26402548853016145,-3.4874681393372984,8.773570093457943,0.4922222222222222,0.2466666666666667,-0.6522222222222223,0.04553870971006445,0.18348607871789407,-2.346984986806052
1590504069.849862,-0.23551707731520816,-3.5231036533559896,8.695171962616822,0.4922222222222222,0.2466666666666667,-0.6522222222222223,0.04942594127423172,0.17415672296389265,-2.2770148186510406
1590504069.859862,-0.21390102648080841,-3.453291129128889,8.914384311219395,0.49025699742159384,0.2518846773441973,-0.6510024275183839,0.055606010813841186,0.16540710205607942,-2.154083243627424
1590504069.869862,-0.1301389942884531,-3.3611528937172985,8.562583776011502,0.4632670092707238,0.3235477493309901,-0.6342500210799129,0.07022524331302202,0.15992488986888656,-2.0599719344139467
1590504069.879862,-0.15106874817837365,-3.584362977266103,9.007686534538035,0.46,0.3322222222222222,-0.6322222222222222,0.0495825074545342,0.15210460496613945,-1.9163149304519718
1590504069.889862,-0.05174293208976974,-3.3933517924803267,8.793754007577965,0.46,0.3322222222222222,-0.6322222222222222,0.0737523695537257,0.13876950863555104,-1.8404715700717498
1590504069.899862,-0.03509536896509291,-3.359745682759752,8.345989991386029,0.46,0.3322222222222222,-0.6322222222222222,0.07375244778846532,0.1108966699997644,-1.707066457293116
1590504069.909862,0.014427942487739634,-3.4844279424877396,9.05114411502452,0.4583600213008372,0.34189809654728287,-0.6322222222222222,0.019421547850988714,0.1509976613959512,-1.6038556606651597
1590504069.919862,0.04406182911120653,-3.524216401889223,8.95125805066552,0.4488888888888889,0.3977777777777778,-0.6322222222222222,0.04063286118707494,0.12616073904457295,-1.5057244534137975
1590504069.929862,0.05906934306569343,-3.576742700729927,8.771167883211678,0.4488888888888889,0.3977777777777778,-0.6322222222222222,0.05372938773931449,0.14089433141584243,-1.4386047548335696
1590504069.939862,0.06446506104575649,-3.616519278583887,8.69,0.4488888888888889,0.3977777777777778,-0.6322222222222222,0.004987331610046046,0.08180297790846976,-1.338214380228455
1590504069.949862,0.11123103823070743,-3.7004924152922833,8.702310382307074,0.4488888888888889,0.3977777777777778,-0.6322222222222222,0.044401777027198136,0.10554201502285909,-1.2631882835735826
1590504069.959862,0.15968341132652086,-3.713193343520199,9.174487154999522,0.448818535850338,0.39858683772111336,-0.6324156930782373,0.03204850629690213,0.09450513170620779,-1.175642302865514
1590504069.969862,0.14086433424116362,-3.2977790081704725,8.2242615149792,0.4444444444444444,0.4488888888888889,-0.6444444444444445,0.05705975755501057,0.07023744915825533,-1.088497247564804
1590504069.979862,0.1822081672593618,-3.6323346619251056,8.850126494665743,0.4444444444444444,0.4488888888888889,-0.6444444444444445,0.019535214885247815,0.08366715579811894,-0.9633277667920641
1590504069.989862,0.19986661949407394,-3.5716444365823454,8.783288873164691,0.4444444444444444,0.4488888888888889,-0.6444444444444445,0.013196601813521516,0.06398570620234882,-0.8795926846828408
1590504069.999862,0.24438422076773395,-3.5790640367946223,8.798128073589245,0.4444444444444444,0.4488888888888889,-0.6444444444444445,0.03828653956016427,0.06722311752449628,-0.8124163997482812
1590504070.009862,0.2401677787020158,-3.5797203688299737,8.729608516361964,0.44453144080845264,0.44910016577290884,-0.6444755145744474,0.009927287946151801,0.050141612360275735,-0.7195090728329261
1590504070.019862,0.26243721572305895,-3.542604640461568,8.677646496646195,0.4560785563008454,0.4771431605401483,-0.6485994843931591,0.024502600393003816,0.04528317487799174,-0.6612078230455181
1590504070.029862,0.28983813786929274,-3.7085432408236345,8.888138585496867,0.46,0.4866666666666667,-0.65,0.011058387390456104,0.041469226154334925,-0.5689143277328849
1590504070.039862,0.2823226839412566,-3.41826198976775,8.483102248886599,0.46,0.4866666666666667,-0.65,0.023470286850712098,0.023027333830435603,-0.5230997131879623
1590504070.049862,0.30176760744616965,-3.360605644677018,8.708232392553832,0.46,0.4866666666666667,-0.65,0.016423146627422728,0.02617993877991494,-0.4205375380537935
1590504070.059862,0.31975808527065286,-3.468548511623917,8.690241914729347,0.46,0.4866666666666667,-0.65,-0.005163877075619966,0.02617993877991494,-0.3597013803452187
1590504070.069862,0.2815132647083438,-3.4418408234998745,8.744867352916561,0.5155555555555555,0.6433333333333333,-0.6944444444444444,0.012329281752646401,0.017718765439476283,-0.29258597554114213
1590504070.0798619,0.28853360113817056,-3.3575967863419534,8.674663988618294,0.5155555555555555,0.6433333333333333,-0.6944444444444444,0.01386088156887366,0.013889765898908132,-0.24816958087055152
1590504070.0898619,0.3125718032544652,-3.3638577048816978,8.711860327662954,0.5155555555555555,0.6433333333333333,-0.6944444444444444,0.019151483601258682,0.0016519112137954955,-0.17635500609588975
1590504070.0998619,0.3280657911748952,-3.387098686762343,8.843559224986608,0.5155555555555555,0.6433333333333333,-0.6944444444444444,0.0030952305823870666,0.005032175007242151,-0.1281862470392749
1590504070.1098619,0.3044948582545859,-3.3836237145636465,8.73247429127293,0.5155555555555555,0.6433333333333333,-0.6944444444444444,0.0017863756256922838,-0.0008057496762801696,-0.08322253642063672
1590504070.1198618,0.30550603118564285,-3.4110120623712854,8.760789202706677,0.8084472557288092,1.1240203000882614,-1.238016982118924,0.0038731071781578346,-0.00943765996948059,-0.017108937877513553
1590504070.1298618,0.3217387897044058,-3.4273918154433916,8.817395733842725,0.8933333333333333,1.2633333333333334,-1.3955555555555557,-0.0038891417965223976,-0.011809466074075644,0.06696637235474802
1590504070.1398618,0.33796777218115615,-3.4091450251847975,8.594225594731908,0.8933333333333333,1.2633333333333334,-1.3955555555555557,0.0004257857839442895,-0.011590930371940549,0.1359226864855636
1590504070.1498618,0.3196686020544886,-3.490497096918267,8.72082849486378,0.8933333333333333,1.2633333333333334,-1.3955555555555557,-0.0054360789584712845,-0.027288844516422394,0.20104995456372007
1590504070.1598618,0.3009356855739169,-3.5185964716391247,8.767660786065207,0.8933333333333333,1.2633333333333334,-1.3955555555555557,-0.004414356861324146,-0.028310566613569527,0.28176600023834397
1590504070.1698618,0.2926226533861591,-3.4536038804754323,8.733113266930797,0.9031697954851211,0.426414345252054,-1.09882228064329,0.0012698826156806974,-0.037213780802383814,0.35259139028411735
1590504070.1798618,0.29,-3.5055014949714596,8.776626121228594,0.9066666666666666,0.1288888888888889,-0.9933333333333332,-0.0018749673299712291,-0.04653769056532159,0.45663699092966265
1590504070.1898618,0.2830205806943386,-3.454164645554709,8.912608966807568,0.9066666666666666,0.1288888888888889,-0.9933333333333332,0.00010234806177674468,-0.04842839673186071,0.5109082962426768
1590504070.1998618,0.26999950254530986,-3.1600129338219447,8.150050242923708,0.9066666666666666,0.1288888888888889,-0.9933333333333332,0.04471961244346544,-0.081809866812234,0.5901432518028052
1590504070.2098618,0.26304458852206214,-3.340840698426385,8.852496559271726,0.9066666666666666,0.1288888888888889,-0.9933333333333332,-0.01749078886716858,-0.04767001243444704,0.6432496919460293
1590504070.2198617,0.23953426749303872,-3.381397197520884,8.461423695320219,0.48,0.4033333333333333,-0.73,-0.007280190728973361,-0.06867153576177647,0.7218548942596799
1590504070.2298617,0.23011564717506514,-3.4096530584748046,8.894680229947005,0.48,0.4033333333333333,-0.73,-8.830604892885383e-05,-0.06764412366462726,0.7824722079914836
1590504070.2398617,0.20625597925700748,-3.4071149805534446,8.677422996110689,0.48,0.4033333333333333,-0.73,-0.018042011489127815,-0.08118999043291668,0.8562226524536085
1590504070.2498617,0.06087371558390129,-3.2702184288959755,8.653058004543654,0.48,0.4033333333333333,-0.73,-0.0013767535387163737,-0.08653303526249492,0.9266923863016108
1590504070.2598617,0.09584151399570645,-3.2789603784989265,8.775445298984971,0.48,0.4033333333333333,-0.73,-0.012819938809834699,-0.10083701685139283,0.9934443003831342
1590504070.2698617,0.20361821724792645,-3.2880363745378234,8.834109123613471,0.43333333333333335,0.4811111111111111,-0.73,-0.012018977840239505,-0.09447388145730448,1.0597996062683326
1590504070.2798617,0.07363770526365106,-3.2463644030078007,8.729088992480499,0.43333333333333335,0.4811111111111111,-0.73,0.0046616796203329544,-0.0894474342344902,1.1163160126515792
1590504070.2898617,0.007468395330990751,-3.2068354941637383,8.807341976654953,0.43333333333333335,0.4811111111111111,-0.73,-0.034685678478901194,-0.12093034910367291,1.1440329158852363
1590504070.2998617,-0.026412617633991678,-3.1644842279575105,8.63793691183004,0.43333333333333335,0.4811111111111111,-0.73,-0.017130413833828136,-0.10429904575570895,1.1699038322042916
1590504070.3098617,-0.03879420317043429,-3.1951768126817375,8.88382609511303,0.43333333333333335,0.4811111111111111,-0.73,-0.014312332202366615,-0.1092531848227532,1.2081371450292895
1590504070.3198617,-0.04,-3.21129890516825,8.810742231524715,0.44,0.4544444444444444,-0.7866666666666666,-0.00369755806981058,-0.11455747338700031,1.2930414971163646
1590504070.3298616,-0.04,-3.2703878199967797,8.844507325712446,0.44,0.4544444444444444,-0.7866666666666666,-0.023034360229592134,-0.11547827348984704,1.361180704727023
1590504070.3398616,-0.04953570458865056,-3.241857181645398,8.621143089872387,0.44,0.4544444444444444,-0.7866666666666666,-0.005376258583729476,-0.10834677487595945,1.4346761649690978
1590504070.3498616,-0.1619471330617112,-3.144045314518533,8.633988671370368,0.44,0.4544444444444444,-0.7866666666666666,-0.009596839362383308,-0.10799224746714917,1.45603227814372
1590504070.3598616,-0.17855074026160703,-3.1600724090843753,8.811738896075894,0.44,0.4544444444444444,-0.7866666666666666,-0.014655069312795477,-0.11673469093875463,1.451879974291149
1590504070.3698616,-0.21124545454545454,-3.09926,8.75852,0.44183313131313134,0.3563719191919192,-0.6812616161616161,-0.012054275145194472,-0.11246584367260187,1.4336529158291818
1590504070.3798616,-0.11818740692657222,-3.181812593073428,8.901808201916836,0.44222222222222224,0.33555555555555555,-0.6588888888888889,-0.0029754284985159547,-0.11334706076272148,1.4287901228374156
1590504070.3898616,4.304649228586629,4.517853165454868,-3.5634309274694096,0.44222222222222224,0.33555555555555555,-0.6588888888888889,-1.8286902927843733,1.3128903092434852,0.792180291106483
1590504070.3998616,0.5782007448129098,1.007107288526334,-1.1014460010640184,0.44222222222222224,0.33555555555555555,-0.6588888888888889,-4.57677412738648,-1.436004887577283,-0.14656579588337193
1590504070.4098616,0.13936419292220392,-0.754619381812752,-0.02967776616395401,0.44222222222222224,0.33555555555555555,-0.6588888888888889,-5.39915730944225,-1.348127418891793,-0.023603838537470334
1590504070.4198616,-0.23342171165083275,-0.8191117780339469,0.17993441189331,0.40829674091152013,0.4042142677319765,-0.6742361304342065,-5.288882165341969,-1.04744141303707,0.2325732356572544
1590504070.4298615,2.838515188247426,-2.4067834204765437,15.56703526133917,0.3955555555555556,0.43,-0.68,-4.949869589242799,-0.7690528713953293,0.5618277636300931
1590504070.4398615,-0.1361118448428713,-0.35793316809292053,2.166036943896657,0.3955555555555556,0.43,-0.68,-4.146115735454302,0.004901663406159273,0.6785417629958792
1590504070.4498615,2.0351030843118276,-1.643802341082157,9.801613191870127,0.3955555555555556,0.43,-0.68,-2.7282347973914582,1.5855344843073236,0.8660445235563305
1590504070.4598615,1.5449089680612114,-1.0234004127024707,6.960019174229835,0.3955555555555556,0.43,-0.68,-1.3154073850390395,1.2045473169313903,0.8585250399897002
1590504070.4698615,0.7343261328569108,-0.9324261815819392,4.50783758323859,0.38333333333333336,0.5866666666666667,-0.5722222222222222,1.6040255092551954,-0.7377845070489963,0.6096159118465695
1590504070.4798615,0.9863792431378919,-2.0973202858535003,9.56252428130583,0.38333333333333336,0.5866666666666667,-0.5722222222222222,2.2534955978690903,-0.13141426413259116,0.6192762220891103
1590504070.4898615,1.5200352223868632,-1.3745436879053612,4.356974032598926,0.38333333333333336,0.5866666666666667,-0.5722222222222222,3.9750002757965905,-0.07937706414100654,0.3722150088432897
1590504070.4998615,1.522249649368864,-2.6688575435784414,6.336827689841715,0.38333333333333336,0.5866666666666667,-0.5722222222222222,5.236390080427874,-0.007052064738751532,0.12665625069028602
1590504070.5098615,1.1692931276297336,-3.072236425566019,6.647765578040473,0.38333333333333336,0.5866666666666667,-0.5722222222222222,6.297933750250918,0.019532362225728867,-0.11627040950237971
1590504070.5198615,3.602696648611321,0.6103411812943742,17.22806620772999,0.4025787253837061,0.5531964196225402,-0.5881205895681824,7.33881998333026,0.07164431759933196,-0.3148044560209846
1590504070.5298615,1.555243596550651,0.3266491513942036,8.645789377322908,0.4088888888888889,0.5422222222222223,-0.5933333333333334,5.70827923912116,-0.34888842238532297,-0.30316703671986495
1590504070.5398614,0.11273380750605333,-0.12819082929782066,-0.8430251210653753,0.4088888888888889,0.5422222222222223,-0.5933333333333334,1.5559101513298264,-0.7033315118639473,-0.10668322576655875
1590504070.5498614,0.15499102687991795,0.026198552468101072,0.47169956810696745,0.4088888888888889,0.5422222222222223,-0.5933333333333334,-0.03984364467507251,-0.5408559392949235,0.010616577763209095
1590504070.5598614,2.653245520235896,-3.9336819934545217,15.450026570752732,0.4088888888888889,0.5422222222222223,-0.5933333333333334,-0.8100219336789288,0.49899854613860467,0.20340259727460244
1590504070.5698614,0.8154942892421668,-3.379157277357617,12.10742012656274,0.4035387405463806,0.4321620277477663,-0.6498920443827065,-0.333994909410382,1.4669498339936675,0.2697888099058789
1590504070.5798614,-0.16076979897641536,-1.9136219419968696,7.44755219050634,0.4011111111111111,0.38222222222222224,-0.6755555555555556,-0.11121198150633436,-0.6192743178116749,-0.17036311954430672
1590504070.5898614,-0.18289980478024587,-3.1676556042139326,11.976826711690322,0.4011111111111111,0.38222222222222224,-0.6755555555555556,-0.2351311181175713,-0.2338375227676326,-0.08184945053628029
1590504070.5998614,-0.49725446859267836,-3.4835268115560702,11.42036923994457,0.4011111111111111,0.38222222222222224,-0.6755555555555556,0.19626544533305634,0.3486718739072312,0.10922130487303408
1590504070.6098614,-0.3059657247101335,-2.3357943482608006,7.962457331298567,0.4011111111111111,0.38222222222222224,-0.6755555555555556,0.11440509026551646,0.01721769113376076,0.11885193488097996
1590504070.6198614,-0.42284422691274937,-2.7995992658305293,10.299243737466435,0.4088888888888889,0.4088888888888889,-0.68,-0.2837865929066179,-0.11734433896929247,0.21388466143554952
1590504070.6298614,-0.46086060976853266,-2.9279045579687977,10.422796981747732,0.4088888888888889,0.4088888888888889,-0.68,-0.12568435039700576,-0.11112392287055362,0.3170398950729686
1590504070.6398613,-0.49887699262431595,-3.0562098501070665,10.546350226029027,0.4088888888888889,0.4088888888888889,-0.68,0.03241789211260637,-0.10490350677181477,0.4201951287103877
1590504070.6498613,-0.33970152966049,-2.3513120258674296,8.061155328939186,0.4088888888888889,0.4088888888888889,-0.68,-0.10832040561450132,0.0011156563058389302,0.5171137520034151
1590504070.6598613,-0.3255949952400381,-2.6800523595811234,8.73843465252278,0.4088888888888889,0.4088888888888889,-0.68,0.02634624114727227,-0.08559609551206261,0.5812887107902414
1590504070.6698613,-0.3104005919678878,-2.9014639041498573,9.44545502463154,0.40380756088056347,0.4088888888888889,-0.6850813280083254,-0.029202119662545767,-0.052201804730886606,0.6465265612875668
1590504070.6798613,-0.23845130550790927,-2.8979203354297693,9.124468839336764,0.4011111111111111,0.4088888888888889,-0.6877777777777778,-0.036938602999535324,-0.05159727312370382,0.6860118992998264
1590504070.6898613,0.006856831395348817,-3.0324618459302326,8.722058502906977,0.4011111111111111,0.4088888888888889,-0.6877777777777778,-0.005678701746161146,-0.0650933054204067,0.7037618463044831
1590504070.6998613,0.08994738308211335,-3.1388421182952118,8.427473768918876,0.4011111111111111,0.4088888888888889,-0.6877777777777778,-0.003622710172455655,-0.04557376149437885,0.7069789127429396
1590504070.7098613,0.12819593887377015,-3.234424534226502,8.827861419300817,0.4011111111111111,0.4088888888888889,-0.6877777777777778,-0.0037195114682377585,-0.056329615607816366,0.7016009856862209
1590504070.7198613,0.1646902093944539,-3.2346308998302207,8.567546123372948,0.42777777777777776,0.4066666666666667,-0.7022222222222222,-0.027099990033452814,-0.05018271019296746,0.6837711327000583
1590504070.7298613,8.159258630447086,-15.8246519524618,3.3929145444255813,0.42777777777777776,0.4066666666666667,-0.7022222222222222,0.012257184599019314,-0.051218425314874624,0.6423425278237719
1590504070.7398612,4.132205240174673,-11.019585152838427,5.326965065502183,0.42777777777777776,0.4066666666666667,-0.7022222222222222,-0.25445652469339275,-0.0649401574575292,-0.530612960433347
1590504070.7498612,-0.158112473825905,-5.567857463356266,12.732397547113372,0.42777777777777776,0.4066666666666667,-0.7022222222222222,-0.3463180532049076,0.15300435348406824,-4.218593901046118
1590504070.7598612,-7.7858500819281105,-10.230643394934976,5.760005392736398,0.42777777777777776,0.4066666666666667,-0.7022222222222222,0.4401578567564246,0.6499900506922784,-5.545628896307645
1590504070.7698612,-5.6545053913043475,-12.119528,8.176961043478261,0.446632038647343,0.3700056038647343,-0.7399307439613527,0.7066818790935507,0.7464517102682987,-4.375464323217622
1590504070.7798612,-1.0918734923612972,-2.8349246850710266,8.827607075850977,0.4477777777777778,0.36777777777777776,-0.7422222222222222,-0.020878226349607343,0.2885766960389402,-1.1342822768854597
1590504070.7898612,1.5477769349998352,-0.2277769349998352,8.322135013026417,0.4477777777777778,0.36777777777777776,-0.7422222222222222,0.06078639516437934,-0.680644772859735,0.7977486212484493
1590504070.7998612,0.7790812704009911,-1.5537199494889329,6.975022515546449,0.4477777777777778,0.36777777777777776,-0.7422222222222222,0.029065542394035027,-0.28185569349938744,0.9615270890898774
1590504070.8098612,0.6047391330272494,-2.560552143581182,9.760121638542723,0.4477777777777778,0.36777777777777776,-0.7422222222222222,-0.1823233471267319,0.15184363191497066,0.997942746126518
1590504070.8198612,0.3232730595991905,-2.7537273973496967,9.198892878125204,0.4007111720376294,0.4176969050779351,-0.724393962472166,-0.22000473935744502,0.08204857584150818,0.9561191979089382
1590504070.8298612,0.09385977959570009,-2.62247380163613,8.30692988979785,0.3744444444444445,0.4455555555555555,-0.7144444444444444,0.11831254948933873,-0.07504142887449557,0.8708275227051638
1590504070.8398612,0.11465000228906286,-2.765925010300783,9.070962550931648,0.3744444444444445,0.4455555555555555,-0.7144444444444444,-0.08023743828749891,-0.036601460309389676,0.8163995712396213
1590504070.8498611,-3.440123453813324,-14.941423817905626,7.7363554601789115,0.3744444444444445,0.4455555555555555,-0.7144444444444444,-0.05148540860350505,-0.09401905049114218,0.7552744214398253
1590504070.8598611,-2.6634129490722467,-6.268428740623767,10.342516778523489,0.3744444444444445,0.4455555555555555,-0.7144444444444444,-0.09578489066650334,-0.04063376963381489,0.03458639842844313
1590504070.8698611,1.0954471323729273,-0.2331995786898613,8.600410777385159,0.43227700009060427,0.4203195312735949,-0.7144444444444444,0.04845049896042358,0.10648227407391428,-0.6560031799809727
1590504070.879861,1.28,-0.12,8.44,0.4355555555555555,0.4188888888888889,-0.7144444444444444,0.05781403147231216,0.1134464013796314,-0.6795875774952921
1590504070.889861,0.3854153593144785,-4.094125895310843,6.62295090126155,0.4355555555555555,0.4188888888888889,-0.7144444444444444,0.23530711541366908,-0.061875359730048624,0.025058186215126267
1590504070.899861,0.8694437020887545,-7.010468387369013,8.951969899430338,0.4355555555555555,0.4188888888888889,-0.7144444444444444,-0.23309471162195208,0.042095757517453605,0.25537530818281295
1590504070.909861,-0.5910064315499328,-3.831207859212665,8.252031945720546,0.4355555555555555,0.4188888888888889,-0.7144444444444444,-0.06541754374123082,0.014953455915063266,0.20005870473208787
1590504070.919861,-0.5220138149523488,-3.7079516476667793,8.175982237918408,0.41848941517278787,0.42386651316719615,-0.7322216740098274,-0.011297260991093502,-0.012347924590604666,0.04830302040496233
1590504070.929861,-0.21478665022076832,-4.419340555227829,8.540155163475806,0.4088888888888889,0.4266666666666667,-0.7422222222222222,-0.07963064712224129,-0.017453292519943295,0.029452431127404314
1590504070.939861,-0.12432609482446616,-4.357021715526601,8.646251538183135,0.4088888888888889,0.4266666666666667,-0.7422222222222222,-0.03682503383517614,-0.010782287851829248,0.01388675356847153
1590504070.949861,-0.1420595091542471,-4.482311218208963,8.553821472537258,0.4088888888888889,0.4266666666666667,-0.7422222222222222,-0.001315488380725054,-0.004363323129985824,-0.001902089569740867
1590504070.959861,-0.12875133611893888,-4.427502672237877,8.587496258866972,0.4088888888888889,0.4266666666666667,-0.7422222222222222,0.001499688278779162,-0.0016363627721180927,-0.00013644129659211345
1590504070.969861,-0.11506372702473056,-4.395063727024731,8.675446089173114,0.4015746165198336,0.4300424846831537,-0.7242178594676247,0.004363323129985824,0.0005523669312735284,0.001090830782496456
1590504070.979861,-0.10667449191763365,-4.433313770205916,8.696674491917634,0.3944444444444444,0.43333333333333335,-0.7066666666666667,0.009450879173013512,0.001817624502928983,0.001817624502928983
1590504070.989861,-0.13793307880196354,-4.434826768479215,8.652066921198037,0.3944444444444444,0.43333333333333335,-0.7066666666666667,0.006206138802974631,0.0030092329656338243,-0.0011286240375707364
1590504070.999861,-0.12745226546788122,-4.4600636460428245,8.647515911510707,0.3944444444444444,0.43333333333333335,-0.7066666666666667,-0.0021955469775324383,0.0008129160571700199,-0.001361802801553129
1590504071.009861,-0.09575589352146341,-4.409389733803659,8.674244106478536,0.3944444444444444,0.43333333333333335,-0.7066666666666667,-0.0030410122479403506,0.0,0.00023148009954901752
1590504071.019861,-0.11157832917339598,-4.426840992512113,8.664737336661283,0.3944444444444444,0.4200002610156773,-0.7024562227768805,-0.002181661564992912,0.0,0.000401898512053532
1590504071.029861,-0.13,-4.447963804610408,8.613891413831224,0.3944444444444444,0.4122222222222222,-0.7,-0.002181661564992912,-0.0013129452435108634,0.0006564726217554317
1590504071.039861,-0.13,-4.409723523394175,8.596055295321165,0.3944444444444444,0.4122222222222222,-0.7,0.0017815199550673022,-0.002181661564992912,0.001090830782496456
1590504071.049861,-0.1164760394469498,-4.39,8.64057188165915,0.3944444444444444,0.4122222222222222,-0.7,-6.238261177466276e-05,-0.002181661564992912,0.0018284484061232035
1590504071.059861,-0.10449055523755009,-4.4285661133371494,8.621433886662851,0.3944444444444444,0.4122222222222222,-0.7,-0.000979687176724064,-0.0015806743708584878,-0.00022228721154478413
1590504071.069861,-0.11203727317312408,-4.46,8.614074546346249,0.4145065663996512,0.4122222222222222,-0.712706010571631,0.001969594217184381,0.00022223202895979783,-0.00021206734780853092
1590504071.079861,-0.11530489920817691,-4.427134294457238,8.639390201583646,0.42777777777777776,0.4122222222222222,-0.7211111111111111,0.0042968044416181895,0.0016029868295608667,0.0005786747354320453
1590504071.089861,-0.10667878836317135,-4.396642423273657,8.623430306905371,0.42777777777777776,0.4122222222222222,-0.7211111111111111,0.005091865923618467,0.002181661564992912,0.0
1590504071.099861,-0.10466591459693378,-4.419331829193868,8.583997743790801,0.42777777777777776,0.4122222222222222,-0.7211111111111111,0.004872295457069314,0.0026906338920764028,0.0005089723270834905
1590504071.109861,-0.11,-4.426447264936403,8.624869145445176,0.42777777777777776,0.4122222222222222,-0.7211111111111111,0.0035164375277694044,0.0013347759627764923,0.0014783740594390311
1590504071.119861,-0.11,-4.409010856088784,8.664505428044393,0.42411472980737247,0.4201588261581004,-0.7131745071752329,-0.0005993648225818925,-0.0015822967424110193,0.00038356709724723416
1590504071.1298609,-0.11,-4.406733896068325,8.6869355842733,0.4211111111111111,0.4266666666666667,-0.7066666666666667,-0.0018253848942425318,-0.001090830782496456,0.0003782774409956959
1590504071.1398609,-0.09654813570395258,-4.423451864296047,8.62601474637174,0.4211111111111111,0.4266666666666667,-0.7066666666666667,-0.0014479761821882351,-0.00035714539969177914,0.00035714539969177914
1590504071.1498609,-0.10363307771210863,-4.416366922287891,8.63771577199238,0.4211111111111111,0.4266666666666667,-0.7066666666666667,-0.001090830782496456,0.0,0.0
1590504071.1598608,-0.12590128165166212,-4.3993991455655586,8.66530042721722,0.4211111111111111,0.4266666666666667,-0.7066666666666667,-0.001090830782496456,0.0005781869168926373,-0.0005781869168926373
1590504071.1698608,-0.12405681892226494,-4.405943181077735,8.675314393692577,0.41461574104240423,0.41958080840989553,-0.7143430131115021,-0.0028299620515472987,0.0005111203594795083,-0.0005111203594795083
1590504071.1798608,-0.12281370589055744,-4.439220558835836,8.654372588218886,0.4088888888888889,0.4133333333333333,-0.7211111111111111,-0.0008689269241667686,0.0,0.000698879241163811
1590504071.1898608,-0.12443688300777148,-4.416621298046628,8.6010581810544,0.4088888888888889,0.4133333333333333,-0.7211111111111111,0.001090830782496456,0.0,0.001090830782496456
1590504071.1998608,-0.12,-4.420002017523634,8.600002017523634,0.4088888888888889,0.4133333333333333,-0.7211111111111111,0.0030544582376031294,0.0,0.002399915752567572
1590504071.2098608,-0.12,-4.421456533588808,8.652451066219585,0.4088888888888889,0.4133333333333333,-0.7211111111111111,0.0038576285305978795,0.0005056945993879442,0.0022611031487134794
1590504071.2198608,-0.11698998569384836,-4.403010014306152,8.699030042918455,0.4088888888888889,0.4173466857415355,-0.7120810681926562,0.002615809095308383,0.0007624891564059634,0.0007624891564059634
1590504071.2298608,-0.11,-4.413749295457108,8.701253522714463,0.4088888888888889,0.4266666666666667,-0.6911111111111111,0.001090830782496456,-0.0016359387589147617,0.00040898468972869043
1590504071.2398608,-0.11617911085779424,-4.42,8.654552222855514,0.4088888888888889,0.4266666666666667,-0.6911111111111111,0.001090830782496456,-0.0026782320469508135,0.001090830782496456
1590504071.2498608,-0.12191522171815884,-4.411915221718159,8.636169556563681,0.4088888888888889,0.4266666666666667,-0.6911111111111111,0.001090830782496456,0.00020891828054734078,0.0006498745315218984
1590504071.2598608,-0.11226854020296644,-4.4,8.664537080405934,0.4088888888888889,0.4266666666666667,-0.6911111111111111,0.00034845273707849315,-0.0005959120855511474,0.0007423780454179628
1590504071.2698607,-0.12,-4.4,8.68,0.4068874161348388,0.4266666666666667,-0.6933985085443112,-0.0027430733596789693,0.0016522425771825135,0.0027110805528033108
1590504071.2798607,-0.11730149059745745,-4.4,8.661110434182202,0.4011111111111111,0.4266666666666667,-0.7,-0.0046576848423007765,0.002095045498229557,0.0007964690701815031
1590504071.2898607,-0.11566117069022534,-4.422644682760902,8.581694146548873,0.4011111111111111,0.4266666666666667,-0.7,-0.004836615987095828,-0.0004732928571100038,0.0006175379253864522
1590504071.2998607,-0.1145425714153433,-4.42362771424603,8.603659428677254,0.4011111111111111,0.4266666666666667,-0.7,-0.0019820706926179875,-0.0005953131093419591,0.001090830782496456
1590504071.3098607,-0.10569801283657461,-4.422905961490277,8.652905961490276,0.4011111111111111,0.4266666666666667,-0.7,0.00046927400237690373,-0.001090830782496456,0.001090830782496456
1590504071.3198607,-0.103920078528229,-4.420399607358855,8.685680314112917,0.4115646538530551,0.4340712594422103,-0.6943376643481136,0.001090830782496456,-0.0015184450153360152,0.0015184450153360152
1590504071.3298607,-0.11942751730713427,-4.408855034614268,8.695858724039299,0.42777777777777776,0.4455555555555555,-0.6855555555555556,0.002119213390610472,-0.0011532789568788962,0.001667470260935904
1590504071.3398607,-0.12074823423474126,-4.4161223513521115,8.619863522525819,0.42777777777777776,0.4455555555555555,-0.6855555555555556,0.002263281258570256,0.002018422177838224,-0.000422985850882212
1590504071.3498607,-0.12140083840702665,-4.405700419203513,8.589902934424593,0.42777777777777776,0.4455555555555555,-0.6855555555555556,0.0035781078786269616,0.001876046033855318,-0.000938023016927659
1590504071.3598607,-0.12069595828391785,-4.405347979141959,8.647912125148245,0.42777777777777776,0.4455555555555555,-0.6855555555555556,0.00545415391248228,-0.0005074567552766782,0.0
1590504071.3698606,-0.11589806724337046,-4.402949033621685,8.688847100865056,0.4241734033512736,0.4376914658977282,-0.6960410084326586,0.0044890849165369045,0.00019592787876404442,-0.0003216896653151251
1590504071.3798606,-0.12444212479703086,-4.408147374932343,8.706294749864687,0.4155555555555556,0.4188888888888889,-0.7211111111111111,0.000969121293658415,0.0024641321665997036,-0.0004845606468292075
1590504071.3898606,-0.10011888192994665,-4.400039627309982,8.690079254619963,0.4155555555555556,0.4188888888888889,-0.7211111111111111,-0.004337387116252145,-0.0010735401066740034,0.0021686935581260725
1590504071.3998606,-0.12,-4.4238662860576925,8.583197716346154,0.4155555555555556,0.4188888888888889,-0.7211111111111111,-0.0052797455412784446,0.0013381687958593843,0.0006690843979296921
1590504071.4098606,-0.12426387293539827,-4.425736127064601,8.628527745870796,0.4155555555555556,0.4188888888888889,-0.7211111111111111,-0.002807375962430773,-0.00093023277011719,0.0
1590504071.4198606,-0.12741814203302168,-4.414836284066044,8.647745573900936,0.4138343169109034,0.42261823928563536,-0.7193898724664589,-0.0013367505210688118,-0.0016183875357101787,0.0008449110439241001
1590504071.4298606,-0.12125407736891763,-4.401254077368918,8.666237767893247,0.4088888888888889,0.43333333333333335,-0.7144444444444444,0.000954032162731703,-0.00041039585929425904,0.002998895107959862
1590504071.4398606,-0.1257821830532555,-4.407891091526628,8.625237640686395,0.4088888888888889,0.43333333333333335,-0.7144444444444444,0.0002300462280222064,-0.0028123998914449553,0.0008607845544742496
1590504071.4498606,-0.11449883941759866,-4.4022494197088,8.581247098543997,0.4088888888888889,0.43333333333333335,-0.7144444444444444,0.0018269516608302111,-0.0006000835302739525,0.0
1590504071.4598606,-0.11684488797832265,-4.41328877800542,8.639732668032515,0.4088888888888889,0.43333333333333335,-0.7144444444444444,0.004363323129985824,0.001090830782496456,-0.000358750028510871
1590504071.4698606,-0.09217512732051913,-4.41836865450961,8.68054378183013,0.4095535111257142,0.43254787068981254,-0.7152299070879652,0.004422640525912606,0.0009128785947161075,-0.001090830782496456
1590504071.4798605,-0.12197156800339487,-4.394014215998302,8.681971568003394,0.4211111111111111,0.4188888888888889,-0.7288888888888889,0.004140504798920825,-0.0017437785271390937,0.0002228183310649986
1590504071.4898605,-0.11366714735886344,-4.403667147358863,8.644329968487956,0.4211111111111111,0.4188888888888889,-0.7288888888888889,0.0005815666757933891,-0.0006908070601965753,0.002181661564992912
1590504071.4998605,-0.12,-4.414319668246446,8.621598341232227,0.4211111111111111,0.4188888888888889,-0.7288888888888889,-0.002181661564992912,-0.0004712027093395236,0.0012392561463138649
1590504071.5098605,-0.11328036492120169,-4.42,8.6533598175394,0.4211111111111111,0.4188888888888889,-0.7288888888888889,-0.0018151623254381026,-0.00035783230338683723,0.0
1590504071.5198605,-0.10219864467109317,-4.415602710657813,8.66,0.4198896418493927,0.4220647089693568,-0.7288888888888889,-0.0013306657111964776,0.0008509958537964343,0.0002398349287000217
1590504071.5298605,-0.11484098493275356,-4.4193639397310145,8.635795075336231,0.4155555555555556,0.43333333333333335,-0.7288888888888889,-0.0011255224885430872,-0.0005280695382249124,0.001090830782496456
1590504071.5398605,-0.12,-4.4313050850879145,8.592610170175828,0.4155555555555556,0.43333333333333335,-0.7288888888888889,-0.0014227021255936174,-0.001090830782496456,0.0015650648243609952
1590504071.5498605,-0.12,-4.408471651828781,8.593056696342439,0.4155555555555556,0.43333333333333335,-0.7288888888888889,-0.0024341272103892003,-0.0006716482139463722,0.0013432964278927444
1590504071.5598605,-0.12,-4.404917343580573,8.626270664104856,0.4155555555555556,0.43333333333333335,-0.7288888888888889,-0.0002772159039581897,-0.00040680743926913314,0.0008136148785382663
1590504071.5698605,-0.12,-4.426495199437983,8.63051440168605,0.416529111267227,0.43080208848298773,-0.7259682217538748,0.001090830782496456,-0.0008996735655185039,0.0017993471310370078
1590504071.5798604,-0.12,-4.410125282959957,8.67962415112013,0.421076310288901,0.41897937102663513,-0.7123266246888524,0.001090830782496456,-6.833125462129327e-06,1.3666250924258654e-05
1590504071.5898604,-0.12509924632490113,-4.417450376837549,8.664702261025296,0.4211111111111111,0.4188888888888889,-0.7122222222222222,0.0029943716045526645,0.0019035408220562083,0.001090830782496456
1590504071.5998604,-0.1384119067410838,-4.409205953370542,8.618411906741082,0.4211111111111111,0.4188888888888889,-0.7122222222222222,0.0020950445143778666,0.0010042137318814106,0.0011774478331115013
1590504071.6098604,-0.11669016579282981,-4.40330983420717,8.61985900524302,0.4211111111111111,0.4188888888888889,-0.7122222222222222,0.001090830782496456,-0.0007220938076281982,0.0014595677573647136
1590504071.6198604,-0.11147716814159292,-4.41,8.664431504424778,0.4211111111111111,0.4188888888888889,-0.7125504818092429,0.0009296967345191918,-0.0018593934690383836,0.0003222680959545282
1590504071.6298604,-0.12416214327315084,-4.4058378567268495,8.69416214327315,0.4211111111111111,0.4188888888888889,-0.7144444444444444,0.0009080388007026992,0.0004540194003513496,0.0017276421646415623
1590504071.6398604,-0.1257977002339589,-4.4,8.641167803275424,0.4211111111111111,0.4188888888888889,-0.7144444444444444,0.0017232617707853815,0.0006324309882889254,0.0001740311940813949
1590504071.6498604,-0.1158106256318095,-4.412568123104571,8.593514994945524,0.4211111111111111,0.4188888888888889,-0.7144444444444444,-0.0007371286255930785,-0.0004569898520223836,-0.001090830782496456
1590504071.6598604,-0.11278500528348953,-4.43,8.64557001056698,0.4211111111111111,0.4188888888888889,-0.7144444444444444,-0.0026648984489602385,-0.001090830782496456,-0.0004832368839673267
1590504071.6698604,-0.11990322047894302,-4.4298064409578854,8.659903220478943,0.4210573447105239,0.418964161849711,-0.7143691714836223,-0.001090830782496456,-0.0011013877905648776,0.0010802737744280344
1590504071.6798604,-0.10694365657339977,-4.4069436565734,8.65,0.4155555555555556,0.4266666666666667,-0.7066666666666667,0.0009095413124732808,-0.0011814755175080433,0.0
1590504071.6898603,-0.10690850406960427,-4.403454252034803,8.625820235756386,0.4155555555555556,0.4266666666666667,-0.7066666666666667,0.004700553022469642,0.0003372298924838188,0.0
1590504071.6998603,-0.11663508137432188,-4.413364918625678,8.593459674502713,0.4155555555555556,0.4266666666666667,-0.7066666666666667,0.0029054366657408318,-0.001090830782496456,-0.0003670556817485362
1590504071.7098603,-0.1184843731618368,-4.417171875612721,8.636968746323673,0.4155555555555556,0.4266666666666667,-0.7066666666666667,0.0018731610511556335,-0.001090830782496456,-0.0007823302686591775
1590504071.7198603,-0.14,-4.4114769849135556,8.678523015086444,0.41850952538266717,0.4266666666666667,-0.7109335119724944,0.001090830782496456,-0.001090830782496456,-0.00016111406089895072
1590504071.7298603,-0.131196366550895,-4.411196366550895,8.678803633449105,0.4355555555555555,0.4266666666666667,-0.7355555555555555,0.002051158218906374,-0.00045061249155651086,-0.00013050334608653825
1590504071.7398603,-0.1125031901662117,-4.400012760664847,8.682477668836517,0.4355555555555555,0.4266666666666667,-0.7355555555555555,0.004363323129985824,0.0008177750937218419,0.0010894388098944558
1590504071.7498603,-0.1192781340354391,-4.427112536141756,8.635053061751927,0.4355555555555555,0.4266666666666667,-0.7355555555555555,0.004363323129985824,7.874336149795119e-05,-0.0018666881190011072
1590504071.7598603,-0.09380154753787318,-4.418099226231063,8.66,0.4355555555555555,0.4266666666666667,-0.7355555555555555,-0.0012981730362682394,-0.0012981730362682394,-0.0008834885287246725
1590504071.7698603,-0.10623610328777683,-4.411881948356112,8.66,0.4355555555555555,0.4266666666666667,-0.7355555555555555,-0.0019763728452014,-0.0019763728452014,-0.00020528871979151229
1590504071.7798603,-0.11923043495437127,-4.428460869908743,8.675382609726228,0.42777777777777776,0.4266666666666667,-0.7066666666666667,-0.001090830782496456,-0.0018458754686308692,-0.0010068842584059453
1590504071.7898602,-0.1109455615691542,-4.411891123138308,8.625673369414924,0.42777777777777776,0.4266666666666667,-0.7066666666666667,-0.001090830782496456,0.0017690824984412956,-0.00010314476663790409
1590504071.7998602,-0.11189830508474576,-4.393796610169491,8.585694915254237,0.42777777777777776,0.4266666666666667,-0.7066666666666667,0.0015049767066985004,-0.00026253893409236735,0.0015604426786898454
1590504071.8098602,-0.11988592649019233,-4.409771852980385,8.609657779470577,0.42777777777777776,0.4266666666666667,-0.7066666666666667,0.0032476053682962474,0.0032227183891031267,-0.0010535003137067756
1590504071.8198602,-0.1219358735834924,-4.400967936791747,8.67,0.42659474392119906,0.425913826939753,-0.7074195063935804,0.0022872470897876735,-0.0008796597329069326,0.0008796597329069326
1590504071.8298602,-0.1332476836091294,-4.41,8.67,0.4155555555555556,0.4188888888888889,-0.7144444444444444,0.003272492347489368,0.0007962053996037747,-0.0012381434739427966
1590504071.8398602,-0.10191190582067546,-4.415955952910338,8.64022023544831,0.4155555555555556,0.4188888888888889,-0.7144444444444444,0.003272492347489368,-0.00044113710512688146,-0.0018568147263081248
1590504071.8498602,-0.12382355223340144,-4.420735328350102,8.5761764477666,0.4155555555555556,0.4188888888888889,-0.7144444444444444,0.003272492347489368,0.0007539578149820963,-0.001090830782496456
1590504071.8598602,-0.10709885250276391,-4.402901147497237,8.613209179977888,0.4155555555555556,0.4188888888888889,-0.7144444444444444,0.002006627949670294,-0.0003164660994547684,-0.0014072968819512244
1590504071.8698602,-0.10629603835748534,-4.41,8.672518415342994,0.416255115373054,0.4188888888888889,-0.7126255889189487,-0.0012281890314589246,-0.0005413977866465816,-0.002181661564992912
1590504071.8798602,-0.14274844236760123,-4.412417185877467,8.692417185877465,0.4211111111111111,0.4188888888888889,-0.7,-0.002181661564992912,0.0022177960426270106,-0.0016543134125617332
1590504071.8898602,-0.11786051512962246,-4.415721030259245,8.670047211814714,0.4211111111111111,0.4188888888888889,-0.7,-0.0017148983739342628,-0.0013242123780257806,0.0002333815955293246
1590504071.8998601,-0.11081352173255599,-4.401627043465112,8.571389304255785,0.4211111111111111,0.4188888888888889,-0.7,-0.00017748290962038473,-0.0020929201101827196,0.0010020893276862636
1590504071.9098601,-0.09140036150022593,-4.4085996384997745,8.641400361500226,0.4211111111111111,0.4188888888888889,-0.7,0.0007853192962825818,-0.0020289058218859748,-0.001090830782496456
1590504071.9198601,-0.09771802982376865,-4.402281970176231,8.64771802982377,0.4211111111111111,0.4188888888888889,-0.7,-0.0005929821199020498,-0.0013397551137936592,-0.001090830782496456
1590504071.92986,-0.12019355915234439,-4.429806440847655,8.66,0.4155555555555556,0.4388888888888889,-0.7144444444444444,0.0010591597402547768,0.0,-1.0557014080559729e-05
1590504071.93986,-0.13468825770696224,-4.412655871146519,8.630785417388292,0.4155555555555556,0.4388888888888889,-0.7144444444444444,-0.0007331085645094382,0.0002897106000966947,-0.0008011201823997613
1590504071.94986,-0.12,-4.418617604468349,8.555529582126605,0.4155555555555556,0.4388888888888889,-0.7144444444444444,0.0029709004275873174,0.0009400348225454306,0.0003015919199020508
1590504071.95986,-0.12,-4.411387050062061,8.584451799751758,0.4155555555555556,0.4388888888888889,-0.7144444444444444,0.001393438163408278,0.00015130369045591096,0.00187905418408109
1590504071.96986,-0.11018662649594109,-4.419626747008118,8.680373252991881,0.41505788489971274,0.4386607898382942,-0.7145688621084052,0.0011315463678168527,0.0,0.0
1590504071.97986,-0.11896204703322454,-4.402075905933551,8.69792409406645,0.3916567634669568,0.42793527584828117,-0.7204191424665942,0.0030460461381009293,0.0,0.0
1590504071.98986,-0.1317532753495541,-4.42,8.677207420455796,0.3888888888888889,0.4266666666666667,-0.7211111111111111,-0.00089957811034787,0.00038250534429717193,0.000708325438199284
1590504071.99986,-0.13944952108334252,-4.42,8.577156225916548,0.3888888888888889,0.4266666666666667,-0.7211111111111111,-6.004793474052926e-05,0.0020615656955118534,-0.0009707349130153975
1590504072.00986,-0.13177153191168714,-4.417942882977922,8.638228468088313,0.3888888888888889,0.4266666666666667,-0.7211111111111111,-0.000642037468320384,0.001508471593728804,0.0
1590504072.01986,-0.10016652852083491,-4.410041632130209,8.669833471479166,0.3888888888888889,0.4266666666666667,-0.7211111111111111,0.0010817480606619405,-0.001077206699744683,0.0
1590504072.02986,-0.11191821613636896,-4.397672864545475,8.668490703181785,0.4211111111111111,0.43333333333333335,-0.7144444444444444,-0.001090830782496456,0.00020924492090326869,0.0
1590504072.03986,-0.1219211987251979,-4.4338423974503955,8.608472807648813,0.4211111111111111,0.43333333333333335,-0.7144444444444444,-0.0008812605116225738,0.0008812605116225738,-0.0002095702708738822
1590504072.04986,-0.12778466337844105,-4.4411386535137645,8.573292019729355,0.4211111111111111,0.43333333333333335,-0.7144444444444444,0.00024165573803882113,0.0007249672141164635,-0.0013324865205352771
1590504072.05986,-0.11926248086659602,-4.409262480866596,8.621475038266807,0.4211111111111111,0.43333333333333335,-0.7144444444444444,0.001090830782496456,0.003192041490149651,-0.0020207598503134776
1590504072.06986,-0.11308930884257624,-4.403089308842577,8.633821382314848,0.4211111111111111,0.43333333333333335,-0.7144444444444444,0.001090830782496456,0.002518652883204978,-0.000673982636424132
1590504072.07986,-0.11,-4.425830696527635,8.69166139305527,0.41632764879117873,0.4275931785494145,-0.707747597196539,0.002030061412685412,0.0003032003046150001,-0.0009392306301889559
1590504072.08986,-0.13,-4.421639503873344,8.684918511620031,0.4155555555555556,0.4266666666666667,-0.7066666666666667,0.001953664401695437,0.000862833619198981,0.00022799716329747498
1590504072.09986,-0.12683099689823077,-4.391584501550884,8.59,0.4155555555555556,0.4266666666666667,-0.7066666666666667,0.0010044096291655406,0.0001728423066618308,0.0009179884758346252
1590504072.10986,-0.09775892841671144,-4.406120535791644,8.59,0.4155555555555556,0.4266666666666667,-0.7066666666666667,0.00021159194890338297,0.001758477667186146,-0.00066764688468969
1590504072.11986,-0.11886778281959004,-4.400377405726804,8.666980754185573,0.4155555555555556,0.4266666666666667,-0.7066666666666667,-0.002099324408135411,0.002181661564992912,-4.116857842875049e-05
1590504072.12986,-0.12,-4.424982317708865,8.686654878472577,0.4155555555555556,0.4368446479554638,-0.7112930217979381,-0.00036489615333044423,-0.0005434865525007896,-0.0009083827058312339
1590504072.13986,-0.14705443394721449,-4.412945566052786,8.672326603683286,0.4155555555555556,0.4388888888888889,-0.7122222222222222,0.00044820795804545335,-0.0009301750763837053,-0.0007695193702709547
1590504072.14986,-0.1321855114593119,-4.427814488540688,8.583113068755871,0.4155555555555556,0.4388888888888889,-0.7122222222222222,-0.002795687712426132,-0.00011920115876580897,0.000852428464964838
1590504072.15986,-0.11300766541151157,-4.426992334588488,8.614511498117267,0.4155555555555556,0.4388888888888889,-0.7122222222222222,0.0,0.0001640427007163343,-0.0007627453810637873
1590504072.16986,-0.12710899677245832,-4.412891003227542,8.635663495158688,0.4155555555555556,0.4388888888888889,-0.7122222222222222,0.0,0.0009331510168515019,0.0007754712512065478
1590504072.1798599,-0.128696338805107,-4.42,8.66,0.4211111111111111,0.43333333333333335,-0.7211111111111111,0.0029880775952222864,0.0020394541888593713,-0.0002844147522670816
1590504072.1898599,-0.1185089327814743,-4.418508932781474,8.652544663907372,0.4211111111111111,0.43333333333333335,-0.7211111111111111,0.001090830782496456,0.001009505681459496,-0.002019011362918992
1590504072.1998599,-0.10460654596100279,-4.403071030640668,8.567677576601671,0.4211111111111111,0.43333333333333335,-0.7211111111111111,0.001090830782496456,-0.0001674987378415519,-0.0006699949513662076
1590504072.2098598,-0.12892339137612516,-4.418923391376125,8.618612868990999,0.4211111111111111,0.43333333333333335,-0.7211111111111111,0.0013257103480212226,-0.001090830782496456,-0.004245883347223441
1590504072.2198598,-0.12068020124995087,-4.410680201249951,8.684558390000392,0.4211111111111111,0.43333333333333335,-0.7211111111111111,0.003124095455141574,-0.001090830782496456,-0.0033466907936632656
1590504072.2298598,-0.08305219228193106,-4.400763048070483,8.702289144211449,0.4088888888888889,0.43333333333333335,-0.7066666666666667,0.001090830782496456,-0.002181661564992912,-0.001090830782496456
1590504072.2398598,-0.11853258118174585,-4.4129348376365085,8.71239097418095,0.4088888888888889,0.43333333333333335,-0.7066666666666667,0.001090830782496456,-0.0018615204414396743,-0.0015710424678263126
1590504072.2498598,-0.11,-4.427655796971758,8.61117210151412,0.4088888888888889,0.43333333333333335,-0.7066666666666667,0.0005794050177708741,-0.0002557128823627909,-0.004107610247623033
1590504072.2598598,-0.11,-4.412642373912733,8.618678813043633,0.4088888888888889,0.43333333333333335,-0.7066666666666667,-0.002696015786914586,-0.001893423284705521,-0.0024698998452803026
1590504072.2698598,-0.12763631260684305,-4.392363687393157,8.655272625213685,0.4088888888888889,0.43333333333333335,-0.7066666666666667,-0.003272492347489368,-0.004105484833120385,-0.0002578382968654394
1590504072.2798598,-0.10923513588720898,-4.403843242741861,8.66,0.4304228220428944,0.42333543579754507,-0.7312768759855302,-0.0002523652850109138,-0.002853259598746597,-0.0007550317656196136
1590504072.2898598,-0.1,-4.4198745666316075,8.620501733473569,0.44,0.4188888888888889,-0.7422222222222222,0.001090830782496456,-0.0011045134404359153,-0.001090830782496456
1590504072.2998598,-0.1,-4.405124997766301,8.582812494415753,0.44,0.4188888888888889,-0.7422222222222222,0.0027134418151186393,-0.0002795252661853644,-0.0019021362988075475
1590504072.3098598,-0.09069995463903137,-4.390699954639031,8.621399909278061,0.44,0.4188888888888889,-0.7422222222222222,0.0,0.001990778548341259,0.0011290073858267865
1590504072.3198597,-0.10533514777207859,-4.405335147772079,8.650670295544158,0.44,0.4188888888888889,-0.7422222222222222,0.0,-0.002000351245985903,0.001927233344692219
1590504072.3298597,-0.10939972467758297,-4.401200550644835,8.679399724677582,0.4211111111111111,0.43333333333333335,-0.7355555555555555,0.00019643963989964797,-0.0010253509025299067,0.0
1590504072.3398597,-0.10180245616577308,-4.4163950876684535,8.671802456165773,0.4211111111111111,0.43333333333333335,-0.7355555555555555,0.002682639946571626,-0.00019661746697258078,0.0
1590504072.3498597,-0.12929275891492867,-4.3809429881134285,8.6,0.4211111111111111,0.43333333333333335,-0.7355555555555555,0.001090830782496456,-5.143202308280077e-05,-0.0010651147709550557
1590504072.3598597,-0.10432321949477111,-4.414235707340305,8.6,0.4211111111111111,0.43333333333333335,-0.7355555555555555,0.001090830782496456,-0.001867268171367239,-0.00015719669681283645
1590504072.3698597,-0.12372107339093956,-4.42,8.647442146781879,0.4211111111111111,0.43333333333333335,-0.7355555555555555,0.00022830821420664058,-0.00045661642841328116,0.0
1590504072.3798597,-0.1388034716251075,-4.402393056749785,8.677606943250215,0.416220293541607,0.42746435224992835,-0.6964290149995223,-0.000960309784150134,-0.000960309784150134,0.0
1590504072.3898597,-0.11937799454268096,-4.418755989085362,8.691913929054852,0.4155555555555556,0.4266666666666667,-0.6911111111111111,-0.002181661564992912,0.001090830782496456,-0.0031367918075444895
1590504072.3998597,-0.11036632791182348,-4.4007326558236475,8.574762262853705,0.4155555555555556,0.4266666666666667,-0.6911111111111111,-0.002181661564992912,0.001090830782496456,-0.0011707511350373947
1590504072.4098597,-0.11957591623036648,-4.419151832460733,8.627455497382199,0.4155555555555556,0.4266666666666667,-0.6911111111111111,-0.002181661564992912,4.6260363027336715e-05,-0.001090830782496456
1590504072.4198596,-0.13623978972907402,-4.42,8.646239789729075,0.4155555555555556,0.4266666666666667,-0.6911111111111111,0.0004755678156686434,-0.0035429725075487397,-0.001090830782496456
1590504072.4298596,-0.12741460405582544,-4.42,8.656292697972088,0.41905149887338183,0.4266666666666667,-0.709989205027373,0.00040440391720587257,-0.002990469399404657,-0.001090830782496456
1590504072.4398596,-0.12,-4.410788481038329,8.632365443114988,0.4211111111111111,0.4266666666666667,-0.7211111111111111,0.0010048208436940584,-0.0011768407212988535,-0.0020956516261905144
1590504072.4498596,-0.12,-4.41,8.596326272898708,0.4211111111111111,0.4266666666666667,-0.7211111111111111,0.001090830782496456,-0.0018254775441659695,-0.0007123680416538849
1590504072.4598596,-0.12821523552770592,-4.4017847644722945,8.62107617763853,0.4211111111111111,0.4266666666666667,-0.7211111111111111,-0.0007014555773195725,-0.002181661564992912,0.0
