time,acc_x,acc_y,acc_z,mag_x,mag_y,mag_z,gyr_x,gyr_y,gyr_z
1590505995.862254,0.02,-4.4,8.76,0.4933333333333334,0.3244444444444444,-0.6622222222222223,-0.001090830782496456,0.003272492347489368,0.001090830782496456
1590505995.872254,0.002592411536870605,-4.395184823073741,8.754075884631293,0.4933333333333334,0.3244444444444444,-0.6622222222222223,0.0016160851039294316,0.0005655764610634804,0.00024246609090123532
1590505995.882254,0.02281779416849141,-4.416408897084246,8.699226691252738,0.4933333333333334,0.3244444444444444,-0.6622222222222223,-0.0006991022221347,0.0007834571207235119,-0.0007834571207235119
1590505995.8922539,0.018703199846713932,-4.408703199846714,8.715648400076644,0.4933333333333334,0.3244444444444444,-0.6622222222222223,0.00014145895259505678,0.0,-0.0012322897350915127
1590505995.9022539,0.006369950924877312,-4.403630049075123,8.730890147225368,0.4933333333333334,0.32202441172769597,-0.6573821567887254,0.0006948538551847941,-0.0011879307819349853,-0.00178568463768125
1590505995.9122539,0.003468049090139653,-4.41346804909014,8.73959585272958,0.4933333333333334,0.31777777777777777,-0.6488888888888888,0.000756610940546632,-0.0025158814069427358,-0.001090830782496456
1590505995.9222538,0.01465379213483146,-4.410692415730337,8.678115870786517,0.4933333333333334,0.31777777777777777,-0.6488888888888888,0.0026893115365943174,0.0014474190755105712,-7.553083929364508e-05
1590505995.9322538,0.010855846894521149,-4.4,8.643716229658219,0.4933333333333334,0.31777777777777777,-0.6488888888888888,0.0027737561631235234,0.003864586945619979,9.335841376476657e-05
1590505995.9422538,-0.005012486495102815,-4.410024972990206,8.690074918970618,0.4933333333333334,0.31777777777777777,-0.6488888888888888,0.0016348841084223198,0.002725714890918776,-0.001637608239067048
1590505995.9522538,-0.004758717724455261,-4.42,8.72,0.4933333333333334,0.3212719659614743,-0.6366592302459512,0.0005190955779047288,0.002181661564992912,-0.0016099263604011848
1590505995.9622538,0.0,-4.4064883726268915,8.740267441059663,0.4933333333333334,0.3244444444444444,-0.6255555555555555,0.002947779812041799,0.001444716611982462,-0.0003538858294860062
1590505995.9722538,0.006113516959398563,-4.412227033918797,8.713318898243609,0.4933333333333334,0.3244444444444444,-0.6255555555555555,0.003696441881123215,-0.0015766942129539793,0.0006668812488626088
1590505995.9822538,0.01573065022792225,-4.42,8.71292260091169,0.4933333333333334,0.3244444444444444,-0.6255555555555555,0.0013971414457879926,-0.005147843249190744,-0.00015940315197112776
1590505995.9922538,0.02,-4.41614843384382,8.73770313231236,0.4933333333333334,0.3244444444444444,-0.6255555555555555,-0.000420140692398259,-0.007385266079775254,0.00016959129469832105
1590505996.0022538,0.016936628138700678,-4.41153168593065,8.74846831406935,0.4933333333333334,0.323423320490678,-0.6301506133475046,-0.0014249928149503324,-0.00839248422751777,0.001513337500085159
1590505996.0122538,0.006031884818279851,-4.407936230363441,8.69777680627204,0.4933333333333334,0.31777777777777777,-0.6555555555555556,-0.0012985626566135566,-0.005887008131353465,-0.002181661564992912
1590505996.0222538,0.003999576360940478,-4.4060004236390595,8.639997881804701,0.4933333333333334,0.31777777777777777,-0.6555555555555556,-0.001309089362701106,-0.006108698593832833,-0.00021802752094125322
1590505996.0322537,0.011602435097605151,-4.41,8.637403652646407,0.4933333333333334,0.31777777777777777,-0.6555555555555556,-0.002814476232812161,-0.007810614030617233,-0.00017479855314204138
1590505996.0422537,0.010161877861108405,-4.4050809389305545,8.689352488555567,0.4933333333333334,0.31777777777777777,-0.6555555555555556,-0.004345664994595651,-0.007653473612865365,-0.0005542444589433147
1590505996.0522537,0.0,-4.4,8.744530795483177,0.4933333333333334,0.31777777777777777,-0.6555555555555556,-0.004265355986941581,-0.00575245274461827,0.000396265975180233
1590505996.0622537,0.004546009706553531,-4.404546009706554,8.77,0.4933333333333334,0.31777777777777777,-0.6555555555555556,-0.002677554297536539,-0.002875644932354942,0.001090830782496456
1590505996.0722537,0.018143872692884627,-4.41,8.737424509228461,0.4933333333333334,0.31777777777777777,-0.6555555555555556,-0.002828312996382825,-0.0002024720802833701,0.001090830782496456
1590505996.0822537,0.025842638082477297,-4.4120786809587615,8.702472085752568,0.4933333333333334,0.31777777777777777,-0.6555555555555556,-0.0010479169765898475,0.0013175797001770688,0.0013175797001770688
1590505996.0922537,0.01706638848035024,-4.416466805759825,8.753533194240175,0.4933333333333334,0.31777777777777777,-0.6555555555555556,0.004043315755033808,0.003337896676309571,0.0014108381574484724
1590505996.1022537,0.02668672765206227,-4.41,8.75834336382603,0.4922289092173541,0.31667335366179855,-0.6544511314395763,0.005634864885878519,0.005815575859274758,0.00036142194679247846
1590505996.1122537,0.004964402219206134,-4.41,8.75,0.4866666666666667,0.3111111111111111,-0.6488888888888888,0.005446387681466578,0.005987919957206955,0.0016323630582368328
1590505996.1222537,0.010669431729091324,-4.404665284135454,8.680648693760906,0.4866666666666667,0.3111111111111111,-0.6488888888888888,0.004363323129985824,0.004945250358077684,0.001090830782496456
1590505996.1322536,0.02,-4.405573848270627,8.647869241353133,0.4866666666666667,0.3111111111111111,-0.6488888888888888,0.004971335657042253,0.0042381288583694205,0.0016988433095528853
1590505996.1422536,0.024490146168382892,-4.405509853831617,8.674490146168383,0.4866666666666667,0.3111111111111111,-0.6488888888888888,0.005943952878320337,0.0037622913133274253,0.002181661564992912
1590505996.1522536,0.01764325323475046,-4.408237831176833,8.696475662353667,0.48941261039227774,0.3138570548367221,-0.6488888888888888,0.005646376712108889,0.0025661071642461303,0.0017323575735579886
1590505996.1622536,0.0054169432065990335,-4.409166113586802,8.714583056793401,0.4933333333333334,0.31777777777777777,-0.6488888888888888,0.0037724262903064956,0.001181793679358657,0.0016817276221757845
1590505996.1722536,0.004478446696788375,-4.4110431066064235,8.67687068018073,0.4933333333333334,0.31777777777777777,-0.6488888888888888,0.002670184316455545,0.0009770455029252663,0.0009770455029252663
1590505996.1822536,0.0,-4.41462999613276,8.6768500193362,0.4933333333333334,0.31777777777777777,-0.6488888888888888,0.0027674381170439445,0.0,0.0005857765520510325
1590505996.1922536,0.0,-4.401327924164525,8.734688303341901,0.4933333333333334,0.31777777777777777,-0.6488888888888888,0.0027995039840153463,0.0014189650904220651,-0.0008011226713996304
1590505996.2022536,0.0,-4.400895467160037,8.772736355226641,0.4933333333333334,0.3153565628533251,-0.645660602322952,0.0009931504682081514,0.002480151616299528,-0.0008954701539198471
1590505996.2122536,0.009826850551931072,-4.42,8.750173149448068,0.4933333333333334,0.3111111111111111,-0.64,0.0005170838790593492,1.888767479258594e-05,0.0005926345782296927
1590505996.2222536,0.012664665978930258,-4.41266466597893,8.703323329894651,0.4933333333333334,0.3111111111111111,-0.64,0.002181661564992912,0.00010941044001500154,-0.0009814203424814544
1590505996.2322536,0.0,-4.399465859853579,8.64267070073211,0.4933333333333334,0.3111111111111111,-0.64,0.0022981928677696887,0.0022981928677696887,0.0010325651311080676
1590505996.2422535,0.0052934330309455865,-4.392646716515473,8.695293433030946,0.4933333333333334,0.3111111111111111,-0.64,0.00494074709950972,0.0032084751909380316,0.000577423969523896
1590505996.2522535,0.01866747445115827,-4.39933373722558,8.70866747445116,0.4933333333333334,0.3111111111111111,-0.64,0.00639962870626478,0.00029071197742790936,0.0020363055762789573
1590505996.2622535,0.013566705216024672,-4.400700115648074,8.732166473919877,0.4933333333333334,0.2977777777777777,-0.6344444444444445,0.0028834251633163294,0.00031269641415037925,0.0011672015525191152
1590505996.2722535,0.015202350488105393,-4.42,8.656821154392947,0.4933333333333334,0.2977777777777777,-0.6344444444444445,0.0032283463192336586,-0.001090830782496456,0.0011791228390078744
1590505996.2822535,0.01,-4.409458333333333,8.634597222222222,0.4933333333333334,0.2977777777777777,-0.6344444444444445,0.004746628946613051,-0.0014741365991236828,5.908666738522485e-05
1590505996.2922535,0.008584363524234015,-4.388584363524234,8.685662545903064,0.4933333333333334,0.2977777777777777,-0.6344444444444445,0.005145309943564213,-0.0017183956116158113,0.001872817596074845
1590505996.3022535,0.0,-4.384834094888329,8.734502284664988,0.4933333333333334,0.2977777777777777,-0.6408899042955498,0.0030088333720044665,0.001090830782496456,-0.0005273179509698032
1590505996.3122535,0.0,-4.40228757472246,8.766274551665242,0.4933333333333334,0.2977777777777777,-0.6611111111111111,0.001932125872540958,0.0005917593975925479,-0.001932125872540958
1590505996.3222535,0.005160666089524876,-4.404839333910475,8.678714671283801,0.4933333333333334,0.2977777777777777,-0.6611111111111111,-0.0005979932460953481,-0.001090830782496456,-0.001090830782496456
1590505996.3322535,0.025386731065942175,-4.389742179289372,8.645128910355314,0.4933333333333334,0.2977777777777777,-0.6611111111111111,-0.001622184235368771,-0.000531353452872315,-0.000531353452872315
1590505996.3422534,0.03238995847489619,-4.391415062287655,8.691855228388071,0.4933333333333334,0.2977777777777777,-0.6611111111111111,-0.0019209575376624077,0.0008301267551659515,0.00041506337758297576
1590505996.3522534,0.014624631703005304,-4.41,8.757312315851502,0.4954237543377202,0.30136135664244085,-0.6578261638185032,-0.0035656732077702365,0.001302118984150307,0.0007976499222155876
1590505996.3622534,0.0,-4.39631022170113,8.76368977829887,0.5011111111111111,0.3111111111111111,-0.6488888888888888,-0.0023722255867912163,0.00040249237489949985,0.0
1590505996.3722534,0.009838087190847018,-4.389838087190848,8.720971476854917,0.5011111111111111,0.3111111111111111,-0.6488888888888888,-0.0005365844174330006,0.002181661564992912,0.0016097532522990018
1590505996.3822534,0.01044884696525134,-4.4,8.669551153034748,0.5011111111111111,0.3111111111111111,-0.6488888888888888,-0.001090830782496456,0.002181661564992912,0.001709688586693626
1590505996.3922534,0.002874739275043689,-4.405749478550088,8.694373696375218,0.5011111111111111,0.3111111111111111,-0.6488888888888888,-0.0004636599639226156,0.002495246974279832,0.0003135854092869202
1590505996.4022534,0.008785867298043858,-4.417571734596088,8.723929336490219,0.5011111111111111,0.3111111111111111,-0.6488888888888888,0.0008259481174305852,0.003140051014956433,0.0009583894499635206
1590505996.4122534,0.0027955652941753606,-4.407204434705825,8.72440886941165,0.4866666666666667,0.3111111111111111,-0.6622222222222223,-0.0018767126972563876,0.0007858819147599316,0.0
1590505996.4222534,0.006380259929110243,-4.40361974007089,8.688281559574662,0.4866666666666667,0.3111111111111111,-0.6622222222222223,-0.001485683171892701,-0.0007897047787924903,0.00039485238939624513
1590505996.4322534,0.0013256093308017204,-4.4073487813383965,8.653976827992405,0.4866666666666667,0.3111111111111111,-0.6622222222222223,-0.0020370600186326074,-0.002181661564992912,0.0009462292361361516
1590505996.4422534,0.009451892897275932,-4.391096214205448,8.678355678691828,0.4866666666666667,0.3111111111111111,-0.6622222222222223,-0.001150619992472092,-0.002181661564992912,5.978920997563603e-05
1590505996.4522533,0.017194427339901477,-4.4171944273399015,8.738416717980297,0.4866666666666667,0.3111111111111111,-0.6591049192665572,-0.001090830782496456,-0.0015498915355213463,0.00015302025100829672
1590505996.4622533,0.0010525708128078827,-4.4010525708128085,8.786842287561576,0.4866666666666667,0.3111111111111111,-0.6411695231253421,-0.001090830782496456,-0.004191096633480601,0.0010334219503280483
1590505996.4722533,0.02383211209667052,-4.4061678879033295,8.766076616531688,0.4866666666666667,0.3111111111111111,-0.64,0.0006728121987939318,-0.0019268679499015045,0.0004180185837025242
1590505996.4822533,0.018109652551281705,-4.415945173724359,8.710274131378204,0.4866666666666667,0.3111111111111111,-0.64,0.0017393486330784618,0.00020620491866755563,-0.00020620491866755563
1590505996.4922533,0.015608423490248578,-4.402804211745124,8.743597894127438,0.4866666666666667,0.3111111111111111,-0.64,0.0006983614158592121,-0.0006983614158592121,0.0006983614158592121
1590505996.5022533,-0.005519409513395298,-4.394480590486604,8.754480590486605,0.4839285280359638,0.30812405078670796,-0.6419913735496021,0.0002443783013274592,0.0007331349039823776,-0.0002443783013274592
1590505996.5122533,0.005563986070431955,-4.401127972140864,8.730075874633886,0.4744444444444445,0.2977777777777777,-0.6488888888888888,0.001090830782496456,0.00230470423829819,-0.00012304267330527814
1590505996.5222533,0.0,-4.402247324886007,8.651422908599317,0.4744444444444445,0.2977777777777777,-0.6488888888888888,0.001090830782496456,0.001090830782496456,0.001981481381755873
1590505996.5322533,0.003543054364791488,-4.405827782540834,8.627715271823957,0.4744444444444445,0.2977777777777777,-0.6488888888888888,0.0003178562294618594,0.0014773180590137542,0.0021130305179374734
1590505996.5422533,0.008057212623249776,-4.3838855747535,8.66582836213025,0.4744444444444445,0.2977777777777777,-0.6488888888888888,-0.0015146812373773928,0.002181661564992912,-0.00021192522744046838
1590505996.5522532,0.0015751244088647101,-4.396849751182271,8.685274626773406,0.4744444444444445,0.2977777777777777,-0.6488888888888888,-0.002928853509199136,0.002181661564992912,-0.0009190113633513399
1590505996.5622532,0.008095663265306122,-4.41,8.758095663265307,0.4811111111111111,0.3033333333333333,-0.6622222222222223,-0.0006753689564078823,-0.001973930651948625,-0.0004676380433635954
1590505996.5722532,0.0,-4.41,8.722384297444071,0.4811111111111111,0.3033333333333333,-0.6622222222222223,0.0014255425428105965,-0.0014255425428105965,0.0018469498046787712
1590505996.5822532,0.002208293856132935,-4.408895853071933,8.6633124407842,0.4811111111111111,0.3033333333333333,-0.6622222222222223,0.0016998865819793907,-0.0019407740734861513,0.0012112745282498363
1590505996.5922532,0.017519852821312965,-4.402480147178688,8.70116066230409,0.4811111111111111,0.3033333333333333,-0.6622222222222223,-0.0017758484318478784,0.00013527104438167784,0.002046390520611234
1590505996.6022532,0.0016885194724108328,-4.416622961055178,8.780844259736204,0.4811111111111111,0.3033333333333333,-0.6610965425739483,0.0008145474298938942,0.0009987363316289353,0.001090830782496456
1590505996.6122532,0.018055880746117227,-4.383888238507765,8.789027940373058,0.4811111111111111,0.3033333333333333,-0.6501849683914773,-0.0018635557959460057,0.00010603525634896873,0.001090830782496456
1590505996.6222532,0.007980518157743663,-4.4,8.723746736050668,0.4811111111111111,0.3033333333333333,-0.6488888888888888,0.002181661564992912,0.0015207876775251523,0.0008705394866738694
1590505996.6322532,0.0002131520954091748,-4.4,8.622770977240318,0.4811111111111111,0.3033333333333333,-0.6488888888888888,0.002181661564992912,-0.0010210769223886716,2.3251286702594782e-05
1590505996.6422532,0.0055034593941022366,-4.391006918788205,8.69275172969705,0.4811111111111111,0.3033333333333333,-0.6488888888888888,0.0,-0.0016911650742270576,-0.0013909979283617568
1590505996.6522532,0.019590582387317795,-4.419181164774636,8.699795291193658,0.4811111111111111,0.3033333333333333,-0.6488888888888888,0.0,-0.0032278318140083724,-0.0021593312982524137
1590505996.6622531,0.004685621565807427,-4.4,8.715314378434194,0.4933333333333334,0.3111111111111111,-0.6555555555555556,-0.0013463917944520553,-0.0019261005530373126,0.0005797087585852574
1590505996.6722531,0.019841427534293684,-4.4,8.69952428260288,0.4933333333333334,0.3111111111111111,-0.6555555555555556,-0.0021643639923080308,-0.0011427235005511,-0.001038938064441812
1590505996.6822531,0.013707088056796062,-4.4,8.673707088056796,0.4933333333333334,0.3111111111111111,-0.6555555555555556,-0.001090830782496456,-0.003958942553408012,0.0017772809884151006
1590505996.692253,0.01728728691183917,-4.39728728691184,8.707127130881608,0.4933333333333334,0.3111111111111111,-0.6555555555555556,-0.0013867418765611417,-0.002384759065295311,-9.281359376228692e-05
1590505996.702253,0.01,-4.3906295661401575,8.78,0.4925638636064742,0.31153082187121617,-0.6555555555555556,-0.002181661564992912,-0.00013735002506026555,-0.0031351423224291026
1590505996.712253,0.01,-4.39918901269336,8.78,0.48210231781922736,0.31723711957335077,-0.6555555555555556,-0.002181661564992912,-0.002004731581333432,-0.0012677607661559357
1590505996.722253,0.011722886597938145,-4.391722886597938,8.774156701030929,0.4811111111111111,0.31777777777777777,-0.6555555555555556,-0.0005638133207344569,0.0009028930089183037,0.0009028930089183037
1590505996.732253,0.020333964505829066,-4.399666035494171,8.652003787034975,0.4811111111111111,0.31777777777777777,-0.6555555555555556,-0.0033089222238113242,0.0,0.0
1590505996.742253,0.02812021979653969,-4.39187978020346,8.698721318779238,0.4811111111111111,0.31777777777777777,-0.6555555555555556,-0.004158270918959628,0.0,0.0
1590505996.752253,0.01,-4.382394005735253,8.69718201720576,0.4811111111111111,0.31697977586602666,-0.6555555555555556,-0.0012214035399708244,-0.0001305727574743684,-0.0001305727574743684
1590505996.762253,0.006983605080623368,-4.3969836050806235,8.743967210161246,0.4811111111111111,0.3111111111111111,-0.6555555555555556,-0.0008655109929041334,-0.00010371785342987204,-0.0007617931394742613
1590505996.772253,0.0,-4.39,8.699955281303088,0.4811111111111111,0.3111111111111111,-0.6555555555555556,0.000989890510227872,0.001585776037610392,0.0
1590505996.782253,0.0,-4.395804382200136,8.637413146600405,0.4811111111111111,0.3111111111111111,-0.6555555555555556,-0.0015485016872646775,0.0,0.0003165799388641172
1590505996.792253,0.0,-4.408252296549777,8.69048622070134,0.4811111111111111,0.3111111111111111,-0.6555555555555556,0.00038128974443579506,0.00038128974443579506,0.0005188961658427634
1590505996.802253,0.0,-4.401284905064869,8.732290569610791,0.4811111111111111,0.3111111111111111,-0.6555555555555556,0.0019013387655241471,0.0019013387655241471,-0.001761177365789765
1590505996.812253,0.0,-4.401269783761108,8.76492086495557,0.5011111111111111,0.31777777777777777,-0.6555555555555556,-0.0005540476854920789,-0.00013851192137301973,0.001090830782496456
1590505996.822253,0.0,-4.409267762480455,8.732928950078183,0.5011111111111111,0.31777777777777777,-0.6555555555555556,-0.004043824239418233,-0.0010109560598545583,0.001090830782496456
1590505996.832253,0.02,-4.381992643750122,8.625977931250366,0.5011111111111111,0.31777777777777777,-0.6555555555555556,-0.0030551286333711123,-0.00458068684410408,0.0
1590505996.842253,0.01976059062175677,-4.389760590621757,8.652633503160676,0.5011111111111111,0.31777777777777777,-0.6555555555555556,-0.0022338925888741226,-0.005428038400541674,-5.223102388121062e-05
1590505996.852253,0.01,-4.380237627111478,8.760237627111477,0.5010187005677587,0.31777777777777777,-0.6553047269378848,-0.004363323129985824,-0.004350362581588052,-0.00216870101659514
1590505996.862253,0.01,-4.397972135895647,8.777972135895647,0.4941219471516929,0.31777777777777777,-0.6365849676657059,-0.004363323129985824,-0.00338309517687676,-0.0012014336118838474
1590505996.872253,0.02,-4.402043266845292,8.76365386523767,0.4933333333333334,0.31777777777777777,-0.6344444444444445,-0.0015130040534834738,-0.004339724726633216,-0.0006686575115094382
1590505996.882253,0.02224867303004761,-4.407751326969953,8.704497346060094,0.4933333333333334,0.31777777777777777,-0.6344444444444445,0.0006002464303073535,0.00024529217609455125,-0.0030272001713948166
1590505996.892253,0.02518176654359557,-4.3983939221811985,8.723212155637604,0.4933333333333334,0.31777777777777777,-0.6344444444444445,-0.001616418519646481,0.000565243045346431,-0.001656073827842887
1590505996.902253,0.0003566702375701052,-4.390178335118785,8.740535005356355,0.4933333333333334,0.31752018260619935,-0.6347020396160229,-0.004363323129985824,-0.0022205682524270914,0.001090830782496456
1590505996.912253,0.013401605031549284,-4.404398929978967,8.754603745073615,0.4933333333333334,0.3033333333333333,-0.6488888888888888,-0.004123398718430631,-0.003883474306875439,0.001090830782496456
1590505996.922253,-0.008983846884756347,-4.416951540654269,8.689838468847563,0.4933333333333334,0.3033333333333333,-0.6488888888888888,-0.0031616472377056235,-0.002403351784560401,0.0009799856727127113
1590505996.932253,0.0,-4.39,8.605136473546764,0.4933333333333334,0.3033333333333333,-0.6488888888888888,-0.002928731359431533,-0.004736858027205134,0.0
1590505996.9422529,0.0,-4.39,8.629477125447336,0.4933333333333334,0.3033333333333333,-0.6488888888888888,-0.006468935673987977,-0.0065069601844833565,0.0
1590505996.9522529,0.0292481649523719,-4.399749388317457,8.756742048126945,0.4933333333333334,0.3033333333333333,-0.6488888888888888,-0.008671971272417487,-0.008671971272417487,0.0
1590505996.9622529,0.02,-4.401307068695776,8.778692931304224,0.4811111111111111,0.3111111111111111,-0.67,-0.005168995758844322,-0.00829890902951471,-0.0012334098593154352
1590505996.9722528,0.02,-4.408763867159721,8.771236132840277,0.4811111111111111,0.3111111111111111,-0.67,-0.0035421746981755386,-0.005858677438511536,-0.0020468203896498267
1590505996.9822528,0.013701536865081495,-4.398425384216271,8.699447694702377,0.4811111111111111,0.3111111111111111,-0.67,-0.007232040441977559,-0.007979343350974603,-0.00017176393674970587
1590505996.9922528,-0.01631510207002666,-4.390921224482493,8.74447265310504,0.4811111111111111,0.3111111111111111,-0.67,-0.01050634781572732,-0.009616497037849486,-0.0009903407801871462
1590505997.0022528,-0.029745980451884618,-4.380254019548115,8.75,0.4811111111111111,0.3111111111111111,-0.67,-0.006655821631954774,-0.013006841687225441,-2.7709234244009716e-05
1590505997.0122528,-0.1378300199057626,-4.325266460049891,8.74,0.4811111111111111,0.2977777777777777,-0.64,-0.017057386389697147,-0.02086560536761054,0.0026980106737685416
1590505997.0222528,-0.3275792716071752,-4.223038412755934,8.714624388476173,0.4811111111111111,0.2977777777777777,-0.64,-0.027563963688658044,-0.03410894838363678,0.01609840123275119
1590505997.0322528,-0.5555716615328863,-4.093842725131364,8.59302844718246,0.4811111111111111,0.2977777777777777,-0.64,-0.03419599347814873,-0.04074097817312747,0.04096851294334126
1590505997.0422528,-0.47879591719047343,-4.21869115583492,8.86738231166984,0.4811111111111111,0.2977777777777777,-0.64,-0.054895650772647804,-0.05674605607210664,0.11891762343998967
1590505997.0522528,-0.35785998500663163,-4.154191992003537,8.738383984007074,0.4811111111111111,0.2977777777777777,-0.64,-0.03202940693306781,-0.04443346323540972,0.19367265137707812
1590505997.0622528,-0.17911430660492322,-4.16772142334877,8.609114306604923,0.4933333333333334,0.3111111111111111,-0.6488888888888888,0.007677103808092228,0.017619270013853248,0.2950082062550867
1590505997.0722528,-0.21,-4.16,8.64,0.4933333333333334,0.3111111111111111,-0.6488888888888888,-0.003272492347489368,0.04036073895236887,0.3447025272688801
1590505997.0822527,0.1243491976409272,-3.4913016047181458,8.110613770401866,0.4933333333333334,0.3111111111111111,-0.6488888888888888,-0.03873122537843386,0.04238695226842284,0.3923185401961484
1590505997.0922527,0.010657743235463452,-3.7104879101899826,8.824087507196316,0.4933333333333334,0.3111111111111111,-0.6488888888888888,-0.12460386701286048,0.024660186048975723,0.4165361206848575
1590505997.1022527,-0.21649912626247667,-4.035273820454344,8.999824956313123,0.4933333333333334,0.3111111111111111,-0.6488888888888888,-0.17290745389954312,0.051806142738243924,0.45321277639274715
1590505997.1122527,-0.22901111353236,-4.18417781651776,8.93692220527348,0.48732592431176003,0.30410246725260887,-0.6548962979104622,-0.0830097741807849,0.03859843752389377,0.4498537655082582
1590505997.1222527,-0.1671199226712055,-4.082099855008511,8.68633970035092,0.4866666666666667,0.3033333333333333,-0.6555555555555556,-0.027643777806408226,-0.02550151900497645,0.43656137164678865
1590505997.1322527,-0.031110444177671066,-3.68,8.589981992797119,0.4866666666666667,0.3033333333333333,-0.6555555555555556,-0.017934541394574084,-0.03115153429701914,0.4226373450233747
1590505997.1422527,-0.03851511192712379,-3.68,8.789908022032343,0.4866666666666667,0.3033333333333333,-0.6555555555555556,-0.05751301501935682,-0.006112091799707606,0.4113292097020083
1590505997.1522527,-0.06981063861312788,-3.6998737590754187,8.919431915839384,0.4866666666666667,0.3033333333333333,-0.6555555555555556,-0.0784571918478183,0.009748623299195992,0.38413079904827835
1590505997.1622527,-0.07,-3.67644236197358,8.684423619735801,0.5128418200293553,0.29897080777288515,-0.6607905862280933,-0.03485424191212765,-0.021875978914822798,0.3488526599185112
1590505997.1722527,-0.02574369602763385,-3.67686286701209,8.876303281519862,0.52,0.2977777777777777,-0.6622222222222223,-0.01710950184431298,-0.020685618179552136,0.29678788876722767
1590505997.1822526,0.08778127233738385,-3.2824617583988562,8.662842030021444,0.52,0.2977777777777777,-0.6622222222222223,-0.027620552756855942,-0.012443424082705105,0.25790686068522606
1590505997.1922526,0.2368520698254364,-2.950682693266833,8.782465236907731,0.52,0.2977777777777777,-0.6622222222222223,-0.011535777629487657,-0.006276069064468836,0.23297442647626826
1590505997.2022526,0.10296917705735661,-3.0594625436408975,8.807568279301746,0.52,0.2977777777777777,-0.6622222222222223,-0.0179251842842855,-0.003537751926698332,0.23936383313106607
1590505997.2122526,0.0,-3.08,8.82,0.52,0.2977777777777777,-0.64,-0.00545415391248228,-0.016362461737446838,0.26070855701665296
1590505997.2222526,-0.006030931781639997,-3.08603093178164,8.80190720465508,0.52,0.2977777777777777,-0.64,-0.00545415391248228,-0.01570458913399193,0.27189239127538645
1590505997.2322526,-0.012287010700257348,-3.196188315499571,8.706098695200685,0.52,0.2977777777777777,-0.64,-0.015437947066399683,-0.022315563984277018,0.2985452261230543
1590505997.2422526,-0.04073791945702991,-3.1525827180996044,8.778155201357425,0.52,0.2977777777777777,-0.64,-0.017292303468197035,-0.028381723976376134,0.30775514608427856
1590505997.2522526,-0.07102222061770068,-3.2585777721619524,8.702444448455747,0.52,0.2977777777777777,-0.64,-0.01068529388170647,-0.02920760017468746,0.31353627947245777
1590505997.2622526,-0.10026067652309242,-3.2967535588410306,8.808317617979585,0.5117456503054068,0.3015297549116837,-0.636248022866094,-0.004306452334853153,-0.02871573213988456,0.32335378500419304
1590505997.2722526,-0.12136435282798715,-3.2545425886880515,8.90409305848396,0.5077777777777778,0.3033333333333333,-0.6344444444444445,-0.010859271686536233,-0.027121941756115948,0.3291087226321246
1590505997.2822526,-0.15217613273771538,-3.227392044245905,8.730414805360562,0.5077777777777778,0.3033333333333333,-0.6344444444444445,-0.0037453945246278004,-0.02537359183901403,0.33777884956453436
1590505997.2922525,-0.14743570183086313,-3.2676928945074106,8.791925130775937,0.5077777777777778,0.3033333333333333,-0.6344444444444445,-0.007132483139518565,-0.026459660317754322,0.3382833756583905
1590505997.3022525,-0.16187429968422126,-3.29,8.797085667719262,0.5077777777777778,0.3033333333333333,-0.6344444444444445,-0.01597599851431119,-0.02886151352515147,0.3362713398100348
1590505997.3122525,-0.16350219042335432,-3.3419824766131656,8.82848028618981,0.5034459047266806,0.29178167186374104,-0.6380543386536921,-0.006821276462435225,-0.02590842577490162,0.33526707993840793
1590505997.3222525,-0.17685696965374603,-3.403713939307492,8.801000606211888,0.5011111111111111,0.2855555555555556,-0.64,-0.013043096691141074,-0.02675649242460925,0.33304624008662054
1590505997.3322525,-0.20174571296153251,-3.41,8.659525722230804,0.5011111111111111,0.2855555555555556,-0.64,-0.008155363029218831,-0.02806146599860379,0.3263778171718799
1590505997.3422525,-0.20026190339440586,-3.419738096605594,8.700261903394406,0.5011111111111111,0.2855555555555556,-0.64,-0.009860330885166834,-0.027299338790877217,0.3162695038528077
1590505997.3522525,-0.2163218654873356,-3.4036781345126643,8.716321865487336,0.5011111111111111,0.2855555555555556,-0.64,-0.012488136037670931,-0.02905120889254662,0.3118898285986342
1590505997.3622525,-0.22980354706684858,-3.3901964529331514,8.808231923601637,0.5272539032893739,0.2855555555555556,-0.6694106412005457,-0.009881766114506096,-0.02196662348468443,0.28949875117514745
1590505997.3722525,-0.23,-3.4510911647020657,8.865417108251323,0.5277777777777778,0.2855555555555556,-0.67,-0.009817477042468105,-0.021792810129013386,0.2887606855896563
1590505997.3822525,-0.23,-3.4964496593489782,8.674911430734292,0.5277777777777778,0.2855555555555556,-0.67,-0.009817477042468105,-0.020803241284842327,0.2758962906154325
1590505997.3922524,-0.24828933673952125,-3.527434005109282,8.751446683697607,0.5277777777777778,0.2855555555555556,-0.67,-0.016800177069887703,-0.016735670566050034,0.24296844277804588
1590505997.4022524,-0.23447136519255313,-3.5377643174037234,8.791057269614894,0.5277777777777778,0.2855555555555556,-0.67,-0.009830691733794257,-0.018903328666163188,0.2238906149340168
1590505997.4122524,-0.24902593671769196,-3.578051873435384,8.780974063282308,0.5277777777777778,0.27216693342088344,-0.67,-0.004868605152476795,-0.01617594117868821,0.20887994856304365
1590505997.4222524,-0.2655904307107423,-3.627952153553711,8.77,0.5277777777777778,0.2644444444444444,-0.67,-0.00449213512882761,-0.013570978781784804,0.1906980977309584
1590505997.4322524,-0.2608455148174774,-3.631691029634955,8.751691029634955,0.5277777777777778,0.2644444444444444,-0.67,-0.0014597562184809586,-0.015087168236958132,0.16310312027140575
1590505997.4422524,-0.22282200284720763,-3.5184660085416226,8.65705500711802,0.5277777777777778,0.2644444444444444,-0.67,-0.0021047033756422433,-0.01223001317551302,0.14522099431914284
1590505997.4522524,-0.25143018654607124,-3.5807179197286603,8.728575466365179,0.5277777777777778,0.2644444444444444,-0.67,-0.014181416809414073,-0.011142013232859503,0.13284703341971252
1590505997.4622524,-0.30993891521853606,-3.6500610847814636,8.750122169562928,0.5133333333333333,0.27111111111111114,-0.6911111111111111,-0.001097494098492748,-0.008719982943975356,0.11230226406916463
1590505997.4722524,-0.29226940494997367,-3.6677305950500263,8.785461190100053,0.5133333333333333,0.27111111111111114,-0.6911111111111111,-0.0030249386697512575,-0.006792538372716846,0.09688270749909655
1590505997.4822524,-0.2410651019588595,-3.6781558163401904,8.683974387577528,0.5133333333333333,0.27111111111111114,-0.6911111111111111,-0.0041621538995160615,-0.003876000038898656,0.08155735479679127
1590505997.4922523,-0.2857258687258687,-3.7171505791505792,8.743588803088803,0.5133333333333333,0.27111111111111114,-0.6911111111111111,-0.002337073363734685,0.0038193818343896183,0.060303568443484584
1590505997.5022523,-0.29740169622205087,-3.742205088666153,8.809213569776407,0.5133333333333333,0.27111111111111114,-0.6911111111111111,0.00024053785951733738,0.00032632408913540936,0.042756866091406956
1590505997.5122523,-0.21780029225523623,-3.576467283649943,8.69300048709206,0.5133333333333333,0.27111111111111114,-0.7043036567985423,0.011053716506963194,-0.008064850789623173,0.012181032293712656
1590505997.5222523,-0.2524270358834015,-3.5812135179417006,8.708284690588934,0.5133333333333333,0.27111111111111114,-0.7055555555555556,-0.007284493372412326,-0.004098574584802046,-0.006380773820625503
1590505997.5322523,-0.27,-3.5993329940750973,8.673335029624514,0.5133333333333333,0.27111111111111114,-0.7055555555555556,-5.551099907259022e-07,-0.00014551811899829112,-0.0354875472958983
1590505997.5422523,-0.2926096433537525,-3.5924634522154157,8.730292382276673,0.5133333333333333,0.27111111111111114,-0.7055555555555556,0.0002687209507784685,0.0008221098317179875,-0.05270833340752126
1590505997.5522523,-0.286272287952008,-3.6311831361439757,8.743136143976004,0.5133333333333333,0.27111111111111114,-0.7055555555555556,0.0,0.010824327851374597,-0.06754752854119028
1590505997.5622523,-0.28,-3.670854657484596,8.767806209979462,0.5094713597250748,0.27651787416267304,-0.7101899238854658,-0.001516593489507819,0.01602992769970429,-0.0901939535188599
1590505997.5722523,-0.2889938052011776,-3.6979876104023552,8.788993805201176,0.5077777777777778,0.2788888888888889,-0.7122222222222222,0.0007615543045734734,0.013419245867880453,-0.12368264129425638
1590505997.5822523,-0.24948228882833787,-3.643275204359673,8.75758583106267,0.5077777777777778,0.2788888888888889,-0.7122222222222222,0.010814383430613365,0.018393725379839423,-0.14775139472911672
1590505997.5922523,-0.23184596698230134,-3.6626161320707946,8.537995141539835,0.5077777777777778,0.2788888888888889,-0.7122222222222222,0.0015268981075998306,0.01785602004149657,-0.17851085317937856
1590505997.6022522,-0.2658265999210685,-3.6843306399684272,8.747951519431693,0.5077777777777778,0.2788888888888889,-0.7122222222222222,-0.0026540611035399207,0.021361368322551956,-0.20623562673650958
1590505997.6122522,-0.23718436024694348,-3.6214949763951094,8.627358673284105,0.5020690258107036,0.2788888888888889,-0.7322028541069819,0.011672985353282796,0.018236984650934273,-0.24104825012815312
1590505997.6222522,-0.2152806743307149,-3.6688773026771404,8.87702685055106,0.5011111111111111,0.2788888888888889,-0.7355555555555555,-0.0018754933651925158,0.02628425396564884,-0.2647044783068783
1590505997.6322522,-0.23647503992223842,-3.736331319863917,8.82114976046657,0.5011111111111111,0.2788888888888889,-0.7355555555555555,0.004638094641399913,0.022232483998654247,-0.2918327168021177
1590505997.6422522,-0.24148955381884982,-3.6834059843696485,8.833614907992652,0.5011111111111111,0.2788888888888889,-0.7355555555555555,-0.005801914175955868,0.027827579969617766,-0.32722545975289896
1590505997.6522522,-0.19425297666156632,-3.689605867145043,8.706223640936352,0.5011111111111111,0.2788888888888889,-0.7355555555555555,0.008382700459507406,0.030165320574049272,-0.3494347940450466
1590505997.6622522,-0.18993398058252428,-3.7199339805825242,8.782827184466019,0.4929898597626753,0.2737208198489752,-0.7451533980582524,0.005131352725584298,0.03779146178893547,-0.38207756705424506
1590505997.6722522,-0.16098775065783505,-3.724426821522548,8.793121858270574,0.4888888888888889,0.27111111111111114,-0.75,0.012891776888472045,0.048138903838371994,-0.41324397532778545
1590505997.6822522,-0.11113872692586721,-3.6634161807776016,8.65040895289787,0.4888888888888889,0.27111111111111114,-0.75,0.02657008437321398,0.06065176838554379,-0.44978531621910117
1590505997.6922522,-0.08515233949945593,-3.6436289445048966,8.613019586507074,0.4888888888888889,0.27111111111111114,-0.75,0.014646094695564495,0.05338720513572834,-0.5009180415483072
1590505997.7022521,-0.09770955858592387,-3.7431286757577715,8.73312867575777,0.4888888888888889,0.27111111111111114,-0.75,-0.005598394834151494,0.043527623821529554,-0.5578330823248728
1590505997.7122521,-0.08022828541781114,-3.6370957700054936,8.454419825428799,0.4683794855100476,0.28301979694398666,-0.7275058156490128,0.020501666182583547,0.0538422169183551,-0.6043292422203435
1590505997.7222521,-0.08484308131241083,-3.73046362339515,9.001854493580598,0.4544444444444444,0.2911111111111111,-0.7122222222222222,-0.01745173641326355,0.03884431299296402,-0.6662237333297008
1590505997.7322521,-0.09752881437897962,-3.754942371242041,8.760972837914082,0.4544444444444444,0.2911111111111111,-0.7122222222222222,0.007504550033913721,0.06118710497682386,-0.6957559105660385
1590505997.742252,-0.07597101527500405,-3.6859227074000107,8.910338155124954,0.4544444444444444,0.2911111111111111,-0.7122222222222222,0.002160583278161061,0.054959954894014305,-0.7391912026219454
1590505997.752252,-0.05670052323791937,-3.6434010464758386,8.647513080947984,0.4544444444444444,0.2911111111111111,-0.7122222222222222,0.013051191010339637,0.054895916438126885,-0.7693457608251708
1590505997.762252,-0.04181942498832633,-3.6381805750116736,8.864487025548662,0.4662608305724175,0.3183796944833567,-0.7549430028387403,0.0010938141766717834,0.07724753368470208,-0.7977912555674759
1590505997.772252,-0.04,-3.6791712292002146,8.730641116478797,0.4688888888888889,0.3244444444444444,-0.7644444444444445,0.012110013388445195,0.07241188851527419,-0.8231252164348043
1590505997.782252,-0.010579298561566346,-3.792972455034518,8.647934473921175,0.4688888888888889,0.3244444444444444,-0.7644444444444445,-0.002893342325561876,0.07944107211127754,-0.8482871987603151
1590505997.792252,0.0075370200983906465,-3.8375370200983907,8.602314899508047,0.4688888888888889,0.3244444444444444,-0.7644444444444445,0.00333710460812227,0.07961449405708305,-0.8732988832467832
1590505997.802252,0.02411006853545901,-3.9011436303203224,8.67936376739124,0.4688888888888889,0.3244444444444444,-0.7644444444444445,-6.003307333149639e-05,0.07905287290979861,-0.8915229683734343
1590505997.812252,0.04719975713418337,-3.9747998380894556,8.763200566686905,0.47022217724707105,0.3292442825339,-0.7708442285637186,-0.004276206791841096,0.07989243767919015,-0.9121961039527287
1590505997.822252,0.08742764184830648,-3.9943569104620766,8.72307073138623,0.4744444444444445,0.34444444444444444,-0.7911111111111111,0.0031637641744084602,0.08072147790473774,-0.9461080451433629
1590505997.832252,0.11819933372256758,-3.9877009994161488,8.711302331971014,0.4744444444444445,0.34444444444444444,-0.7911111111111111,-0.001429315383240196,0.08295749930987224,-0.9741872657496005
1590505997.842252,0.14304448600100086,-3.911299812995496,8.624344298996498,0.4744444444444445,0.34444444444444444,-0.7911111111111111,0.0008059914120518629,0.08546416547363324,-1.0079289071917747
1590505997.852252,0.181057102100804,-3.867577159159678,8.637268522520964,0.4744444444444445,0.34444444444444444,-0.7911111111111111,-0.0017683916422303032,0.08508480103472357,-1.0234298978840355
1590505997.862252,0.2096351402016694,-3.961168972117529,8.684087850504174,0.49317943928102387,0.32838587744166214,-0.8253693873837133,-0.00428372307012293,0.0898144394212661,-1.035445327755899
1590505997.872252,0.23971335177269298,-4.063428882742436,8.742855586287822,0.5133333333333333,0.3111111111111111,-0.8622222222222222,-0.011562568580940139,0.09060149188922474,-1.0575442151110035
1590505997.882252,0.2780634234533779,-4.003873153093244,8.626698738596454,0.5133333333333333,0.3111111111111111,-0.8622222222222222,-0.008823622093547836,0.0914185379987307,-1.0799570667991298
1590505997.892252,0.3169056502548345,-4.013632062818544,8.650716950764503,0.5133333333333333,0.3111111111111111,-0.8622222222222222,-0.012414886999190163,0.09051940314811947,-1.1040771662791045
1590505997.902252,0.32415294720656074,-3.9949176832393647,8.76016463352127,0.5133333333333333,0.3111111111111111,-0.8622222222222222,-0.010806929333174576,0.08753468061251976,-1.1209389868725401
1590505997.912252,0.32642692034139403,-3.87359619487909,8.655753911806544,0.5176179468942627,0.29468675912754866,-0.8208042911332385,-0.004130474204952574,0.0882788365807336,-1.1289314030823527
1590505997.922252,0.3524796911042022,-3.894932303680674,8.757330759201686,0.52,0.2855555555555556,-0.7977777777777778,-0.022616277429555822,0.07064827756931151,-1.134187613839241
1590505997.932252,0.3817920731291357,-3.8328317074834573,8.594815244332265,0.52,0.2855555555555556,-0.7977777777777778,-0.008058113362096747,0.07624474825912844,-1.1315929338815316
1590505997.942252,0.3828198665322387,-3.8430808008065678,8.574621201209851,0.52,0.2855555555555556,-0.7977777777777778,-0.01253169697450727,0.07053947411295058,-1.123051611118168
1590505997.952252,0.3992193491924576,-3.8888290237886864,8.71051125785663,0.52,0.2855555555555556,-0.7977777777777778,-0.01168790164730597,0.07020956283305302,-1.1124213169793549
1590505997.962252,0.4039254211491231,-3.6949558960877233,8.550302327994743,0.5171422970931775,0.3130609460337227,-0.8045648221814814,0.028212365305827512,0.043666210168165756,-1.1049728306119855
1590505997.972252,0.38998746754990604,-3.35324978366604,7.566913138185182,0.5111111111111111,0.3711111111111111,-0.8188888888888889,0.05929353561660226,0.04395628490640725,-1.0672211786433274
1590505997.982252,0.42385173122407044,-3.551184521732387,8.950177193594664,0.5111111111111111,0.3711111111111111,-0.8188888888888889,-0.10122838605938614,0.13685047590123822,-1.0172766181662927
1590505997.9922519,0.49660602405601906,-3.5692424699299763,8.286440513284417,0.5111111111111111,0.3711111111111111,-0.8188888888888889,0.029029175480535574,0.07206266365241554,-1.0124562335805207
1590505998.0022519,0.5535450836228488,-3.82177870243193,8.804459077320837,0.5111111111111111,0.3711111111111111,-0.8188888888888889,0.018983579955039173,0.07227201212557334,-1.0005399459430793
1590505998.0122519,0.5603757762227267,-3.8637577622272667,9.236763972009081,0.5308942377643951,0.331544857804543,-0.8429494483320722,-0.024285213004678383,0.07543924807539812,-0.9915651812892784
1590505998.0222518,0.6492726083936088,-3.777518695598872,8.612032610028198,0.5522222222222222,0.2888888888888889,-0.8688888888888889,0.025679389605109963,0.06455033837392221,-0.9871061970559769
1590505998.0322518,0.7098792339801803,-3.8557849791288277,8.502415320396393,0.5522222222222222,0.2888888888888889,-0.8688888888888889,0.01533621253076782,0.06979999655058329,-0.9850333701234895
1590505998.0422518,0.7212663789416385,-3.9370131031533107,8.623441035810101,0.5522222222222222,0.2888888888888889,-0.8688888888888889,0.004767268554477299,0.06593857680346389,-0.9902866711175153
1590505998.0522518,0.7445586939102564,-3.9001456330128206,8.683239182692308,0.5522222222222222,0.2888888888888889,-0.8688888888888889,0.01751683690927622,0.06989356203587904,-0.9959285044192642
1590505998.0622518,0.7980611970410222,-3.9016099529253534,8.74258507061197,0.4998954643951281,0.26738474183665845,-0.7577841291190316,0.01463715917029592,0.0728395469413664,-0.9994471122526497
1590505998.0722518,0.8360362300724986,-3.899818849637507,8.7,0.4711111111111111,0.25555555555555554,-0.6966666666666667,0.012578547408125128,0.07551315476358825,-1.0013826583317464
1590505998.0822518,0.8857746781115879,-3.85456962327134,8.628794945159752,0.4711111111111111,0.25555555555555554,-0.6966666666666667,0.016014222983349438,0.08020423060451107,-1.004711486861279
1590505998.0922518,0.9598010839805554,-3.8657613007766667,8.679204335922222,0.4711111111111111,0.25555555555555554,-0.6966666666666667,0.022719657996326144,0.07856151471145902,-1.0131289133879657
1590505998.1022518,0.98,-3.89,8.781955486674763,0.4711111111111111,0.25555555555555554,-0.6966666666666667,0.022029926155888314,0.07492117153218066,-1.0276711608130769
1590505998.1122518,0.998479654080766,-3.9216794069955987,8.775680642421435,0.454684751928208,0.27432853747887337,-0.6890401427603188,0.023361264381316846,0.0762533757234489,-1.0463509802603868
1590505998.1222517,1.0565310724786618,-3.9969378550426766,8.823683594530559,0.4088888888888889,0.32666666666666666,-0.6677777777777778,0.019968982282927684,0.07653564715179595,-1.077719856550402
1590505998.1322517,1.0716820579181618,-3.9082255945728686,8.642994725800444,0.4088888888888889,0.32666666666666666,-0.6677777777777778,0.02454872938144383,0.08091503551079214,-1.104761540462017
1590505998.1422517,1.1425879298372732,-3.950140687739637,8.654022582495546,0.4088888888888889,0.32666666666666666,-0.6677777777777778,0.019078028704904278,0.08521827738533969,-1.1368098450153465
1590505998.1522517,1.2653782119576014,-3.807226746600697,9.058151465356904,0.4088888888888889,0.32666666666666666,-0.6677777777777778,0.025822447892186226,0.08166564070828064,-1.1661072855483665
1590505998.1622517,1.1314675077843828,-3.1477686117513852,8.593169558008816,0.399475963893045,0.37155907818530653,-0.6446075008649315,0.04666024371267201,-0.012780527926929741,-1.2154907866925864
1590505998.1722517,1.1581198068834049,-3.4148552661569385,8.506957584799322,0.3944444444444444,0.3955555555555556,-0.6322222222222222,0.06516643120660501,0.10882780291640518,-1.2081165077099412
1590505998.1822517,1.2420559175607924,-3.6632335505364755,8.922315744778142,0.3944444444444444,0.3955555555555556,-0.6322222222222222,0.01701122752447272,0.20083916826376805,-1.1961601829223816
1590505998.1922517,1.2486603229754807,-3.6556117976862637,8.92941959174004,0.3944444444444444,0.3955555555555556,-0.6322222222222222,-0.020675134691722323,0.15749728127971346,-1.2211563118616813
1590505998.2022517,1.2812015273967523,-3.70826870319567,8.52698524505079,0.3944444444444444,0.3955555555555556,-0.6322222222222222,0.029403579507872327,0.06289821929101269,-1.2810207932961777
1590505998.2122517,1.4136887293162659,-3.883314080549485,8.92337183890103,0.3628946820688937,0.4169452249627086,-0.6279442883407916,0.024878468334922684,0.11114843675119095,-1.3011913516965188
1590505998.2222517,1.45,-3.81451575340932,8.71451575340932,0.3288888888888889,0.44,-0.6233333333333333,0.03251766147365127,0.1027648726259143,-1.3426915603993763
1590505998.2322516,1.4804768283511938,-3.7560953656702387,8.534188052265463,0.3288888888888889,0.44,-0.6233333333333333,0.03506262675292137,0.10538465637002663,-1.3767535731227045
1590505998.2422516,1.5461104334686595,-3.769222086693732,8.52916565020299,0.3288888888888889,0.44,-0.6233333333333333,0.035918714910459774,0.11134344072656178,-1.4038869045406672
1590505998.2522516,1.6159917814304754,-3.777715459795646,8.623707241226121,0.3288888888888889,0.44,-0.6233333333333333,0.033688910651295756,0.11780972450961726,-1.4258993743305404
1590505998.2622516,1.670257421836473,-3.770514843672946,8.669914192721176,0.32877447918378977,0.44024788769438145,-0.6235335503172568,0.04795911394140252,0.11786588524227956,-1.4489228030628258
1590505998.2722516,1.742969458846403,-3.87774384316267,8.72206699611147,0.31555555555555553,0.4688888888888889,-0.6466666666666666,0.04363323129985824,0.1264379273564569,-1.5012372184859981
1590505998.2822516,1.8453339049252169,-3.8746660950747835,8.637831761455654,0.31555555555555553,0.4688888888888889,-0.6466666666666666,0.04740572672536816,0.1287180323345818,-1.5424985842680172
1590505998.2922516,1.886302957195599,-3.8601893482472494,8.576113608948349,0.31555555555555553,0.4688888888888889,-0.6466666666666666,0.04975427649564107,0.13094100327891697,-1.56003260179763
1590505998.3022516,1.9715694875361078,-3.8913722049855566,8.65608066759388,0.31555555555555553,0.4688888888888889,-0.6466666666666666,0.050948157901806276,0.13821462050152275,-1.6111365025308457
1590505998.3122516,2.017278569956342,-3.8684809533624387,8.73575952331878,0.30275661484715427,0.4842476177389704,-0.6441068785249864,0.04751671888018252,0.13729624761135178,-1.6506790327005092
1590505998.3222516,2.06,-3.820845275686179,8.746807545947696,0.27111111111111114,0.5222222222222223,-0.6377777777777778,0.043981474015054055,0.1404969469475359,-1.688109211488553
1590505998.3322515,2.1123423601502274,-3.7828108321802727,8.684636621203136,0.27111111111111114,0.5222222222222223,-0.6377777777777778,0.043911670942171695,0.14508049407202864,-1.7416813620599008
1590505998.3422515,2.21293603592669,-3.8941279281466197,8.61174414370676,0.27111111111111114,0.5222222222222223,-0.6377777777777778,0.0401472243945456,0.14550752318767518,-1.7755659673728865
1590505998.3522515,2.274140873464139,-3.8468281746928277,8.740484524078484,0.27111111111111114,0.5222222222222223,-0.6377777777777778,0.03966875401601591,0.14907139804485448,-1.828602365109829
1590505998.3622515,2.3502020923490607,-3.8514982563757822,8.776599302550313,0.26242043985079994,0.5282679065772213,-0.6368331395973091,0.04254240051736178,0.14965134133054453,-1.8665657828401199
1590505998.3722515,2.4192475007047904,-3.81,8.764811875176198,0.22,0.5577777777777778,-0.6322222222222222,0.04464197714285254,0.1570385902097386,-1.9266361008064652
1590505998.3822515,2.478182781376763,-3.8045453169461765,8.682725071138826,0.22,0.5577777777777778,-0.6322222222222222,0.04869076450250928,0.16114553155392225,-1.9765860383127012
1590505998.3922515,2.563705624252094,-3.7597207818109295,8.668181092939768,0.22,0.5577777777777778,-0.6322222222222222,0.04578443488528403,0.1660656068797756,-2.018418107477026
1590505998.4022515,2.6353386087596613,-3.6939841737210157,8.713306956201693,0.22,0.5577777777777778,-0.6322222222222222,0.04472837803042677,0.17024347504109943,-2.055355445034424
1590505998.4122515,2.6733921818614,-3.65,8.7101765455842,0.21046985183424452,0.5703402458144555,-0.6343881649871667,0.05247038201578734,0.17429265815174216,-2.107653350646438
1590505998.4222515,2.748375066098479,-3.6286805188341784,8.811472207533672,0.1955555555555556,0.59,-0.6377777777777778,0.05093120105580812,0.17701911276128132,-2.1555422599685827
1590505998.4322515,2.8,-3.5311616099978034,8.713952012497254,0.1955555555555556,0.59,-0.6377777777777778,0.0490534107419247,0.180147765576617,-2.194337423929596
1590505998.4422514,2.805643922798441,-3.4630682316046766,8.672575691193765,0.1955555555555556,0.59,-0.6377777777777778,0.04685199582316303,0.1779996275331251,-2.208262950258881
1590505998.4522514,2.791532915423284,-3.4038322885582106,8.72693416915343,0.1955555555555556,0.59,-0.6377777777777778,0.04564571152300635,0.17562375598192942,-2.205574268432523
1590505998.4622514,2.8470027362660493,-3.35,8.801707009050725,0.17592740709558224,0.6141577211815056,-0.6483467807946864,0.043819437101711455,0.17167095809696648,-2.1961502590991326
1590505998.4722514,2.94,-3.3266327554654755,8.79326551093095,0.15222222222222226,0.6433333333333333,-0.6611111111111111,0.043408406694575415,0.1699558748788035,-2.193079667010684
1590505998.4822514,2.959362649379052,-3.2883824103725687,8.701274701241896,0.15222222222222226,0.6433333333333333,-0.6611111111111111,0.041558497223112854,0.17428694937587072,-2.1991522608334453
1590505998.4922514,3.001411331983304,-3.228158449394553,8.704664214572055,0.15222222222222226,0.6433333333333333,-0.6611111111111111,0.04690572364734761,0.17728346694148595,-2.2099161424722724
1590505998.5022514,3.0238675141105884,-3.140662429447059,8.81,0.15222222222222226,0.6433333333333333,-0.6611111111111111,0.04585102278645536,0.17745579704577383,-2.2122409568244166
1590505998.5122514,3.0374340562482818,-3.072829718758592,8.81,0.15222222222222226,0.6433333333333333,-0.6611111111111111,0.04215132234249753,0.16857651598027504,-2.208541256380459
1590505998.5222514,3.012408203977308,-2.965863932007564,8.752748373958399,0.11333333333333333,0.7888888888888889,-0.6888888888888889,0.0423168130031294,0.17453292519943295,-2.187983908955898
1590505998.5322514,3.0555410197809127,-2.9173008117266925,8.805814484986996,0.11333333333333333,0.7888888888888889,-0.6888888888888889,0.042424368311169997,0.17388439281522985,-2.1540820892014882
1590505998.5422513,3.04760108703178,-2.737040434812712,8.740248044035173,0.11333333333333333,0.7888888888888889,-0.6888888888888889,0.04377259677111778,0.16824962131548066,-2.0847681412164647
1590505998.5522513,3.0742269889546985,-2.7312377141027695,8.92948615335361,0.11333333333333333,0.7888888888888889,-0.6888888888888889,0.03820149817695055,0.16156675907901125,-2.0316557612709056
1590505998.5622513,3.0850168635727107,-2.610996627285458,8.744042721050867,0.09365929666081536,0.8989301109555148,-0.7322384612181658,0.04799532807622969,0.14486306372769797,-1.95170511575519
1590505998.5722513,3.206545640875485,-2.5687270331600907,8.91072615474709,0.04777777777777778,1.1555555555555554,-0.8333333333333334,0.0377823826119245,0.1489281459339256,-1.869703524447715
1590505998.5822513,3.2708772382475875,-2.5072514921650586,8.658889175568055,0.04777777777777778,1.1555555555555554,-0.8333333333333334,0.03301199902010922,0.13974751230797786,-1.7613853872382343
1590505998.5922513,3.317301397205589,-2.5258502994011978,8.772199600798404,0.04777777777777778,1.1555555555555554,-0.8333333333333334,0.03778084794602147,0.1282381538825614,-1.695237692816146
1590505998.6022513,3.4373139441160667,-2.5061163353036,8.8277673293928,0.04777777777777778,1.1555555555555554,-0.8333333333333334,0.03402757530737652,0.13127387933792836,-1.6400799442497036
1590505998.6122513,3.4088579374691608,-2.3907280312205628,8.920156999955143,0.11697124657964383,1.2370085278388332,-0.9426299236930378,0.03675110830624762,0.12619066945176097,-1.6254172818063202
1590505998.6222513,3.3113841533592288,-2.249983635448137,8.809918177240684,0.4177777777777778,1.5911111111111111,-1.4177777777777778,0.031010505803014763,0.1323032106746081,-1.5941781575032017
1590505998.6322513,3.4351543191451257,-2.2778765446838993,8.928166676616321,0.4177777777777778,1.5911111111111111,-1.4177777777777778,0.03328717247352507,0.12551085568614587,-1.569737144496687
1590505998.6422513,3.45789676943438,-2.2136903083031396,8.8005161528281,0.4177777777777778,1.5911111111111111,-1.4177777777777778,0.0370882466048795,0.11870866412063812,-1.5421302281998401
1590505998.6522512,3.4467089254202654,-2.1298098356088047,8.87658214915947,0.4177777777777778,1.5911111111111111,-1.4177777777777778,0.03342909542193014,0.12472753889527927,-1.518015217537665
1590505998.6622512,3.470081477183866,-2.073360492394622,8.86680246197311,0.41927132995316535,1.3495290467421739,-1.2165216221443047,0.03094538589283352,0.1257943372778859,-1.4984260345132674
1590505998.6722512,3.4463069866308667,-2.0100911786093865,8.869414890641607,0.4222222222222222,0.8722222222222222,-0.8188888888888889,0.039407505273107275,0.12312628131886466,-1.4945757691233794
1590505998.6822512,3.39,-1.92,8.83,0.4222222222222222,0.8722222222222222,-0.8188888888888889,0.03817907738737596,0.12435470920459595,-1.493347341237648
1590505998.6922512,3.3624950741470494,-1.8833267655293995,8.793326765529399,0.4222222222222222,0.8722222222222222,-0.8188888888888889,0.03617886273466389,0.12335460187823996,-1.493347341237648
1590505998.7022512,3.3507766061680586,-1.806212849344469,8.817670181495824,0.4222222222222222,0.8722222222222222,-0.8188888888888889,0.03499129963128608,0.1262822269953904,-1.4883167602821634
1590505998.7122512,3.33,-1.7667377178808403,8.89,0.2904050301203669,0.7896824851117147,-0.7934288704766925,0.03381575425739013,0.1179283444348428,-1.4743287382343062
1590505998.7222512,3.3397751459687774,-1.7002248540312228,8.914437864921943,0.06555555555555556,0.6488888888888888,-0.75,0.033282602751083225,0.11892508306199634,-1.4618113596247815
1590505998.7322512,3.35,-1.674134093626414,8.864636944725467,0.06555555555555556,0.6488888888888888,-0.75,0.034022949904732244,0.11737704903300439,-1.454321197078975
1590505998.7422512,3.3726569188591218,-1.6160146217113174,8.795313837718243,0.06555555555555556,0.6488888888888888,-0.75,0.036409330231183944,0.11507123609191715,-1.44065199294417
1590505998.7522511,3.3913477579299802,-1.55378258597666,8.88554353505835,0.06555555555555556,0.6488888888888888,-0.75,0.033697173302787306,0.11099914127629809,-1.4162208274770098
1590505998.7622511,3.341759617573412,-1.5193990439335305,8.899399043933531,0.03419632243215217,0.6342393201305107,-0.7470243063459544,0.02910131919331599,0.10686863961584106,-1.3920264688293045
1590505998.7722511,3.3024194455257128,-1.44,8.8806444357943,-0.08666666666666667,0.5777777777777777,-0.7355555555555555,0.03415891232566089,0.11122065083205805,-1.3728722030144145
1590505998.7822511,3.29,-1.405706339853877,8.920765496111242,-0.08666666666666667,0.5777777777777777,-0.7355555555555555,0.025358589219717044,0.12102452597150865,-1.3579560365435897
1590505998.792251,3.2986634179510426,-1.3328878059836808,8.821765865820488,-0.08666666666666667,0.5777777777777777,-0.7355555555555555,0.028676611110995506,0.10905966445202492,-1.3469833903036483
1590505998.802251,3.324457195898907,-1.332571340168488,8.901485731966302,-0.08666666666666667,0.5777777777777777,-0.7355555555555555,0.02993863577641881,0.1046013336351923,-1.3373148926087846
1590505998.812251,3.3421539175562214,-1.3030768040729646,8.907384639185407,-0.08666666666666667,0.5777777777777777,-0.7355555555555555,0.0318690486497258,0.10846215938180627,-1.3328105959044014
1590505998.822251,3.3324906254687265,-1.2287171891405428,8.98879218539073,-0.15086770661466925,0.542759028715231,-0.7608468743229505,0.03081494700279643,0.10635395608794754,-1.316488731104947
1590505998.832251,3.383124232404346,-1.1468757675956542,8.853437883797827,-0.16,0.5377777777777778,-0.7644444444444445,0.02832738628540962,0.1054697850143229,-1.305025737842842
1590505998.842251,3.4140846285394315,-1.1179576857302844,8.848169257078862,-0.16,0.5377777777777778,-0.7644444444444445,0.031833795765718646,0.10320643933654813,-1.3002472138818033
1590505998.852251,3.4267798174856607,-1.1116100912571698,8.873559634971322,-0.16,0.5377777777777778,-0.7644444444444445,0.029064135187287485,0.1052836847703715,-1.2967851381587643
1590505998.862251,3.3432532071241745,-1.0234935857516503,8.931386224934611,-0.16741008289395387,0.5363319079448112,-0.7664325154647735,0.027980509256988743,0.10487096880267367,-1.2854059741093746
1590505998.872251,3.370994691730788,-0.9753404110256161,8.960680822051232,-0.20555555555555555,0.5288888888888889,-0.7766666666666666,0.031234314419597134,0.10846629190503786,-1.269875563156052
1590505998.882251,3.392414896359308,-0.9451702072813841,8.914829792718615,-0.20555555555555555,0.5288888888888889,-0.7766666666666666,0.028962715938737726,0.1038923486656905,-1.2546039337444754
1590505998.892251,3.3987748108386784,-0.9324503783226433,8.927549621677356,-0.20555555555555555,0.5288888888888889,-0.7766666666666666,0.024800161645852418,0.1045861077145047,-1.2435037889634477
1590505998.902251,3.293635129215944,-0.8763648707840561,8.90817564607972,-0.20555555555555555,0.5288888888888889,-0.7766666666666666,0.028559865887263045,0.10243933108303216,-1.2128070457918754
1590505998.912251,3.2962700183119695,-0.8508466788746463,8.980846678874647,-0.20640308528938459,0.527871853208294,-0.7768361726134324,0.02878678283103025,0.09691752756809106,-1.1877849192681014
1590505998.922251,3.257185104052574,-0.7946878422782038,8.924687842278203,-0.2111111111111111,0.5222222222222223,-0.7777777777777778,0.025378841255639065,0.09657257537612929,-1.1541336163946045
1590505998.932251,3.351766960891695,-0.7811761484440436,8.911176148444044,-0.2111111111111111,0.5222222222222223,-0.7777777777777778,0.02611578983353754,0.09804647253192623,-1.1320251590576504
1590505998.942251,3.34,-0.7244225867913789,8.885098359438794,-0.2111111111111111,0.5222222222222223,-0.7777777777777778,0.026840596841241324,0.09229044379102869,-1.0874631160876724
1590505998.952251,3.329945011783189,-0.6974312647289866,8.944972505891593,-0.2111111111111111,0.5222222222222223,-0.7777777777777778,0.023730068232265793,0.08917991518205315,-1.055876211184912
1590505998.962251,3.2877399182233624,-0.6561687244448008,8.935363785777279,-0.21136652948145773,0.5158367629635568,-0.7711369001487658,0.02584559691496794,0.09146261479722881,-1.0269023528246048
1590505998.972251,3.153231780646196,-0.6141349314519362,8.99421109596729,-0.2141687823476487,0.4457804413087825,-0.6982783256278005,0.022177456490831898,0.08962854458516079,-0.9957231592194484
1590505998.982251,11.61208784491792,6.309045581557807,9.191033007334962,-0.21444444444444444,0.4388888888888889,-0.6911111111111111,0.06285583763266145,-0.3854836151771655,-0.39602777297755054
1590505998.992251,28.499146114726308,10.922564116585553,3.8190137802810744,-0.21444444444444444,0.4388888888888889,-0.6911111111111111,0.2834664891845012,-2.511554157061012,2.105532915956425
1590505999.002251,0.22252461519913197,-0.5450492303982639,1.266390306635052,-0.21444444444444444,0.4388888888888889,-0.6911111111111111,0.3623359079154358,-3.356906640272743,2.339114130898568
1590505999.012251,0.42188510623500364,-1.0067041068261642,2.68647946586918,-0.22380081371492158,0.4342599483024423,-0.6929823849652066,-0.10403340076494647,-3.0101345902803924,-1.957213259507927
1590505999.022251,0.019235382650734288,-1.0242928486728085,3.613997993250023,-0.32,0.38666666666666666,-0.7122222222222222,-0.24461539506145794,-2.1320088890405313,-1.8599700648227513
1590505999.032251,0.16116217355720341,-1.2451362813422286,3.535652637583393,-0.32,0.38666666666666666,-0.7122222222222222,-0.20157517246280046,-0.4525819609575265,-1.5809158309412508
1590505999.0422509,0.47,-1.14,2.55,-0.32,0.38666666666666666,-0.7122222222222222,-0.035997415822383035,0.35452000431134817,-1.4268066635053644
1590505999.0522509,0.5220723489336493,-1.184633441943128,3.063284582345972,-0.32,0.38666666666666666,-0.7122222222222222,-0.13093810400303127,1.4832592971257212,-1.2069013088305296
1590505999.0622509,0.6306939409632315,-1.0715169169687555,3.38359873985845,-0.32,0.38666666666666666,-0.7122222222222222,-0.14136497529203135,2.8949847273677847,-0.9168394125068382
1590505999.0722508,3.37505225199993,-3.897527964010013,13.031869868888617,-0.3955555555555556,0.3911111111111111,-0.6555555555555556,-0.11603020022260804,4.380786122683223,-0.6031134406774976
1590505999.0822508,0.4675955327603414,-0.23383881527123762,1.725093738512438,-0.3955555555555556,0.3911111111111111,-0.6555555555555556,-0.27140378554983124,3.6111262489746587,-0.6191313360720568
1590505999.0922508,0.5989272696685919,-1.3469006897325184,7.508120338697919,-0.3955555555555556,0.3911111111111111,-0.6555555555555556,0.03432969808257576,0.19273982256658967,-0.9000011524760333
1590505999.1022508,3.687871362081534,-3.84000785061403,19.64437783883811,-0.3955555555555556,0.3911111111111111,-0.6555555555555556,0.10103583856743363,-0.1596054323021467,-0.894014703970982
1590505999.1122508,7.78809850926672,1.3776976228847704,9.915404915390813,-0.3893053541051124,0.388101754857194,-0.6586806562807772,0.178986696748048,-1.1180760832257306,-0.8291192061358008
1590505999.1222508,1.1214935535858181,-1.3176724415793717,6.958102336825141,-0.33860873847255796,0.3636922732563345,-0.6840289640970544,0.06469707702059321,-0.42772991245263636,-0.05121243960376953
1590505999.1322508,1.446017705199828,-1.61952797593468,9.000914310270735,-0.33555555555555555,0.3622222222222222,-0.6855555555555556,-0.080724646798631,0.6130887329125699,1.6942436072949265
1590505999.1422508,1.402758917060593,-1.9583884830253546,10.024705629565965,-0.33555555555555555,0.3622222222222222,-0.6855555555555556,-0.4283430439714714,0.5997187945597683,1.7791820391833129
1590505999.1522508,2.883749847467968,-0.40973764490543013,8.516403904820013,-0.33555555555555555,0.3622222222222222,-0.6855555555555556,0.06647505484323309,-0.45534777636213497,1.6485264392115264
1590505999.1622508,2.2513084665482537,-0.42748470495362145,6.969206631142688,-0.3363932197443151,0.3635834265289564,-0.6875450080038594,0.16126696327647946,-0.4026260293259365,1.7015458619277868
1590505999.1722507,2.36,-0.98,8.98,-0.34444444444444444,0.37666666666666665,-0.7066666666666667,-0.10253809355466686,-0.16253378659197193,2.1194842103906137
1590505999.1822507,1.1009702994011974,-1.1130898203592814,8.25599137724551,-0.34444444444444444,0.37666666666666665,-0.7066666666666667,-0.02501278903416887,-0.23773623554631268,1.6610105930203278
1590505999.1922507,-1.7309296241795717,-1.3426790927989163,6.936041389297643,-0.34444444444444444,0.37666666666666665,-0.7066666666666667,0.15414590860528346,-0.32032675375906006,0.02401804888911485
1590505999.2022507,0.31905749831294444,-0.9022158392884951,9.15045316906892,-0.34444444444444444,0.37666666666666665,-0.7066666666666667,0.012312271386199204,0.10310703637259964,-0.8839826111556142
1590505999.2122507,1.4004180437077154,-0.6699773328949873,10.478567127506793,-0.34444444444444444,0.37666666666666665,-0.7066666666666667,-0.17056242421478163,0.40789819570756763,-0.3551501580757215
1590505999.2222507,2.378221797957998,-0.6672594006806675,8.897520710550344,-0.32666666666666666,0.4011111111111111,-0.7,-0.161464506214243,0.21243668258371612,0.14191993706224343
1590505999.2322507,2.4200011621150495,-0.6533329459616503,8.681660662405578,-0.32666666666666666,0.4011111111111111,-0.7,-0.028539708101956968,-0.12709123030880876,0.25889375940105513
1590505999.2422507,10.715175690244303,-0.3445617336963473,9.14458091983847,-0.32666666666666666,0.4011111111111111,-0.7,0.05593177183294791,-0.05027383086982802,0.5602082502004089
1590505999.2522507,2.407354687814058,-0.12996857127194983,8.67707438741389,-0.32666666666666666,0.4011111111111111,-0.7,0.030851254623755636,-0.09709079632698694,0.3353196125579848
1590505999.2622507,3.805884618628581,-0.9152315218308077,9.731890129044954,-0.32666666666666666,0.4011111111111111,-0.7,1.1684515396303413e-05,0.12656351196676927,-0.15142684200527023
1590505999.2722507,4.302590288880615,-0.8169320396854947,8.972721040758667,-0.30892427195806593,0.4030824883009556,-0.7059141315695335,0.0018122617630051284,0.019262448476826427,-0.0037256294606896334
1590505999.2822506,3.5950406057945568,-0.6630081211589114,8.997439091308165,-0.30666666666666664,0.4033333333333333,-0.7066666666666667,-0.0018535264492309733,-0.01454885979062616,-0.00016406755788096937
1590505999.2922506,3.6717581211589114,-0.6783516242317823,8.882362818261631,-0.30666666666666664,0.4033333333333333,-0.7066666666666667,-0.00017980990290931498,0.01139374667735954,-0.0010009258310417985
1590505999.3022506,3.8661579616384296,-0.743078980819215,9.00463184655372,-0.30666666666666664,0.4033333333333333,-0.7066666666666667,-0.0027062677898407115,0.00545415391248228,0.0018041785265604743
1590505999.3122506,3.802498245081485,-0.7112491225407426,8.74999298032594,-0.30666666666666664,0.4033333333333333,-0.7066666666666667,-0.00010219359889141345,0.00545415391248228,6.812906592760853e-05
1590505999.3222506,3.7610358425462995,-0.7218393070910499,9.24137455108795,-0.3144444444444445,0.41,-0.7144444444444444,-0.0008901935031583289,-0.010394040372755998,0.0004889189444820747
1590505999.3322506,3.805338708541652,-0.7292231180902753,9.086314520104219,-0.3144444444444445,0.41,-0.7144444444444444,-8.474467014923004e-05,-0.003950449708683209,-0.0019274275545452222
1590505999.3422506,3.883089002633802,-0.7158813298215971,8.779406649107987,-0.3144444444444445,0.41,-0.7144444444444444,-0.0009785114771576568,-0.0030154914659202333,-0.0013154693931740544
1590505999.3522506,3.9037670735871606,-0.6849863411302715,8.618698779238517,-0.3144444444444445,0.41,-0.7144444444444444,-0.0002719627198464145,0.00859066490004844,-0.0028645482677197463
1590505999.3622506,3.85682601489121,-0.7202441527006761,8.761231024231103,-0.31425454789947416,0.409701591143618,-0.7139290109652392,-0.002181661564992912,0.007609182549322473,0.0
1590505999.3722506,3.7315097503415724,-0.7307548751707862,9.197167122096635,-0.30666666666666664,0.3977777777777778,-0.6933333333333334,-0.002181661564992912,0.005474511299772069,-0.0001646882146471795
1590505999.3822505,3.744533908831201,-0.7372669544156005,9.08646177493479,-0.30666666666666664,0.3977777777777778,-0.6933333333333334,-0.002181661564992912,-0.0037601381480175692,-0.0015854035143071238
1590505999.3922505,3.979331039285568,-0.6801745114907214,8.661105239441236,-0.30666666666666664,0.3977777777777778,-0.6933333333333334,-0.002181661564992912,-0.005460499329348221,-0.0010940034909294267
1590505999.4022505,3.952103930712858,-0.6869740173217854,8.673948034643571,-0.30666666666666664,0.3977777777777778,-0.6933333333333334,-0.001420914287766203,-0.004693406635255571,-0.001090830782496456
1590505999.4122505,3.8168847665174086,-0.7117262176733985,8.926230466965183,-0.30666666666666664,0.3977777777777778,-0.6933333333333334,-0.00030084321498440145,0.006696502815182941,-0.001090830782496456
1590505999.4222505,3.790570096151327,-0.7488598076973461,9.067149519243365,-0.3144444444444445,0.4177777777777778,-0.6933333333333334,0.001059736860953944,0.0052986843047697196,3.1093921542512095e-05
1590505999.4322505,3.814329185495181,-0.7110822963737952,8.953765554393073,-0.3144444444444445,0.4177777777777778,-0.6933333333333334,0.00023612044006401036,-0.0007083613201920311,0.001090830782496456
1590505999.4422505,3.8490705254839983,-0.7190705254839984,8.819535262741999,-0.3144444444444445,0.4177777777777778,-0.6933333333333334,0.00208027162363286,-0.006038034988178476,0.0008373559290963263
1590505999.4522505,3.832392425304084,-0.7,8.814784850608168,-0.3144444444444445,0.4177777777777778,-0.6933333333333334,-6.524327916295122e-05,0.004363323129985824,-0.003971863455008116
1590505999.4622505,3.8625352593470956,-0.7,8.875070518694193,-0.3144444444444445,0.4177777777777778,-0.6933333333333334,-0.0008872615603079386,0.004363323129985824,0.0009602462318618081
1590505999.4722505,3.8417884319013678,-0.7109123964554035,8.994561982277018,-0.32,0.3977777777777778,-0.7,9.952701393948833e-05,0.00802995716239523,0.00019905402787897666
1590505999.4822505,3.764839080988996,-0.7190321838022008,9.026450573230811,-0.32,0.3977777777777778,-0.7,0.001090830782496456,0.0004573965622816532,0.00175937208484971
1590505999.4922504,3.81,-0.7105704599056604,8.89942954009434,-0.32,0.3977777777777778,-0.7,0.001090830782496456,-0.0056408364800645885,-0.002057206519938039
1590505999.5022504,3.81,-0.7194027964959568,8.890597203504043,-0.32,0.3977777777777778,-0.7,0.001090830782496456,-0.00853121187028415,-0.0001302895931249979
1590505999.5122504,3.843145036550482,-0.7117137408623795,8.906572518275242,-0.32,0.3977777777777778,-0.7,-0.0007169505253153421,-0.0023994116826303548,0.0
1590505999.5222504,3.8282613813916653,-0.6955075875944435,8.931738618608334,-0.32483080413518545,0.40663425202561776,-0.6951691958648145,-0.001090830782496456,0.0036518000868878703,0.0007904384782307209
1590505999.5322504,3.8012587275051626,-0.7392447634969024,9.082699380470055,-0.32666666666666666,0.41,-0.6933333333333334,2.746117418812988e-05,0.007388664909782023,-5.492234837625976e-05
1590505999.5422504,3.842504671059101,-0.7144971973645392,8.843472907857214,-0.32666666666666666,0.41,-0.6933333333333334,0.0009273080718230764,-0.0007099571689324936,-0.0018546161436461528
1590505999.5522504,3.8026724399459444,-0.7194655120108111,8.932517168151355,-0.32666666666666666,0.41,-0.6933333333333334,-0.0009742235922000806,-0.0011491343776446436,-0.00011660719029637535
1590505999.5622504,3.86543982333456,-0.6954600662495399,8.85002024291498,-0.32666666666666666,0.41,-0.6933333333333334,-0.001090830782496456,-0.0019831279536773076,0.0
1590505999.5722504,3.7817007080903084,-0.7288661946064611,8.95,-0.32666666666666666,0.4033333333333333,-0.7022222222222222,-0.001090830782496456,0.006235787238820538,0.002057982582529633
1590505999.5822504,3.808782256849536,-0.7108118287669758,8.95,-0.32666666666666666,0.4033333333333333,-0.7022222222222222,-0.001090830782496456,0.0013122227347798117,8.855678091334272e-05
1590505999.5922503,3.7676497330443515,-0.7311751334778241,8.957058377825941,-0.32666666666666666,0.4033333333333333,-0.7022222222222222,-0.0018607803631991843,-0.0019889675403144576,0.0015398991614054567
1590505999.6022503,3.8332384615384614,-0.7215025641025641,8.886010256410257,-0.32666666666666666,0.4033333333333333,-0.7022222222222222,-0.003190540188701814,-0.0062991282186160725,0.00016390431757510844
1590505999.6122503,3.832392104510346,-0.72,8.933255268427576,-0.32666666666666666,0.4033333333333333,-0.7022222222222222,-0.0024425996884763304,-0.005715092035965698,0.0
1590505999.6222503,3.839624828128069,-0.72,8.901875859359654,-0.31490298784347115,0.4097498854187127,-0.7064999236124752,-0.002181661564992912,0.0029450931261861693,0.0010499058798335561
1590505999.6322503,3.7998377318116976,-0.7203245363766049,8.989350927246791,-0.3144444444444445,0.41,-0.7066666666666667,0.0,0.004327921703021781,-0.001090830782496456
1590505999.6422503,3.7904888106276746,-0.7390223787446505,8.951955242510698,-0.3144444444444445,0.41,-0.7066666666666667,0.0,0.0022883035008887183,-0.001090830782496456
1590505999.6522503,3.8277331624661826,-0.74,8.959433290616547,-0.3144444444444445,0.41,-0.7066666666666667,0.0,-0.0019343879489122687,-6.18184040201608e-05
1590505999.6622503,3.8155885889168215,-0.7327942944584107,8.923971472292054,-0.3144444444444445,0.41,-0.7066666666666667,0.0,-0.002181661564992912,0.0
1590505999.6722503,3.837068219972529,-0.7096988350206033,8.889698835020605,-0.3144444444444445,0.4152632649946584,-0.6976439266758238,-0.0014763423786709933,0.0007710231923490746,0.0014763423786709933
1590505999.6822503,3.792040182406979,-0.7289799087965104,8.957279756790696,-0.3144444444444445,0.4177777777777778,-0.6933333333333334,-0.002181661564992912,0.005342879223910257,7.418312571468196e-05
1590505999.6922503,3.8080855343131836,-0.73,8.923828931373633,-0.3144444444444445,0.4177777777777778,-0.6933333333333334,-0.0011952486876570737,0.0034813281578106037,0.0019728257546716764
1590505999.7022502,3.780581916779643,-0.7398060277401188,8.969030138700594,-0.3144444444444445,0.4177777777777778,-0.6933333333333334,-0.001090830782496456,-0.0031455378002721354,-0.0020970252001814237
1590505999.7122502,3.819025291275931,-0.7087797669792555,8.923169650468884,-0.3144444444444445,0.4177777777777778,-0.6933333333333334,0.0014633685586840776,-0.004123892127882879,0.0003725377761876216
1590505999.7222502,3.839819505094614,-0.7196390101892285,8.949278020378456,-0.32644606178230634,0.4035940481966683,-0.7020617823063238,0.0011105197223843105,-0.006505606815203026,-0.002122594745329349
1590505999.7322502,3.8089726913200757,-0.7044863456600379,8.934486345660037,-0.32666666666666666,0.4033333333333333,-0.7022222222222222,0.000244692197344434,0.005300955497149572,-0.000489384394688868
1590505999.7422502,3.805387020829215,-0.7161610624876444,8.908451916683141,-0.32666666666666666,0.4033333333333333,-0.7022222222222222,0.0,0.006963747816034516,0.0005876328146457105
1590505999.7522502,3.7865176928903796,-0.73,8.91348230710962,-0.32666666666666666,0.4033333333333333,-0.7022222222222222,0.0,0.0028926315685613734,0.0004504501965162294
1590505999.7622502,3.7962198529727873,-0.7168900735136065,8.93,-0.32666666666666666,0.4033333333333333,-0.7022222222222222,-0.0007150355683811836,-0.0010542759226470951,-0.0014300711367623673
1590505999.7722502,3.8272256563642406,-0.7186128281821202,8.955838484546362,-0.31613987666629745,0.4033333333333333,-0.7060501458587202,0.0017277106491264905,-0.0031211753755338943,0.003455421298252981
1590505999.7822502,3.843319814498069,-0.7266599072490345,8.940020278252897,-0.3144444444444445,0.4033333333333333,-0.7066666666666667,-0.0007242711693343719,0.0003599235704197369,0.0007309072120767197
1590505999.7922502,3.8137865071243016,-0.73,8.902839880343226,-0.3144444444444445,0.4033333333333333,-0.7066666666666667,-0.00020652192646650235,0.005144371022782526,0.0028594484945563634
1590505999.8022501,3.8010650606765948,-0.7389349393234051,8.93573975729362,-0.3144444444444445,0.4033333333333333,-0.7066666666666667,-0.0009746506853708363,0.0044795032271114435,0.0003485402913768593
1590505999.8122501,3.8,-0.74,8.976070688084949,-0.3144444444444445,0.4033333333333333,-0.7066666666666667,-0.0003038904443186302,-0.0011452592372589564,0.0007869403381778258
1590505999.8222501,3.8236000171225544,-0.722299987158084,8.954599974316167,-0.3177222246003549,0.3961222169903305,-0.7027333304795742,0.0006435906286181521,-0.002628901718871216,0.0004472401538783039
1590505999.83225,3.8229534318309333,-0.7185232840845334,8.921476715915466,-0.32,0.3911111111111111,-0.7,-0.0007686613469777719,-0.002181661564992912,0.001859492129474228
1590505999.84225,3.8056316297010606,-0.7056316297010607,8.848158148505304,-0.32,0.3911111111111111,-0.7,-0.0018745038133159927,0.002520376619924309,0.0013979885341733752
1590505999.85225,3.7844556816549346,-0.7155443183450654,8.913265910070391,-0.32,0.3911111111111111,-0.7,-0.0013338505178068284,0.004363323129985824,0.0019386418296825393
1590505999.86225,3.807233008742059,-0.7131917478144851,8.95361650437103,-0.32,0.3911111111111111,-0.7,-0.0003481656766006172,0.0021353278122983074,-0.0007889988585904431
1590505999.87225,3.8027978758712244,-0.7186010620643877,8.985803186193163,-0.3152216321864514,0.4140472766161449,-0.7057340413762584,-0.0009382303261996568,-0.002662090522302171,-0.0012434312387932553
1590505999.88225,3.831444585668743,-0.7042777071656283,8.95069426791407,-0.3144444444444445,0.4177777777777778,-0.7066666666666667,-0.00023331273273865182,-0.0015574562479737596,-0.001090830782496456
1590505999.89225,3.8275217142969686,-0.7,8.87136942863333,-0.3144444444444445,0.4177777777777778,-0.7066666666666667,0.0006805849078825898,0.0002703390332687236,0.0023120937569164925
1590505999.90225,3.82,-0.7,8.900116957070276,-0.3144444444444445,0.4177777777777778,-0.7066666666666667,-0.0006088522207755476,0.004490196789040463,-0.0007357258798301874
1590505999.91225,3.8046882735593806,-0.7153117264406194,8.965935179321859,-0.3144444444444445,0.4177777777777778,-0.7066666666666667,-0.002204330951469293,0.0032271535745366053,-0.002181661564992912
1590505999.92225,3.7992902091068985,-0.7269032636310337,8.997613054524136,-0.32029383536360284,0.41536920504635966,-0.7025376848413785,-0.0025968892761804433,7.742617553306856e-05,-0.0011682569580295245
1590505999.93225,3.824983478028857,-0.724983478028857,8.925148697740287,-0.3333333333333333,0.41,-0.6933333333333334,-3.6045349420586823e-06,-0.002181661564992912,0.001090830782496456
1590505999.94225,3.823551821966766,-0.73,8.84775910983383,-0.3333333333333333,0.41,-0.6933333333333334,0.0003874436735295618,0.0013352739798415596,-0.0003159434354373324
1590505999.95225,3.82,-0.73,8.88226458850178,-0.3333333333333333,0.41,-0.6933333333333334,-0.0006334646885805742,0.004539421724650517,-0.00045736609391588176
1590505999.96225,3.8096887805958577,-0.73,8.956089267914498,-0.3333333333333333,0.41,-0.6933333333333334,-0.0022156103356077645,0.004329374359370971,0.0011247795531113085
1590505999.97225,3.806528949898515,-0.73,8.996528949898515,-0.3333333333333333,0.4056473667343232,-0.6839026279243671,-0.0018480964421538875,0.0018480964421538875,0.0007572656596574318
1590505999.98225,3.81,-0.73,8.975588789250274,-0.3333333333333333,0.4033333333333333,-0.6788888888888889,-0.001090830782496456,-0.0024596359006781336,0.0017752333415872947
1590505999.99225,3.816213011505577,-0.7362130115055768,8.876804827416347,-0.3333333333333333,0.4033333333333333,-0.6788888888888889,-0.001090830782496456,-0.0019170235070317893,0.0008261927245353333
1590506000.00225,3.82,-0.74,8.85376050003307,-0.3333333333333333,0.4033333333333333,-0.6788888888888889,0.0003822489242454013,0.0003822489242454013,0.0014730797067418573
1590506000.01225,3.82,-0.7333607539994212,8.923113968004628,-0.3333333333333333,0.4033333333333333,-0.6788888888888889,0.001815060173496232,0.003263518955495784,0.0007332027829933601
1590506000.02225,3.791393406103809,-0.73,8.985758242370238,-0.31982466399346554,0.4033333333333333,-0.7043169723521695,-0.0009388337554410912,0.00046270397944332036,0.0007801238301085008
1590506000.03225,3.7956724568209332,-0.7143275431790664,8.992163771589533,-0.3144444444444445,0.4033333333333333,-0.7144444444444444,0.00038273818565021057,-0.002800430616258538,0.0002360308656154151
1590506000.04225,3.8142714000043,-0.7242714000043005,8.890100199969897,-0.3144444444444445,0.4033333333333333,-0.7144444444444444,-0.00046593746090464,-0.0048292605908904634,0.0
1590506000.05225,3.82,-0.707298540609137,8.895402918781725,-0.3144444444444445,0.4033333333333333,-0.7144444444444444,-0.00026538242545823775,-0.0013269121272911893,-0.0008254483570382182
1590506000.06225,3.815207909488752,-0.7191683620449921,8.919584181022495,-0.3144444444444445,0.4033333333333333,-0.7144444444444444,-0.0005227359842178543,0.0,-0.0016135667667143104
1590506000.07225,3.8047242265903627,-0.7347242265903624,8.948465206933731,-0.3144444444444445,0.4033333333333333,-0.7088755725120492,-0.0002275843769901165,0.000575497603670893,-0.0016061639613220188
1590506000.0822499,3.797574524048096,-0.7275745240480962,8.954552855711423,-0.3144444444444445,0.4033333333333333,-0.6933333333333334,0.0013554091655506126,-0.0002970956333339858,-0.0008262523994422993
1590506000.0922499,3.8135637791527843,-0.73,8.892526772965255,-0.3144444444444445,0.4033333333333333,-0.6933333333333334,0.00035104139115441047,-0.0018306201738385016,-0.001090830782496456
1590506000.1022499,3.82,-0.73,8.87,-0.3144444444444445,0.4033333333333333,-0.6933333333333334,-0.000639386511127091,0.000375884479515452,-0.001730217293623547
1590506000.1122499,3.808621044322721,-0.7243105221613605,8.938273734063673,-0.3144444444444445,0.4033333333333333,-0.6933333333333334,-0.000470205026224523,0.002802287321264845,-0.002181661564992912
1590506000.1222498,3.8,-0.7152856551642591,8.999428689671483,-0.32334931802306616,0.40071425286903284,-0.6933333333333334,0.0005142552466129362,0.002758237100876432,-0.0006388958251541032
1590506000.1322498,3.8,-0.7158794712286158,9.015879471228615,-0.3333333333333333,0.3977777777777778,-0.6933333333333334,0.0017321816025941002,0.0008989599247976236,0.0017321816025941002
1590506000.1422498,3.8,-0.7305529837555761,8.93557612995539,-0.3333333333333333,0.3977777777777778,-0.6933333333333334,0.002181661564992912,-0.0011511519527767499,0.00045493363582778694
1590506000.1522498,3.8219381345553667,-0.7235463990834748,8.903876269110732,-0.3333333333333333,0.3977777777777778,-0.6933333333333334,-0.0002114176833614193,-0.0027799313770814947,0.00010570884168070965
1590506000.1622498,3.834538669434948,-0.7154613305650516,8.934538669434948,-0.3333333333333333,0.3977777777777778,-0.6933333333333334,-0.000990184066243494,-0.0008895373499905324,0.001686569531871165
1590506000.1722498,3.812017131704496,-0.7259942894318346,8.941988578863668,-0.32534094742422054,0.40510413152779784,-0.6933333333333334,0.0,0.0030524574119279715,0.0008739104787052348
1590506000.1822498,3.8120969796750357,-0.7179030203249642,8.931854530487445,-0.32,0.41,-0.6933333333333334,-0.0006597878902381497,0.0037035352397476744,0.0006597878902381497
1590506000.1922498,3.8136652610149775,-0.7163347389850225,8.888326305074887,-0.32,0.41,-0.6933333333333334,-0.00039981795410216176,0.0011994538623064854,0.00039981795410216176
1590506000.2022498,3.8167827172480755,-0.7132172827519245,8.876782717248076,-0.32,0.41,-0.6933333333333334,0.0007398796763170357,0.0,-0.0007398796763170357
1590506000.2122498,3.824483873032126,-0.7144838730321259,8.893451619096378,-0.32,0.41,-0.6933333333333334,0.00011260143684671585,-0.00146734401847461,-0.00011260143684671585
1590506000.2222497,3.8275650727379475,-0.7224349272620523,8.924609563572314,-0.3186472626321932,0.4083767151586318,-0.6949566181747016,-0.001090830782496456,-0.0024756642643134225,0.001090830782496456
1590506000.2322497,3.826249791673611,-0.7175004166527782,8.97,-0.3144444444444445,0.4033333333333333,-0.7,0.0009544087600329816,0.0013634930283529581,0.001090830782496456
1590506000.2422497,3.83,-0.7160966985817011,8.92122641134639,-0.3144444444444445,0.4033333333333333,-0.7,0.00018652161963627787,0.0015166149165407004,-0.0002392625144079668
1590506000.2522497,3.8233094237695076,-0.7066188475390156,8.869928271308524,-0.3144444444444445,0.4033333333333333,-0.7,0.0003688265184755423,-0.001098655168961542,-0.00036100213201045684
1590506000.2622497,3.825890781601311,-0.7058907816013109,8.913017034411798,-0.3144444444444445,0.4033333333333333,-0.7,-0.00019433839823828876,-0.0028242461553602844,0.0
1590506000.2722497,3.8226463370624324,-0.7210304944063515,8.957353662937567,-0.3189383495729581,0.401290649184009,-0.7,-0.001090830782496456,-0.0004649316837486246,0.00040108009482010614
1590506000.2822497,3.8044208611279564,-0.74,8.98394784718011,-0.32666666666666666,0.3977777777777778,-0.7,-0.0007865359614240668,0.0037547334878410455,0.001090830782496456
1590506000.2922497,3.8021530473357865,-0.7359489842214044,8.963285779099662,-0.32666666666666666,0.3977777777777778,-0.7,-0.0008837945423341755,0.0008559697514916485,0.0006489335113293681
1590506000.3022497,3.822625451625853,-0.73,8.88787635487756,-0.32666666666666666,0.3977777777777778,-0.7,-0.0010360921844185527,-0.0016636154727836356,0.0002863923451435898
1590506000.3122497,3.825543013802231,-0.7255430138022311,8.918913972395538,-0.32666666666666666,0.3977777777777778,-0.7,0.0036402068874993756,-0.0027863105733205466,0.0006046490083276347
1590506000.3222497,3.82,-0.72,8.93913372156111,-0.32362209281296345,0.40335949650956704,-0.7030445738537032,0.0029633177530797674,-0.0006871598693514044,0.0004981672318805025
1590506000.3322496,3.8150735617039966,-0.729852876592007,8.945073561703996,-0.32,0.41,-0.7066666666666667,0.0005373910541350021,0.0016282218366314581,0.0005534397283614539
1590506000.3422496,3.8046612842658654,-0.7346612842658655,8.913306421329327,-0.32,0.41,-0.7066666666666667,0.001090830782496456,0.0015992980188137113,0.0
1590506000.3522496,3.8,-0.7432847470589559,8.903284747058956,-0.32,0.41,-0.7066666666666667,0.0018154013339758707,0.001090830782496456,0.0014491411029588298
1590506000.3622496,3.8311591249855828,-0.7292272500096113,8.930772749990389,-0.32,0.41,-0.7066666666666667,0.002181661564992912,-4.214697383449076e-05,0.002181661564992912
1590506000.3722496,3.840607968857339,-0.7148480077856652,8.969392031142661,-0.330234683103071,0.4067679948095565,-0.7104373393888507,0.0005951547270770822,-0.0016196663951350658,0.001123990339715692
1590506000.3822496,3.8140446699497588,-0.72,8.972134009849277,-0.3411111111111111,0.4033333333333333,-0.7144444444444444,-0.001740456516369389,0.0004168413704988198,0.0012992514677458659
1590506000.3922496,3.816455107580937,-0.7393653227428112,8.927724462095314,-0.3411111111111111,0.4033333333333333,-0.7144444444444444,-6.923254890919828e-05,6.923254890919828e-05,0.001477518559631674
1590506000.4022496,3.800676954399278,-0.7306769543992782,8.929323045600722,-0.3411111111111111,0.4033333333333333,-0.7144444444444444,0.001090830782496456,-0.00038822501740145253,0.001090830782496456
1590506000.4122496,3.800133343507373,-0.7250666717536864,8.945066671753686,-0.3411111111111111,0.4033333333333333,-0.7144444444444444,0.0005381426311238024,0.0,0.0016435189338691095
1590506000.4222496,3.813499586543065,-0.7334995865430648,8.953499586543064,-0.33372309507575204,0.39905606089180967,-0.709389486104462,0.0,0.0003817456727185447,0.0017999158922743673
1590506000.4322495,3.82,-0.7311710064365126,8.96,-0.32,0.3911111111111111,-0.7,0.0,0.0015723776803722137,0.0006092838846206982
1590506000.4422495,3.80767882717095,-0.7241070576096832,8.927143539122534,-0.32,0.3911111111111111,-0.7,0.001344031459838635,0.002181661564992912,0.0
1590506000.4522495,3.792646222510168,-0.731323111255084,8.885292445020337,-0.32,0.3911111111111111,-0.7,0.0028395052017754093,0.0018930034678502727,0.0004329871457139588
1590506000.4622495,3.815799382214274,-0.7342006177857259,8.928699073321411,-0.32,0.3911111111111111,-0.7,-0.00031630723193963237,0.0006326144638792647,0.0020072634197308386
1590506000.4722495,3.8294371646886685,-0.7205628353113315,8.949155747033002,-0.32,0.3911111111111111,-0.7,-0.0010601328783426376,0.0021202657566852753,-0.0009680391658811825
1590506000.4822495,3.8069102863202544,-0.7330897136797455,8.957641145281018,-0.32666666666666666,0.3977777777777778,-0.6933333333333334,-0.0022613859101993337,-0.0006740709581933561,-0.000753795303399778
1590506000.4922495,3.803921001926782,-0.7360789980732177,8.902552986512523,-0.32666666666666666,0.3977777777777778,-0.6933333333333334,-0.0004277149599962019,-0.0008985166850043061,0.0
1590506000.5022495,3.8042610260272824,-0.73,8.88295589589087,-0.32666666666666666,0.3977777777777778,-0.6933333333333334,0.00016121911138076333,0.0017168557294350655,0.0006260249469386096
1590506000.5122495,3.8131045023888572,-0.721263665074095,8.926209004777716,-0.32666666666666666,0.3977777777777778,-0.6933333333333334,0.00013784447615885652,0.001705168411824112,0.00013784447615885652
1590506000.5222495,3.82696388650043,-0.71,8.94785554600172,-0.32464259100028664,0.39946450749976115,-0.6953574089997134,-0.0007596421760480479,0.001090830782496456,-0.0004284535695996398
