time,acc_x,acc_y,acc_z,mag_x,mag_y,mag_z,gyr_x,gyr_y,gyr_z
1590504189.7271411,-0.16,-4.32,8.54,0.4655555555555556,0.2855555555555556,-0.6166666666666667,0.001090830782496456,-0.001090830782496456,0.007635815477475192
1590504189.7371411,-0.21915963778950043,-4.367327710231601,8.6346554204632,0.4655555555555556,0.2855555555555556,-0.6166666666666667,-0.005362484615716309,0.005362484615716309,0.016025125495151782
1590504189.7471411,-0.16075164987843005,-4.3909774227162215,8.709022577283779,0.4655555555555556,0.2855555555555556,-0.6126566323183205,-0.009817477042468105,0.008341161286678181,0.02181661564992912
1590504189.757141,-0.17268580958596186,-4.342089768689725,8.691567326517294,0.4655555555555556,0.2855555555555556,-0.6077777777777778,0.0005209347787340779,0.003443461148618082,0.0032074743717651934
1590504189.767141,-0.18,-4.356025798282753,8.62589680686899,0.4655555555555556,0.2855555555555556,-0.6077777777777778,0.0028389741905869665,0.002398420643444113,0.002181661564992912
1590504189.777141,-0.18,-4.341587347398193,8.61,0.4655555555555556,0.2855555555555556,-0.6077777777777778,0.0002597291106697379,0.001177407152719702,0.00017315274044649208
1590504189.787141,-0.18,-4.34,8.6326357230864,0.4655555555555556,0.2855555555555556,-0.6077777777777778,0.003292232470228215,0.001090830782496456,-0.0008230581175570537
1590504189.797141,-0.17372835474584283,-4.3462716452541565,8.665086581016629,0.47461459870044925,0.2855555555555556,-0.6175336703953556,0.0016268016499328404,0.0017749611525097017,0.000961560327543282
1590504189.807141,-0.17009283227706865,-4.35,8.68967508703026,0.48,0.2855555555555556,-0.6233333333333333,0.0032674291322175824,0.004373449560529395,0.0
1590504189.817141,-0.1888123716861555,-4.35,8.624156699098455,0.48,0.2855555555555556,-0.6233333333333333,0.0022464366411382095,0.00641543454268814,0.0
1590504189.827141,-0.19912410284997561,-4.35,8.638248205699952,0.48,0.2855555555555556,-0.6233333333333333,0.00019109111470950405,0.004554414244695328,0.000995285225141704
1590504189.837141,-0.17745215405213832,-4.35,8.685095691895723,0.48,0.2855555555555556,-0.6233333333333333,-0.0008198628146305173,0.0060030487592468585,0.001090830782496456
1590504189.847141,-0.17944052792531787,-4.368881055850636,8.662237888298728,0.466363681885652,0.2792618702720103,-0.60340332993544,-0.0021206326288918708,0.002425777309397076,0.001090830782496456
1590504189.857141,-0.18918866415266827,-4.379188664152668,8.687565992458005,0.4655555555555556,0.2788888888888889,-0.6022222222222222,-0.002181661564992912,0.002181661564992912,0.001090830782496456
1590504189.867141,-0.19889797904885512,-4.36220404190229,8.592122230462595,0.4655555555555556,0.2788888888888889,-0.6022222222222222,0.0007301952695569934,-0.0007301952695569934,0.0001202118376464876
1590504189.877141,-0.18086692562961437,-4.369566537185193,8.608699611555577,0.4655555555555556,0.2788888888888889,-0.6022222222222222,-0.0009962638662046068,-0.0031779254311975194,-0.0010435473243505314
1590504189.887141,-0.18,-4.358725302115861,8.626912046826208,0.4655555555555556,0.2788888888888889,-0.6022222222222222,-0.001090830782496456,-0.003272492347489368,-0.00047589140672814594
1590504189.897141,-0.17557397226552884,-4.345573972265528,8.657704110937885,0.477358296180812,0.28183957404520305,-0.6022222222222222,-0.001090830782496456,-0.0023068828881005303,0.0004828047296944189
1590504189.907141,-0.17,-4.323423744665926,8.638559361664816,0.4922222222222222,0.2855555555555556,-0.6022222222222222,-0.002899019740189331,0.001621452654042856,0.0019949252613428933
1590504189.917141,-0.1944231376618689,-4.360705229436448,8.597435816450842,0.4922222222222222,0.2855555555555556,-0.6022222222222222,-0.0050485930386037076,0.004845812601664421,0.003069711910550082
1590504189.927141,-0.1862711312069738,-4.363135565603487,8.631186606379078,0.4922222222222222,0.2855555555555556,-0.6022222222222222,-0.00770053481572547,0.006951741181311074,0.004770079616318161
1590504189.937141,-0.18,-4.353588678516228,8.662822642967543,0.4922222222222222,0.2855555555555556,-0.6022222222222222,-0.010125379626167354,0.007635815477475192,0.006153520595580133
1590504189.947141,-0.18,-4.3656440619223655,8.696073436537278,0.4922222222222222,0.2780232294447868,-0.6022222222222222,-0.010339473681357977,0.005929313046655442,0.007113818838585319
1590504189.957141,-0.1870242498972462,-4.3729757501027535,8.705951500205508,0.4922222222222222,0.27111111111111114,-0.6022222222222222,-0.006752569837722615,0.004363323129985824,0.005337135073916076
1590504189.967141,-0.18415872748695505,-4.364158727486955,8.635746002356505,0.4922222222222222,0.27111111111111114,-0.6022222222222222,-0.002268233979392353,0.0024517711701318675,0.003088955156749853
1590504189.977141,-0.18,-4.36,8.627087935733755,0.4922222222222222,0.27111111111111114,-0.6022222222222222,0.0013485553985876427,-0.0002577246160911867,0.0015073838656990907
1590504189.987141,-0.19901275820170108,-4.353662413932766,8.669012758201701,0.4922222222222222,0.27111111111111114,-0.6022222222222222,0.0014903381681069948,-0.004547447766926041,0.00039950738561053884
1590504189.997141,-0.20231972701519443,-4.365360545969611,8.672319727015195,0.4879554038973303,0.2770846567659599,-0.5971020402323518,-0.0014225326744440974,-0.00738277251395892,0.0
1590504190.0071409,-0.2,-4.361572166824369,8.67,0.4866666666666667,0.2788888888888889,-0.5955555555555555,-0.004020329536537633,-0.006716481491702831,-0.0009193339857723607
1590504190.0171409,-0.1911462026264543,-4.36,8.572608228890997,0.4866666666666667,0.2788888888888889,-0.5955555555555555,0.0014314737002441395,-0.002681786808158761,0.0008407681609135314
1590504190.0271409,-0.16747346413637826,-4.352491154712126,8.605053071727243,0.4866666666666667,0.2788888888888889,-0.5955555555555555,-0.00027560230931198684,0.00027560230931198684,0.001090830782496456
1590504190.0371408,-0.1661269722792395,-4.3622539445584785,8.638380916837718,0.4866666666666667,0.2788888888888889,-0.5955555555555555,-0.004432575765344911,0.0024275287756358385,0.0024275287756358385
1590504190.0471408,-0.17556677594582307,-4.37,8.655566775945823,0.4749145841143736,0.2788888888888889,-0.5992667395194375,-0.007152225751075198,0.006308697627971678,0.003272492347489368
1590504190.0571408,-0.18809100960541775,-4.378091009605417,8.66,0.4655555555555556,0.2788888888888889,-0.6022222222222222,-0.004988038775755942,0.006078869558252398,0.003272492347489368
1590504190.0671408,-0.20559423640995997,-4.38,8.59762305436016,0.4655555555555556,0.2788888888888889,-0.6022222222222222,-0.0018117221641591212,0.0029025529466555774,0.0024219586922138003
1590504190.0771408,-0.2035401318340442,-4.367080263668089,8.612299340829779,0.4655555555555556,0.2788888888888889,-0.6022222222222222,0.0010231561313915965,0.0014769992603635611,0.0014769992603635611
1590504190.0871408,-0.18350921890714048,-4.354503072969047,8.64649078109286,0.4655555555555556,0.2788888888888889,-0.6022222222222222,0.00278128328644297,-0.00010841266040365928,-0.0007080343818537172
1590504190.0971408,-0.17817954925031435,-4.354089774625157,8.676359098500628,0.4714630077918937,0.2757079530693222,-0.6022222222222222,0.0037186175529488018,-0.0024292063988747567,-0.0003971607431551773
1590504190.1071408,-0.19,-4.368622240561172,8.67844439859707,0.48,0.27111111111111114,-0.6022222222222222,0.0034227825881642457,-0.004363323129985824,0.0017113912940821228
1590504190.1171408,-0.19,-4.364454076139469,8.580043342627613,0.48,0.27111111111111114,-0.6022222222222222,-0.00036203427841902634,-0.006907018973397763,-0.0014528650609154823
1590504190.1271408,-0.18186962991407862,-4.36,8.61691259060145,0.48,0.27111111111111114,-0.6022222222222222,-0.0019777165787775953,-0.0023145006997883563,-0.00040788997243063367
1590504190.1371408,-0.1987427285698606,-4.353752423810047,8.642495152379908,0.48,0.27111111111111114,-0.6022222222222222,-0.00013714703779493884,0.0002721789023021927,-0.0006815048423993243
1590504190.1471407,-0.19001367861472937,-4.363324214256847,8.65,0.46223438099087055,0.27111111111111114,-0.5977808174699398,-0.0018160618302929309,-0.0010893386770955843,0.00036261552389823745
1590504190.1571407,-0.18,-4.364370907516641,8.644370907516642,0.4533333333333333,0.27111111111111114,-0.5955555555555555,-0.001430376139978983,-0.0015676228291561169,0.001090830782496456
1590504190.1671407,-0.17376798845923788,-4.372464023081524,8.596375919214665,0.4533333333333333,0.27111111111111114,-0.5955555555555555,0.0,-0.000411023779942808,0.000411023779942808
1590504190.1771407,-0.18113094919905207,-4.374434525400474,8.59782737299763,0.4533333333333333,0.27111111111111114,-0.5955555555555555,0.0006070991012365123,0.0006070991012365123,0.0012141982024730246
1590504190.1871407,-0.18730952456068398,-4.375380950878632,8.636142852635896,0.4533333333333333,0.27111111111111114,-0.5955555555555555,0.0007973454396207966,0.0005038600967451371,0.002181661564992912
1590504190.1971407,-0.1806932832760198,-4.3886134334479605,8.67584030034388,0.4533333333333333,0.27111111111111114,-0.5955555555555555,7.562547384723983e-05,-0.0009395798348019763,0.002181661564992912
1590504190.2071407,-0.2,-4.374808973789427,8.67557307863172,0.4988888888888889,0.27111111111111114,-0.6022222222222222,0.001090830782496456,-0.001090830782496456,-0.001132506236647809
1590504190.2171407,-0.18021751452458554,-4.38,8.613840867224033,0.4988888888888889,0.27111111111111114,-0.6022222222222222,0.001090830782496456,0.0010671036285906596,0.0007193114703623718
1590504190.2271407,-0.1553890053884745,-4.387305497305762,8.64113848114034,0.4988888888888889,0.27111111111111114,-0.6022222222222222,0.001090830782496456,0.0005878492964787262,-0.0012998876202748226
1590504190.2371407,-0.17405432500425597,-4.377972837497872,8.672027162502127,0.4988888888888889,0.27111111111111114,-0.6022222222222222,0.0017468107366668708,0.000655979954170415,-0.00021372170248166664
1590504190.2471406,-0.19,-4.363843339725624,8.68,0.47836668797429976,0.2758996246578486,-0.6063266624051401,0.002853249019459236,0.001090830782496456,0.00041924332803013227
1590504190.2571406,-0.20231201566890913,-4.36,8.673843992165546,0.4655555555555556,0.2788888888888889,-0.6088888888888889,0.0019294597788668897,0.001090830782496456,0.0006715162843112391
1590504190.2671406,-0.21,-4.353637598551034,8.587288781163434,0.4655555555555556,0.2788888888888889,-0.6088888888888889,0.00039680044738317965,0.002478891452723009,0.0017848611176097323
1590504190.2771406,-0.20458941448765278,-4.35,8.567052927561736,0.4655555555555556,0.2788888888888889,-0.6088888888888889,0.0005902033228197699,0.006813712284407988,0.0010012549193533721
1590504190.2871406,-0.18973601448584773,-4.356842657009435,8.613949299533022,0.4655555555555556,0.2788888888888889,-0.6088888888888889,0.00034441269250078707,0.009071058952472436,-0.00037320904499783445
1590504190.2971406,-0.1731181261019226,-4.3731181261019225,8.656881873898078,0.4700595154805549,0.2788888888888889,-0.6113140980792732,-0.0007506959889281713,0.006615411096770338,-0.001090830782496456
1590504190.3071406,-0.18,-4.375275615303537,8.654724384696463,0.48,0.2788888888888889,-0.6166666666666667,-0.000515350425525656,0.003847972704460168,-0.0005754803569708
1590504190.3171406,-0.19429601733754928,-4.3652346608874835,8.636173304437417,0.48,0.2788888888888889,-0.6166666666666667,-0.001090830782496456,0.0037923102067860944,0.0005198178592967265
1590504190.3271406,-0.20521726138161364,-4.355217261381614,8.624348215855159,0.48,0.2788888888888889,-0.6166666666666667,-4.7399080582373725e-05,0.0022764597261576594,0.001090830782496456
1590504190.3371406,-0.20686158753252568,-4.360292381298788,8.664015556363841,0.48,0.2788888888888889,-0.6166666666666667,0.001090830782496456,0.0,0.0007165892376328108
1590504190.3471406,-0.20768628845811846,-4.3758954294860395,8.71,0.47680755626691956,0.27387219159404824,-0.6107378425909459,0.001986309155607543,0.0008954783731110867,0.00044773918655554337
1590504190.3571405,-0.1795829252642599,-4.37520853736787,8.67874877579278,0.4722222222222222,0.26666666666666666,-0.6022222222222222,0.003272492347489368,0.0010453349864617686,-0.0006136590853002587
1590504190.3671405,-0.16327933556104413,-4.366558671122088,8.582793355610441,0.4722222222222222,0.26666666666666666,-0.6022222222222222,0.003272492347489368,0.000733110764884235,-0.001448550800108677
1590504190.3771405,-0.18054744965633668,-4.353150850114554,8.570547449656337,0.4722222222222222,0.26666666666666666,-0.6022222222222222,0.002525365994591759,0.0003437044295988472,-0.001090830782496456
1590504190.3871405,-0.19533720221043488,-4.35,8.606686011052174,0.4722222222222222,0.26666666666666666,-0.6022222222222222,0.0010172646722828131,0.0,-0.0005086323361414066
1590504190.3971405,-0.20534130129106481,-4.35,8.656706506455324,0.47993743519820475,0.26666666666666666,-0.6057830897495988,0.0005826455866881556,0.0005826455866881556,0.0011652911733763113
1590504190.4071405,-0.21526280362328595,-4.355262803623286,8.669474392753427,0.4866666666666667,0.26666666666666666,-0.6088888888888889,0.0005167479630450353,0.0016649136019478766,0.00045941310663865005
1590504190.4171405,-0.1971697988789977,-4.365707550280251,8.631462248598746,0.4866666666666667,0.26666666666666666,-0.6088888888888889,0.0018677914615030813,0.002181661564992912,0.0007769606790066254
1590504190.4271405,-0.18,-4.364186948570051,8.633252205719797,0.4866666666666667,0.26666666666666666,-0.6088888888888889,0.0026383868034869666,0.002181661564992912,0.0009134504769881091
1590504190.4371405,-0.18,-4.36,8.66605811653735,0.4866666666666667,0.26666666666666666,-0.6088888888888889,0.002181661564992912,0.002181661564992912,-0.00035033375655713046
1590504190.4471405,-0.18,-4.36,8.697963639129773,0.4866666666666667,0.26666666666666666,-0.6088888888888889,0.002181661564992912,0.002181661564992912,-0.001046404280066165
1590504190.4571404,-0.1751768275338959,-4.354823172466104,8.674823172466104,0.4722222222222222,0.2788888888888889,-0.6077777777777778,0.00848287190192252,-0.004401900913419139,-0.0030287179894402405
1590504190.4671404,-0.19820301994083067,-4.348203019940831,8.618984900295846,0.4722222222222222,0.2788888888888889,-0.6077777777777778,0.011355713158009076,-0.008083220810519709,-0.006796369911615833
1590504190.4771404,-0.18709725763108936,-4.350838903052436,8.601224936264039,0.4722222222222222,0.2788888888888889,-0.6077777777777778,0.010999817952277275,-0.0077273256047879066,-0.008726646259971648
1590504190.4871404,-0.1574360981336986,-4.345127803732603,8.657691705598904,0.4722222222222222,0.2788888888888889,-0.6077777777777778,0.008698763810843434,-0.006544984694978735,-0.008167289644159312
1590504190.4971404,-0.15527200475037684,-4.36,8.685272004750377,0.47046488730542996,0.2788888888888889,-0.6045559970969919,0.00516661065912335,-0.005969898188260876,-0.006544984694978735
1590504190.5071404,-0.1734845871955163,-4.353030825608967,8.706969174391032,0.4655555555555556,0.2788888888888889,-0.5955555555555555,0.002462775641404749,-0.003222994636837179,-0.006544984694978735
1590504190.5171404,-0.19720231213872833,-4.351468208092486,8.639722543352601,0.4655555555555556,0.2788888888888889,-0.5955555555555555,-0.001716324502864366,0.0014111440989751842,-0.004043009813507095
1590504190.5271404,-0.1983187504519488,-4.36,8.603362499096102,0.4655555555555556,0.2788888888888889,-0.5955555555555555,-0.002818774894244765,0.002635379018237515,-0.002181661564992912
1590504190.5371404,-0.19,-4.36,8.634157554671967,0.4655555555555556,0.2788888888888889,-0.5955555555555555,-0.0027577091327873875,0.002181661564992912,-0.0016668783502909314
1590504190.5471404,-0.19449954432607397,-4.36,8.654499544326073,0.4685552517729382,0.2753892433019425,-0.5985552517729382,-0.002181661564992912,0.002181661564992912,-0.0006000066366875795
1590504190.5571404,-0.18978303582626144,-4.3497830358262615,8.66510848208687,0.4722222222222222,0.27111111111111114,-0.6022222222222222,4.7334239882585154e-05,0.0032961594674306605,-0.001671746853656623
1590504190.5671403,-0.1749376109215017,-4.350124778156997,8.614313720136519,0.4722222222222222,0.27111111111111114,-0.6022222222222222,0.0010772195970329508,0.0032588811620258627,-0.0021680503795294065
1590504190.5771403,-0.17923872216844144,-4.350761277831559,8.592335527589546,0.4722222222222222,0.27111111111111114,-0.6022222222222222,-0.0010077882532268322,0.0016777674383794958,-0.001594724909109872
1590504190.5871403,-0.18784199210112992,-4.3421580078988695,8.645106055292091,0.4722222222222222,0.27111111111111114,-0.6022222222222222,-0.002652465853984505,0.0003846243490090662,-0.0014754551315055223
1590504190.5971403,-0.1814461946659754,-4.348553805334024,8.689876637338172,0.4722222222222222,0.27111111111111114,-0.6022222222222222,-0.004047812398160197,-0.001708395467254472,0.000617564684758016
1590504190.6071403,-0.1656671796926061,-4.3628335898463035,8.75,0.48,0.27111111111111114,-0.6022222222222222,-0.004517871481451662,-0.003581589050421045,0.001090830782496456
1590504190.6171403,-0.19910773130544995,-4.37910773130545,8.744200253485424,0.48,0.27111111111111114,-0.6022222222222222,-0.00545415391248228,-0.0052594910808276525,0.0010421650745827992
1590504190.6271403,-0.18565735892961024,-4.35434264107039,8.622828679464805,0.48,0.27111111111111114,-0.6022222222222222,-0.004837031785677275,-0.0004737086556914511,0.0006171221268050049
1590504190.6371403,-0.19763290218525664,-4.340789032604914,8.63,0.48,0.27111111111111114,-0.6022222222222222,-0.0031003521367225576,0.0010047606771130507,0.0020095213542261014
1590504190.6471403,-0.17486931084264115,-4.357303966263961,8.637303966263962,0.48,0.27002904203496864,-0.6038453258364359,-0.0021531496138357978,0.0005311594156696709,0.0005311594156696709
1590504190.6571403,-0.19089233753637247,-4.379107662463627,8.655538312318138,0.48,0.26666666666666666,-0.6088888888888889,-0.005356814987177067,0.0018896447890772749,0.002181661564992912
1590504190.6671402,-0.2,-4.37,8.589035548686244,0.48,0.26666666666666666,-0.6088888888888889,-0.005506756571545478,5.260265906319845e-05,0.0016099448442130847
1590504190.6771402,-0.2,-4.364947252841888,8.600316482948674,0.48,0.26666666666666666,-0.6088888888888889,-0.006544984694978735,0.0016419999961204941,0.0016419999961204941
1590504190.6871402,-0.20665473558620207,-4.363327367793102,8.63,0.48,0.26666666666666666,-0.6088888888888889,-0.005819065652298355,0.00036686395829196167,0.002544621086333102
1590504190.6971402,-0.21564270071638025,-4.3670951338109205,8.63871459856724,0.4788703298153578,0.2673121924864622,-0.6100185590735311,-0.004363323129985824,-0.003747799966201587,0.002955620601681222
1590504190.7071402,-0.18099521553878747,-4.359004784461212,8.671990431077575,0.4722222222222222,0.27111111111111114,-0.6166666666666667,-0.003872188325984004,-0.005562715086975095,0.00010856117449281567
1590504190.7171402,-0.1750227860245716,-4.37,8.61986328385257,0.4722222222222222,0.27111111111111114,-0.6166666666666667,-0.002724591386539798,-0.004911224090935393,4.971139402683506e-06
1590504190.7271402,-0.18533084360537047,-4.359338312789259,8.627315905237593,0.4722222222222222,0.27111111111111114,-0.6166666666666667,-0.0010186519047104099,-0.004291144252199778,0.0005093259523552049
1590504190.7371402,-0.19,-4.35,8.667874958916116,0.4722222222222222,0.27111111111111114,-0.6166666666666667,0.0,-0.0024134675878299595,0.00042951237982970415
1590504190.7471402,-0.19,-4.351845845211699,8.68,0.47488844308356504,0.2702907354614672,-0.6152310092797898,-0.0002013504776644815,-0.0006881298271674929,0.0012921812601609374
1590504190.7571402,-0.19,-4.360891489475658,8.680891489475657,0.4866666666666667,0.26666666666666666,-0.6088888888888889,-0.0011880771987283316,0.001090830782496456,0.002084415148761036
1590504190.7671402,-0.19,-4.367510751169288,8.667596760523589,0.4866666666666667,0.26666666666666666,-0.6088888888888889,-0.00299626633994318,0.0008192958575130333,0.0016339006324633015
1590504190.7771401,-0.18091584449636117,-4.356971948165453,8.612112207338185,0.4866666666666667,0.26666666666666666,-0.6088888888888889,-0.005123844697270485,-0.0006606184304235894,0.003272492347489368
1590504190.7871401,-0.16026461996677932,-4.35,8.64052923993356,0.4866666666666667,0.26666666666666666,-0.6088888888888889,-0.004363323129985824,-0.0021672287847216086,0.0032291940066754587
1590504190.7971401,-0.18232877138413686,-4.347671228615863,8.684657542768273,0.4866666666666667,0.26951294280283394,-0.6057838603767064,-0.00461735268110716,-0.0008368012313751196,0.0010161182044853456
1590504190.80714,-0.19365096133530532,-4.347301922670611,8.689047115994084,0.4866666666666667,0.2788888888888889,-0.5955555555555555,-0.005055895811456741,-0.000796516202051078,0.003168548826909207
1590504190.81714,-0.19765521184519233,-4.36,8.648896906606732,0.4866666666666667,0.2788888888888889,-0.5955555555555555,-0.004107546420216096,-0.0019258848552231845,0.0013466074922661834
1590504190.82714,-0.18873033341485285,-4.362539333170295,8.58507866634059,0.4866666666666667,0.2788888888888889,-0.5955555555555555,-0.003272492347489368,-0.001090830782496456,0.002735658122827176
1590504190.83714,-0.17629075399407215,-4.368872261982216,8.627418492011856,0.4866666666666667,0.2788888888888889,-0.5955555555555555,-0.0028678763751775545,-0.001090830782496456,0.0037126728887960413
1590504190.84714,-0.17088786849342344,-4.35,8.640887868493424,0.484792277624995,0.28017136560161165,-0.5961474678845045,-0.002375364421679917,-0.001090830782496456,-0.0009939793541529534
1590504190.85714,-0.17610719129926208,-4.35,8.646107191299263,0.47377370725711343,0.2877103874322674,-0.5996270164217302,-0.0035140440177588326,-0.001090830782496456,-0.00042463955611349573
1590504190.86714,-0.1900297945742512,-4.35,8.616567351419164,0.4655555555555556,0.2933333333333333,-0.6022222222222222,-0.005092710374233101,-0.00036144353824917844,0.001458774488494555
1590504190.87714,-0.21,-4.34527902472371,8.597209752762904,0.4655555555555556,0.2933333333333333,-0.6022222222222222,-0.011179791334282693,0.0036657233598875434,0.0059082586764204765
1590504190.88714,-0.22401926379451953,-4.33649518405137,8.681543343537669,0.4655555555555556,0.2933333333333333,-0.6022222222222222,-0.018656358411696834,0.007309616919728734,0.01298824105072518
1590504190.89714,-0.25141404348772334,-4.32151573907366,8.741414043487724,0.4655555555555556,0.2901910144717259,-0.6031649178807045,-0.0230616946488453,0.009189390909230823,0.024141432163783377
1590504190.90714,-0.25971252201096096,-4.271724867934234,8.749712522010961,0.4655555555555556,0.2717499510867534,-0.6086972368961963,-0.023966918230948635,0.011905061655540828,0.031383220820610055
1590504190.91714,-0.354205191850243,-4.098786155066019,8.651401730616747,0.4655555555555556,0.27111111111111114,-0.6088888888888889,-0.021184500139087493,0.005933364332772291,0.048067478925854966
1590504190.92714,-0.3927298592392932,-4.0215134271738044,8.668486572826195,0.4655555555555556,0.27111111111111114,-0.6088888888888889,-0.027701243165606817,-0.0010584336418562748,0.09979947341554216
1590504190.93714,-0.4483176173165286,-3.957748703659279,8.631232123415327,0.4655555555555556,0.27111111111111114,-0.6088888888888889,-0.031204994875592276,-0.010393921860211843,0.15702023090356473
1590504190.94714,-0.5595302302468114,-3.68650621169455,8.665179062448235,0.46701963815728936,0.27111111111111114,-0.6105969852575783,-0.05016155629661829,-0.02754043261687516,0.24995524582001796
1590504190.95714,-0.6486662944202928,-3.0149996011645994,9.073333067443066,0.4722222222222222,0.27111111111111114,-0.6166666666666667,-0.12762720155208535,-0.05563236990731925,0.42106068204363206
1590504190.96714,-0.5509432082955374,-2.923622716681785,8.932111591341622,0.4722222222222222,0.27111111111111114,-0.6166666666666667,-0.11616706602109719,-0.058991375149160606,0.4473399583474497
1590504190.97714,-0.5136426373548192,-2.9385429450580722,8.611326681251445,0.4722222222222222,0.27111111111111114,-0.6166666666666667,-0.06896827727637647,-0.0728255028846822,0.5555716635724127
1590504190.98714,-0.4272088466900268,-3.0076577747635733,8.607475603782827,0.4722222222222222,0.27111111111111114,-0.6166666666666667,-0.026788873969752082,-0.06452579930716396,0.748484508901534
1590504190.99714,-0.3195589187715172,-2.9925016191157923,8.73308756859938,0.4731043846791878,0.27111111111111114,-0.616029549336636,-0.04974518551138761,-0.08275879597524755,0.9019238926593861
1590504191.00714,-0.3123166280561991,-2.827683371943801,8.806949884168597,0.4922222222222222,0.27111111111111114,-0.6022222222222222,-0.036317460239893885,-0.07887253236365223,0.990390357936406
1590504191.01714,-0.3193070115498075,-2.8206929884501926,8.827921034649423,0.4922222222222222,0.27111111111111114,-0.6022222222222222,-0.024116939445840754,-0.07658493471476727,1.0559681572044415
1590504191.02714,-0.3723173968153371,-3.025491364968708,8.737808761784045,0.4922222222222222,0.27111111111111114,-0.6022222222222222,-0.02937275545747943,-0.09045927927728097,1.1545799168410842
1590504191.03714,-0.38,-3.1086189672924833,8.828618967292483,0.4922222222222222,0.27111111111111114,-0.6022222222222222,-0.03234830522764536,-0.09403741824304421,1.2065005936693762
1590504191.04714,-0.38,-3.090241855981773,8.810241855981774,0.4922222222222222,0.27111111111111114,-0.6022222222222222,-0.027336725549873667,-0.09704436604970722,1.2506024948337668
1590504191.0571399,-0.39764782137093574,-3.1395597767136696,8.777647821370936,0.4922222222222222,0.2466666666666667,-0.6088888888888889,-0.028570162319169125,-0.10253809355466686,1.29411088940763
1590504191.0671399,-0.43523924712603956,-3.1616626350588617,8.770705646554704,0.4922222222222222,0.2466666666666667,-0.6088888888888889,-0.02459456889154276,-0.10025204073779084,1.3239580348761864
1590504191.0771399,-0.4670056400196175,-3.1367231486022558,8.642994359980383,0.4922222222222222,0.2466666666666667,-0.6088888888888889,-0.015678378695966597,-0.10096655360119827,1.3408344055586525
1590504191.0871398,-0.5357959511281548,-3.2338214572371355,8.580127530544903,0.4922222222222222,0.2466666666666667,-0.6088888888888889,-0.03162018126798832,-0.12067927196268939,1.3514976052398822
1590504191.0971398,-0.5956450548470525,-3.2861894229911712,8.542721840720592,0.4922222222222222,0.2466666666666667,-0.6088888888888889,-0.035700509058075605,-0.11088648526647987,1.363738588610144
1590504191.1071398,-0.6126301132887492,-3.361068753823759,8.822602265774984,0.5066666666666667,0.22666666666666666,-0.6166666666666667,-0.05609566404274295,-0.1274001110231582,1.383457295366665
1590504191.1171398,-0.6181264367816092,-3.248149425287356,8.941896551724138,0.5066666666666667,0.22666666666666666,-0.6166666666666667,-0.02475684344872703,-0.10840601086740641,1.4054627411945169
1590504191.1271398,-0.62368914190832,-3.05524343236672,8.7173314356876,0.5066666666666667,0.22666666666666666,-0.6166666666666667,0.01752751101711368,-0.08728757239307203,1.4366452503411882
1590504191.1371398,-0.672972024383736,-2.883076907288438,8.4015034584676,0.5066666666666667,0.22666666666666666,-0.6166666666666667,-0.009615323738242811,-0.10775577131262178,1.456529893637598
1590504191.1471398,-0.7160160916237351,-3.0724708031444345,8.857770571211592,0.5066666666666667,0.22666666666666666,-0.6166666666666667,-0.08568046928800897,-0.1359280474421648,1.4762504869282782
1590504191.1571398,-0.7609085203201004,-3.1750296563627805,8.946063078612898,0.5133333333333333,0.21333333333333332,-0.6022222222222222,-0.041028588245816955,-0.12226568181808842,1.5068272573855979
1590504191.1671398,-0.9283739855574683,-3.376979364618033,8.56767980504818,0.5133333333333333,0.21333333333333332,-0.6022222222222222,-0.03244658835180503,-0.11758187161773805,1.5386806043516996
1590504191.1771398,-1.0188378223252057,-3.4605405922493144,8.82062158542548,0.5133333333333333,0.21333333333333332,-0.6022222222222222,-0.05523437818265382,-0.13615926944221093,1.5711441840379023
1590504191.1871397,-1.0382729728131224,-3.3606405378230786,8.840640537823077,0.5133333333333333,0.21333333333333332,-0.6022222222222222,-0.03354835307943218,-0.1338349132316294,1.622272042811427
1590504191.1971397,-1.030003942984445,-3.220067030735564,8.700067030735562,0.5133333333333333,0.21333333333333332,-0.6022222222222222,-0.021822207117378777,-0.13744295814303048,1.6754907052545926
1590504191.2071397,-1.0208208530390612,-3.0547753547031005,8.69082085303906,0.5429105846519141,0.17049731418228528,-0.6154809900546895,-0.031829511711980035,-0.14345241623178395,1.7245792726186058
1590504191.2171397,-1.0748360780435857,-3.1835518959418856,8.825191115506028,0.5455555555555556,0.16666666666666666,-0.6166666666666667,-0.04954636140169731,-0.13828814017077312,1.7945179911640594
1590504191.2271397,-1.098764309892367,-3.1516475868101774,8.554004487886509,0.5455555555555556,0.16666666666666666,-0.6166666666666667,-0.03562548040363735,-0.14785874585693937,1.8328004139087246
1590504191.2371397,-1.120288667141839,-3.19,8.922758731290093,0.5455555555555556,0.16666666666666666,-0.6166666666666667,-0.04788634397836945,-0.15289039152541326,1.8857297476849748
1590504191.2471397,-1.1950267284390592,-3.19,8.601385067712046,0.5455555555555556,0.16666666666666666,-0.6166666666666667,-0.019352041717879256,-0.1414766706212172,1.916709847282078
1590504191.2571397,-1.3085615772666266,-3.292662563058268,8.640864534641551,0.5577777777777778,0.12777777777777774,-0.6377777777777778,-0.05141426706454827,-0.1687766434201552,1.951484582593794
1590504191.2671397,-1.4080192307692307,-3.406473076923077,8.891086538461538,0.5577777777777778,0.12777777777777774,-0.6377777777777778,-0.05378529970734208,-0.1695820218729524,1.9846059209870337
1590504191.2771397,-1.3542882744495648,-3.146432411674347,8.56024022870797,0.5577777777777778,0.12777777777777774,-0.6377777777777778,-0.02708929024764123,-0.16472855060043953,2.022686569610997
1590504191.2871397,-1.45,-3.29,8.661374600662388,0.5577777777777778,0.12777777777777774,-0.6377777777777778,-0.03992567270516902,-0.16944308491767102,2.0460363444422955
1590504191.2971396,-1.45,-3.29,8.858065007766934,0.5577777777777778,0.12777777777777774,-0.6377777777777778,-0.045960058818364596,-0.17279552164722412,2.0527412179014015
1590504191.3071396,-1.4650046411465487,-3.2224791148405303,8.802451267961237,0.5577777777777778,0.09693490430987181,-0.6427793248266275,-0.03681174188011423,-0.17044104408869085,2.0619446585608583
1590504191.3171396,-1.4272058734177215,-3.0145587848101267,8.742867645569621,0.5577777777777778,0.08666666666666667,-0.6444444444444445,-0.025722750886993797,-0.17685896305128387,2.066963917189028
1590504191.3271396,-1.4072816634491063,-2.893657214714582,8.801618462301413,0.5577777777777778,0.08666666666666667,-0.6444444444444445,-0.031386988926822235,-0.15936013575071253,2.0624150644289934
1590504191.3371396,-1.3181376525389208,-2.685654522590815,8.526757761995006,0.5577777777777778,0.08666666666666667,-0.6444444444444445,-0.023283569662153013,-0.16260150345658025,2.051070277458457
1590504191.3471396,-1.384390003288392,-2.7401327314579533,9.02350183851006,0.5577777777777778,0.08666666666666667,-0.6444444444444445,-0.07127151343046595,-0.1683047774266011,2.018472386422625
1590504191.3571396,-1.4513275954814415,-2.6955459924690697,8.48109198493814,0.5755555555555556,0.05111111111111112,-0.6666666666666666,-0.024505140921172938,-0.15273966353828455,1.9805633015203188
1590504191.3671396,-1.5405644642671923,-2.8198989731355666,8.831229955398818,0.5755555555555556,0.05111111111111112,-0.6666666666666666,-0.05677375386828469,-0.16644405458045042,1.9296576135935142
1590504191.3771396,-1.5124901301359848,-2.6763042842520837,8.876343763708144,0.5755555555555556,0.05111111111111112,-0.6666666666666666,-0.037368490746544414,-0.16103550921876233,1.8965645103330027
1590504191.3871396,-1.5457311187967506,-2.594521032735462,8.736621893348348,0.5755555555555556,0.05111111111111112,-0.6666666666666666,-0.02637427564014414,-0.15658646451183805,1.8577269800909408
1590504191.3971395,-1.6553705863427974,-2.6957266950856593,8.92216560765704,0.5755555555555556,0.05111111111111112,-0.6666666666666666,-0.04293401341832478,-0.1455466393263843,1.8200075773739735
1590504191.4071395,-1.6436311053984576,-2.663660025706941,8.796339974293058,0.5433333333333333,0.0033333333333333327,-0.68,-0.038276523067817474,-0.1464794354772161,1.7664637478811682
1590504191.4171395,-1.6666092447587775,-2.588111644354635,8.842618843142207,0.5433333333333333,0.0033333333333333327,-0.68,-0.04260329306672569,-0.11581525931583626,1.723096142328027
1590504191.4271395,-1.732440255603854,-2.5785408946134893,8.619044089661665,0.5433333333333333,0.0033333333333333327,-0.68,-0.03591921059070591,-0.1380031281910812,1.6596022896440072
1590504191.4371395,-1.7492440055287355,-2.6373540193505742,8.887904088459766,0.5433333333333333,0.0033333333333333327,-0.68,-0.05791526780602556,-0.1343371186551946,1.610111160909538
1590504191.4471395,-1.75,-2.569987327944068,8.78622940790911,0.5433333333333333,0.0033333333333333327,-0.68,-0.02931072084047567,-0.13321753652402107,1.5639706861397982
1590504191.4571395,-2.0234851150357556,-2.7608791610500583,8.843908930978547,0.5488888888888889,-0.054444444444444434,-0.7088888888888889,-0.04951722273446157,-0.11714529195092602,1.4929278216104747
1590504191.4671395,-1.9660255703502671,-2.6884916461708084,8.86342379781189,0.5488888888888889,-0.054444444444444434,-0.7088888888888889,-0.02866021191798927,-0.11828767417716642,1.4424065104647756
1590504191.4771395,-1.8148443728267323,-2.563989483504368,8.792279704859638,0.5488888888888889,-0.054444444444444434,-0.7088888888888889,-0.008288593189399115,-0.09985620961320389,1.3987530417606544
1590504191.4871395,-1.8633399024486377,-2.539997536581761,8.596642853623688,0.5488888888888889,-0.054444444444444434,-0.7088888888888889,-0.014181606324187555,-0.0839920892315153,1.3558975570154486
1590504191.4971395,-1.969026114079039,-2.5515525765670106,8.686788996914093,0.5488888888888889,-0.054444444444444434,-0.7088888888888889,-0.02764105190321967,-0.08732958795674185,1.2834544070605667
1590504191.5071394,-2.1213391663077728,-2.628253281048122,8.911673957884716,0.539619924795934,-0.08056607052458992,-0.7291120832735176,-0.03080683958157863,-0.10072956994870684,1.2127196063709615
1590504191.5171394,-2.1951784563395984,-2.6673977947708547,9.183724851504119,0.5366666666666666,-0.08888888888888889,-0.7355555555555555,-0.013212431101417165,-0.06565300608383344,1.13794532758817
1590504191.5271394,-2.2463204375620545,-2.7404577679457924,9.022992910519257,0.5366666666666666,-0.08888888888888889,-0.7355555555555555,-0.0036489029765066783,-0.056886438635998834,1.086142883578238
1590504191.5371394,-2.0180743617195014,-2.5328884574207478,8.779408989457256,0.5366666666666666,-0.08888888888888889,-0.7355555555555555,-0.037064335381934876,-0.08206292126480207,0.9772076201723745
1590504191.5471394,-2.0028525286250884,-2.5557212070623674,8.695688907437987,0.5366666666666666,-0.08888888888888889,-0.7355555555555555,-0.019629669071255566,-0.07542114362263852,0.9240733990350662
1590504191.5571394,-2.117544221629767,-2.5920039411151037,9.13,0.51,-0.11333333333333333,-0.7655555555555555,-0.026683564490669942,-0.037441859374826136,0.8381587919810459
1590504191.5671394,-2.2793734383551865,-2.700037598457987,9.119373438355188,0.51,-0.11333333333333333,-0.7655555555555555,-0.032503476233966634,-0.07076730631641079,0.7750817486668008
1590504191.5771394,-2.13,-2.5536968146942574,8.915162287840039,0.51,-0.11333333333333333,-0.7655555555555555,-0.04156123614508422,-0.038660376986525816,0.7353388963998191
1590504191.5871394,-2.1321313742437336,-2.4631970613656007,8.131970613656007,0.51,-0.11333333333333333,-0.7655555555555555,0.0024704441654066238,-0.04616363815996389,0.7032817043122596
1590504191.5971394,-2.186508643042351,-2.5447629645635264,8.947629645635264,0.51,-0.11333333333333333,-0.7655555555555555,-0.07365226746573343,-0.05506109796100623,0.6676918651080902
1590504191.6071393,-2.254670369475972,-2.614670369475972,8.653860178700796,0.4688888888888889,-0.17888888888888888,-0.7566666666666667,-0.00787408073774277,-0.0475200239093089,0.661569376351088
1590504191.6171393,-2.29,-2.65,8.91,0.4688888888888889,-0.17888888888888888,-0.7566666666666667,-0.02617993877991494,-0.01090830782496456,0.6490443155853912
1590504191.6271393,-2.2823919703690154,-2.6322479308610363,8.833919703690155,0.4688888888888889,-0.17888888888888888,-0.7566666666666667,-0.023690216905228028,-0.017547566157462995,0.642958328780601
1590504191.6371393,-2.0354994742376444,-2.445299684542587,8.789600420609885,0.4688888888888889,-0.17888888888888888,-0.7566666666666667,-0.028117281778481207,-0.02337428989033941,0.590761146584119
1590504191.6471393,-1.9681307789672409,-2.346261557934482,8.592280050629654,0.4688888888888889,-0.17888888888888888,-0.7566666666666667,-0.016664205287733436,0.00832705954358079,0.5430216152470789
1590504191.6571393,-2.0305342414629592,-2.3877098339242395,8.63335864900168,0.47458862557276443,-0.213087308992142,-0.7431297920424623,-0.03586415086375262,-0.0012073841891128926,0.46316186501963547
1590504191.6671393,-2.1352946248922104,-2.45731121422412,8.81991705334045,0.4777777777777778,-0.23222222222222225,-0.7355555555555555,-0.0734341925598378,0.0034100947851286364,0.2960541529586562
1590504191.6771393,-2.05010842340024,-2.41159684336936,8.85074420998456,0.4777777777777778,-0.23222222222222225,-0.7355555555555555,-0.05113033966187858,0.017940376815822823,0.18807771619408747
1590504191.6871393,-1.895850985853551,-2.25828959906179,8.45608810378949,0.4777777777777778,-0.23222222222222225,-0.7355555555555555,-0.0039633864903869595,0.04890172889943597,0.008936329154283523
1590504191.6971393,-2.0195366764363434,-2.402792789175734,8.756593728670655,0.4777777777777778,-0.23222222222222225,-0.7355555555555555,-0.036961894703506304,0.05066864531600754,-0.1493441371578115
1590504191.7071393,-1.980599154211189,-2.440074894276399,8.770674048487587,0.4866000939765346,-0.25317522319426955,-0.7212192917325758,-0.025260671659888146,0.035020960814866366,-0.3522037187969256
1590504191.7171392,-2.059912934264305,-2.5110337193460492,8.79663764475477,0.4866666666666667,-0.2533333333333333,-0.7211111111111111,-0.0018433777000531892,0.057183743241528334,-0.4870921227387023
1590504191.7271392,-2.1206105919003115,-2.5503052959501558,8.611221183800623,0.4866666666666667,-0.2533333333333333,-0.7211111111111111,0.004396625752005965,0.07526732399225547,-0.6581454464317527
1590504191.7371392,-2.1786832814122534,-2.5793416407061267,8.727366562824507,0.4866666666666667,-0.2533333333333333,-0.7211111111111111,0.007563999619105228,0.07526732399225547,-0.7975098965841202
1590504191.7471392,-2.123254691795044,-2.4665093835900884,8.681361164395753,0.4866666666666667,-0.2533333333333333,-0.7211111111111111,0.014710047357728276,0.08676295079766673,-0.9120889464663846
1590504191.7571392,-2.0641100745739642,-2.4124660447443786,8.899449627130178,0.4866666666666667,-0.24109601988639048,-0.7619021559342539,-0.00265963270180403,0.07042602972545853,-1.0592551796390233
1590504191.7671392,-2.1099661912503693,-2.420270469997044,8.698985737511084,0.4866666666666667,-0.24,-0.7655555555555555,0.015319574467209456,0.09713188315444365,-1.1773014513121933
1590504191.7771392,-2.102217336683417,-2.4822613065326635,8.466520100502512,0.4866666666666667,-0.24,-0.7655555555555555,0.026308070285145372,0.10812037897237955,-1.2449229640379529
1590504191.7871392,-2.1172049992817126,-2.620434994971987,8.769907484556816,0.4866666666666667,-0.24,-0.7655555555555555,0.018191785429811532,0.10375764268290999,-1.3430973967965418
1590504191.7971392,-2.066208861808837,-2.70916003481721,9.068217897703722,0.4866666666666667,-0.24,-0.7655555555555555,-0.0012406470718855783,0.09667039061822272,-1.4187709083907105
1590504191.8071392,-1.93,-2.66,8.68,0.4544444444444444,-0.26666666666666666,-0.6788888888888889,0.05345070834232633,0.13526301702956053,-1.4955290028026411
1590504191.8171391,-1.9276226097526765,-2.658415073168451,8.671599887792791,0.4544444444444444,-0.26666666666666666,-0.6788888888888889,0.053519863821360654,0.13578168312231798,-1.498053177787394
1590504191.8271391,-1.780550516620693,-2.560367011080462,8.151945158726448,0.4544444444444444,-0.26666666666666666,-0.6788888888888889,0.05779801759294876,0.16786783640922867,-1.6542057904503593
1590504191.8371391,-1.814944701135247,-2.691042629257176,8.281042629257177,0.4544444444444444,-0.26666666666666666,-0.6788888888888889,0.04447246698309896,0.1098568380871681,-1.7396045284428363
1590504191.8471391,-1.8367419084040668,-2.693258091595933,8.417193358828468,0.4544444444444444,-0.26666666666666666,-0.6788888888888889,0.00845223430022974,0.12884114633950866,-1.7932694385243975
1590504191.857139,-1.8839985744832501,-2.736664290805417,8.600662865288667,0.47648055753543994,-0.23329769541458778,-0.6543343628732082,0.025341795099564857,0.15115275951129972,-1.8600468638724514
1590504191.867139,-1.9224978252273626,-2.8112445630684064,8.90745867931989,0.4933333333333334,-0.20777777777777776,-0.6355555555555555,0.0261856323213657,0.14685392440171358,-1.9228555566114955
1590504191.877139,-1.9817750478981178,-2.890404222547804,8.72209136331192,0.4933333333333334,-0.20777777777777776,-0.6355555555555555,0.03572518963476804,0.142107069422449,-1.972248896263887
1590504191.887139,-1.8677460891773972,-2.8388730445886985,8.731126955411302,0.4933333333333334,-0.20777777777777776,-0.6355555555555555,0.04702865541266246,0.1588482326786229,-1.9876985719840674
1590504191.897139,-1.763285682314105,-2.823346947910256,8.653224416717954,0.4933333333333334,-0.20777777777777776,-0.6355555555555555,0.0574578468112788,0.17417674053839957,-1.9965876550292456
1590504191.907139,-1.7523503061685777,-2.897926683927177,8.6555763777586,0.514603305068106,-0.1515152718987018,-0.6135994557003064,0.048961639092055205,0.1629861139907879,-2.006485250018671
1590504191.917139,-1.76,-2.993222053231939,8.840795817490493,0.5277777777777778,-0.11666666666666667,-0.6,0.009520630049679998,0.13155224297565898,-2.0153623798550027
1590504191.927139,-1.7448352075956264,-3.0151647924043736,8.746264056967197,0.5277777777777778,-0.11666666666666667,-0.6,0.020342154040855636,0.13864336575349737,-1.9984859525703482
1590504191.937139,-1.6777934668071655,-2.9666801144061417,8.71,0.5277777777777778,-0.11666666666666667,-0.6,0.03478293675158012,0.13696108734745843,-1.9658051191093722
1590504191.947139,-1.6850989952427011,-3.0656929666989083,8.664703014271897,0.5277777777777778,-0.11666666666666667,-0.6,0.03517389338260774,0.12976566829385458,-1.940169471837191
1590504191.957139,-1.603190851364064,-3.1,8.754170978363122,0.5335650543535069,-0.053971170429601756,-0.630865475070555,0.028277998632479342,0.14088437436689982,-1.903596978208059
1590504191.967139,-1.568341621371574,-3.1577556763424695,8.863852974056513,0.5344444444444445,-0.04444444444444445,-0.6355555555555555,0.043808707837206744,0.1452613951177208,-1.874723245349251
1590504191.977139,-1.4934563721502847,-3.1497528964319477,8.77901158572779,0.5344444444444445,-0.04444444444444445,-0.6355555555555555,0.05413755259324376,0.1435317671222539,-1.8554222965729228
1590504191.987139,-1.497728041941799,-3.185682715598766,8.564770547831568,0.5344444444444445,-0.04444444444444445,-0.6355555555555555,0.060194081845708805,0.1374694002796729,-1.8420164140197066
1590504191.997139,-1.4667337807606264,-3.23244966442953,8.59489932885906,0.5344444444444445,-0.04444444444444445,-0.6355555555555555,0.0469276866832368,0.13104428388584521,-1.8396415785241642
1590504192.007139,-1.4085168330624565,-3.286853958671929,8.719820292547016,0.5314606712586745,-0.005655393029435296,-0.6283944999097077,0.0431086599702305,0.12829395825466258,-1.8332820743387792
1590504192.017139,-1.334279399882765,-3.279606945390599,8.830655091015668,0.5288888888888889,0.027777777777777776,-0.6222222222222222,0.04354748008643089,0.1325716697455808,-1.8282323914640604
1590504192.027139,-1.2879973332345642,-3.345967998814771,8.772036001333383,0.5288888888888889,0.027777777777777776,-0.6222222222222222,0.04581198387502413,0.13439064330254608,-1.8264876440100313
1590504192.037139,-1.2692913385826772,-3.500236220472441,8.681653543307087,0.5288888888888889,0.027777777777777776,-0.6222222222222222,0.039922688795618326,0.13810604843905916,-1.8205192730177469
1590504192.047139,-1.1816765243902438,-3.467582926829268,8.760604268292683,0.5288888888888889,0.027777777777777776,-0.6222222222222222,0.023551734991855568,0.12959625088559962,-1.8132754718412674
1590504192.057139,-1.1198455827481295,-3.4096911654962594,8.678610244733166,0.5390433061407592,0.06106170099224193,-0.6256070279728457,0.03395050873074114,0.12833263788043792,-1.8030422176116285
1590504192.067139,-1.0908517672990632,-3.3644690230654177,8.577234511532708,0.5488888888888889,0.09333333333333334,-0.6288888888888889,0.03766865479655812,0.13366176365624624,-1.787547056718742
1590504192.077139,-1.1005786629806484,-3.487191086537656,8.508264011058055,0.5488888888888889,0.09333333333333334,-0.6288888888888889,0.04613050456084237,0.14212361342053048,-1.7764314081880326
1590504192.087139,-1.1388816247789508,-3.4850163442473607,8.804918278763196,0.5488888888888889,0.09333333333333334,-0.6288888888888889,0.02448982622355033,0.12284580748504283,-1.771327979937433
1590504192.097139,-1.0075406137184115,-3.4470491467016737,8.794016040367575,0.5488888888888889,0.09333333333333334,-0.6288888888888889,0.03960974115979192,0.1247481529295594,-1.7527593731949858
1590504192.1071389,-0.9466953238258993,-3.5485196048683454,8.778433633390646,0.566511730705116,0.11002865715923266,-0.6344539968308553,0.03614952384694073,0.1281679279266191,-1.7294887605645586
1590504192.1171389,-0.9421675512232254,-3.5621675512232254,8.766502653669676,0.57,0.11333333333333333,-0.6355555555555555,0.03785124921171314,0.12762720155208535,-1.7156780895954475
1590504192.1271389,-0.94,-3.589487513491384,8.642049946034463,0.57,0.11333333333333333,-0.6355555555555555,0.03862659042155879,0.12762720155208535,-1.6971647025599086
1590504192.1371388,-0.8564459686450168,-3.5403716405375136,8.532148656215005,0.57,0.11333333333333333,-0.6355555555555555,0.027545691290278826,0.12914625670881352,-1.668195727858783
1590504192.1471388,-0.8251956328194555,-3.629499554847477,8.608325757930743,0.57,0.11333333333333333,-0.6355555555555555,0.0353760701032496,0.13094237435988046,-1.6494760941529851
1590504192.1571388,-0.83,-3.774322541046494,8.702870952892436,0.5962186077438494,0.12191396859495678,-0.6388924692684091,0.0347376962475682,0.12356650571299313,-1.6292226429077445
1590504192.1671388,-0.8595864199218216,-3.82,8.60905092529317,0.6311111111111111,0.13333333333333333,-0.6433333333333333,0.026612567701087102,0.11235557059713497,-1.5880876779218505
1590504192.1771388,-0.8562939162051325,-3.799440874307699,8.713913879846109,0.6311111111111111,0.13333333333333333,-0.6433333333333333,0.026462227505220856,0.11684087603041013,-1.5522678605782665
1590504192.1871388,-0.8204667510806445,-3.6895869536741914,8.626427105619351,0.6311111111111111,0.13333333333333333,-0.6433333333333333,0.03153226340309112,0.11890055529211367,-1.5106145500189014
1590504192.1971388,-0.8164719111763452,-3.62,8.67922847470467,0.6311111111111111,0.13333333333333333,-0.6433333333333333,0.03240380227084208,0.10332822990210284,-1.4655184896212956
1590504192.2071388,-0.8021669537027657,-3.67102725154493,8.735778543207376,0.7924396942784138,0.10446943346953477,-0.6299322369679983,0.02995845018859885,0.1011653552322911,-1.4089174144017975
1590504192.2171388,-0.7634491220647345,-3.743101755870531,8.813771948381637,0.9788888888888888,0.07111111111111111,-0.6144444444444445,0.021253592814487007,0.10129837256255188,-1.31035836596516
1590504192.2271388,-0.7328895556874889,-3.668668667062467,8.688538534362413,0.9788888888888888,0.07111111111111111,-0.6144444444444445,0.018728294312106278,0.09076207107153764,-1.2285870220083315
1590504192.2371387,-0.7153448894202032,-3.7122426778242676,8.568793783622235,0.9788888888888888,0.07111111111111111,-0.6144444444444445,0.02072578486743266,0.08435127764541782,-1.126338530705178
1590504192.2471387,-0.6370082641606025,-3.7214754817713094,8.49827878743555,0.9788888888888888,0.07111111111111111,-0.6144444444444445,0.023743449538980294,0.08362290749016278,-1.008566995833148
1590504192.2571387,-0.5764181511619383,-3.8040356278865186,8.708071255773039,1.264140051641701,0.13244011110296572,-0.6479614560678999,0.025479827094499172,0.0633813387868348,-0.8809652077157434
1590504192.2671387,-0.5504079473853655,-3.8308158947707307,8.806019868463414,1.4233333333333331,0.16666666666666666,-0.6666666666666666,0.002493162660909782,0.04804105458640362,-0.7552049075103635
1590504192.2771387,-0.5116276053728578,-3.8029069013432144,8.765813802686429,1.4233333333333331,0.16666666666666666,-0.6666666666666666,0.01853169419764613,0.04071582736086286,-0.6549924001013792
1590504192.2871387,-0.46433823529411766,-3.735808823529412,8.774264705882352,1.4233333333333331,0.16666666666666666,-0.6666666666666666,0.012023201051192554,0.03506700133143019,-0.5631173290200638
1590504192.2971387,-0.42896229050279333,-3.6132265363128493,8.704264245810055,1.4233333333333331,0.16666666666666666,-0.6666666666666666,0.011879756624058189,0.035192669124156396,-0.5088643635686612
1590504192.3071387,-0.3992470399357817,-3.480752960064218,8.600564720048164,1.4097591366200635,0.167628782304279,-0.6671895556001516,0.020705251067031666,0.036574901594854575,-0.4682564182578371
1590504192.3171387,-0.3093834977982064,-3.5368721674005976,8.590631609398606,0.7022222222222222,0.21777777777777774,-0.6944444444444444,0.0049112104305319235,0.019019816826470783,-0.3976808379662392
1590504192.3271387,-0.24803910928506367,-3.610392449466075,8.631372894823542,0.7022222222222222,0.21777777777777774,-0.6944444444444444,0.012020617397263463,0.02078992526926398,-0.3476968312354537
1590504192.3371387,-0.1987645470404091,-3.6287645470404093,8.716773245393934,0.7022222222222222,0.21777777777777774,-0.6944444444444444,0.015588737473197077,0.015388959063345644,-0.3070577737130718
1590504192.3471386,-0.12408018755083489,-3.6169398593368736,8.736530070331563,0.7022222222222222,0.21777777777777774,-0.6944444444444444,0.008927318206706197,0.012221678316401492,-0.27001342031118175
1590504192.3571386,-0.08375004957759885,-3.6687502478879943,8.704999801689604,0.6472214950841056,0.23777804219163834,-0.6944444444444444,0.013226252932767284,0.008590276187928304,-0.24011896916279662
1590504192.3671386,-0.09897718467498924,-3.6865342229875164,8.742840292724924,0.5555555555555556,0.27111111111111114,-0.6944444444444444,0.004852952599167509,0.007034614164160421,-0.2110448581498321
1590504192.3771386,-0.11483868289523935,-3.6651613171047606,8.708710293409494,0.5555555555555556,0.27111111111111114,-0.6944444444444444,0.004398517062709046,0.007635815477475192,-0.19328821209821206
1590504192.3871386,-0.12841599504029758,-3.6768319900805952,8.716239925604464,0.5555555555555556,0.27111111111111114,-0.6944444444444444,0.0046495563157834836,0.005340708863651665,-0.186532063806894
1590504192.3971386,-0.10898094190646597,-3.593648943679312,8.770355061639226,0.5555555555555556,0.27111111111111114,-0.6944444444444444,0.00847850146140575,0.007498832672667202,-0.1879822013817142
1590504192.4071386,-0.06686806748945477,-3.488187392594907,8.657583190126543,0.5461597580239199,0.2766789911298582,-0.7010563019667065,0.01774112460737284,0.017597208563658064,-0.19492916874118948
1590504192.4171386,-0.01234899985327921,-3.4249161246148576,8.638741624688219,0.5255555555555556,0.2888888888888889,-0.7155555555555555,0.028176745419424887,0.030287025775097103,-0.22176077122486604
1590504192.4271386,0.02,-3.390342043343653,8.544828978328173,0.5255555555555556,0.2888888888888889,-0.7155555555555555,0.03607203810402404,0.03793435304736722,-0.24950778496331633
1590504192.4371386,0.00804591079302475,-3.5096556690523144,8.739196561122068,0.5255555555555556,0.2888888888888889,-0.7155555555555555,0.01385464585327183,0.018192928530117544,-0.2915654530191658
1590504192.4471385,-0.004775642956092272,-3.5652243570439075,8.846570499307354,0.5255555555555556,0.2888888888888889,-0.7155555555555555,-0.005975095746754062,0.006398143353120062,-0.3339061079473542
1590504192.4571385,-0.053503962109481745,-3.5454986792968395,8.824501320703162,0.5078317191405815,0.26525710700225685,-0.7053509224681462,0.002418824610609,0.013508457344768937,-0.3746292844875166
1590504192.4671385,-0.0637337536372454,-3.451423132880698,8.821866876818623,0.4888888888888889,0.24,-0.6944444444444444,0.005405748957778872,0.018112631484911507,-0.4148887593602035
1590504192.4771385,-0.05866760542863386,-3.4871154920002914,8.498873242856103,0.4888888888888889,0.24,-0.6944444444444444,0.01941770955584304,0.03551345549998289,-0.45041724273396244
1590504192.4871385,-0.08041939815180475,-3.5712581944554143,8.65904983808546,0.4888888888888889,0.24,-0.6944444444444444,0.012357981527380275,0.02762961248233066,-0.4880395530750057
1590504192.4971385,0.012691444711348102,-3.9547522635482935,4.414898503286435,0.4888888888888889,0.24,-0.6944444444444444,-0.002835791461938032,0.019564320610568713,-0.52985754067028
1590504192.5071385,1.4590711566780583,-1.1943941540940792,-3.1983693145508596,0.45197024564783167,0.29369984471426497,-0.6776632429712366,-2.2561759669130166,0.9711580592777591,-2.320047290098141
1590504192.5171385,0.16897068801737003,0.009324422128737297,-2.020168498665581,0.42777777777777776,0.3288888888888889,-0.6666666666666666,-3.7455295348684388,-0.020875664928129867,-2.03762105350501
1590504192.5271385,-0.690551053881368,-0.4539849200714828,-0.3488805111508238,0.42777777777777776,0.3288888888888889,-0.6666666666666666,-3.838002054645844,-0.5637988100132478,-0.9723839010804183
1590504192.5371385,-0.33791984966706157,-0.34958576739245883,-0.30833408227460274,0.42777777777777776,0.3288888888888889,-0.6666666666666666,-3.933625192856275,-0.2352584530566133,-0.738859808064611
1590504192.5471385,-0.25303899348621395,-0.3213245293120371,-0.25171446417417687,0.42777777777777776,0.3288888888888889,-0.6666666666666666,-3.9755596804056577,-0.15303656041419283,-0.5659942200778795
1590504192.5571384,-0.23809806678383127,-0.37619613356766257,-0.16668646748681898,0.4231286076938098,0.3483308728763913,-0.657157000585823,-3.9912363790847465,-0.10852711879986707,-0.3742667637587364
1590504192.5671384,-0.24891383519430105,-0.22382038660103254,-0.35966262456477366,0.4033333333333333,0.4311111111111111,-0.6166666666666667,-3.725649132957824,0.07387400125426544,-0.16988365571232733
1590504192.5771384,-0.11277820498736682,-0.4817580284887766,1.3162909663480904,0.4033333333333333,0.4311111111111111,-0.6166666666666667,-1.3761585063132642,0.6585073694877557,-0.26503109731940494
1590504192.5871384,0.03426967650563914,-0.958890481700893,3.650589992918703,0.4033333333333333,0.4311111111111111,-0.6166666666666667,1.959326591952669,1.0436028343051085,-0.48558771542915297
1590504192.5971384,1.5056069221260813,-1.932749690976514,6.222615574783683,0.4033333333333333,0.4311111111111111,-0.6166666666666667,2.852666636908886,0.5168008368182814,-0.48048449794172043
1590504192.6071384,2.488881630449453,-3.062438655689027,7.773854771224187,0.4033333333333333,0.47989232315052266,-0.5713288343006253,3.9094632025103535,-0.6215377416524515,-0.5040486262819843
1590504192.6171384,0.4401213743011421,-2.240568165527787,5.002791131074689,0.4033333333333333,0.5255555555555556,-0.5288888888888889,5.326676571803692,-0.30748850178130527,-0.5200025837640553
1590504192.6271384,5.219808753390069,-0.2943491068923594,12.112135509211633,0.4033333333333333,0.5255555555555556,-0.5288888888888889,6.589528116585256,0.11186822641349323,-0.49169243427120723
1590504192.6371384,3.70891258898563,1.1304493608913118,5.371131870749201,0.4033333333333333,0.5255555555555556,-0.5288888888888889,4.462916266219815,-0.19392850677931556,-0.18278325135166412
1590504192.6471384,0.3488787696370662,0.384208788861487,-0.3316680583334951,0.4033333333333333,0.5255555555555556,-0.5288888888888889,1.5298198574274433,-0.4026334433025806,0.19847847938548666
1590504192.6571383,2.018491021797969,-2.383632897761998,9.711657402287477,0.4015974505980618,0.45727750130154016,-0.5965883155644803,-0.11840741000020427,-0.20883398344017698,0.5291917555930215
1590504192.6671383,1.7437540498101805,-2.68009182882471,10.894062133529445,0.4,0.3944444444444444,-0.6588888888888889,-0.8425596390855226,0.46058851637256654,0.805637843314799
1590504192.6771383,-0.3182971743625086,-2.424249483115093,8.119601378359752,0.4,0.3944444444444444,-0.6588888888888889,-0.6480543434230049,0.7473273722029812,0.9061562133121617
1590504192.6871383,-0.14296898079763662,-3.825553914327917,11.61042836041359,0.4,0.3944444444444444,-0.6588888888888889,0.084438681176849,0.10031292766009148,0.8174672993856713
1590504192.6971383,0.10651685393258427,-2.8041412520064206,8.34370786516854,0.4,0.3944444444444444,-0.6588888888888889,0.19324338706421162,-0.5678851046218668,0.7636936074105686
1590504192.7071383,-0.02149883647133488,-2.5866109583245187,8.097594668923207,0.40733058317467036,0.38280175351996804,-0.6588888888888889,-0.08619132390378863,-0.29031167832831156,0.9077099013904002
1590504192.7171383,-0.12344951051486584,-3.20269488759971,9.542126994198695,0.4188888888888889,0.3644444444444445,-0.6588888888888889,-0.05615563645019192,0.2459488215440253,1.1034139486616412
1590504192.7271383,-0.052759173852015236,-2.9708291558050934,8.091434730298776,0.4188888888888889,0.3644444444444445,-0.6588888888888889,-0.002821898521152352,-0.06167273326377398,1.1500749025302202
1590504192.7371383,-0.05997447909383303,-3.3584746888547055,9.763311774576982,0.4188888888888889,0.3644444444444445,-0.6588888888888889,0.0065561202909963905,-0.30841409866152886,1.2248860449853347
1590504192.7471383,-0.10979509622072803,-3.0001504173429168,8.769863783909113,0.4188888888888889,0.3644444444444445,-0.6588888888888889,-0.017101611508336216,-0.1396039886245584,1.3768430475381064
1590504192.7571383,-0.15635917442738484,-3.19463000251699,8.998947898313617,0.43149732919428363,0.3523613558184412,-0.662566350644629,-0.05299425070932852,-0.1194109641581245,1.4614220766235704
1590504192.7671382,-0.13,-2.62,7.08,0.4455555555555555,0.3388888888888889,-0.6666666666666666,-0.05126904677733343,-0.08835729338221293,1.4988014951501305
1590504192.7771382,-0.22195671626261576,-3.3815149308084487,9.151064197273957,0.4455555555555555,0.3388888888888889,-0.6666666666666666,-0.01906641911920098,-0.15202778433267553,1.5446173640991279
1590504192.7871382,-0.23977536850703599,-3.1525426057253183,8.370071659302715,0.4455555555555555,0.3388888888888889,-0.6666666666666666,-0.04150057672431398,-0.12140857910584818,1.5884426906526101
1590504192.7971382,-0.28198951577416825,-3.333926610419178,8.90727065755993,0.4455555555555555,0.3388888888888889,-0.6666666666666666,-0.036874083229073984,-0.13733187864851673,1.6236509380310904
1590504192.8071382,1.3787255687558793,-4.6843068668780266,7.058715465282375,0.45450835568872006,0.3354929991832058,-0.6685189701424938,-0.1346153896956748,-0.1295084409543902,1.2636350166251502
1590504192.8171382,2.564677706670185,-4.833641001957291,5.004713113852785,0.4777777777777778,0.32666666666666666,-0.6733333333333333,-0.35131700981472846,-0.056309668085987474,-1.6837988247459843
1590504192.8271382,-0.9997381899416988,-1.7892377268021575,9.424727292540728,0.4777777777777778,0.32666666666666666,-0.6733333333333333,0.14277012362786085,0.35220259068907733,-3.9175295999409747
1590504192.8371382,-0.13622443338861245,-2.471155094094744,9.487844112769487,0.4777777777777778,0.32666666666666666,-0.6733333333333333,0.7048089264730002,0.5467855168687549,-3.7222449177188452
1590504192.8471382,0.69,-1.38,5.46,0.4777777777777778,0.32666666666666666,-0.6733333333333333,0.7155849933176751,0.4483314516060434,-3.571379981893397
1590504192.8571382,-0.5004531722054382,-3.3482159113796577,10.912275528700906,0.4777777777777778,0.32666666666666666,-0.6733333333333333,-0.10511944079126456,0.16091175527253293,-3.3168577206823966
1590504192.8671381,-6.353605931251404,-9.201579420354976,7.3215884070995285,0.4711111111111111,0.31222222222222223,-0.6522222222222223,-0.1953444864707914,0.29739953633363614,-2.3237979678067666
1590504192.8771381,-5.085440158259149,-12.307395647873392,8.878235410484669,0.4711111111111111,0.31222222222222223,-0.6522222222222223,0.049103030164216105,-0.05582226725422269,0.3348938977164382
1590504192.8871381,0.6620311038538976,0.4222888758540875,10.033811094024953,0.4711111111111111,0.31222222222222223,-0.6522222222222223,0.2356752019392676,-0.08362163274564122,1.6238187026073532
1590504192.897138,-0.7077207945592032,-2.0379451164412883,6.808909779799933,0.4711111111111111,0.31222222222222223,-0.6522222222222223,0.11237011408527015,0.029528918461556447,1.6912738389039517
1590504192.907138,0.07702484335495219,-2.89901176211938,10.635252280971748,0.4620026138043066,0.325631954368351,-0.6585475675741698,-0.2722893259857574,-0.27804463648945,1.7310395126368807
1590504192.917138,0.4381917115532593,-2.7606925360008794,10.28176981422447,0.4312650080001954,0.3708845406910703,-0.6798931271603582,-0.061053308460149835,-0.15985305525488377,1.8006132803139658
1590504192.927138,4.618074499481534,-11.152051527478665,7.710636515912898,0.4311111111111111,0.3711111111111111,-0.68,-0.03974140948680215,-0.12406766679002665,0.7264973905617013
1590504192.937138,-0.95685944970241,-1.2107429993170065,9.735139769733632,0.4311111111111111,0.3711111111111111,-0.68,0.027393593127930105,0.09549218242024818,-0.8656663435850769
1590504192.947138,-0.25757501935678806,-1.89,9.337043415859346,0.4311111111111111,0.3711111111111111,-0.68,0.24522025546380827,0.281764332976277,-1.0362161752397896
1590504192.957138,-1.4942874109263657,-4.3211743747380185,6.933405756601928,0.437942651328148,0.3597252107493829,-0.6782921149457408,0.017018149040269256,0.04568968432945632,-0.896774927890742
1590504192.967138,-3.3784082180371104,-7.839925732265977,9.973561149414651,0.4577777777777778,0.32666666666666666,-0.6733333333333333,-0.15813220286631108,-0.04335145059358428,-0.1323360562225635
1590504192.977138,1.0120011823825008,-4.269497487437186,8.678796925805498,0.4577777777777778,0.32666666666666666,-0.6733333333333333,0.0742993446812728,-0.06145249867588591,0.6724692859332488
1590504192.987138,2.248848980791846,-4.675481183849471,7.450021070168561,0.4577777777777778,0.32666666666666666,-0.6733333333333333,0.06768394407914861,-0.040705338425847636,0.46729527322797365
1590504192.997138,0.011925818211608652,-4.675971203866792,8.138449391717527,0.4577777777777778,0.32666666666666666,-0.6733333333333333,-0.059979987183045154,-0.001163171545076301,-0.20441093359255175
1590504193.007138,-1.4501324242821556,-4.99950701455356,8.628070888510118,0.45468549839993394,0.3328512254223543,-0.6750200311757936,-0.032212284018393336,0.06290109491561816,-0.2891777101016208
1590504193.017138,-0.12947668305918264,-5.556857385111074,8.76210547736137,0.4455555555555555,0.3511111111111111,-0.68,-0.025146932942748047,-0.022620541473352823,-0.008842444135135755
1590504193.027138,0.18,-3.98,8.74,0.4455555555555555,0.3511111111111111,-0.68,0.017453292519943295,-0.006544984694978735,0.0916297857297023
1590504193.037138,-0.0316468564876744,-4.297470284731512,8.74,0.4455555555555555,0.3511111111111111,-0.68,-0.011849553251160716,-0.007432949718345524,0.01881665381362567
1590504193.047138,-0.137396006103629,-4.525789159424136,8.535014263915611,0.4455555555555555,0.3511111111111111,-0.68,-0.009599933266697896,-0.0031637204596042636,0.0030760805685670976
1590504193.057138,-0.10514000356696987,-4.38,8.65514000356697,0.4486966688464815,0.3531100013871549,-0.6765733309553534,0.004893466501183049,-0.003522292013036978,0.0013711744881460713
1590504193.067138,-0.11360490566037736,-4.364012264150944,8.67,0.4577777777777778,0.3588888888888889,-0.6666666666666666,0.0025748957712264458,-0.0007420324943649948,0.0018328632768614508
1590504193.077138,-0.10235059363464033,-4.354681233163723,8.654721141374838,0.4577777777777778,0.3588888888888889,-0.6666666666666666,-0.0001912191644064926,-0.00012820499469029485,0.0012190357771867508
1590504193.087138,-0.11908929462236854,-4.53043759353487,8.545919584954603,0.4577777777777778,0.3588888888888889,-0.6666666666666666,-0.009320764312615384,-0.001041159509511184,0.0021319902920076397
1590504193.097138,-0.11562560268104143,-4.352187198659479,8.578433582573231,0.4577777777777778,0.3588888888888889,-0.6666666666666666,0.001806589870054952,0.0004771727250389973,0.002181661564992912
1590504193.107138,-0.10236488088651417,-4.358817559556743,8.664628274237657,0.4577777777777778,0.3588888888888889,-0.6666666666666666,0.003976370399793749,0.0019236930781981953,0.002181661564992912
1590504193.117138,-0.12873198010797424,-4.382536039784052,8.695072079568103,0.4655555555555556,0.3511111111111111,-0.6877777777777778,0.004762556346962506,0.0029958533212814586,0.002043342051888957
1590504193.127138,-0.12061591749066351,-4.398768165018673,8.727536330037346,0.4655555555555556,0.3511111111111111,-0.6877777777777778,0.00033593087914687066,0.001225203134155204,0.00115801695832583
1590504193.137138,-0.12289129910821885,-4.367108700891781,8.584217401783562,0.4655555555555556,0.3511111111111111,-0.6877777777777778,-0.011223699631829526,-0.002641708733759434,0.002812445178722846
1590504193.1471379,-0.13,-4.384139535785616,8.574827907157124,0.4655555555555556,0.3511111111111111,-0.6877777777777778,-0.010682531171954782,-0.0005641878082939631,0.003836680155783331
1590504193.1571379,-0.12933632898884864,-4.4566816449442435,8.595973039100363,0.46503936699132675,0.3520697470161075,-0.6863766945320138,-0.0059658224802471675,0.000801249675130672,0.00203687101131002
1590504193.1671379,-0.12,-4.408011039990605,8.679337013330201,0.4577777777777778,0.3655555555555556,-0.6666666666666666,0.0020370203114326913,-0.003489454227829699,0.00014464125356022066
1590504193.1771379,-0.11765153970826579,-4.38,8.646515397082657,0.4577777777777778,0.3655555555555556,-0.6666666666666666,-0.0010247091110777082,-0.0052640983061316,0.0016693070094540578
1590504193.1871378,-0.11,-4.39590315907756,8.57,0.4577777777777778,0.3655555555555556,-0.6666666666666666,-0.005106794078303249,-0.0013386544319355976,0.0
1590504193.1971378,-0.11214321096372942,-4.439283945181353,8.57642963289119,0.4577777777777778,0.3655555555555556,-0.6666666666666666,-0.006934451329689205,-0.0012465093679449291,0.00046757609852399136
1590504193.2071378,-0.11983818592107436,-4.4008090703946285,8.599514557763223,0.4577777777777778,0.3655555555555556,-0.6666666666666666,-0.004416276663485845,0.0021110568536595506,0.0021463592093262313
1590504193.2171378,-0.10465915864770502,-4.396893894234863,8.674659158647705,0.4533333333333333,0.3511111111111111,-0.68,0.0025204851432229915,0.001599066149841575,0.0005082353673451192
1590504193.2271378,-0.1295814632164164,-4.38,8.695814632164163,0.4533333333333333,0.3511111111111111,-0.68,0.004272012568557813,0.0043176678492718185,0.0031355265053473517
1590504193.2371378,-0.1218344692562014,-4.38,8.618344692562014,0.4533333333333333,0.3511111111111111,-0.68,0.0025818806718344847,0.0034726019009101543,0.0006003286602623598
1590504193.2471378,-0.11,-4.3848571089766395,8.625142891023362,0.4533333333333333,0.3511111111111111,-0.68,-0.005630763378670883,0.00035321893237720727,0.0012674402486850596
1590504193.2571378,-0.11,-4.409725483220681,8.600274516779319,0.4533333333333333,0.3511111111111111,-0.68,-0.006535002983205624,0.0021616981414466904,0.0021716798532198014
1590504193.2671378,-0.11154696814702458,-4.452265159264877,8.653093936294049,0.4577777777777778,0.3511111111111111,-0.6666666666666666,-0.0005845866402016793,0.0018441654701297275,0.0
1590504193.2771378,-0.11894458358319517,-4.415277082084025,8.66788916716639,0.4577777777777778,0.3511111111111111,-0.6666666666666666,0.001836277350252068,0.0002302561431605627,0.0
1590504193.2871377,-0.12,-4.398167931724633,8.613664136550733,0.4577777777777778,0.3511111111111111,-0.6666666666666666,-0.0051627137181481375,0.001090830782496456,-0.0015821186238711767
1590504193.2971377,-0.12,-4.3902484800422945,8.629503039915411,0.4577777777777778,0.3511111111111111,-0.6666666666666666,-0.008618226388383315,0.001090830782496456,0.001009515878805206
1590504193.3071377,-0.11033564869879633,-4.428657405204814,8.620335648698795,0.4577777777777778,0.3511111111111111,-0.6666666666666666,-0.008726646259971648,3.6613593275191354e-05,-0.0020718207851673377
1590504193.3171377,-0.09313197322282435,-4.430604080331527,8.628434013388588,0.4577777777777778,0.3511111111111111,-0.6666666666666666,-0.0033383872895623922,0.001090830782496456,0.0005124679202117157
1590504193.3271377,-0.11217388522807242,-4.384347770456145,8.606956688631564,0.4577777777777778,0.3511111111111111,-0.6666666666666666,0.002655929749872057,0.001090830782496456,0.0030353582550497957
1590504193.3371377,-0.1212873450349822,-4.3974253099300356,8.567724070209893,0.4577777777777778,0.3511111111111111,-0.6666666666666666,0.003942040452430055,0.0012312583416817123,0.002041234005807656
1590504193.3471377,-0.1274610919822922,-4.386347270044269,8.623808362026562,0.4577777777777778,0.3511111111111111,-0.6666666666666666,0.0003984510275857689,0.0016277577610643622,0.0012293067334785933
1590504193.3571377,-0.11095622233152976,-4.427609444171176,8.648565666502705,0.4577777777777778,0.3511111111111111,-0.6666666666666666,-0.004102553941450026,-0.0019730462141642736,0.0021295077272857526
1590504193.3671377,-0.11826824520281276,-4.418268245202813,8.635195264391562,0.4533333333333333,0.3511111111111111,-0.6877777777777778,-0.003985512841884274,0.0016149461328405876,-0.0007130204943949065
1590504193.3771377,-0.1102575349838536,-4.409914155005382,8.659313240043057,0.4533333333333333,0.3511111111111111,-0.6877777777777778,-0.0021442046199319463,-0.0011001950187616973,0.001090830782496456
1590504193.3871377,-0.1359261403333666,-4.398981535083342,8.58611078949995,0.4533333333333333,0.3511111111111111,-0.6877777777777778,0.001515077835802743,-0.0020705642767945504,0.0013130253588931788
1590504193.3971376,-0.10243537279169579,-4.390608843197923,8.636346940812457,0.4533333333333333,0.3511111111111111,-0.6877777777777778,-0.003964836188780411,-0.001157245272697358,0.0031396633670875643
1590504193.4071376,-0.13635709277868663,-4.408178546389343,8.649089273194672,0.4533333333333333,0.3511111111111111,-0.6877777777777778,-0.006346294928239371,0.000892141015757092,0.002281006448362594
1590504193.4171376,-0.13880055904031413,-4.4288005590403134,8.632803354241885,0.4533333333333333,0.3588888888888889,-0.6588888888888889,-0.006283307270856247,0.0008291533583739679,0.003970806993802091
1590504193.4271376,-0.1318220388333361,-4.421822038833336,8.590932233000016,0.4533333333333333,0.3588888888888889,-0.6588888888888889,-0.004760830339247214,-0.0006933235732350649,0.0016870915963885422
1590504193.4371376,-0.09492123472542573,-4.41630907395593,8.55738185208814,0.4533333333333333,0.3588888888888889,-0.6588888888888889,0.00204745570683329,0.0019132498486736681,0.002181661564992912
1590504193.4471376,-0.13,-4.39,8.614600352275888,0.4533333333333333,0.3588888888888889,-0.6588888888888889,0.001090830782496456,0.00012545514682164673,0.0019307512713496184
1590504193.4571376,-0.13,-4.39,8.645706683971447,0.4533333333333333,0.3588888888888889,-0.6588888888888889,0.001090830782496456,0.0009737487504231829,0.00023416406414654618
1590504193.4671376,-0.09634410854336847,-4.406827945728316,8.658413972864158,0.4533333333333333,0.3588888888888889,-0.6654330900054561,-0.0007448133381662018,0.002926474903159114,0.0009178220603313289
1590504193.4771376,-0.11856203143893591,-4.402875937122128,8.619934220072553,0.4533333333333333,0.3588888888888889,-0.6666666666666666,-0.004513005690079775,-0.00046339863422811963,0.00015685803706708408
1590504193.4871376,-0.11623727196852271,-4.415322046023608,8.567796589960654,0.4533333333333333,0.3588888888888889,-0.6666666666666666,0.001090830782496456,0.003272492347489368,0.001090830782496456
1590504193.4971375,-0.14506389716138274,-4.391234025709654,8.614936102838616,0.4533333333333333,0.3588888888888889,-0.6666666666666666,0.0005523854903032719,0.003137881024441072,0.001225442105544752
1590504193.5071375,-0.11344102235458212,-4.399139744411355,8.646558977645418,0.4533333333333333,0.3588888888888889,-0.6666666666666666,-0.002897135036725706,0.0022755008926838276,0.0020878222373019962
1590504193.5171375,-0.12,-4.402189301079633,8.67,0.4533333333333333,0.3466666666666667,-0.6666666666666666,-0.009817477042468105,-0.0009117190067602188,0.0010311268572510436
1590504193.5271375,-0.12,-4.436236707524962,8.67,0.4533333333333333,0.3466666666666667,-0.6666666666666666,-0.009817477042468105,0.0018737779193447118,0.00010262788188273339
1590504193.5371375,-0.10072996783666621,-4.419635016081667,8.551824919591667,0.4533333333333333,0.3466666666666667,-0.6666666666666666,-0.006306103279038385,0.0,-0.002102034426346128
1590504193.5471375,-0.11748806360748745,-4.411255968196256,8.593720159018718,0.4533333333333333,0.3466666666666667,-0.6666666666666666,-0.0008220292621877326,0.0,-0.00027400975406257754
1590504193.5571375,-0.12802195824334053,-4.40197804175666,8.648131749460044,0.4533333333333333,0.3466666666666667,-0.6666666666666666,0.0017501197975474097,-0.0017501197975474097,0.0
1590504193.5671375,-0.11945455722214132,-4.4205454427778585,8.657818228888566,0.4533333333333333,0.3511111111111111,-0.7022222222222222,-0.0023601572966464993,0.001090830782496456,0.003212993770271506
1590504193.5771375,-0.1126679934631005,-4.427332006536899,8.630671973852401,0.4533333333333333,0.3511111111111111,-0.7022222222222222,-0.004581055093367477,0.001090830782496456,0.0024726945046978466
1590504193.5871375,-0.12,-4.4,8.530205557735282,0.4533333333333333,0.3511111111111111,-0.7022222222222222,-0.0021637232685747924,0.002181661564992912,4.484574104529876e-06
1590504193.5971375,-0.12,-4.4,8.5659802801044,0.4533333333333333,0.3511111111111111,-0.7022222222222222,0.0009582102030649851,0.002181661564992912,0.0007849679420144743
1590504193.6071374,-0.12,-4.3788021165193785,8.636527689281658,0.4533333333333333,0.3511111111111111,-0.7022222222222222,0.002181661564992912,0.0006401079766972307,0.001090830782496456
1590504193.6171374,-0.12,-4.384232794625023,8.681349191937533,0.46203115227084723,0.3653439057361338,-0.671384500534673,-0.0009234525345920607,-0.0007762785248962432,0.0003145522576002128
1590504193.6271374,-0.11061474536543789,-4.439385254634563,8.656618900490091,0.4655555555555556,0.3711111111111111,-0.6588888888888889,-0.005487683070883114,-3.352915840083396e-05,0.001090830782496456
1590504193.6371374,-0.12551033454080546,-4.424489665459195,8.574693160025571,0.4655555555555556,0.3711111111111111,-0.6588888888888889,-0.00630011143067871,-0.0008459575181964311,0.001090830782496456
1590504193.6471374,-0.12,-4.4015547130921275,8.603109426184254,0.4655555555555556,0.3711111111111111,-0.6588888888888889,-0.0042502612033963275,0.00011306192658949612,0.00321596138419462
1590504193.6571374,-0.12,-4.424711435827597,8.649422871655196,0.4655555555555556,0.3711111111111111,-0.6588888888888889,-0.002566256804623872,0.001797066325361952,0.002373959184808392
1590504193.6671374,-0.1199037629104673,-4.390144355634299,8.669951881455233,0.4455555555555555,0.3511111111111111,-0.6588888888888889,-0.0032829901854573825,-0.0010855818635124488,5.248918984007187e-06
1590504193.6771374,-0.10301475769594717,-4.415477863456079,8.661507378847974,0.4455555555555555,0.3511111111111111,-0.6588888888888889,-0.0051252948628315535,-0.0001644295248253632,0.0009264012576710928
1590504193.6871374,-0.1297273668468883,-4.429909122282296,8.541090532612445,0.4455555555555555,0.3511111111111111,-0.6588888888888889,-0.0032923187898722555,0.0,0.0021717483438014685
1590504193.6971374,-0.12,-4.400467091295117,8.581868365180467,0.4455555555555555,0.3511111111111111,-0.6588888888888889,-0.0029667818097196606,0.00010190351258990247,0.0020797580524030096
1590504193.7071373,-0.12,-4.405998206538223,8.603992826152892,0.4455555555555555,0.3511111111111111,-0.6588888888888889,0.0006533246515098255,0.0013086056663330643,0.0008730558986598477
1590504193.7171373,-0.11520983064849236,-4.414790169351508,8.65832135481206,0.4492812428289503,0.35803024461884436,-0.6626145761622837,0.0027499659292898057,0.0016591351467933498,0.0
1590504193.7271373,-0.11562621089179183,-4.403121367324625,8.683121367324624,0.4533333333333333,0.3655555555555556,-0.6666666666666666,0.00034048835611790156,0.001090830782496456,0.0018411732088750104
1590504193.7371373,-0.1128803094547348,-4.411359071635795,8.591683404002083,0.4533333333333333,0.3655555555555556,-0.6666666666666666,-0.004197381825946156,-0.0012390825000908195,0.0017192168257645175
1590504193.7471373,-0.11,-4.42,8.56,0.4533333333333333,0.3655555555555556,-0.6666666666666666,-0.004137201113717981,-0.000864708766228613,0.001090830782496456
1590504193.7571373,-0.11,-4.42,8.627409200968524,0.4533333333333333,0.3655555555555556,-0.6666666666666666,-0.0012670733082178732,-0.0013369460261809965,0.0017593037955869542
1590504193.7671373,-0.11,-4.401245648458763,8.688754351541236,0.4443034603690341,0.3537472601407028,-0.6750019340183275,-0.000681927465564698,0.0005460482972658802,0.0014997340994282139
1590504193.7771373,-0.13896369953276627,-4.380345433489078,8.680690866978155,0.4388888888888889,0.3466666666666667,-0.68,-0.005303430119205744,7.536189663826789e-05,3.7680948319133946e-05
1590504193.7871373,-0.11870944335026434,-4.408387408866314,8.609031477834215,0.4388888888888889,0.3466666666666667,-0.68,-0.007776593369483908,-0.0007741464856672095,0.001548292971334419
1590504193.7971373,-0.11976271844660194,-4.449288155339806,8.58,0.4388888888888889,0.3466666666666667,-0.68,-0.0065967514994917705,-0.001090830782496456,0.004311556325472789
1590504193.8071373,-0.11306614772936972,-4.429198443188109,8.60080155681189,0.4388888888888889,0.3466666666666667,-0.68,-0.004275886845552801,0.000421901117120834,0.002094225280559889
1590504193.8171372,-0.10056492445082327,-4.410564924450823,8.66661045329506,0.4315504967950848,0.35086003357741186,-0.6873383920938042,0.0018735430746214497,0.0021200378669186193,0.001090830782496456
1590504193.8271372,-0.11975142715871802,-4.400248572841282,8.629005708634873,0.4311111111111111,0.3511111111111111,-0.6877777777777778,0.004295535403245079,0.0,1.3557545348148968e-05
1590504193.8371372,-0.10089809862003866,-4.419101901379961,8.553592394480155,0.4311111111111111,0.3511111111111111,-0.6877777777777778,-0.0008459123773825166,0.0,0.0010418471014736683
1590504193.8471372,-0.11588744158297704,-4.404112558417023,8.573831162374466,0.4311111111111111,0.3511111111111111,-0.6877777777777778,-0.00022430526580517762,-0.002599576550073835,0.0019573562991877344
1590504193.8571372,-0.11343859649122807,-4.4,8.639052631578947,0.4311111111111111,0.3511111111111111,-0.6877777777777778,-0.0014314761847497351,0.0003061981143849704,-0.0013970288968814266
1590504193.8671372,-0.12712329229212346,-4.4,8.652876707707877,0.4434779333220891,0.3473059350461948,-0.6697031914694253,0.0015540613009936018,-0.0006201305844969734,-0.0004707001979994828
1590504193.8771372,-0.1106650416933932,-4.4,8.698337395766517,0.4455555555555555,0.3466666666666667,-0.6666666666666666,-0.0009820135898769254,-0.001090830782496456,0.0010545583849566123
1590504193.8871372,-0.11,-4.4083597959771295,8.608042244251573,0.4455555555555555,0.3466666666666667,-0.6666666666666666,-0.001090830782496456,0.0016449060536764773,-0.000732993774952166
1590504193.8971372,-0.11908332441972402,-4.437249973259172,8.626333297678897,0.4455555555555555,0.3466666666666667,-0.6666666666666666,-0.0020816677709401296,0.00019998758810556468,-0.001090830782496456
1590504193.9071372,-0.11267357808636104,-4.410694312345445,8.644652843827279,0.4455555555555555,0.3466666666666667,-0.6666666666666666,-0.002181661564992912,0.0023975659646861902,0.0005075465272943373
1590504193.9171371,-0.11758526899853125,-4.4,8.65,0.4649401318851354,0.3466666666666667,-0.6826800123302327,-0.002181661564992912,0.001617643364066577,0.0002634062907850605
1590504193.9271371,-0.12,-4.407699920823436,8.657699920823436,0.4711111111111111,0.3466666666666667,-0.6877777777777778,0.0003381316321040082,0.001090830782496456,0.0008399310656989734
1590504193.9371371,-0.12,-4.416081398877257,8.611348808981946,0.4711111111111111,0.3466666666666667,-0.6877777777777778,0.00042745307290133845,0.0017542084920915734,0.001090830782496456
1590504193.947137,-0.12870566578032316,-4.402588668439354,8.597411331560647,0.4711111111111111,0.3466666666666667,-0.6877777777777778,0.0,-0.0016169017211281073,0.00014118996096620115
1590504193.957137,-0.12250038678734432,-4.407499613212656,8.607499613212655,0.4711111111111111,0.3466666666666667,-0.6877777777777778,-0.0016361617898363915,-0.0005454997751565204,0.0
1590504193.967137,-0.13862080030805765,-4.391379199691942,8.656552000770144,0.4586972442390727,0.3580460446327019,-0.6805363554357554,-0.001166054456455474,0.0030468213256123135,0.001015607108537438
1590504193.977137,-0.11205968053361419,-4.410955239599789,8.653014920133403,0.4577777777777778,0.3588888888888889,-0.68,-0.001090830782496456,0.000986630306485473,-0.00043307724483947424
1590504193.987137,-0.1086904803677322,-4.402619039264536,8.57178567669041,0.4577777777777778,0.3588888888888889,-0.68,-0.00014284643251611534,-0.0009479843499803406,0.0008051379174642253
1590504193.997137,-0.11710928778745255,-4.4,8.58843715114981,0.4577777777777778,0.3588888888888889,-0.68,-0.001551005992035874,-0.001090830782496456,0.001090830782496456
1590504194.007137,-0.12611632270168854,-4.4,8.618348968105066,0.4577777777777778,0.3588888888888889,-0.68,-0.0028488488728612886,-0.0004236434746280795,0.0017580180903648325
1590504194.017137,-0.13,-4.416931871679333,8.646931871679334,0.45526935234380256,0.351990718945457,-0.6724747236980743,-0.003272492347489368,0.0,0.00033468088168328927
1590504194.027137,-0.12278091328886609,-4.408342739866598,8.66,0.4533333333333333,0.3466666666666667,-0.6666666666666666,-0.0009100517456845755,-0.0007874802006015975,0.0004841296187067391
1590504194.037137,-0.12,-4.407515133718829,8.592363796530538,0.4533333333333333,0.3466666666666667,-0.6666666666666666,0.0024593217585227403,-0.001090830782496456,0.001910604702004036
1590504194.047137,-0.11163458418946685,-4.41,8.611827079052665,0.4533333333333333,0.3466666666666667,-0.6666666666666666,0.0005349164251357394,0.0007342198324059633,0.00035661095009049265
1590504194.057137,-0.11727219318504112,-4.395455613629918,8.634544386370083,0.4533333333333333,0.3466666666666667,-0.6666666666666666,0.0,0.001090830782496456,0.001586546436500761
1590504194.067137,-0.11222443686006826,-4.413326689419795,8.64,0.44728567311338635,0.3501224725066363,-0.6606190064467197,0.0,0.001090830782496456,0.002181661564992912
1590504194.077137,-0.11707280832095096,-4.405854383358098,8.64,0.4455555555555555,0.3511111111111111,-0.6588888888888889,0.0007715237035190387,0.001090830782496456,-0.00013290954556420456
1590504194.087137,-0.12,-4.4,8.597438483643215,0.4455555555555555,0.3511111111111111,-0.6588888888888889,0.0005104881301001075,-0.001230539827088938,6.985452229624103e-05
1590504194.097137,-0.14086161984530918,-4.40695387328177,8.594769366408848,0.4455555555555555,0.3511111111111111,-0.6588888888888889,0.001517099806666814,-0.0002382927341557403,0.001090830782496456
1590504194.107137,-0.1300218153259937,-4.405005453831499,8.639967277011008,0.4455555555555555,0.3511111111111111,-0.6588888888888889,0.0010920206239526616,0.001090830782496456,0.0005460103119763308
1590504194.117137,-0.11581742289557084,-4.402908711447786,8.664182577104429,0.4455555555555555,0.34594006853727033,-0.6692309740365704,-0.0006345823969288342,0.0017254131794252902,-0.0003172911984644171
1590504194.127137,-0.13,-4.415405374447321,8.660810748894642,0.4455555555555555,0.3333333333333333,-0.6944444444444444,-0.002771296448798641,0.0015035876960721808,8.843898511500209e-05
1590504194.137137,-0.12305461238219148,-4.399163837146574,8.600546123821914,0.4455555555555555,0.3333333333333333,-0.6944444444444444,-0.0025148680865018412,-0.0007576242609875269,-0.0004244177394785978
1590504194.147137,-0.12,-4.401961285069213,8.60588385520764,0.4455555555555555,0.3333333333333333,-0.6944444444444444,-0.0008768877698216199,0.00021394301267483608,-0.00043844388491080994
1590504194.157137,-0.12551950001364592,-4.404480499986354,8.646558500040937,0.4455555555555555,0.3333333333333333,-0.6944444444444444,0.0006020840518874573,0.0016929148343839133,-0.0006020840518874573
1590504194.167137,-0.13,-4.414454952149046,8.66,0.4543891374244169,0.3518035499682252,-0.6743681220152141,-0.0028511459084266623,0.0006048708886236649,0.0004859598938727911
1590504194.177137,-0.11541904761904762,-4.412709523809524,8.674580952380952,0.4577777777777778,0.3588888888888889,-0.6666666666666666,-0.0035680555452229316,-0.0023858027542886778,0.00029556319773356356
1590504194.187137,-0.11,-4.41,8.604434087044153,0.4577777777777778,0.3588888888888889,-0.6666666666666666,-0.003959405880486758,-0.0025855788144919776,0.0
1590504194.1971369,-0.11745445623504876,-4.41,8.597272281175243,0.4577777777777778,0.3588888888888889,-0.6666666666666666,-0.0011107029988002923,-0.002994816597789295,0.0016263100655927658
1590504194.2071369,-0.12639661564787527,-4.403603384352125,8.635586462591501,0.4577777777777778,0.3588888888888889,-0.6666666666666666,0.0,-0.001876967296989196,0.0007861365144927401
1590504194.2171369,-0.12261285865758442,-4.407387141342416,8.657387141342415,0.45449460384781526,0.3498601605814921,-0.6666666666666666,-0.0008058121170959104,-0.0002850186654005456,-0.0008058121170959104
1590504194.2271369,-0.12755671278188768,-4.41,8.652443287218112,0.4533333333333333,0.3466666666666667,-0.6666666666666666,-0.0019151402741932058,0.0,-0.001090830782496456
1590504194.2371368,-0.10470193543124018,-4.41,8.593079354720292,0.4533333333333333,0.3466666666666667,-0.6666666666666666,-0.0028715592542225654,-0.001379795378459307,-0.001090830782496456
1590504194.2471368,-0.1192057871924791,-4.4173014467981195,8.58920578719248,0.4533333333333333,0.3466666666666667,-0.6666666666666666,-0.001679563762659521,-0.0005887329801630651,-0.001090830782496456
1590504194.2571368,-0.12537125597785048,-4.410742511955701,8.623143720110747,0.4533333333333333,0.3466666666666667,-0.6666666666666666,-0.001090830782496456,0.0,-0.001090830782496456
1590504194.2671368,-0.12,-4.401381671623103,8.652763343246205,0.4533333333333333,0.34835537642823605,-0.6685088954974696,-0.0012415477762746287,0.00015071699377817288,-0.0007893967949401102
1590504194.2771368,-0.12,-4.404057521331822,8.664057521331822,0.4533333333333333,0.3588888888888889,-0.68,-0.0015334376994351694,0.0017390546480541983,-0.00020561694861902886
1590504194.2871368,-0.1257304892842701,-4.40573048928427,8.591234128588757,0.4533333333333333,0.3588888888888889,-0.68,-0.0017159301935012487,0.002181661564992912,0.0007844674505179227
1590504194.2971368,-0.12592494032011897,-4.397774820960357,8.572600477439048,0.4533333333333333,0.3588888888888889,-0.68,-0.0017371415110604737,0.0017371415110604737,0.002181661564992912
1590504194.3071368,-0.11682855200543847,-4.386342895989123,8.629514343983685,0.4533333333333333,0.3588888888888889,-0.68,-0.0003989281629855836,0.001090830782496456,0.0011438076357266032
1590504194.3171368,-0.1173689280007005,-4.40368446400035,8.65,0.4533333333333333,0.35151996088818843,-0.6828656942224947,0.0018946561322128743,-0.00011490724207817156,-0.0006889181076382468
1590504194.3271368,-0.13,-4.41,8.630028219501964,0.4533333333333333,0.3388888888888889,-0.6877777777777778,0.0016385548763503566,-0.001637015741279908,0.0005446458237130038
1590504194.3371367,-0.11946007242930827,-4.404730036214654,8.578380217287926,0.4533333333333333,0.3388888888888889,-0.6877777777777778,0.0005748638719696818,0.0012086247053822712,-5.8896961442907615e-05
1590504194.3471367,-0.1156710628394104,-4.405671062839411,8.578355314197053,0.4533333333333333,0.3388888888888889,-0.6877777777777778,0.001090830782496456,0.0014166413730791834,-0.001090830782496456
1590504194.3571367,-0.12,-4.41,8.639006198347108,0.4533333333333333,0.3388888888888889,-0.6877777777777778,0.00048298561299378205,0.0,-0.00048298561299378205
1590504194.3671367,-0.11422726415687261,-4.404227264156873,8.658454528313746,0.4488434276775675,0.34337879454465464,-0.6794393815599271,0.0018891233870711988,0.0,-0.0018891233870711988
1590504194.3771367,-0.11675414266410639,-4.413508285328213,8.65,0.4455555555555555,0.3466666666666667,-0.6733333333333333,0.0017989670020133928,-0.0007367626727379876,-0.00032544165653741785
1590504194.3871367,-0.10584122688317546,-4.405841226883176,8.593364907532703,0.4455555555555555,0.3466666666666667,-0.6733333333333333,-0.00045365177332509364,-0.002635313338318006,0.002635313338318006
1590504194.3971367,-0.12107528876930927,-4.414050192512873,8.598100385025745,0.4455555555555555,0.3466666666666667,-0.6733333333333333,0.0012081265914599848,-0.00020721584888078095,0.00020721584888078095
1590504194.4071367,-0.13,-4.42,8.631757925610417,0.4455555555555555,0.3466666666666667,-0.6733333333333333,0.000994950814037381,0.0028708969089297526,9.587996845907497e-05
1590504194.4171367,-0.1247444314536679,-4.404233294361004,8.665766705638996,0.43796417876640914,0.35659385169862734,-0.6809247101224797,0.0017198807849577633,0.0032167359400139817,-5.5756407475386236e-05
1590504194.4271367,-0.12652207571671162,-4.39,8.68,0.4311111111111111,0.3655555555555556,-0.6877777777777778,0.003272492347489368,0.0028931096607490788,-0.00037938268674028925
1590504194.4371367,-0.11872187110019726,-4.406917193349704,8.612331226601183,0.4311111111111111,0.3655555555555556,-0.6877777777777778,0.0008119863129158232,0.0008119863129158232,0.0006151265086433862
1590504194.4471366,-0.11555093213611103,-4.408898135727778,8.576652796408334,0.4311111111111111,0.3655555555555556,-0.6877777777777778,0.0013312202757510335,0.002542245804874778,0.0004853180179345836
1590504194.4571366,-0.10992569064564829,-4.405037154677176,8.610148618708704,0.4311111111111111,0.3655555555555556,-0.6877777777777778,0.0021735556718774844,0.002157343885646629,0.0
1590504194.4671366,-0.10698708118895074,-4.413493540594476,8.647467702972378,0.4404272193630454,0.3605093302524245,-0.6804025254116631,0.0014719169445319262,-0.0007097446204609858,-0.00038108616203547016
1590504194.4771366,-0.1160264444846948,-4.408079333454085,8.668079333454084,0.4577777777777778,0.3511111111111111,-0.6666666666666666,0.002181661564992912,0.0,-0.001090830782496456
1590504194.4871366,-0.11800639068604964,-4.398006390686049,8.601961655883702,0.4577777777777778,0.3511111111111111,-0.6666666666666666,-1.742789266054312e-06,-0.0008733617417035864,-0.0006541499116446628
1590504194.4971366,-0.12675490827164468,-4.413245091728355,8.541357821049242,0.4577777777777778,0.3511111111111111,-0.6666666666666666,-0.0029185077525579065,-0.00182767697006145,0.0003539845949314618
1590504194.5071366,-0.11458124552612742,-4.425418754473872,8.622906227630637,0.4577777777777778,0.3511111111111111,-0.6666666666666666,-0.0005910944182890602,0.0009994727284147915,0.0011821888365781204
1590504194.5171366,-0.12548204647555025,-4.41451795352445,8.65548204647555,0.44315898717631047,0.3553749250365391,-0.6624028527412387,0.0011959970093212815,0.00038766605101098954,0.0005979985046606407
1590504194.5271366,-0.11779211140942528,-4.397792111409425,8.678311832885862,0.4311111111111111,0.3588888888888889,-0.6588888888888889,0.00018415046540998367,-0.0004249937493021466,0.0004249937493021466
1590504194.5371366,-0.11584040335482619,-4.39,8.614074756387259,0.4311111111111111,0.3588888888888889,-0.6588888888888889,-0.001090830782496456,0.0019112675284919966,0.0
1590504194.5471365,-0.12581201191341668,-4.40743603574025,8.589060059567084,0.4311111111111111,0.3588888888888889,-0.6588888888888889,0.0008111456685208516,0.002004508046811163,0.0
1590504194.5571365,-0.12658896174708606,-4.42,8.623644153011655,0.4311111111111111,0.3588888888888889,-0.6588888888888889,0.002181661564992912,0.0007187442298413108,-0.00037208655265514516
1590504194.5671365,-0.1206487841493294,-4.42,8.647404863402683,0.4311111111111111,0.3588888888888889,-0.6588888888888889,0.002181661564992912,7.077137212842927e-05,-0.0010200594103680267
1590504194.5771365,-0.10441134894991923,-4.413234046849758,8.646765953150243,0.4388888888888889,0.3388888888888889,-0.6666666666666666,0.0006096272598059253,0.001090830782496456,0.0
1590504194.5871365,-0.11540843988132084,-4.419183120237358,8.581324041068113,0.4388888888888889,0.3388888888888889,-0.6666666666666666,0.0017699078123478752,0.001090830782496456,0.0
1590504194.5971365,-0.12,-4.405255764274271,8.573209650080107,0.4388888888888889,0.3388888888888889,-0.6666666666666666,0.002237460673680299,-0.0009792325651216823,0.0
1590504194.6071365,-0.11598944810252788,-4.404010551897472,8.626042207589888,0.4388888888888889,0.3388888888888889,-0.6666666666666666,-0.0002216192568721899,-0.0015225589616645072,0.0008749666929124305
1590504194.6171365,-0.11250329431086836,-4.404993411378263,8.65,0.4405577517628011,0.3388888888888889,-0.6647196599804357,-0.0013624604174098734,0.001363897831690802,0.0013624604174098734
1590504194.6271365,-0.12,-4.3919541274399325,8.6529311911599,0.4455555555555555,0.3388888888888889,-0.6588888888888889,0.0008776685460564521,0.0017553370921129042,-0.000984249664276454
1590504194.6371365,-0.11690980307214671,-4.403819606144293,8.646007833793615,0.4455555555555555,0.3388888888888889,-0.6588888888888889,-0.0017650071690721253,-0.0008333087918415735,-0.0006741763865756692
