time,acc_x,acc_y,acc_z,mag_x,mag_y,mag_z,gyr_x,gyr_y,gyr_z
1590504519.9122872,-0.03,-4.57,8.68,0.48,0.32,-0.6444444444444445,-0.003272492347489368,-0.001090830782496456,0.0
1590504519.9222872,-0.0027796398915295346,-4.567220360108471,8.593898199457648,0.48,0.32,-0.6444444444444445,-0.001090830782496456,-0.003453688102605166,0.0013940424582900087
1590504519.9322872,-0.009844200030317832,-4.560155799969682,8.62922100015159,0.48,0.32,-0.6444444444444445,-0.001090830782496456,-0.0011418162033488524,0.0021646664247087794
1590504519.9422872,0.0,-4.5591261004950825,8.68,0.47932030038506435,0.32058259966994485,-0.6463864433442605,-0.0020863339169156997,-0.0020863339169156997,0.0009955031344192438
1590504519.9522872,0.0,-4.550870507495033,8.680870507495033,0.4722222222222222,0.32666666666666666,-0.6666666666666666,-0.0009958731452988233,-0.001090830782496456,4.747881859881631e-05
1590504519.9622872,-0.002687861774061778,-4.561936414677815,8.667745658711258,0.4722222222222222,0.32666666666666666,-0.6666666666666666,0.0013840310187206682,-0.0005044303100480317,0.001090830782496456
1590504519.9722872,-0.009978619478871527,-4.540064141563385,8.580256566253542,0.4722222222222222,0.32666666666666666,-0.6666666666666666,0.0021793293119336367,0.001086166276377905,0.001090830782496456
1590504519.9822872,-0.02248517593820707,-4.565029648123586,8.66745552781462,0.4722222222222222,0.32666666666666666,-0.6666666666666666,0.0005486494998332998,0.00245275220632449,0.0005486494998332998
1590504519.9922872,-0.027725699067909452,-4.5522743009320905,8.692274300932091,0.4722222222222222,0.3259085663559698,-0.6633815653203137,-0.0009667869092272185,0.0031484484742201305,-0.001090830782496456
1590504520.0022871,-0.01,-4.562681015742577,8.691702539356442,0.4722222222222222,0.32,-0.6377777777777778,-0.001197565998690658,0.0017824728987626925,-0.001090830782496456
1590504520.0122871,-0.006373760919215465,-4.557252478161569,8.630990087353723,0.4722222222222222,0.32,-0.6377777777777778,-0.003272492347489368,-9.585318170697121e-05,9.585318170697121e-05
1590504520.0222871,-0.0034597222545302286,-4.56654027774547,8.59729861127265,0.4722222222222222,0.32,-0.6377777777777778,-0.003272492347489368,-0.002181661564992912,0.0014268672581669896
1590504520.0322871,-0.011974918943624756,-4.558025081056375,8.6378996757745,0.4722222222222222,0.32,-0.6377777777777778,-0.0030570621098252415,-0.0023970918026570386,-0.0002154302376641266
1590504520.042287,-0.017965663519632066,-4.552034336480368,8.661862654078528,0.4722222222222222,0.32,-0.6377777777777778,-0.0024035732504669957,-0.0030505806620152844,-0.0008689190970223722
1590504520.052287,0.0,-4.579615848406546,8.699807924203272,0.48,0.32,-0.6377777777777778,-0.001090830782496456,-0.0032620162379072533,0.002160709345828682
1590504520.062287,0.0,-4.543489233419466,8.681744616709732,0.48,0.32,-0.6377777777777778,-0.001090830782496456,-0.0022768156455246335,0.0001903081610634431
1590504520.072287,-0.01,-4.56,8.630510577381898,0.48,0.32,-0.6377777777777778,0.0018950300312432467,-0.0005175677149971254,0.001321766963743916
1590504520.082287,-0.00807752251796377,-4.554232567553891,8.665767432446108,0.48,0.32,-0.6377777777777778,0.0004617014976780364,0.0013005405441025959,-0.0008811210208903162
1590504520.092287,-0.0004405400727020945,-4.530440540072703,8.69,0.4793636643394303,0.31975525551516554,-0.6374840843959764,-0.0021336060977702447,0.002181661564992912,4.805546722266713e-05
1590504520.102287,-0.009515968495759045,-4.539515968495759,8.69,0.4662547121727925,0.3147133508356895,-0.631433798780605,-0.0011436304289488659,0.002181661564992912,0.001038031136044046
1590504520.112287,0.0,-4.545635469290082,8.697266019675618,0.4655555555555556,0.3144444444444445,-0.6311111111111111,-0.0007141446674293802,0.003034444125012908,0.0006147343375435359
1590504520.122287,0.0,-4.531695360276522,8.592715202073917,0.4655555555555556,0.3144444444444445,-0.6311111111111111,-0.00299508967093155,0.0022741291238455178,-0.0009058956647912438
1590504520.132287,-0.015419072417827088,-4.552290463791087,8.63687139137326,0.4655555555555556,0.3144444444444445,-0.6311111111111111,-0.001090830782496456,0.0008409799415453922,-0.0016819598830907843
1590504520.142287,0.0,-4.559310169275805,8.661724576810487,0.4660537666341409,0.31509595123951756,-0.6311111111111111,-0.0009779574941968991,-0.00011287328829955692,0.00015049771773274255
1590504520.152287,-0.005438773357090944,-4.542719386678545,8.707280613321455,0.48,0.3333333333333333,-0.6311111111111111,0.0009951052856056338,-0.0023825751379489097,0.0034734059204453655
1590504520.162287,-0.01732922910892546,-4.5526707708910745,8.67062152019818,0.48,0.3333333333333333,-0.6311111111111111,-0.0018903256548949525,0.0,0.0007994948723984964
1590504520.172287,-0.007182141021447597,-4.557182141021447,8.595635717957105,0.48,0.3333333333333333,-0.6311111111111111,-0.0007834500510425576,-0.0003073807314538983,0.0
1590504520.182287,-0.0015237706590491738,-4.551523770659049,8.617618853295246,0.48,0.3333333333333333,-0.6311111111111111,0.0,-0.001090830782496456,0.0003324351880711501
1590504520.192287,-0.007229136910834524,-4.557229136910834,8.646145684554172,0.48,0.3333333333333333,-0.6311111111111111,0.0,-0.001090830782496456,0.001577153014643927
1590504520.202287,-0.01,-4.551511037657892,8.702444811710542,0.4733974737339157,0.31069610042104434,-0.64903225383334,-0.000926002143422502,-0.002016832925918958,0.00032965727814790783
1590504520.212287,-0.011361596942378796,-4.57,8.67774562751859,0.4722222222222222,0.30666666666666664,-0.6522222222222223,0.0020331343791829275,0.001090830782496456,0.0006452492250665026
1590504520.222287,-0.019853135313531355,-4.57,8.600440594059405,0.4722222222222222,0.30666666666666664,-0.6522222222222223,0.0010587898783241177,0.001090830782496456,-0.0021736513389498274
1590504520.232287,-0.002549917491749175,-4.57,8.652350247524753,0.4722222222222222,0.30666666666666664,-0.6522222222222223,-0.0027161866489241373,0.001090830782496456,-0.0012299072071377637
1590504520.242287,-0.009285936850851682,-4.542142189447445,8.669285936850851,0.4722222222222222,0.30666666666666664,-0.6522222222222223,0.0007792619570015187,7.789220637373427e-05,-0.001090830782496456
1590504520.252287,-0.0013893710042401745,-4.5486106289957595,8.695831886987278,0.4722222222222222,0.32388792465818633,-0.6522222222222223,0.002969378615542729,0.0,-0.001090830782496456
1590504520.262287,-0.02870337043314172,-4.577406740866284,8.642220222598851,0.4722222222222222,0.32666666666666666,-0.6522222222222223,-0.00042432103350721785,0.0016159001869832882,-0.0018987808759881
1590504520.272287,-0.02137490608564989,-4.562749812171299,8.5982494365139,0.4722222222222222,0.32666666666666666,-0.6522222222222223,-0.002822555383108786,-0.0015817456124854697,-0.0002999579762537211
1590504520.282287,-0.007517936784952492,-4.533723094822571,8.624964126430095,0.4722222222222222,0.32666666666666666,-0.6522222222222223,-0.002046286017039115,-0.0013615818784040502,0.0009554552345426589
1590504520.2922869,0.008748497188287763,-4.558122745782431,8.657496994376576,0.4722222222222222,0.32666666666666666,-0.6522222222222223,-0.0011590896720662847,-0.0031359745683497108,6.825888956982868e-05
1590504520.3022869,-0.0022842877569677223,-4.556852863270903,8.667715712243032,0.4722222222222222,0.32,-0.6444444444444445,-0.0019324844248548945,-0.0020266066467992806,0.0019324844248548945
1590504520.3122869,-0.007849997618253703,-4.573549992854761,8.64279998094603,0.4722222222222222,0.32,-0.6444444444444445,-0.0008563019044515003,0.0024161904430378676,0.0006217730264065446
1590504520.3222868,-0.0018417384173841738,-4.55,8.59289216892169,0.4722222222222222,0.32,-0.6444444444444445,-0.0004018049917977925,0.0030715898515904718,-0.001090830782496456
1590504520.3322868,-0.009649818140301088,-4.550350181859699,8.650350181859698,0.4722222222222222,0.32,-0.6444444444444445,-0.0020670648193834833,0.002181661564992912,-0.0010526318672933132
1590504520.3422868,-0.002808794506695373,-4.557191205493305,8.657191205493305,0.4722222222222222,0.32,-0.6444444444444445,0.00017165492961337785,0.002181661564992912,-0.000306391950961026
1590504520.3522868,0.0,-4.540686691926097,8.70828327018476,0.4722222222222222,0.32,-0.6315689057285089,-0.001015924313388657,0.006395171756763136,-0.002106755095885113
1590504520.3622868,-0.00844720635487326,-4.5515527936451265,8.718260888968226,0.4722222222222222,0.32,-0.6311111111111111,0.002181661564992912,0.002181661564992912,0.001090830782496456
1590504520.3722868,0.0009887716581163488,-4.558022456683767,8.604943858290582,0.4722222222222222,0.32,-0.6311111111111111,0.002181661564992912,0.002397378077299587,0.0007672560140364435
1590504520.3822868,0.006511778770411284,-4.541744110614794,8.651744110614795,0.4722222222222222,0.32,-0.6311111111111111,0.0018962821329884362,0.004077943697981349,-0.0019914086103232616
1590504520.3922868,-0.0245841751153782,-4.5572920875576886,8.667292087557689,0.4722222222222222,0.32,-0.6311111111111111,-0.0006477496452397726,0.0015339119197531393,-0.0002953874248377887
1590504520.4022868,-0.0072248279489764596,-4.567591724017008,8.692775172051023,0.4671610728775504,0.3301222986893438,-0.6471380840359054,-0.001090830782496456,0.001090830782496456,0.0008281286249969807
1590504520.4122868,-0.01,-4.575270551589076,8.671486992860336,0.4655555555555556,0.3333333333333333,-0.6522222222222223,-0.0009876502242791626,0.0020784810067756183,-0.0009876502242791626
1590504520.4222867,-0.01,-4.54293157951549,8.613276843127881,0.4655555555555556,0.3333333333333333,-0.6522222222222223,-0.00028212330003593827,0.0013729540825323941,-0.00028212330003593827
1590504520.4322867,-0.0009443804864009211,-4.557166858540797,8.5990556195136,0.4655555555555556,0.3333333333333333,-0.6522222222222223,0.002963444556002838,-0.000884798921505436,0.000987814852000946
1590504520.4422867,0.0,-4.543040158737005,8.642399603157486,0.4655555555555556,0.3333333333333333,-0.6522222222222223,0.0014224606558965775,-0.00016581493670006085,0.00016581493670006085
1590504520.4522867,-0.009051417796794546,-4.54,8.70810283559359,0.4655555555555556,0.3144444444444445,-0.6311111111111111,0.0019747130315959484,0.0019747130315959484,0.0009873565157979742
1590504520.4622867,-0.001446986728551744,-4.54,8.692893973457103,0.4655555555555556,0.3144444444444445,-0.6311111111111111,0.00031568353307361735,0.00031568353307361735,0.00015784176653680867
1590504520.4722867,-0.001050259660241176,-4.541050259660241,8.602625649150603,0.4655555555555556,0.3144444444444445,-0.6311111111111111,0.00011456555670053438,0.0020098132299421105,0.0
1590504520.4822867,-0.01581762168823167,-4.555817621688232,8.639544054220579,0.4655555555555556,0.3144444444444445,-0.6311111111111111,0.0017254348643406664,-0.0004064907315180881,0.0
1590504520.4922867,-0.007185815058713211,-4.553592907529357,8.675628369882574,0.4655555555555556,0.3144444444444445,-0.6311111111111111,0.0014827561956650033,-0.0017897361518243644,0.0
1590504520.5022867,0.008193369263432957,-4.5745801077902986,8.681806630736567,0.4655555555555556,0.3080718239062188,-0.6311111111111111,0.001090830782496456,-0.0030754195054842103,-0.0008937579404912984
1590504520.5122867,-0.01,-4.55,8.67395459057072,0.4655555555555556,0.30666666666666664,-0.6311111111111111,-7.327242998059322e-05,-0.002181661564992912,-0.0020351167050317257
1590504520.5222867,-0.010970180877400362,-4.550970180877401,8.5929105426322,0.4655555555555556,0.30666666666666664,-0.6311111111111111,-0.0014083217321937762,-0.0022874918815586854,-0.00010583031656577343
1590504520.5322866,-0.02027712219261515,-4.56,8.621385610963076,0.4655555555555556,0.30666666666666664,-0.6311111111111111,-0.004393552471807576,-0.0032120336638458646,-0.001090830782496456
1590504520.5422866,-0.028260182717929197,-4.56,8.661300913589645,0.4655555555555556,0.30666666666666664,-0.6311111111111111,-0.005264369287762065,-0.0014704000319368863,-0.001090830782496456
1590504520.5522866,-0.03,-4.54258223815213,8.661291119076065,0.47136147617151203,0.3134402407186159,-0.6369170317270676,-0.004504162373189867,-0.003940805400373696,-0.00014083924320404265
1590504520.5622866,-0.004239266360983745,-4.548586911213005,8.66,0.4722222222222222,0.3144444444444445,-0.6377777777777778,-0.004363323129985824,-0.004363323129985824,0.002810060123313088
1590504520.5722866,-0.04026249274494018,-4.52986875362753,8.61973750725506,0.4722222222222222,0.3144444444444445,-0.6377777777777778,-0.006559301453296873,-0.008023287002170906,0.0025404995730523515
1590504520.5822866,-0.2942473213967892,-4.363835119068807,8.669406613747196,0.4722222222222222,0.3144444444444445,-0.6377777777777778,-0.0038502719382609934,-0.006978319388057454,0.00975274864342131
1590504520.5922866,-0.25879249852516534,-4.363735833824944,8.685933958456236,0.4722222222222222,0.3144444444444445,-0.6377777777777778,-3.602007443055796e-05,-0.0052503957857552115,0.03421090819098799
1590504520.6022866,-0.12379667438434012,-4.4463102504735845,8.716524100189433,0.4722222222222222,0.3063398582754508,-0.6237789471222432,0.0014583289408765501,-0.009426651498800356,0.08272818408007324
1590504520.6122866,-0.008385294913752799,-4.561519722434115,8.728765225522283,0.4722222222222222,0.3022222222222222,-0.6166666666666667,0.0,-0.011936972607011648,0.13097222090009897
1590504520.6222866,0.16119696862384023,-4.71960101045872,8.60159595816512,0.4722222222222222,0.3022222222222222,-0.6166666666666667,0.00013056902205673283,-0.0055847229345390124,0.13788266426676626
1590504520.6322865,0.19025502148496054,-4.710255021484961,8.640255021484961,0.4722222222222222,0.3022222222222222,-0.6166666666666667,0.003244673818890078,-0.008671009202773068,0.12136631031022366
1590504520.6422865,0.19863775357249927,-4.718637753572499,8.6486377535725,0.4722222222222222,0.3022222222222222,-0.6166666666666667,0.0023302595986392765,-0.0068421807622714645,0.09484829792295041
1590504520.6522865,0.08318985763275487,-4.646993661020471,8.657300633897954,0.4722222222222222,0.31114521920860905,-0.6320791160067893,0.0005889103274681064,-0.003359482219929125,0.06425855952804654
1590504520.6622865,-0.046645498071552056,-4.552609057055459,8.640745444872989,0.4722222222222222,0.3144444444444445,-0.6377777777777778,0.003150519215372877,-0.002181661564992912,0.01883565468393019
1590504520.6722865,-0.04000612040051901,-4.559993879599481,8.550055083604672,0.4722222222222222,0.3144444444444445,-0.6377777777777778,0.006542981798592532,-0.0010914984146251903,0.0021910084147951925
1590504520.6822865,-0.03,-4.54,8.620075112107623,0.4722222222222222,0.3144444444444445,-0.6377777777777778,0.00545415391248228,0.0010840028992353142,0.0010894652058442277
1590504520.6922865,-0.03,-4.54,8.667096412556054,0.4722222222222222,0.3144444444444445,-0.6377777777777778,0.00545415391248228,-0.0031903539309448854,0.0002345938398081878
1590504520.7022865,-0.014782739136956848,-4.5476086304315215,8.718043152157609,0.4815216594163042,0.31867146135084534,-0.6217151135334544,0.0071140995699508856,-0.0027033774725172184,0.0016599456574686055
1590504520.7122865,-0.019781714792338617,-4.560109142603831,8.709454286980847,0.4844444444444445,0.32,-0.6166666666666667,0.0022054727873809785,-0.0010670195601083891,-1.190561119403338e-05
1590504520.7222865,-0.006958834589339489,-4.56652058270533,8.677397086473349,0.4844444444444445,0.32,-0.6166666666666667,0.0036042320319505643,0.0003317396844611962,-0.0007112852334788261
1590504520.7322865,-0.022523485204321275,-4.562492171598559,8.682523485204321,0.4844444444444445,0.32,-0.6166666666666667,0.007639231261982774,0.0027287848484949316,-0.00027185374949721837
1590504520.7422864,-0.03,-4.56,8.684520868627752,0.4844444444444445,0.32,-0.6166666666666667,0.00992200729240947,0.0008817702826137224,0.0
1590504520.7522864,-0.019721167585221473,-4.549721167585221,8.690278832414778,0.47816293574652424,0.32342627747159286,-0.6200929441382595,0.00978706114434828,3.041589811982352e-05,0.0005606233403081397
1590504520.7622864,-0.018126893939393943,-4.531873106060607,8.643111742424242,0.4722222222222222,0.32666666666666666,-0.6233333333333333,0.011386166082524086,-0.0033417022550909416,0.00020432417497897627
1590504520.7722864,-0.02,-4.539884278859724,8.541041490262488,0.4722222222222222,0.32666666666666666,-0.6233333333333333,0.01092093104316449,-0.004363323129985824,0.0021564151285930503
1590504520.7822864,-0.00599838182247244,-4.547000809088764,8.603007281798874,0.4722222222222222,0.32666666666666666,-0.6233333333333333,0.005562619185481413,-0.004363323129985824,0.0014179917593524624
1590504520.7922864,-0.019010259505129752,-4.543663246831623,8.63,0.4722222222222222,0.32666666666666666,-0.6233333333333333,0.00119879472234523,-0.002289625504841686,-0.000982866842647682
1590504520.8022864,-0.017810063167066,-4.527810063167066,8.67266477891527,0.4681589099445776,0.322603354389022,-0.6321371766015634,-0.0006648579167025883,-0.0017556886991990442,-0.0008519457315877353
1590504520.8122864,-0.029870097633625678,-4.529935048816813,8.719870097633626,0.4655555555555556,0.32,-0.6377777777777778,0.0010766606325004321,-0.002181661564992912,0.001083745707498444
1590504520.8222864,-0.03,-4.569087039895234,8.622282400261915,0.4655555555555556,0.32,-0.6377777777777778,2.489712463674609e-05,0.003148006724305637,-0.0021069701910826737
1590504520.8322864,-0.03,-4.551815074573864,8.647277388139205,0.4655555555555556,0.32,-0.6377777777777778,0.0,0.004264326169100969,-0.0001979939217697092
1590504520.8422863,-0.03758840509983161,-4.542411594900169,8.680353620399327,0.4655555555555556,0.32,-0.6377777777777778,-0.0024832997618848235,0.0076743894791655885,0.0016555331745898823
1590504520.8522863,-0.04884921456675444,-4.548849214566754,8.681150785433246,0.45867283311474655,0.3082010472443274,-0.6249955789591325,-0.007133690607622077,0.007761346694938471,0.003146961130026089
1590504520.8622863,-0.032307924773926584,-4.55,8.68,0.4577777777777778,0.30666666666666664,-0.6233333333333333,-0.007635815477475192,0.005705909451190809,0.003272492347489368
1590504520.8722863,-0.03,-4.55,8.609927519067696,0.4577777777777778,0.30666666666666664,-0.6233333333333333,-0.006361861824027643,0.001632292952139635,0.0013615618673180454
1590504520.8822863,-0.03609584489700192,-4.543904155102998,8.59657506938201,0.4577777777777778,0.30666666666666664,-0.6233333333333333,-0.0034592933347901917,-0.005745505463777995,0.0006649535258973627
1590504520.8922863,-0.03500539239437941,-4.549989215211241,8.639978430422483,0.4577777777777778,0.30666666666666664,-0.6233333333333333,-0.004360970254073657,-0.008726646259971648,0.0005460036102262696
1590504520.9022863,-0.04921690948543087,-4.533096326720397,8.69074705517669,0.46332932940690225,0.3096559636977337,-0.6263226303644003,-0.004448745053863123,-0.009565142116417893,0.0004192479282231226
1590504520.9122863,-0.13361220530307483,-4.428728908225057,8.717023340584397,0.4722222222222222,0.3144444444444445,-0.6311111111111111,-0.0044326504317601005,-0.01007285291264865,0.00359719551944419
1590504520.9222863,-0.21609896656534955,-4.385212887537993,8.643901033434652,0.4722222222222222,0.3144444444444445,-0.6311111111111111,-0.008158008440758055,-0.006212337671433737,0.016080026085847514
1590504520.9322863,-0.24826390468359083,-4.361736095316409,8.666527809367182,0.4722222222222222,0.3144444444444445,-0.6311111111111111,-0.010718929203715852,-0.0027977766541566725,0.0391310470544632
1590504520.9422863,-0.23720322458601323,-4.36709758156049,8.701398387706993,0.4722222222222222,0.3144444444444445,-0.6311111111111111,-0.012620824216541895,-0.001090830782496456,0.07909235875030769
1590504520.9522862,-0.1934232324549961,-4.388858922515001,8.718858922515002,0.4722222222222222,0.3252720164072238,-0.6370170594544453,-0.011157252314134601,-0.004956264934142194,0.18237243546756082
1590504520.9622862,-0.15905604185531744,-4.4132079686085115,8.72,0.4722222222222222,0.32666666666666666,-0.6377777777777778,-0.01090830782496456,-0.00545415391248228,0.19307704850187268
1590504520.9722862,-0.12353852785860545,-4.426615368035349,8.620769479469772,0.4722222222222222,0.32666666666666666,-0.6377777777777778,-0.008021808988764001,-0.009062277457732977,0.21905553802767774
1590504520.9822862,-0.11,-4.4934889910476645,8.625552867166707,0.4722222222222222,0.32666666666666666,-0.6377777777777778,-0.011739165628811363,-0.02562515380415701,0.2713033136754898
1590504520.9922862,-0.14968472795073168,-4.51,8.666456485300488,0.4722222222222222,0.32666666666666666,-0.6377777777777778,-0.012368480675896545,-0.03378136341176986,0.287927740310634
1590504521.0022862,-0.21238592147152457,-4.51,8.705431552882915,0.48917659081083203,0.31630566364029405,-0.6377777777777778,-0.008300269176611696,-0.041545719968657024,0.29864955778825236
1590504521.0122862,-0.22808220060555306,-4.518082200605552,8.661506796366682,0.4922222222222222,0.3144444444444445,-0.6377777777777778,-0.01028070944072982,-0.04430566315953153,0.30967640971845906
1590504521.0222862,-0.19782691323733645,-4.495870184928003,8.601740369856005,0.4922222222222222,0.3144444444444445,-0.6377777777777778,-0.013540462330612756,-0.04472406208235469,0.3242609914870114
1590504521.0322862,-0.19,-4.465499470185916,8.622667373085445,0.4922222222222222,0.3144444444444445,-0.6377777777777778,-0.016853393383321362,-0.03492455364250743,0.340612200803274
1590504521.0422862,-0.16999281246357667,-4.466669062512141,8.643338125024282,0.4922222222222222,0.3144444444444445,-0.6377777777777778,-0.02472811119857996,-0.02763255039984801,0.353796442636475
1590504521.0522861,-0.14133498936750785,-4.386007452153785,8.67799751594874,0.48859291459923765,0.3144444444444445,-0.6346669426723623,-0.03294268317945572,-0.030688209239643653,0.3558292722183021
1590504521.0622861,-0.12,-4.2379243115606755,8.71,0.4844444444444445,0.3144444444444445,-0.6311111111111111,-0.041966128318663316,-0.0370882466048795,0.3405038085860823
1590504521.0722861,-0.1301573712703009,-4.129370514918796,8.679527886189097,0.4844444444444445,0.3144444444444445,-0.6311111111111111,-0.04967571696006994,-0.03265625730452376,0.3056776199948875
1590504521.0822861,-0.3249023268217881,-3.8188099206613773,8.662326821788119,0.4844444444444445,0.3144444444444445,-0.6311111111111111,-0.05549738877975652,-0.023431225570737423,0.2707527238083738
1590504521.092286,-0.5229339215882883,-3.4557946455429662,8.772860723954677,0.4844444444444445,0.3144444444444445,-0.6311111111111111,-0.06449770797840144,-0.007358431855254094,0.241428317082688
1590504521.102286,-0.44521987978828387,-3.5440471875841033,8.78117269220418,0.4882763274622968,0.3144444444444445,-0.6415119364452817,-0.059048773239713914,0.0027030917920902583,0.24314333373067226
1590504521.112286,-0.41567900803353125,-3.6816049598323435,8.76683129584352,0.4922222222222222,0.3144444444444445,-0.6522222222222223,-0.043880125588037666,-0.004489018231329022,0.2706786665465357
1590504521.122286,-0.36464977332879117,-3.9791714053614946,8.698599093315165,0.4922222222222222,0.3144444444444445,-0.6522222222222223,-0.025068298144174148,-0.021121800948266652,0.3332174320555029
1590504521.132286,-0.37198280174364595,-4.113965603487292,8.64,0.4922222222222222,0.3144444444444445,-0.6522222222222223,-0.011641781809107625,-0.027994863352836324,0.4037109354294139
1590504521.142286,-0.2735227863455207,-3.817223184889967,8.62669034829319,0.4922222222222222,0.3144444444444445,-0.6522222222222223,-0.021793366267456916,-0.025822786680880623,0.49365744587118443
1590504521.152286,-0.09083739520374343,-3.0055761356989668,9.02470949502827,0.4922222222222222,0.3077471241957497,-0.6273464612984987,-0.06969066695426762,-0.027755465088500186,0.666190286896384
1590504521.162286,-0.1253571711188234,-2.904258243932217,8.860054827660273,0.4922222222222222,0.30666666666666664,-0.6233333333333333,-0.04430749220632724,-0.04879970401172938,0.8248779164381167
1590504521.172286,-0.18699691382448366,-2.9089997626018835,8.6040128194983,0.4922222222222222,0.30666666666666664,-0.6233333333333333,-0.008619350013818042,-0.07155735990260481,0.9769404353453298
1590504521.182286,-0.23938864975303992,-2.94938864975304,8.60251819967072,0.4922222222222222,0.30666666666666664,-0.6233333333333333,-0.021857900737763676,-0.08423531924054292,1.1042605532592404
1590504521.192286,-0.28395253264596454,-2.9939525326459644,8.743774530068332,0.4922222222222222,0.30666666666666664,-0.6233333333333333,-0.03141851547844521,-0.09946176135202493,1.2318302436699344
1590504521.202286,-0.33099961420536456,-3.0254998071026824,8.804500192897317,0.48820375371411945,0.29690752886127414,-0.6273518018414361,-0.027725317458173592,-0.10971936113637985,1.3487205533880537
1590504521.212286,-0.3832097501679409,-3.092221937877867,8.807407312625955,0.4844444444444445,0.2877777777777778,-0.6311111111111111,-0.032684480978591154,-0.1231156823204629,1.475812884570682
1590504521.222286,-0.4207116849518517,-3.1852311598716043,8.764768840128395,0.4844444444444445,0.2877777777777778,-0.6311111111111111,-0.03817907738737596,-0.13617138071690602,1.5976942185901872
1590504521.232286,-0.4437708807896735,-3.21,8.767541761579347,0.4844444444444445,0.2877777777777778,-0.6311111111111111,-0.03893016242074921,-0.13853550937704992,1.6991407578691673
1590504521.242286,-0.4840895110410095,-3.2270447555205046,8.723184148264984,0.4844444444444445,0.2877777777777778,-0.6311111111111111,-0.03555131936949383,-0.1410145685773023,1.7808783346445534
1590504521.252286,-0.5293299466272265,-3.246443315542409,8.712216577712045,0.4987629234275753,0.26558413535392505,-0.6311111111111111,-0.042564917183890064,-0.14992739944203315,1.8771399940710671
1590504521.262286,-0.5785811556481,-3.3335925039042165,8.78787173347215,0.5066666666666667,0.2533333333333333,-0.6311111111111111,-0.045190853616161764,-0.1587171167559443,1.9629636100321817
1590504521.272286,-0.6081293537230991,-3.3637412925538017,8.706189047876613,0.5066666666666667,0.2533333333333333,-0.6311111111111111,-0.03476548201689955,-0.15567891877555234,2.0288622242170073
1590504521.282286,-0.6316521633051398,-3.356313028627196,8.537669567338972,0.5066666666666667,0.2533333333333333,-0.6311111111111111,-0.027917674089571787,-0.15285479254002735,2.098591465248892
1590504521.292286,-0.6894694445615959,-3.439204166842394,8.700357639913964,0.5066666666666667,0.2533333333333333,-0.6311111111111111,-0.05330602179131832,-0.17922463389415497,2.1884003238541374
1590504521.302286,-0.7513188250285024,-3.47,8.738335457045135,0.5138810646875163,0.23037843053972085,-0.643572344056215,-0.04023224024205736,-0.18054017589489857,2.270760515036177
1590504521.312286,-0.8100375924653381,-3.506045110958406,8.772165406847488,0.5188888888888888,0.21444444444444444,-0.6522222222222223,-0.04496437202877959,-0.18610885373977723,2.344464366444175
1590504521.322286,-0.83,-3.511497859803213,8.91550642059036,0.5188888888888888,0.21444444444444444,-0.6522222222222223,-0.04595909185316493,-0.1876949940835473,2.410486015680154
1590504521.332286,-0.8786060277216001,-3.5208311547378286,8.700026143146056,0.5188888888888888,0.21444444444444444,-0.6522222222222223,-0.03926990816987242,-0.18738017088496378,2.476393625374202
1590504521.3422859,-0.9108757337651584,-3.5571893344128958,8.802076808420589,0.5188888888888888,0.21444444444444444,-0.6522222222222223,-0.06774251258572236,-0.21066135794243787,2.5190503491746
1590504521.3522859,-0.9309630750218396,-3.5580738499563207,8.910567191528349,0.5310700833575995,0.19779681200387314,-0.6493799435128564,-0.07568463945684806,-0.22030463387418592,2.5617772664337455
1590504521.3622859,-0.9662298144935273,-3.5078276391298546,8.716965834779126,0.5522222222222222,0.1688888888888889,-0.6444444444444445,-0.046668755836563054,-0.2041909880471464,2.617801967184204
1590504521.3722858,-1.03420358497972,-3.477370404291509,8.622629595708492,0.5522222222222222,0.1688888888888889,-0.6444444444444445,-0.04679057484775083,-0.2090940638405292,2.6575485753466856
1590504521.3822858,-1.0849123685528292,-3.4650175262894343,8.625017526289435,0.5522222222222222,0.1688888888888889,-0.6444444444444445,-0.04690954729055115,-0.21542952043504118,2.6670774395606314
1590504521.3922858,-1.1271975232198144,-3.4668790092879256,8.688790092879257,0.5522222222222222,0.1688888888888889,-0.6444444444444445,-0.0506923856696776,-0.21704058123663894,2.6636697929357225
1590504521.4022858,-1.176783102874104,-3.3793013827553753,8.747273220878881,0.5553302042359453,0.1291067191132347,-0.660605950915804,-0.04595992368596566,-0.20879115573817603,2.6422668569277596
1590504521.4122858,-1.22693643769902,-3.3246242917993465,8.683843927050162,0.5577777777777778,0.09777777777777777,-0.6733333333333333,-0.04229334230015973,-0.20398535632683729,2.601956125735559
1590504521.4222858,-1.2664118721889055,-3.307176255622189,8.79488310532234,0.5577777777777778,0.09777777777777777,-0.6733333333333333,-0.0582440213893162,-0.20935612894145395,2.548475647212967
1590504521.4322858,-1.2892068986581418,-3.266189652012787,8.88539655067093,0.5577777777777778,0.09777777777777777,-0.6733333333333333,-0.052566755813340756,-0.19622728855095925,2.4972219785146543
1590504521.4422858,-1.338400318344608,-3.265360127337843,8.841599681655392,0.5577777777777778,0.09777777777777777,-0.6733333333333333,-0.03909540997068277,-0.18316364085736256,2.440572182852741
1590504521.4522858,-1.4107363880727635,-3.2738954178908544,8.8390501344002,0.5512166517333111,0.06616507956352927,-0.6769121293575879,-0.05635531720718969,-0.19701544745725538,2.3517869460357637
1590504521.4622858,-1.4289144509810365,-3.242171098037927,8.867713872547409,0.5455555555555556,0.03888888888888889,-0.68,-0.05426706577974136,-0.18832083699822602,2.2901831487897537
1590504521.4722857,-1.461872170439414,-3.216875404222941,8.771258892904697,0.5455555555555556,0.03888888888888889,-0.68,-0.03865653632413159,-0.17221535072545485,2.235455935869377
1590504521.4822857,-1.5296737930011375,-3.170652413997725,8.686890896203867,0.5455555555555556,0.03888888888888889,-0.68,-0.0387695252624253,-0.16857838837950356,2.156873812327299
1590504521.4922857,-1.5687192952735898,-3.102733920605342,8.788546784121067,0.5455555555555556,0.03888888888888889,-0.68,-0.04440701955948444,-0.17152102123216556,2.09684532921945
1590504521.5022857,-1.6324533213836077,-3.0525280071698355,8.775018671446556,0.5485997007826596,0.020347277051073222,-0.6858115499790169,-0.04064057523402331,-0.15543727628914755,2.0053042105870413
1590504521.5122857,-1.6819754531588096,-3.001258912418857,8.77197545315881,0.5577777777777778,-0.03555555555555556,-0.7033333333333334,-0.0359516404750845,-0.15773948643898422,1.914062986280552
1590504521.5222857,-1.730263546489801,-2.899736453510199,8.779209360530597,0.5577777777777778,-0.03555555555555556,-0.7033333333333334,-0.03759053930257365,-0.14552528984498403,1.7876113055628264
1590504521.5322857,-1.7720840663782036,-2.89,8.760694688792734,0.5577777777777778,-0.03555555555555556,-0.7033333333333334,-0.03483080624794957,-0.13597495385237193,1.679362957795181
1590504521.5422857,-1.816143300382423,-2.8859641749043945,8.802286600764846,0.5577777777777778,-0.03555555555555556,-0.7033333333333334,-0.031174312909155066,-0.1251765709783987,1.5810644139989776
1590504521.5522857,-1.8497786587380245,-2.8865191058253497,8.836961788349301,0.5537938797733974,-0.04750724956869655,-0.7080415764294192,-0.02442627303895406,-0.1120965868765026,1.474177741018078
1590504521.5622857,-1.8812352590827874,-2.8943823704586062,8.804382370458606,0.5455555555555556,-0.07222222222222223,-0.7177777777777777,-0.016705758333915646,-0.09947415194046003,1.3347150775849541
1590504521.5722857,-1.8949998938361254,-2.880000212327749,8.73500138013037,0.5455555555555556,-0.07222222222222223,-0.7177777777777777,-0.01472622714438439,-0.09162990153652466,1.22718585786083
1590504521.5822856,-1.9263524355300858,-2.8511768317642243,8.707646336471552,0.5455555555555556,-0.07222222222222223,-0.7177777777777777,-0.015823431479309414,-0.08494365833707841,1.1246088957243887
1590504521.5922856,-1.9837199349686798,-2.798048104050112,8.786463921962415,0.5455555555555556,-0.07222222222222223,-0.7177777777777777,-0.01884344585039346,-0.0808078816340547,1.0172452407212254
1590504521.6022856,-2.067803269032543,-2.753658076866441,8.82658548078339,0.5364501709779284,-0.0839833439683241,-0.724986207235066,-0.018145089017374563,-0.07042526252268012,0.8869266722614735
1590504521.6122856,-2.1500602348482287,-2.756807214645866,8.833253020202362,0.5188888888888888,-0.10666666666666667,-0.7388888888888889,-0.01599447107483958,-0.05927942352007855,0.7652769108884787
1590504521.6222856,-2.1339033427305676,-2.707072492952074,8.851217478856222,0.5188888888888888,-0.10666666666666667,-0.7388888888888889,-0.017027503879429577,-0.05456789830603495,0.6738647795942893
1590504521.6322856,-2.1870343372338383,-2.6731862651064646,8.773406867446766,0.5188888888888888,-0.10666666666666667,-0.7388888888888889,-0.010860179860265886,-0.04026448302297152,0.535571129947145
1590504521.6422856,-2.2260862911295547,-2.661217258225911,8.78,0.5188888888888888,-0.10666666666666667,-0.7388888888888889,-0.007208896066514044,-0.030571834497940733,0.45667991237487937
1590504521.6522856,-2.2809632850898054,-2.667259178727549,8.80192657017961,0.5182798174950108,-0.11032109502993515,-0.746806817009304,-0.010504252500805491,-0.02081460588310784,0.35102863425096137
1590504521.6622856,-2.31,-2.6509085618011947,8.838786644202786,0.5166666666666667,-0.12,-0.7677777777777778,-0.006214410673498036,-0.012296464761624087,0.2611037221210733
1590504521.6722856,-2.296447033898305,-2.6254823446327684,8.758376412429378,0.5166666666666667,-0.12,-0.7677777777777778,-0.00594695366641094,-0.0064397534203396,0.16435091346326616
1590504521.6822855,-2.312712378184733,-2.6340195906506,8.7340195906506,0.5166666666666667,-0.12,-0.7677777777777778,-0.005525451292333803,-0.002028381762928063,0.07811921918631637
1590504521.6922855,-2.3318082654515386,-2.6354466123612306,8.764553387638768,0.5166666666666667,-0.12,-0.7677777777777778,-0.0035695589686871834,0.006744615613881745,-0.0009102379208470249
1590504521.7022855,-2.3067115339986075,-2.625660245996751,8.807897423996286,0.5139323380005674,-0.12,-0.7710092571104407,-0.0026697380905564227,0.013104652190000357,-0.07806920728319786
1590504521.7122855,-2.325354275519307,-2.6660628265579205,8.874645724480693,0.5044444444444445,-0.12,-0.7822222222222223,-0.0023362434217707967,0.025286714210916474,-0.19092166029203358
1590504521.7222855,-2.3402767545560295,-2.6662214036448235,8.815114385420706,0.5044444444444445,-0.12,-0.7822222222222223,0.0030965911254379084,0.0358517038392229,-0.27758423581525205
1590504521.7322855,-2.38475302889096,-2.7084412861137,8.74950605778192,0.5044444444444445,-0.12,-0.7822222222222223,0.005221856770077396,0.04604719000725603,-0.36529183121128933
1590504521.7422855,-2.397369209327481,-2.732421525596489,8.789895367461986,0.5044444444444445,-0.12,-0.7822222222222223,0.0038464418370669972,0.05100489931120813,-0.4420033260583682
1590504521.7522855,-2.368655728267127,-2.719892260876717,8.766182663047948,0.5026583417861483,-0.12494613043835842,-0.7848326799535781,0.011324714690410508,0.05533909531006775,-0.5140801802691203
1590504521.7622855,-2.4290227403569373,-2.7888831318364997,8.809301957397812,0.4902016567517431,-0.15944156591824987,-0.8030386042346319,0.006621129330774761,0.06850913431704786,-0.5846339606636565
1590504521.7722855,-2.365102004134088,-2.743644288667206,8.772915430933764,0.49,-0.16,-0.8033333333333333,0.008567634169632,0.0717563135092566,-0.6585915112881143
1590504521.7822855,-2.334594211698037,-2.794594211698037,8.696891317547054,0.49,-0.16,-0.8033333333333333,0.006884089346246608,0.08281461019553898,-0.7515073469125639
1590504521.7922854,-2.3487421574580045,-2.8087421574580045,8.718113236187007,0.49,-0.16,-0.8033333333333333,0.004569137134637174,0.08590121314435156,-0.8016646448307683
1590504521.8022854,-2.334258145744242,-2.833827902837172,8.814258145744242,0.4887240323876093,-0.1676558056743439,-0.8018447044522109,0.003272492347489368,0.09657251577606873,-0.8854001884511024
1590504521.8122854,-2.2981710198809036,-2.8603503576042093,8.788521377485113,0.4833333333333333,-0.2,-0.7955555555555556,0.002949906956503145,0.10508055859660133,-0.9496893289365007
1590504521.8222854,-2.2375931494979358,-2.9313897242469036,8.734441103012385,0.4833333333333333,-0.2,-0.7955555555555556,0.0031615410846078914,0.1134464013796314,-1.0374426805795893
1590504521.8322854,-2.234153763053655,-2.9698077961829314,8.699615592365863,0.4833333333333333,-0.2,-0.7955555555555556,0.005248567466393305,0.11603923583680227,-1.1127860106463396
1590504521.8422854,-2.216207590569293,-3.006207590569293,8.769311385853939,0.4833333333333333,-0.2,-0.7955555555555556,0.002595349259677451,0.12134567225023397,-1.1818988436915259
1590504521.8522854,-2.23,-3.032135457473666,8.7827187255158,0.4836030101660814,-0.19352775601404487,-0.7853078359111266,0.001620340005374513,0.12408995459315693,-1.2490217577934746
1590504521.8622854,-2.214516923317439,-3.0792898460095364,8.77548307668256,0.4844444444444445,-0.17333333333333334,-0.7533333333333333,0.003948069013612984,0.12562839675353218,-1.3241478734000351
1590504521.8722854,-2.172445915862778,-3.109442605171528,8.7760066213825,0.4844444444444445,-0.17333333333333334,-0.7533333333333333,0.007102199414572364,0.12986966546076842,-1.3816197813301794
1590504521.8822854,-2.143037559529158,-3.1712629167041064,8.66341315482074,0.4844444444444445,-0.17333333333333334,-0.7533333333333333,0.013186761141032611,0.12643957901851377,-1.4487313428571267
1590504521.8922853,-2.135198053264837,-3.2115417447227643,8.742114563819309,0.4844444444444445,-0.17333333333333334,-0.7533333333333333,0.010446981563833457,0.1282567060734507,-1.500978500897071
1590504521.9022853,-2.0790611160318866,-3.1823472099202834,8.750469441984057,0.485461568743234,-0.17239444936521997,-0.754011416199193,0.008957083055034008,0.12666439121129022,-1.5468850068611302
1590504521.9122853,-2.0436796153359484,-3.270800961660129,8.768160192332026,0.5237915278305004,-0.1370129486692817,-0.7795647222573706,0.01764100982529508,0.13148879497254637,-1.5912695214646868
1590504521.9222853,-2.056379927442721,-3.363620072557279,8.763966545737869,0.5277777777777778,-0.13333333333333333,-0.7822222222222223,0.01996402796663208,0.13909982194883297,-1.644991066474125
1590504521.9322853,-1.9979130326439074,-3.4252174183902317,8.668956516321954,0.5277777777777778,-0.13333333333333333,-0.7822222222222223,0.025430587232532158,0.13192413160491573,-1.7012502288969895
1590504521.9422853,-1.9582561566202987,-3.4781539412673883,8.681743843379701,0.5277777777777778,-0.13333333333333333,-0.7822222222222223,0.029251057358221345,0.1407171709420428,-1.7584697334248491
1590504521.9522853,-1.9,-3.515259667414544,8.735640095024417,0.5202690525420498,-0.14495974660155733,-0.7822222222222223,0.03210968454800987,0.1407171709420428,-1.8084880951619793
1590504521.9622853,-1.8797733623098416,-3.578090655076063,8.740226637690158,0.4933333333333334,-0.18666666666666668,-0.7822222222222223,0.03205064713588392,0.14468866196543181,-1.870556016233054
1590504521.9722853,-1.8194745891276864,-3.574737294563843,8.780175136957437,0.4933333333333334,-0.18666666666666668,-0.7822222222222223,0.03250475309495921,0.15330948613683357,-1.911068196381317
1590504521.9822853,-1.7346341340075853,-3.5323170670037927,8.808455288664138,0.4933333333333334,-0.18666666666666668,-0.7822222222222223,0.040988189599177285,0.16102170114066816,-1.9442307208978058
1590504521.9922853,-1.707141929329626,-3.6785742120111222,8.750019484077855,0.4933333333333334,-0.18666666666666668,-0.7822222222222223,0.0380200057393023,0.16206436471944505,-2.0057310010918448
1590504522.0022852,-1.645949983327776,-3.6617145715238415,8.886487495831945,0.49133148086399175,-0.16739883664925348,-0.7609525397354674,0.021196889912277417,0.15266676931856818,-2.049758990588669
1590504522.0122852,-1.46,-3.53,8.84,0.4844444444444445,-0.10111111111111112,-0.6877777777777778,0.04908738521234052,0.1712604328519436,-2.072578486743266
1590504522.0222852,-1.4445613379977202,-3.602047089343972,8.85543866200228,0.4844444444444445,-0.10111111111111112,-0.6877777777777778,0.026632761542146974,0.1538580995075436,-2.114680906124879
1590504522.0322852,-1.4259964714348723,-3.7020282285210206,8.813950600088214,0.4844444444444445,-0.10111111111111112,-0.6877777777777778,0.018555670504817316,0.14705245742893247,-2.162688422605646
1590504522.0422852,-1.4168193931736976,-3.7563612136526046,8.688652111258069,0.4844444444444445,-0.10111111111111112,-0.6877777777777778,0.04546503543698886,0.1711575665422927,-2.179279984897712
1590504522.0522852,-1.4116210886142517,-3.805663949513542,8.776698658953457,0.48804686358722654,-0.08688155549712216,-0.6796723347065183,0.05719619042432443,0.18668121763463472,-2.1926273830918417
1590504522.0622852,-1.3789632140699468,-3.9104135060750487,9.61414412297778,0.5066666666666667,-0.013333333333333334,-0.6377777777777778,0.04387069953021576,0.15546312060629425,-2.2180546513619297
1590504522.0722852,-1.0018391721670172,-3.3308346026450035,8.26355407267716,0.5066666666666667,-0.013333333333333334,-0.6377777777777778,0.1673102492545563,0.1132474403433133,-2.227004373744548
1590504522.0822852,-0.86,-3.3,6.95,0.5066666666666667,-0.013333333333333334,-0.6377777777777778,0.28907015736156083,0.08835729338221293,-2.2122048269028127
1590504522.0922852,-1.0757270017960407,-3.64381490911244,8.864577140939861,0.5066666666666667,-0.013333333333333334,-0.6377777777777778,0.04492394115521664,0.244257889273011,-2.2026448847019617
1590504522.1022851,-1.0602719536483796,-3.8376295491580663,8.647978634799928,0.5066666666666667,-0.013333333333333334,-0.6377777777777778,-0.19364231333973347,0.1488248304787945,-2.245242048337743
1590504522.1122851,-1.003225214745884,-3.6302608267716536,9.24505100214746,0.5188888888888888,0.09222222222222222,-0.6377777777777778,0.02242723101994503,0.14263930145382722,-2.2065980191478265
1590504522.1222851,-0.8434357181406481,-3.5915737851092286,8.55406903348429,0.5188888888888888,0.09222222222222222,-0.6377777777777778,0.17636709354098984,0.20153357867559507,-2.1562981943342447
1590504522.132285,-0.8334297542043985,-3.7713360931435966,8.785489003880983,0.5188888888888888,0.09222222222222222,-0.6377777777777778,0.06478798219738569,0.20119291419356478,-2.139020749807023
1590504522.142285,-0.8498143432026284,-3.819628686405257,9.106564085615972,0.5188888888888888,0.09222222222222222,-0.6377777777777778,-0.011354127835859462,0.09852931852733775,-2.1383762230180183
1590504522.152285,-0.75,-3.6351899591030885,8.512428148357072,0.5176614174462151,0.09713210799291747,-0.6387750983249503,0.024379906464000754,0.15569005794274018,-2.095480887448762
1590504522.162285,-0.7438329882677709,-3.824582470669427,8.707751552795031,0.5011111111111111,0.16333333333333333,-0.6522222222222223,0.07809836487607615,0.174687101972556,-2.030694800466543
1590504522.172285,-0.7148868184955142,-3.7522170462387856,8.838009316770187,0.5011111111111111,0.16333333333333333,-0.6522222222222223,0.029945921016083392,0.14469049760075722,-2.0030663490714646
1590504522.182285,-0.6853592408495255,-3.7718300948938093,8.723004970628107,0.5011111111111111,0.16333333333333333,-0.6522222222222223,0.04327685052455551,0.138564098706189,-1.9297935186333193
1590504522.192285,-0.6221825576140985,-3.7797271802982375,8.304459444193402,0.5011111111111111,0.16333333333333333,-0.6522222222222223,0.06998144046313276,0.15751574317872769,-1.8738000236008183
1590504522.202285,-0.648974291131984,-3.95,8.85179432905587,0.5013390464151146,0.16518530767836231,-0.6520227788312192,0.034347219790768095,0.12768314529244093,-1.8064995471157899
1590504522.212285,-0.6119826255677558,-3.95,8.555861004542047,0.5095594165404987,0.23197581494710745,-0.6448299549715081,0.0535142523500733,0.12970072766710464,-1.730840208065901
1590504522.222285,-0.5916483048138598,-3.969560381017325,8.911427962580177,0.51,0.23555555555555555,-0.6444444444444445,0.05590808205408317,0.11979956610706137,-1.621250138710148
1590504522.232285,-0.556186125122138,-3.943984207885494,8.535596165526712,0.51,0.23555555555555555,-0.6444444444444445,0.05706490810635183,0.10517294522899599,-1.5348532983947376
1590504522.242285,-0.5176040795187443,-4.0187498506035615,8.753437313254452,0.51,0.23555555555555555,-0.6444444444444445,0.031190954909475575,0.11940049223971895,-1.4291245648418058
1590504522.252285,-0.45921191494676367,-3.920591063789927,8.63,0.5100218912514788,0.23660633562653732,-0.644181749426699,0.039312891541637196,0.10138278771452323,-1.3517652576628045
1590504522.262285,-0.42453790551587645,-3.968151622063506,8.609579425178557,0.5111111111111111,0.2888888888888889,-0.6311111111111111,0.03897652622247609,0.09446220515609718,-1.2326750169618992
1590504522.272285,-0.43145991184058174,-4.0348800503768105,8.56318023928985,0.5111111111111111,0.2888888888888889,-0.6311111111111111,0.030010930992784946,0.08088072958228151,-1.1463517626468513
1590504522.282285,-0.37182006540860063,-4.068959962623657,8.72505982246237,0.5111111111111111,0.2888888888888889,-0.6311111111111111,0.026293389258421146,0.07437503154714487,-1.061777688190075
1590504522.292285,-0.35,-4.042941664466986,8.636470832233494,0.5111111111111111,0.2888888888888889,-0.6311111111111111,0.023404796822378615,0.06707007145643364,-0.9444022060218196
1590504522.302285,-0.35,-4.106206493457521,8.66810324672876,0.5111111111111111,0.2888888888888889,-0.6311111111111111,0.031168559400006728,0.06965799231564301,-0.8684898608183448
1590504522.312285,-0.24641640303835158,-3.9491125171287917,8.675528920167142,0.5011111111111111,0.3288888888888889,-0.6522222222222223,0.027710084031936706,0.05402032607444588,-0.7689501307453082
1590504522.322285,-0.2251295021231243,-4.062642655343337,8.76777215746646,0.5011111111111111,0.3288888888888889,-0.6522222222222223,0.023840016234889724,0.05092427183680829,-0.710125100230194
1590504522.332285,-0.20884901221197297,-4.003886170967621,8.615754938940135,0.5011111111111111,0.3288888888888889,-0.6522222222222223,0.02362161734208481,0.043005464845129536,-0.6131103689477237
1590504522.342285,-0.20101710423124325,-3.894239459237405,8.654914478843784,0.5011111111111111,0.3288888888888889,-0.6522222222222223,0.021058631448766914,0.03873382168959972,-0.5541616934014122
1590504522.352285,-0.2,-3.927804673582731,8.812974955464739,0.5011111111111111,0.3288888888888889,-0.6522222222222223,0.02072578486743266,0.0298355878687779,-0.4776724335022904
1590504522.362285,-0.19255582018457876,-3.826166269723132,8.645334921107473,0.5288888888888889,0.36,-0.6444444444444445,0.016362461737446838,0.022095412383115545,-0.4182240024112692
1590504522.372285,-0.201120900209351,-3.7985201500348915,8.727802250523377,0.5288888888888889,0.36,-0.6444444444444445,0.014909622431572175,0.0238368506253804,-0.37912963775250363
1590504522.3822849,-0.15,-3.7877792950633826,8.61480469957745,0.5288888888888889,0.36,-0.6444444444444445,0.007271708686090012,0.0225037108818082,-0.3493903284310189
1590504522.3922849,-0.14884784402525378,-3.7461741283030454,8.783869816353553,0.5288888888888889,0.36,-0.6444444444444445,0.015482696695003573,0.01783033468099041,-0.3231420666780635
1590504522.4022849,-0.14079906353744892,-3.649588762449387,8.671186889524284,0.5288888888888889,0.36,-0.6444444444444445,0.009336796432645494,0.020464291936286728,-0.30207040863569284
1590504522.4122849,-0.1972413708929356,-3.760919543035688,8.815402284821559,0.6077777777777778,0.41,-0.68,0.016926676292207312,0.01734044428344913,-0.2826129375999197
1590504522.4222848,-0.17216858657889927,-3.7765057597366978,8.737471201316511,0.6077777777777778,0.41,-0.68,-0.007451916047696123,0.006163822210913874,-0.27152491512672794
1590504522.4322848,-0.1907214670239178,-3.834328802143507,8.488758142621863,0.6077777777777778,0.41,-0.68,0.011684339232162758,0.011841738919811887,-0.26061889014178097
1590504522.4422848,-0.20083100683100685,-3.8924930204930206,8.719196911196912,0.6077777777777778,0.41,-0.68,0.008089059393338732,0.00999877460881352,-0.24308005769921218
1590504522.4522848,-0.20913572913572914,-3.9174071874071874,8.611235521235521,0.6077777777777778,0.41,-0.68,0.012618582758376733,0.011810583954828719,-0.2195265362010146
1590504522.4622848,-0.21,-3.9600857654889916,8.744308755760368,0.8580911133868123,0.5765786254764749,-0.7904585537918871,0.00871729069642489,0.006751924175221919,-0.17247400304276242
1590504522.4722848,-0.20266001214001483,-3.9039401092601334,8.76532002428003,0.92,0.6177777777777778,-0.8177777777777778,0.0004297992467353004,-0.001751862318257612,-0.10539616290372078
1590504522.4822848,-0.12843139023565228,-3.85019596346826,8.65784304882174,0.92,0.6177777777777778,-0.8177777777777778,0.008726646259971648,-0.007978033040810194,0.019870142564166075
1590504522.4922848,-0.10853992808195943,-3.972190107877061,8.750486690639347,0.92,0.6177777777777778,-0.8177777777777778,0.008169204272471593,-0.012211497459841987,0.11490387682570664
1590504522.5022848,-0.0516256191057738,-4.057561571341339,8.769458126964741,0.92,0.6177777777777778,-0.8177777777777778,-0.013560153796036577,-0.020489348152607004,0.21423808513888687
1590504522.5122848,-0.008946275995486051,-4.257057875221666,9.29548766725778,1.3715909640496533,0.2884356807637881,-1.278491791606212,0.002836612862036318,-0.035951891266713415,0.2994754309364317
1590504522.5222847,0.05502454459933294,-3.4529540750876593,7.4865953989566405,1.47,0.21666666666666667,-1.3788888888888888,0.09922811760088251,-0.1275468795385961,0.38921144576527794
1590504522.5322847,0.08372068759086633,-3.983832720431027,9.351844693406312,1.47,0.21666666666666667,-1.3788888888888888,0.05540442704116414,-0.033638971196342404,0.4565121134105598
1590504522.5422847,0.1909744749871948,-4.077055019634625,9.461801476865288,1.47,0.21666666666666667,-1.3788888888888888,-0.184253508829814,0.101907355156379,0.5387641078219687
1590504522.5522847,0.31629503158613625,-4.157618234591088,8.683023732286154,1.47,0.21666666666666667,-1.3788888888888888,0.02861340215777028,-0.12951217651360947,0.5250937557401972
1590504522.5622847,0.3,-4.09,8.18,0.7066666666666667,0.15444444444444444,-0.7822222222222223,0.06872233929727672,0.0370882466048795,0.5901394533305827
1590504522.5722847,0.28761995292413545,-4.073905938801376,8.264184320115879,0.7066666666666667,0.15444444444444444,-0.7822222222222223,0.051436532655218095,0.020612712149167368,0.5821717768315088
1590504522.5822847,0.19087595365922577,-3.9501156164641613,8.845553593293774,0.7066666666666667,0.15444444444444444,-0.7822222222222223,-0.066342305166276,-0.09292433175511058,0.5232922395109315
1590504522.5922847,0.07899151515151515,-3.816889696969697,8.669495757575758,0.7066666666666667,0.15444444444444444,-0.7822222222222223,-0.009918230140196866,-0.05480730517001284,0.4901952892657359
1590504522.6022847,0.06334843822843822,-3.613529696969697,8.66167421911422,0.7066666666666667,0.15444444444444444,-0.7822222222222223,0.00543932471639016,-0.04200934278952366,0.44582901968004
1590504522.6122847,0.08802193131587895,-3.635384506403718,8.800109656579394,0.5509892704673391,0.2852134572518796,-0.7137241678945181,-0.007575852547688182,-0.04640225139822359,0.37316013011890053
1590504522.6222847,0.09242660043079191,-3.832426600430792,8.672426600430791,0.54,0.29444444444444445,-0.7088888888888889,0.011713523957659438,-0.032195521385548286,0.312232504232207
1590504522.6322846,0.13312188306522035,-3.8731218830652203,8.71312188306522,0.54,0.29444444444444445,-0.7088888888888889,-0.011370142882355118,-0.023317187985542682,0.2616260038521751
1590504522.6422846,0.16260540252062894,-4.0047639476168975,8.515632415123774,0.54,0.29444444444444445,-0.7088888888888889,0.01090830782496456,-0.02110747936123818,0.18478359537686054
1590504522.6522846,0.18843343322796502,-4.151122788291802,8.67060059936779,0.54,0.29444444444444445,-0.7088888888888889,0.01090830782496456,-0.00326393909491509,0.13500950937080144
1590504522.6622846,0.17375131456851223,-3.9975131456851223,8.655626971852769,0.5201404955837372,0.3296499295460013,-0.7449970787366395,0.003818481327457127,-0.01370262962344249,0.07793059763857699
1590504522.6722846,0.10975922927720694,-3.9185553756632414,8.652648477950724,0.5155555555555555,0.3377777777777778,-0.7533333333333333,0.002234189588182232,-0.007635815477475192,0.005047936034083113
1590504522.6822846,0.1030357629482391,-3.8782145776894343,8.72660660756937,0.5155555555555555,0.3377777777777778,-0.7533333333333333,0.003701022395525542,-0.007635815477475192,-0.03675679897520122
1590504522.6922846,0.056290849673202616,-3.8337745098039218,8.655098039215687,0.5155555555555555,0.3377777777777778,-0.7533333333333333,0.0015025659307916868,-0.0038214725452163424,-0.11189392815813728
1590504522.7022846,0.04210108775660424,-3.7589097898094384,8.679494561216979,0.5155555555555555,0.3377777777777778,-0.7533333333333333,0.0019524684448298797,0.006205521938178293,-0.17255128347694904
1590504522.7122846,0.059372342703330985,-3.7690585140549966,8.757803199461659,0.5155555555555555,0.3323965714712969,-0.7533333333333333,0.008521245889952128,0.006613451484985242,-0.25521089399395214
1590504522.7222846,0.09751272060508825,-3.8450254412101765,8.844403621361447,0.5155555555555555,0.3322222222222222,-0.7533333333333333,0.009749647019252133,0.01882099380634454,-0.3177931094667121
1590504522.7322845,0.13922313595120855,-3.800971080060989,8.604855400304947,0.5155555555555555,0.3322222222222222,-0.7533333333333333,0.011956767246549187,0.027122469799220002,-0.39346130267317087
1590504522.7422845,0.1569879294336119,-3.8424698235840298,8.7443974001857,0.5155555555555555,0.3322222222222222,-0.7533333333333333,0.018484973332432517,0.03653624774094212,-0.4523267079706075
1590504522.7522845,0.19447232780751855,-3.8293166033154886,8.756211068876992,0.5155555555555555,0.3322222222222222,-0.7533333333333333,0.01361839787425624,0.035170799282035974,-0.519669535779957
1590504522.7622845,0.2738857615513637,-3.8824979895687335,8.729167336810422,0.4711111111111111,0.24,-0.6666666666666666,0.02617993877991494,0.05563236990731925,-0.717766654882668
1590504522.7722845,0.4088033913103416,-3.9692307515566485,8.700256416147782,0.4711111111111111,0.24,-0.6666666666666666,0.02617993877991494,0.05563236990731925,-0.717766654882668
1590504522.7822845,0.4261021807336251,-3.97,8.643642367432312,0.4711111111111111,0.24,-0.6666666666666666,0.03496231598469477,0.06353650939162109,-0.7950515742847306
1590504522.7922845,1.5433535520632296,-15.982498851208527,-5.658037251478111,0.4711111111111111,0.24,-0.6666666666666666,-2.639029805936841,1.4471875516259862,-2.2722014890328084
1590504522.8022845,8.759710156628453,-2.5887711932827386,-5.210378653318262,0.4711111111111111,0.24,-0.6666666666666666,-3.3613262738600254,-0.8698497435920176,-0.7938629785645439
1590504522.8122845,0.027780797716926004,-0.42909333876922384,-0.38916106090462277,0.3922222222222223,0.38,-0.6877777777777778,-3.5000198684385317,-0.5663271690519618,-0.0932077361631172
1590504522.8222845,-0.16886145528272134,-0.8973976120747916,0.10810242547120222,0.3922222222222223,0.38,-0.6877777777777778,-3.5098439869712665,-0.4802047456238928,0.05884308373290738
1590504522.8322845,-0.036578959225050695,-0.5950376210858301,-0.11236840129158217,0.3922222222222223,0.38,-0.6877777777777778,-3.4576219192566326,-0.38125766995405974,0.17840413350062234
1590504522.8422844,1.1599302500693536,-1.1619537906709467,2.7628129829984545,0.3922222222222223,0.38,-0.6877777777777778,-3.412119638716057,-0.27281996477729215,0.3613851527908618
1590504522.8522844,2.2130521204273226,-3.1435202330851406,10.225610229847849,0.3922222222222223,0.38,-0.6877777777777778,-2.375671169639303,0.46463931883427245,0.42289719048243135
1590504522.8622844,1.0744578313253013,-1.71995983935743,5.174618473895583,0.38861892012494426,0.4477420794288265,-0.6423761713520749,0.8808042388239856,0.7295555128573586,0.2561831425655733
1590504522.8722844,0.21,-0.345438708391469,-0.09418975483356587,0.38666666666666666,0.4844444444444445,-0.6177777777777778,2.5950147676511732,0.2572973028183785,0.2018330039086413
1590504522.8822844,4.223482073677538,-2.9937469183630343,11.437091639078679,0.38666666666666666,0.4844444444444445,-0.6177777777777778,3.7674197612227456,-0.7632503875958984,0.19066338274249028
1590504522.8922844,0.359428277105331,-1.8113653922693325,4.233296888535106,0.38666666666666666,0.4844444444444445,-0.6177777777777778,5.3647087252580805,0.004307929878113237,0.15543198351498377
1590504522.9022844,1.1033600397490837,-2.5455037989358837,9.246684263917356,0.38666666666666666,0.4844444444444445,-0.6177777777777778,6.163676566809871,-0.10766734461499139,0.13614529301677813
1590504522.9122844,0.6596622211395977,-1.3586155938533993,2.9789342914560626,0.41286076771613583,0.4917205836248526,-0.6308748283025124,3.694239839073237,-0.5102594538456819,0.31485984784740684
1590504522.9222844,0.8763989309326206,0.36230412153608116,-0.8607356871571248,0.4266666666666667,0.4955555555555556,-0.6377777777777778,0.5626023056223823,-0.6426418800248814,0.5681454568416374
1590504522.9322844,0.4153422716923856,0.01369845686820137,-0.4020546420440172,0.4266666666666667,0.4955555555555556,-0.6377777777777778,-0.4517237614910384,-0.007844792495330988,0.75776882426287
1590504522.9422843,1.135162267556157,-1.1667736633471912,4.457327983499308,0.4266666666666667,0.4955555555555556,-0.6377777777777778,-0.8164429142729073,0.4739065451246592,0.858723232754641
1590504522.9522843,0.9865486376474497,-0.9536091958797142,4.102521182920751,0.4266666666666667,0.4955555555555556,-0.6377777777777778,-0.6119346610412887,0.9470670918987206,0.8997726725675786
1590504522.9622843,0.08131262464495076,-1.97749501420197,5.772098265546624,0.42405833887310895,0.41860988564560214,-0.68146726831987,0.0433049998097966,0.03059626414288119,0.6756745755761139
1590504522.9722843,0.28214709014306216,-3.243873558961063,10.575078707347561,0.4222222222222222,0.3644444444444445,-0.7122222222222222,-0.19049057402252734,-0.40914684429230486,0.56564432009278
1590504522.9822843,0.2625043355385702,-3.3957248378187423,11.609088573447234,0.4222222222222222,0.3644444444444445,-0.7122222222222222,-0.0030906755396932217,0.305751271446544,0.6905564909228553
1590504522.9922843,0.17689005694261936,-2.795234340779676,8.61239159001314,0.4222222222222222,0.3644444444444445,-0.7122222222222222,0.14701799684164019,-0.029929281377483796,0.6290108714117113
1590504523.0022843,0.1549985854394568,-2.6650127310448886,8.300149943417578,0.4222222222222222,0.3644444444444445,-0.7122222222222222,0.04359681540991073,-0.18490708187029406,0.5906800852786598
1590504523.0122843,0.08674360573923892,-2.899769182782283,9.311451445206904,0.4315935398904831,0.3667872738615097,-0.7090984496661352,-0.08853490213719209,-0.09322395473352535,0.5971610101765336
1590504523.0222843,-0.015592631644234946,-2.7745568442597532,8.5503563232649,0.4488888888888889,0.3711111111111111,-0.7033333333333334,-0.0029636728283734953,-0.04936359414799407,0.6049566673066434
1590504523.0322843,0.005683902160192442,-3.1075687712863505,9.305867292257126,0.4488888888888889,0.3711111111111111,-0.7033333333333334,-0.0023474672204075037,-0.03500598529648581,0.6143267365221798
1590504523.0422843,0.08109749725220275,-2.9063620966143535,8.516891295338654,0.4488888888888889,0.3711111111111111,-0.7033333333333334,-0.037204623639838,-0.03114519514678709,0.6284382490965994
1590504523.0522842,0.07575580851395602,-2.844786839232808,8.228333385311087,0.4488888888888889,0.3711111111111111,-0.7033333333333334,-0.025613380356347318,-0.05107455809548306,0.6600710107836004
1590504523.0622842,0.005429507161740919,-2.936953004774494,8.460526772678847,0.45208986044798694,0.36726994524019346,-0.7084548878278902,-0.006544984694978735,-0.057684085604326654,0.6950041762155208
1590504523.0722842,4.99838773669973,-8.573066185752932,6.402164833183048,0.4544444444444444,0.3644444444444445,-0.7122222222222222,-0.049211635658188084,-0.06080072418755431,0.6153705955615382
1590504523.0822842,3.425741175526258,-13.13396885597897,6.528126141311982,0.4544444444444444,0.3644444444444445,-0.7122222222222222,-0.3892597458494551,-0.05577272683901847,-2.0387165013817357
1590504523.0922842,0.2896024941543258,-5.628312873473629,13.467190179267341,0.4544444444444444,0.3644444444444445,-0.7122222222222222,0.15395883354486894,0.4694600630786906,-4.523204198345005
1590504523.1022842,0.3365800273597811,-1.8932147742818057,5.730547195622435,0.4544444444444444,0.3644444444444445,-0.7122222222222222,0.8006653176186811,0.6373734707838798,-4.436983306573499
1590504523.1122842,-0.6733225148634288,-3.951132205531781,5.312493035011633,0.46085864823378103,0.35253235169281927,-0.7168037963574626,0.17814460053371917,0.21618551082597465,-4.0717641477484845
1590504523.1222842,-10.274282136329791,-20.75128545319163,13.010467293937136,0.4622222222222222,0.35,-0.7177777777777777,-0.49734920617952283,0.2849461726311101,-1.6036562042439417
1590504523.1322842,0.005660829873379569,-3.463368749516466,15.79595920262011,0.4622222222222222,0.35,-0.7177777777777777,0.036972881903148624,-0.2869550815680863,0.890147680978564
1590504523.1422842,0.1586241447714667,-0.8736911461074449,6.071673009189912,0.4622222222222222,0.35,-0.7177777777777777,0.503056878807394,-0.028103079499568195,1.1979769195884282
1590504523.1522841,-0.1929564837087251,-1.622962106775796,4.6657545843616255,0.4622222222222222,0.35,-0.7177777777777777,0.20695139647892535,-0.016331008898977442,1.1491220929022485
1590504523.1622841,0.2826736416052541,-2.4030719004162053,7.998101111153538,0.44778155374818096,0.3695550718919309,-0.7159726942185226,-0.3509609028297048,-0.15407892126505576,1.0882631711803992
1590504523.1722841,0.2466585525143976,-2.9974722436620556,9.725388588731224,0.4088888888888889,0.4222222222222222,-0.7111111111111111,-0.03326710063428745,-0.07115285898028559,1.1094381160846951
1590504523.182284,0.877460303668788,-3.290234811130178,7.281900862349849,0.4088888888888889,0.4222222222222222,-0.7111111111111111,0.19354769541267763,-0.04053588983414253,1.122110995532564
1590504523.192284,3.8755479993673894,-10.435758342558913,6.9594401391744425,0.4088888888888889,0.4222222222222222,-0.7111111111111111,-0.07280273304511897,-0.12611490950094448,0.4730660352862027
1590504523.202284,1.3283067793141754,-10.358378986757096,8.992882743298155,0.4088888888888889,0.4222222222222222,-0.7111111111111111,-0.1558355109456832,0.03199571519871197,-0.8001744289191453
1590504523.212284,-2.9966232352057673,-6.235170847101231,8.436151246620607,0.4181457352892093,0.403164009045092,-0.7029433054637696,0.09949007920745803,0.19644331739924664,-1.1115914033349203
1590504523.222284,-1.2664132582132142,-4.070564864271603,8.191559230262676,0.42777777777777776,0.38333333333333336,-0.6944444444444444,0.06988715852898472,0.03089436783016139,-0.14282867517493547
1590504523.232284,0.30983738726427984,-2.0966901573419747,9.14116132432749,0.42777777777777776,0.38333333333333336,-0.6944444444444444,-0.03807264760072626,-0.06804325848570034,0.5343601515449354
1590504523.242284,0.2473836171938362,-5.317984752635848,8.934372424979724,0.42777777777777776,0.38333333333333336,-0.6944444444444444,-0.05127676133079926,-0.054967715122020026,0.36560507449668805
1590504523.252284,-0.978688402560667,-4.753991365192794,8.631378166273208,0.42777777777777776,0.38333333333333336,-0.6944444444444444,0.004445751973011197,0.01899294638073102,-0.13241937274380042
1590504523.262284,-0.08829010194863862,-4.270884630274875,8.374070847851335,0.4399639379991684,0.39364469967451,-0.6944444444444444,0.012002376329489334,0.004096281447911264,-0.00419299079719182
1590504523.272284,0.07261616094327682,-4.458849548679345,8.489740032641642,0.44222222222222224,0.3955555555555556,-0.6944444444444444,-0.001542125095169689,-0.004780228096636578,0.05345070834232633
1590504523.282284,0.04979327391206652,-4.605359898134971,8.662473222979552,0.44222222222222224,0.3955555555555556,-0.6944444444444444,0.012853599570935504,-0.0012595496474395451,0.010773822957315007
1590504523.292284,0.07,-4.532716284275322,8.608042529378848,0.44222222222222224,0.3955555555555556,-0.6944444444444444,0.005679278922322622,0.0008359169969505578,-0.0023653997102259464
1590504523.302284,0.07,-4.54162108600872,8.698917388596342,0.44222222222222224,0.3955555555555556,-0.6944444444444444,-0.004746512879977784,0.00044223704222154034,-0.001090830782496456
1590504523.312284,0.07432009626955476,-4.617521058965102,8.719518652226233,0.4451022864019254,0.39891563043187594,-0.7016446048937024,-0.012967890854732236,0.0018849975976713727,-0.00014833198366076962
1590504523.322284,0.07460523011801844,-4.642236610826129,8.650789539763963,0.4488888888888889,0.4033333333333333,-0.7111111111111111,-0.01089390793516441,0.002597888814460746,-0.0006746035330286223
1590504523.332284,0.07,-4.6975777331996,8.550527833500501,0.4488888888888889,0.4033333333333333,-0.7111111111111111,-0.0003828028285114823,-0.0012974813983881496,-0.000589453444403175
1590504523.342284,0.07971677084469939,-4.695991302043552,8.578017395912896,0.4488888888888889,0.4033333333333333,-0.7111111111111111,0.00586053951723444,-0.000591758653413584,0.0010599352743862185
1590504523.352284,0.08422381274784796,-4.639783344617468,8.667328561756456,0.4488888888888889,0.4033333333333333,-0.7111111111111111,0.00649771782288681,0.0007757886394909024,0.0018666194219873584
1590504523.362284,0.07621705280930495,-4.60243410561861,8.666480630334867,0.4405994851431489,0.4033333333333333,-0.7111111111111111,-0.007076024162304184,-0.0006781752580795901,0.001769006040576046
1590504523.372284,0.08,-4.679307942405945,8.614797111852383,0.4355555555555555,0.4033333333333333,-0.7111111111111111,-0.005290135485067262,0.0016583778374270532,0.0014943594100120345
1590504523.382284,0.07545765675278537,-4.715457656752785,8.581830627011142,0.4355555555555555,0.4033333333333333,-0.7111111111111111,0.00465539219447323,0.003272492347489368,-0.0003956475691215314
1590504523.392284,0.07,-4.6114426905574515,8.618238410125143,0.4355555555555555,0.4033333333333333,-0.7111111111111111,0.014669479022362836,0.0022951346476715465,-0.0012043038651750905
1590504523.402284,0.07,-4.5468730916777576,8.715851405308072,0.4355555555555555,0.4033333333333333,-0.7111111111111111,0.00793975869793279,0.001654820956113194,0.0
1590504523.412284,0.07,-4.584719018260126,8.71453169710021,0.4389513292755276,0.4033333333333333,-0.7111111111111111,-0.002798594446848484,-4.0867137489910936e-05,0.0005556321756207057
1590504523.422284,0.06537301427709633,-4.616269857229037,8.657611099939674,0.44222222222222224,0.4033333333333333,-0.7111111111111111,-0.007554436386321726,-0.0006674840279784263,-0.0009280726001895244
1590504523.4322839,0.06936397209684038,-4.6325441116126385,8.559134181370537,0.44222222222222224,0.4033333333333333,-0.7111111111111111,-0.004130117205619532,-0.00044134556895424927,-0.0017403159960386629
1590504523.4422839,0.08,-4.61635915744377,8.575667261692253,0.44222222222222224,0.4033333333333333,-0.7111111111111111,0.006122672342055081,-0.0029004960735012873,0.0
1590504523.4522839,0.08377904589867806,-4.618662862303966,8.650232367189423,0.44222222222222224,0.4033333333333333,-0.7111111111111111,0.006665496462599146,-0.0028602623880148678,0.0
1590504523.4622838,0.0895188439116512,-4.601443468265046,8.696150751293208,0.44222222222222224,0.4033333333333333,-0.7111111111111111,0.003534922283667594,-0.002234147552228557,0.0
1590504523.4722838,0.07584281932495036,-4.611571806750496,8.682585373924553,0.4355555555555555,0.3955555555555556,-0.7111111111111111,-0.008089293542349546,-0.001274705435244204,0.00154430884737081
1590504523.4822838,0.07580074999402871,-4.646797000023885,8.577793250053741,0.4355555555555555,0.3955555555555556,-0.7111111111111111,-0.004297300601434793,0.000632763665505265,0.002181661564992912
1590504523.4922838,0.08,-4.6247283231991,8.592716768009002,0.4355555555555555,0.3955555555555556,-0.7111111111111111,0.005234727280277336,0.0022409322484553277,0.0010315600990340407
1590504523.5022838,0.0755593864651019,-4.5889157052557135,8.675524908279186,0.4355555555555555,0.3955555555555556,-0.7111111111111111,0.011392703618668286,0.003272492347489368,0.0
1590504523.5122838,0.07,-4.569255648583553,8.716790725236075,0.4355555555555555,0.3934160390462719,-0.7057623198379019,0.0077982077650862024,0.00397264748788517,0.0003500775701979011
1590504523.5222838,0.06738563688948634,-4.623071815552569,8.68124200578435,0.4355555555555555,0.3888888888888889,-0.6944444444444444,-0.0022315618855250526,0.005168971136725131,0.001090830782496456
1590504523.5322838,0.07140913228882181,-4.654295433855589,8.554363470844713,0.4355555555555555,0.3888888888888889,-0.6944444444444444,-0.004831882277371226,0.0024965082246526625,-0.00015371248772565183
1590504523.5422838,0.08,-4.640176924178275,8.564203841197767,0.4355555555555555,0.3888888888888889,-0.6944444444444444,-0.0011487290844452457,0.000555065108239693,-1.929943398293007e-05
1590504523.5522838,0.07588020858481001,-4.62176041716962,8.63059895707595,0.4355555555555555,0.3888888888888889,-0.6944444444444444,0.004428659211569854,-0.0004493995293153885,0.0006414312531810675
1590504523.5622838,0.09104028953429247,-4.599479855232854,8.686300361917866,0.42854212571079137,0.3888888888888889,-0.7032112317503997,0.0036193212655624488,5.673899233575607e-05,0.000573784887416106
1590504523.5722837,0.0918190685198732,-4.599090465740064,8.687273835649842,0.4222222222222222,0.3888888888888889,-0.7111111111111111,-0.003966463942596233,0.0005950227896719269,0.0005950227896719269
1590504523.5822837,0.07693085453359426,-4.627327136333986,8.614949445531638,0.4222222222222222,0.3888888888888889,-0.7111111111111111,-0.008726646259971648,0.0,0.00037801947371248677
1590504523.5922837,0.07931733957480008,-4.6439760093622,8.5727306417008,0.4222222222222222,0.3888888888888889,-0.7111111111111111,-0.005230753810742221,0.0011652974830764753,0.0005081820409582183
1590504523.6022837,0.07,-4.612305308020147,8.632118364974815,0.4222222222222222,0.3888888888888889,-0.7111111111111111,0.0016787213746904,0.0031467572999137397,0.0
1590504523.6122837,0.07276754164563352,-4.59,8.679372791519436,0.42037719445846655,0.39288644904369285,-0.7123411296202816,0.007148768618758324,0.003759539206206236,-0.0006037839237795881
1590504523.6222837,0.07704550785831574,-4.5929544921416845,8.721136523574947,0.4155555555555556,0.4033333333333333,-0.7155555555555555,0.006792935675095805,0.0015370913700342977,-0.0012148062725549904
1590504523.6322837,0.07,-4.621292863659627,8.604182113531676,0.4155555555555556,0.4033333333333333,-0.7155555555555555,-0.0013023751041203596,0.002322691112742181,0.0016715035606820012
1590504523.6422837,0.0788092782420173,-4.644404639121008,8.559641752089078,0.4155555555555556,0.4033333333333333,-0.7155555555555555,-0.002921908348290513,0.0024414367543920765,0.0012207183771960383
1590504523.6522837,0.08658636323228731,-4.63634545292915,8.627068183838563,0.4155555555555556,0.4033333333333333,-0.7155555555555555,0.001143389257393165,-0.0011171100199448105,0.0003723700066482701
1590504523.6622837,0.07544083870489739,-4.605440838704897,8.671397903237757,0.4201147168506582,0.39877417203823073,-0.7107431075218361,0.005951481260788714,-0.003023828673336151,0.0008421671083432389
1590504523.6722836,0.0602138950118377,-4.59,8.709465262470406,0.4355555555555555,0.38333333333333336,-0.6944444444444444,0.007554152335377939,-0.0021933277281496622,1.1666163156750407e-05
1590504523.6822836,0.07568490313147314,-4.598630193737054,8.629794321920311,0.4355555555555555,0.38333333333333336,-0.6944444444444444,-0.0037656323949145356,-0.0018603801993964171,0.0015615348318607728
1590504523.6922836,0.07765718516690319,-4.629142962917258,8.582342814833098,0.4355555555555555,0.38333333333333336,-0.6944444444444444,-0.009144280924338312,-0.00041763466436666314,0.002181661564992912
1590504523.7022836,0.09212432374715261,-4.653627028758542,8.58487026623007,0.4355555555555555,0.38333333333333336,-0.6944444444444444,-0.007731927080624038,-0.00039564746188176726,0.001718206017916453
1590504523.7122836,0.09958855353075172,-4.631234339407745,8.637119874715262,0.4355555555555555,0.38333333333333336,-0.6944444444444444,-0.0004039366266049664,0.0020470160227912563,8.976369480110389e-05
1590504523.7222836,0.07,-4.604760218734018,8.705239781265982,0.4355555555555555,0.3955555555555556,-0.7244444444444444,0.00545415391248228,0.001090830782496456,0.001662402252344613
1590504523.7322836,0.07,-4.593450185221291,8.701023981282901,0.4355555555555555,0.3955555555555556,-0.7244444444444444,0.004701440263542632,0.0009026523702615439,0.003272492347489368
1590504523.7422836,0.08065416716653243,-4.613551389055511,8.599345832833468,0.4355555555555555,0.3955555555555556,-0.7244444444444444,-7.13585682152048e-05,0.0,0.002885095897252148
1590504523.7522836,0.09764313993174062,-4.62117843003413,8.585892150170649,0.4355555555555555,0.3955555555555556,-0.7244444444444444,-0.0019245680137435083,-0.0001285467756247018,0.0017960212381188064
1590504523.7622836,0.08,-4.625744605667086,8.636383091499372,0.43271862600027966,0.3955555555555556,-0.7216075148891686,0.0011604787825008124,-0.001090830782496456,-0.000626639269496131
1590504523.7722836,0.07779288592956018,-4.603378657788681,8.66,0.4222222222222222,0.3955555555555556,-0.7111111111111111,0.00545415391248228,-0.001090830782496456,0.001813107173051495
1590504523.7822835,0.07961690498267532,-4.589616904982675,8.626340832560636,0.4222222222222222,0.3955555555555556,-0.7111111111111111,0.0023070291162485437,-4.1789183751877405e-05,0.003314281531241245
1590504523.7922835,0.09,-4.6,8.59483156049094,0.4222222222222222,0.3955555555555556,-0.7111111111111111,-0.004253079729103716,0.001617872273597666,0.001127578582790492
1590504523.8022835,0.08252862739189393,-4.6149427452162115,8.607471372608105,0.4222222222222222,0.3955555555555556,-0.7111111111111111,-0.007635815477475192,0.002181661564992912,0.00040750016142114667
1590504523.8122835,0.07282653991405132,-4.634346920171897,8.631306159656205,0.42379252217447294,0.39367119561285474,-0.70859863118751,-0.005477521755133753,0.0018733338903727066,0.0007825031078762505
1590504523.8222835,0.07184157685530468,-4.611841576855305,8.67631684628939,0.42777777777777776,0.3888888888888889,-0.7022222222222222,0.0017798918205730397,0.00020088487220993614,0.0
1590504523.8322835,0.06359107049464616,-4.603591070494646,8.656907154064246,0.42777777777777776,0.3888888888888889,-0.7022222222222222,0.002404698011148426,-0.00030738073496149694,-0.0003917250237674795
1590504523.8422835,0.07814971720568646,-4.6140748586028435,8.588149717205686,0.42777777777777776,0.3888888888888889,-0.7022222222222222,-0.0019798270221568354,0.0006463326626662664,-0.0002018345428360769
1590504523.8522835,0.08693843800388638,-4.6230615619961135,8.615307809980568,0.42777777777777776,0.3888888888888889,-0.7022222222222222,-0.0029385277407011656,-0.0003339646067882026,0.00042290156892005077
1590504523.8622835,0.07505415695186377,-4.627527078475932,8.652472921524069,0.42970116118538626,0.3888888888888889,-0.7022222222222222,-0.001102645996532291,-0.0008210768903813007,-0.0005513229982661455
1590504523.8722835,0.07141854932536858,-4.614290725337316,8.665709274662685,0.4355555555555555,0.3888888888888889,-0.7022222222222222,0.003115839447160375,-0.00031139262738915453,0.001090830782496456
1590504523.8822834,0.09944653299916459,-4.6,8.677786131996658,0.4355555555555555,0.3888888888888889,-0.7022222222222222,0.00545415391248228,-0.0010002699562553655,0.0010606438404160924
1590504523.8922834,0.08250747230325918,-4.602507472303259,8.617552306122814,0.4355555555555555,0.3888888888888889,-0.7022222222222222,0.00408653992515608,0.0016346159700624321,0.0
1590504523.9022834,0.09,-4.610023614144873,8.669952771710255,0.4355555555555555,0.3888888888888889,-0.7022222222222222,-1.545542167773478e-05,2.575903612955797e-06,-2.575903612955797e-06
1590504523.9122834,0.08520699090828847,-4.62,8.647603495454145,0.4355555555555555,0.3904865585861261,-0.7075477878796794,-0.006544984694978735,0.001090830782496456,-0.001090830782496456
1590504523.9222834,0.07796980571711422,-4.616015097141443,8.643984902858557,0.4355555555555555,0.3955555555555556,-0.7244444444444444,-0.004371557343292628,0.00022145984182201284,-0.0006561453121592343
1590504523.9322834,0.09,-4.605911693127825,8.629558465639123,0.4355555555555555,0.3955555555555556,-0.7244444444444444,-0.00019890058560434855,-0.001090830782496456,-0.0004459650984460537
1590504523.9422834,0.08221216715625888,-4.596106083578129,8.60778783284374,0.4355555555555555,0.3955555555555556,-0.7244444444444444,0.0002413100030074838,-0.001090830782496456,-0.0006660703927519699
1590504523.9522834,0.0755956253893542,-4.601191250778708,8.622797812694676,0.4355555555555555,0.3955555555555556,-0.7244444444444444,-0.001701218824699083,-0.00048044274029382904,0.0
1590504523.9622834,0.09,-4.630117930556063,8.630117930556063,0.435463831789729,0.39547693518484717,-0.724182376542083,-0.003272492347489368,0.0011036950105714626,-1.2864228075006583e-05
1590504523.9722834,0.09299384206713354,-4.628024631731465,8.645987684134267,0.42777777777777776,0.3888888888888889,-0.7022222222222222,-0.0019661823135845324,0.002181661564992912,-0.0004376757655440381
1590504523.9822834,0.09392844974446338,-4.602023850085178,8.647856899488927,0.42777777777777776,0.3888888888888889,-0.7022222222222222,0.001973901971324933,0.0017401259705786736,0.0004285273908750983
1590504523.9922833,0.07352093342484557,-4.61,8.617604667124228,0.42777777777777776,0.3888888888888889,-0.7022222222222222,0.005070079656188057,0.0003840742562942223,-0.0014135130524044674
1590504524.0022833,0.07782677602123697,-4.61,8.65651967193629,0.42777777777777776,0.3888888888888889,-0.7022222222222222,0.003652137245997584,0.0013278927438258692,0.0007111858839882398
1590504524.0122833,0.072287333095606,-4.61,8.673138000713182,0.42777777777777776,0.3888888888888889,-0.7022222222222222,0.001839358787649438,0.0019321522299419179,0.002523964342336386
1590504524.0222833,0.07,-4.590690009874917,8.647929970375246,0.4488888888888889,0.3955555555555556,-0.6877777777777778,3.763420058933831e-05,0.001090830782496456,0.0010155623813177792
1590504524.0322833,0.07,-4.607947662936143,8.596157011191574,0.4488888888888889,0.3955555555555556,-0.6877777777777778,0.0009788931602307317,0.001090830782496456,-0.0008669555379650074
1590504524.0422833,0.07842159299686588,-4.59,8.57789203501567,0.4488888888888889,0.3955555555555556,-0.6877777777777778,0.003272492347489368,0.0,-0.001090830782496456
1590504524.0522833,0.07086674592024209,-4.59,8.615666270398789,0.4488888888888889,0.3955555555555556,-0.6877777777777778,0.003272492347489368,0.0,-0.001090830782496456
1590504524.0622833,0.07881512293562869,-4.593554631193114,8.651184877064372,0.44809897084597466,0.3947656375126414,-0.6905424909279776,-0.0026986617151090195,-0.003975573017398743,0.0026262421598442333
1590504524.0722833,0.07017812281207529,-4.6194656315637745,8.659821877187925,0.4423409707636058,0.38900763743027245,-0.7106954912162688,-0.006467263956388114,-0.0011491213364394214,-0.002084510641754636
1590504524.0822833,0.0624655605652879,-4.622603318304136,8.61780995491241,0.44222222222222224,0.3888888888888889,-0.7111111111111111,-0.0032875193856956616,-0.0002839779742788342,0.0
1590504524.0922832,0.06994029903943828,-4.600179102881685,8.550537308645056,0.44222222222222224,0.3888888888888889,-0.7111111111111111,-2.604945821013411e-05,0.0021621244713353116,0.0
1590504524.1022832,0.08717136452170078,-4.5971713645217,8.672828635478298,0.44222222222222224,0.3888888888888889,-0.7111111111111111,0.004054766864766786,0.0015645490345548374,0.001090830782496456
1590504524.1122832,0.07907586469264179,-4.59,8.679075864692642,0.44222222222222224,0.388375480384801,-0.7095708855988474,0.003272492347489368,0.0,0.0011916383065422719
1590504524.1222832,0.07260450286563778,-4.597813508596913,8.667395497134363,0.44222222222222224,0.38333333333333336,-0.6944444444444444,0.0018519563980204097,-0.00028410718989379163,0.002181661564992912
1590504524.1322832,0.08,-4.62,8.646756056370837,0.44222222222222224,0.38333333333333336,-0.6944444444444444,-0.0020503260977898243,-0.001090830782496456,0.0019189906305867364
1590504524.1422832,0.08,-4.616935892414153,8.574512860686774,0.44222222222222224,0.38333333333333336,-0.6944444444444444,-8.810391983970589e-05,-0.0004223462073919559,-0.00033424228755225
1590504524.1522832,0.07439645908089106,-4.607198229540446,8.638405311378664,0.44222222222222224,0.38333333333333336,-0.6944444444444444,0.002181661564992912,0.0004795792899422043,-0.0007852050362193301
1590504524.1622832,0.06151695940589928,-4.601011306270599,8.6610113062706,0.4412109159516227,0.38395135383203305,-0.6948939138980442,0.0020713451639427466,-0.0009805143814462908,5.515820052508259e-05
1590504524.1722832,0.08776523843297593,-4.618510158955317,8.678510158955318,0.4237120632669049,0.39464509713936063,-0.7026711817579189,0.0001625164472566585,0.0009283143352397975,0.0010095725588681267
1590504524.1822832,0.07,-4.621167190378156,8.605914833676454,0.4222222222222222,0.3955555555555556,-0.7033333333333334,-0.004426983489662126,0.001154491142172758,0.001090830782496456
1590504524.1922832,0.07,-4.63934597464514,8.542289088742008,0.4222222222222222,0.3955555555555556,-0.7033333333333334,-0.005418482363001574,0.0021459900155122065,0.001090830782496456
1590504524.2022831,0.08599446202531645,-4.624005537974684,8.555994462025316,0.4222222222222222,0.3955555555555556,-0.7033333333333334,-0.00021997845447654062,0.001309298988658622,0.0028355559351650366
1590504524.2122831,0.08,-4.62965230395364,8.69947845593046,0.42231880445732206,0.3955555555555556,-0.7034685484624732,5.6891632548184175e-05,-0.001090830782496456,-0.002181661564992912
1590504524.2222831,0.08,-4.61635332912655,8.667882223624483,0.42777777777777776,0.3955555555555556,-0.7111111111111111,0.0028104652153179296,-0.0006288036503250175,-0.0014886208667357543
1590504524.232283,0.07931315458288006,-4.639313154582879,8.65381839124592,0.42777777777777776,0.3955555555555556,-0.7111111111111111,0.001090830782496456,0.0008660611453531407,0.001015907570115351
1590504524.242283,0.07036645975981742,-4.630366459759817,8.573298137838357,0.42777777777777776,0.3955555555555556,-0.7111111111111111,0.001090830782496456,-0.0020617378890263856,3.997455865550892e-05
1590504524.252283,0.09291941801902631,-4.605279612012684,8.614161163961947,0.42777777777777776,0.3955555555555556,-0.7111111111111111,0.00301503512139484,0.0013482880085909843,-0.0005149144521890564
1590504524.262283,0.07,-4.590313433784729,8.661567168923645,0.42823051546683055,0.3953465996990697,-0.7108325033024633,0.002215851887058571,0.0021132809208615935,-0.0020449002767302755
1590504524.272283,0.07219100372457263,-4.602191003724572,8.690280966478847,0.44222222222222224,0.3888888888888889,-0.7022222222222222,0.0020774851938252627,0.00047800286146564214,0.0017036587035272697
1590504524.282283,0.07936973664633239,-4.610315131676834,8.617794078262163,0.44222222222222224,0.3888888888888889,-0.7022222222222222,-0.0022504126317189196,0.002009783898177892,-3.437553336300392e-05
1590504524.292283,0.06217795392388634,-4.622177953923886,8.560889769619433,0.44222222222222224,0.3888888888888889,-0.7022222222222222,-0.0031754335384687428,-0.0025597585925791195,-0.0008532528641930397
1590504524.302283,0.07337973561013839,-4.6283101321949305,8.606759471220277,0.44222222222222224,0.3888888888888889,-0.7022222222222222,0.0005378228364606977,-0.00036867196402383883,0.00018433598201191942
1590504524.312283,0.08903968300215605,-4.619519841501078,8.642880950993533,0.44190211655627426,0.3892089945548369,-0.7018487656119495,-0.0020245300636624977,-0.0020245300636624977,0.001090830782496456
1590504524.322283,0.0723478304921604,-4.612347830492161,8.695304339015678,0.4355555555555555,0.3955555555555556,-0.6944444444444444,0.0008347222052032203,0.0003225050506167489,0.0016030479370829273
1590504524.332283,0.07758490799061381,-4.617584907990614,8.648603803877979,0.4355555555555555,0.3955555555555556,-0.6944444444444444,0.0005268913412799357,-0.0013913245530730084,0.002745601006209432
