time,acc_x,acc_y,acc_z,mag_x,mag_y,mag_z,gyr_x,gyr_y,gyr_z
1590504740.9043596,0.04,-4.53,8.61,0.4688888888888889,0.2588888888888889,-0.64,0.002181661564992912,-0.00545415391248228,0.001090830782496456
1590504740.9143596,0.06,-4.516512144115057,8.668682858820077,0.4688888888888889,0.2588888888888889,-0.64,0.002181661564992912,-0.0019448733229676595,-0.0002367882420252525
1590504740.9243596,0.06,-4.5395949515702965,8.699459935427061,0.4688888888888889,0.2588888888888889,-0.64,0.002181661564992912,-0.0011055587590138721,-0.0010761028059790398
1590504740.9343596,0.0327402376910017,-4.527259762308998,8.734519524617998,0.4755555555555556,0.2588888888888889,-0.6755555555555556,0.0034665824425753246,0.003870319472429701,0.0004930036575561232
1590504740.9443595,0.033903688524590164,-4.529144467213114,8.692566598360656,0.4755555555555556,0.2588888888888889,-0.6755555555555556,0.0007583285716432842,0.004456647279922765,-0.00042582636079011244
1590504740.9543595,0.033008243228776366,-4.536991756771223,8.643008243228778,0.4755555555555556,0.2588888888888889,-0.6755555555555556,0.0,0.002181661564992912,-0.001274134574195268
1590504740.9643595,0.04735063383208645,-4.525298732335827,8.667948098503741,0.4755555555555556,0.2588888888888889,-0.6755555555555556,0.0,0.002181661564992912,-0.002340316010940482
1590504740.9743595,0.04306087658696335,-4.533878246826073,8.693060876586962,0.4816773087294823,0.2588888888888889,-0.6622917570120477,0.0006677796804964622,0.0018477717247446807,0.0026047126669929057
1590504740.9843595,0.05,-4.52,8.708655002948692,0.4955555555555556,0.2588888888888889,-0.6322222222222222,0.00029343283718658367,0.0006187736005448739,0.0006187736005448739
1590504740.9943595,0.05,-4.5261625120383435,8.65221236757822,0.4955555555555556,0.2588888888888889,-0.6322222222222222,-0.0008372099992068928,-0.0006722257828930096,0.0006722257828930096
1590504741.0043595,0.037534731817610856,-4.5175347318176104,8.634930536364779,0.4955555555555556,0.2588888888888889,-0.6322222222222222,0.001359749824542373,-0.0017707056947676423,-0.0016286688665882898
1590504741.0143595,0.01963018548449165,-4.51,8.655184907257754,0.4955555555555556,0.2588888888888889,-0.6322222222222222,0.001050490276763404,-0.0033128328532224197,-0.00214132105925986
1590504741.0243595,0.029145589317037285,-4.524359191987778,8.683931986646297,0.4732190346856787,0.26154799851625515,-0.646049592284527,0.0,-0.0012306334035768877,-0.001090830782496456
1590504741.0343595,0.04502854122621565,-4.5350285412262155,8.685142706131078,0.4488888888888889,0.2644444444444444,-0.6611111111111111,0.001084604052871212,0.0010970575121216999,-6.226729625243921e-06
1590504741.0443594,0.03456070455022017,-4.53,8.627364227301321,0.4488888888888889,0.2644444444444444,-0.6611111111111111,0.0009949913826503634,0.0,0.001090830782496456
1590504741.0543594,0.04776659647567327,-4.53,8.605922198825224,0.4488888888888889,0.2644444444444444,-0.6611111111111111,0.0,0.0012920233557238306,0.001090830782496456
1590504741.0643594,0.0452223303103524,-4.53,8.646944174224119,0.4488888888888889,0.2644444444444444,-0.6611111111111111,-0.0004029984247758112,0.002181661564992912,0.00028483393294483354
1590504741.0743594,0.02,-4.529368227797977,8.711263544404048,0.45015243329293514,0.2644444444444444,-0.6620236709584778,-0.0011597464390456938,0.001974914595345198,-0.0009529994693979801
1590504741.0843594,0.028885105907961936,-4.515557447046019,8.73444255295398,0.4688888888888889,0.2644444444444444,-0.6755555555555556,-0.001212446861978312,-0.00012161607948185584,0.00012161607948185584
1590504741.0943594,0.029059621067269253,-4.531880757865461,8.685298105336347,0.4688888888888889,0.2644444444444444,-0.6755555555555556,0.0011934102111998426,-0.0006992845343033081,0.0006992845343033081
1590504741.1043594,0.03382197426227596,-4.540785350491816,8.658429299016369,0.4688888888888889,0.2644444444444444,-0.6755555555555556,0.002181661564992912,-0.002181661564992912,0.0016790803983207665
1590504741.1143594,0.04651766667484001,-4.52303533334968,8.69392933330064,0.4688888888888889,0.2644444444444444,-0.6755555555555556,0.002181661564992912,-0.002941388842192464,-0.0004286237719026483
1590504741.1243594,0.037226625264032066,-4.518320124207904,8.714453250528065,0.4707378053795342,0.2644444444444444,-0.6755555555555556,0.0024841898183320926,-0.004363323129985824,-0.002667435840811007
1590504741.1343594,0.02930270683813618,-4.54,8.69651353419068,0.4755555555555556,0.2644444444444444,-0.6755555555555556,0.003272492347489368,-0.0045915117836014254,-0.001090830782496456
1590504741.1443594,0.023484021658350143,-4.52954793502495,8.63257989170825,0.4755555555555556,0.2644444444444444,-0.6755555555555556,0.0036525401546706367,-0.006875719863112654,-0.0014708785896777247
1590504741.1543593,0.03362512077294686,-4.506374879227053,8.61087536231884,0.4755555555555556,0.2644444444444444,-0.6755555555555556,0.004363323129985824,-0.00545415391248228,-0.002181661564992912
1590504741.1643593,0.03551612446099966,-4.508967751078001,8.670354879851004,0.4755555555555556,0.2644444444444444,-0.6755555555555556,0.0038742081837033777,-0.003986809073634941,-0.0016925466187104657
1590504741.1743593,0.034234504221537045,-4.52,8.70729648733539,0.4727325527411976,0.2705609505422202,-0.6755555555555556,0.003272492347489368,-0.0012578360543001523,-0.00016700527180369632
1590504741.1843593,0.04813808967295528,-4.515930955163522,8.694069044836477,0.4688888888888889,0.2788888888888889,-0.6755555555555556,0.0019409005385929484,-0.00044386393629880646,0.0006469668461976495
1590504741.1943593,0.04899326636494094,-4.506331088788314,8.681655443941567,0.4688888888888889,0.2788888888888889,-0.6755555555555556,0.0,-0.0014910469112918404,-0.0008004322575907688
1590504741.2043593,0.04027305384248012,-4.50513652692124,8.6756826346062,0.4688888888888889,0.2788888888888889,-0.6755555555555556,-0.001120616336162081,-0.0016213533969118713,-0.0010610452288308308
1590504741.2143593,0.04210124530876834,-4.515265836460821,8.70263291823041,0.4688888888888889,0.2788888888888889,-0.6755555555555556,-0.001894454739640119,-0.001090830782496456,0.00028720682535279287
1590504741.2243593,0.024213578983282157,-4.5271909473444785,8.70859547367224,0.4688888888888889,0.2788888888888889,-0.6755555555555556,-0.0012440408378112658,-0.001090830782496456,0.0009376207271816461
1590504741.2343593,0.01610880110880111,-4.53,8.702036267036267,0.4688888888888889,0.2588888888888889,-0.6611111111111111,0.00197931988831362,-1.9780599774999255e-05,0.00044424455290858203
1590504741.2443593,0.04,-4.5267595433625125,8.667874063712661,0.4688888888888889,0.2588888888888889,-0.6611111111111111,0.004393716957627352,-0.004716802114937466,0.002181661564992912
1590504741.2543592,0.04,-4.52,8.598158328439638,0.4688888888888889,0.2588888888888889,-0.6611111111111111,0.0014388741792190271,-0.0039685791409345104,0.0011912783839610655
1590504741.2643592,0.040335489205871065,-4.520335489205871,8.66033548920587,0.4688888888888889,0.2588888888888889,-0.6611111111111111,-0.0011274269777924004,0.0009810421966086227,-0.0020718729791050785
1590504741.2743592,0.04628994606777751,-4.524434919101666,8.679275134830556,0.47259894282111137,0.2625989428211114,-0.658431627715617,-0.0017769574615938808,-0.0017769574615938808,0.0006861266790974247
1590504741.2843592,0.031154102997210983,-4.5,8.717691794005578,0.4888888888888889,0.2788888888888889,-0.6466666666666666,6.29465537764581e-05,-6.29465537764581e-05,-0.001153777336272914
1590504741.2943592,0.05,-4.506455846397238,8.657404537609665,0.4888888888888889,0.2788888888888889,-0.6466666666666666,0.001090830782496456,-0.0014429425813552916,-0.0018295497661340765
1590504741.3043592,0.05,-4.521650639168887,8.616602556675549,0.4888888888888889,0.2788888888888889,-0.6466666666666666,0.0014509443857397923,-0.0012813775568845712,-0.0016310011873614605
1590504741.3143592,0.04651717933339046,-4.53348282066661,8.681345385999487,0.4888888888888889,0.2788888888888889,-0.6466666666666666,0.0021327419495736125,0.0021327419495736125,-0.0032235727320700683
1590504741.3243592,0.04,-4.537283239001354,8.741358380499323,0.4870777148897917,0.2769267837232003,-0.6466666666666666,-0.00014817632630043182,0.0005927053052017273,-0.001090830782496456
1590504741.3343592,0.03584081154896605,-4.515840811548966,8.758318376902068,0.4755555555555556,0.2644444444444444,-0.6466666666666666,0.0007239575345401761,0.0025485348129491918,-0.0015445278617556139
1590504741.3443592,0.01696335837298616,-4.514345547209004,8.700471244655926,0.4755555555555556,0.2644444444444444,-0.6466666666666666,0.0023244410150146094,0.0,-0.002181661564992912
1590504741.3543591,0.011109579187147823,-4.52,8.621109579187147,0.4755555555555556,0.2644444444444444,-0.6466666666666666,0.001090830782496456,0.0004039556985974267,-0.0009697944692006316
1590504741.3643591,0.03496891450894452,-4.52,8.647453371763417,0.4755555555555556,0.2644444444444444,-0.6466666666666666,0.0008198185373989586,6.7818021064665075e-06,0.001090830782496456
1590504741.3743591,0.05,-4.52,8.67605323961711,0.48093621299298644,0.26578960880380215,-0.6524957122238834,-0.00022010200360567675,-0.002392084333066661,0.0004305247716794257
1590504741.3843591,0.05033015873015873,-4.519669841269841,8.699339682539682,0.5022222222222222,0.27111111111111114,-0.6755555555555556,-0.001090830782496456,0.0010548160518997476,-0.0020736173732027866
1590504741.394359,0.05591820145388671,-4.514081798546113,8.651427410177206,0.5022222222222222,0.27111111111111114,-0.6755555555555556,-0.0019813410829063877,-0.00044525515020496585,-0.00024493466811844147
1590504741.404359,0.04442321374123387,-4.522788393129383,8.623941965646916,0.5022222222222222,0.27111111111111114,-0.6755555555555556,-0.00418499186525917,0.00012583524119661317,-0.0018774950590696447
1590504741.414359,0.03021343632482976,-4.529893281837586,8.659466409187926,0.5022222222222222,0.27111111111111114,-0.6755555555555556,-0.006510061257994653,0.003225927764843925,-0.0011024719281578167
1590504741.424359,0.038684252192913014,-4.503947243421261,8.713947243421261,0.4969592309938743,0.27111111111111114,-0.6726316715398067,-0.0016075582810038337,0.004363323129985824,0.00014352582099726955
1590504741.434359,0.026946004501377758,-4.520838013504133,8.727784018005512,0.4622222222222222,0.27111111111111114,-0.6533333333333333,0.002181661564992912,0.004696462359936099,0.0004245523225959051
1590504741.444359,0.02528244907626717,-4.5,8.673587754618664,0.4622222222222222,0.27111111111111114,-0.6533333333333333,0.0018935486620248018,0.004589815203577949,-0.0005146049765602359
1590504741.454359,0.036730382871247344,-4.5,8.61307846851501,0.4622222222222222,0.27111111111111114,-0.6533333333333333,0.001804150584700671,0.002181661564992912,0.001090830782496456
1590504741.464359,0.032519122327061584,-4.501259561163531,8.645038244654124,0.4622222222222222,0.27111111111111114,-0.6533333333333333,0.003547285965412656,0.002044264756031268,0.0008160371645731682
1590504741.474359,0.048130757634972925,-4.509065378817486,8.676261515269946,0.4622222222222222,0.27111111111111114,-0.6533333333333333,0.005250251201310478,0.0011927821380823566,-0.0008869280713246547
1590504741.484359,0.05548505457443063,-4.525485054574431,8.702257472712784,0.4688888888888889,0.27111111111111114,-0.6466666666666666,0.002427913637568044,-0.001090830782496456,0.00035207456477106104
1590504741.494359,0.04,-4.510133305904135,8.709133511623124,0.4688888888888889,0.27111111111111114,-0.6466666666666666,0.0032579509291174756,-0.0010981014916824022,-0.002188932274178858
1590504741.504359,0.04,-4.526621749857658,8.607026001138737,0.4688888888888889,0.27111111111111114,-0.6466666666666666,0.0018278506317443936,-0.002181661564992912,-0.0025354724982414303
1590504741.514359,0.04493170799925415,-4.52,8.666575610665673,0.4688888888888889,0.27111111111111114,-0.6466666666666666,0.0029138484210980056,-0.0016436956754058685,-0.001090830782496456
1590504741.524359,0.06619380837836994,-4.52380619162163,8.703806191621629,0.47269508051051895,0.2738600272822884,-0.6494155828378438,0.000883235233248747,0.0012984263317441648,-0.0006756396840010381
1590504741.534359,0.04633082982231178,-4.532661659644623,8.708992489466935,0.4888888888888889,0.2855555555555556,-0.6611111111111111,0.00040024437760403025,0.002181661564992912,0.00029034202728839547
1590504741.544359,0.04338311165806788,-4.523383111658068,8.666318218393524,0.4888888888888889,0.2855555555555556,-0.6611111111111111,0.002197951483669375,0.002550701798717218,1.6289918676463087e-05
1590504741.554359,0.03977952103686019,-4.526593173678953,8.616593173678952,0.4888888888888889,0.2855555555555556,-0.6611111111111111,0.0032484418235007866,0.002157611041004331,0.0018100344628312328
1590504741.564359,0.02,-4.52,8.629503061396445,0.4888888888888889,0.2855555555555556,-0.6611111111111111,0.002306518766734272,0.0006078439921189081,0.00139475277855591
1590504741.574359,0.02219346967605227,-4.521096734838026,8.685483674190131,0.48535496552191576,0.28324022645305597,-0.6626952836549266,0.004975613063860211,0.0019423911406818775,0.0019423911406818775
1590504741.584359,0.0371737660581474,-4.53,8.724347532116296,0.4566666666666666,0.2644444444444444,-0.6755555555555556,0.0007825364842655441,0.0,0.00030829429823091184
1590504741.594359,0.03167393970508542,-4.53,8.689912723538976,0.4566666666666666,0.2644444444444444,-0.6755555555555556,0.0001825984958350218,-0.0003651969916700436,0.0014560277741664997
1590504741.604359,0.03743822075782537,-4.519752883031302,8.602808896210874,0.4566666666666666,0.2644444444444444,-0.6755555555555556,0.001090830782496456,-0.001902214799460459,0.003551939113021821
1590504741.614359,0.030790780654804957,-4.49158156130961,8.643953903274026,0.4566666666666666,0.2644444444444444,-0.6755555555555556,0.0010045699944500608,-0.0010045699944500608,0.004190801553893034
1590504741.624359,0.037532185737017214,-4.505064371474035,8.677660928685086,0.4566666666666666,0.2644444444444444,-0.6755555555555556,0.0002691967763545428,-0.0002691967763545428,0.0027200551177019973
1590504741.634359,0.030162424152730502,-4.539512727541808,8.71951272754181,0.47524875437817576,0.2710028283426241,-0.6679041076743459,-0.0010731130559345223,-0.0010731130559345223,0.0011085485090583896
1590504741.6443589,0.03,-4.5230343164306,8.669102949291803,0.4755555555555556,0.27111111111111114,-0.6677777777777778,-0.00016549628831670027,0.0016851727000428112,0.001090830782496456
1590504741.6543589,0.041398463189818206,-4.52,8.58839077913891,0.4755555555555556,0.27111111111111114,-0.6677777777777778,0.0,-0.0020291128954287234,-0.0014189182171719698
1590504741.6643589,0.04854463053515752,-4.52,8.631267783210946,0.4755555555555556,0.27111111111111114,-0.6677777777777778,0.0,-0.0012495869637120136,0.0024787114414115802
1590504741.6743588,0.030355199146988913,-4.510710398293978,8.710710398293978,0.4753187561242297,0.2706769788203469,-0.6675409783464519,0.0031949999147989697,0.0,3.874621634519921e-05
1590504741.6843588,0.039672346002621234,-4.5293446920052425,8.729344692005244,0.4691073248871414,0.25928935488568516,-0.6613295471093636,0.0011623137957662102,0.0,0.0010550892758615785
1590504741.6943588,0.05,-4.53,8.692553404188152,0.4688888888888889,0.2588888888888889,-0.6611111111111111,0.0008189553001916199,0.0016379106003832399,-0.000547079817886784
1590504741.7043588,0.05,-4.53,8.641060717668106,0.4688888888888889,0.2588888888888889,-0.6611111111111111,1.6529478341522578e-05,3.3058956683045156e-05,0.0010577718258134108
1590504741.7143588,0.024987169864018013,-4.53,8.687480754796027,0.4688888888888889,0.2588888888888889,-0.6611111111111111,0.0019096536447324361,-0.0032696932460348146,-0.001090830782496456
1590504741.7243588,0.03963028261211095,-4.53,8.709445423918167,0.4688888888888889,0.2588888888888889,-0.6611111111111111,0.001110995737873134,-0.006464324873472024,-0.001090830782496456
1590504741.7343588,0.03574937163375225,-4.525749371633752,8.717125314183125,0.4755555555555556,0.2788888888888889,-0.6611111111111111,0.003736163974174935,-0.002181661564992912,0.0006271591558108888
1590504741.7443588,0.04709559700424558,-4.531286791012737,8.678051567046701,0.4755555555555556,0.2788888888888889,-0.6611111111111111,0.0031321252227560666,-0.001864840345738527,0.0012311979072297569
1590504741.7543588,0.03216189578333905,-4.512612701405553,8.613063507027768,0.4755555555555556,0.2788888888888889,-0.6611111111111111,0.005169152400617312,-0.0019458353180913598,-0.0005208277587665201
1590504741.7643588,0.01428598085231595,-4.5178570095738415,8.652142990426158,0.4755555555555556,0.2788888888888889,-0.6611111111111111,0.004480205126158239,-0.004830851114675488,0.00097394878632404
1590504741.7743587,0.03836727956479927,-4.5058163602176,8.664183639782399,0.4755555555555556,0.2788888888888889,-0.6611111111111111,0.005136920674109966,-0.0074577133064823945,0.0003172332383723133
1590504741.7843587,0.06791752747706802,-4.553752582431204,8.741670109908272,0.48252348290774866,0.2719209615366958,-0.654143183758918,0.004476904386571687,-0.006772147208150463,0.001954499051821185
1590504741.7943587,0.046749823071479124,-4.536749823071479,8.734499882047652,0.4833333333333333,0.27111111111111114,-0.6533333333333333,0.004363323129985824,-0.00569958440524142,-0.0003545393042190359
1590504741.8043587,0.030746943499963826,-4.519626528250018,8.572614302249873,0.4833333333333333,0.27111111111111114,-0.6533333333333333,0.00864516736371703,-0.0033132317956166774,-4.0739448127309224e-05
1590504741.8143587,0.045918396874773934,-4.512040801562613,8.62571438906171,0.4833333333333333,0.27111111111111114,-0.6533333333333333,0.006990218528071769,-0.004140706213439307,-0.0008682138659499391
1590504741.8243587,0.020086763559305092,-4.519913236440694,8.710433817796526,0.48315016581924475,0.2710532687382411,-0.6533333333333333,0.0033008856558760535,-4.732218064447551e-05,-0.0010813663463675608
1590504741.8343587,0.0284718418264329,-4.511528158173567,8.752359209132164,0.465448333921975,0.2654632165601558,-0.6533333333333333,0.006044896102103568,-0.004620672924357002,-0.00016669619762505567
1590504741.8443587,0.02,-4.53,8.74503851134892,0.4622222222222222,0.2644444444444444,-0.6533333333333333,0.003324093231072801,-0.004852936701162919,0.0012540353062221543
1590504741.8543587,0.02,-4.53,8.67356587826324,0.4622222222222222,0.2644444444444444,-0.6533333333333333,0.008781611610388151,-0.007191873149440926,0.00203368078898149
1590504741.8643587,0.054236853941373175,-4.49,8.637175430705751,0.4622222222222222,0.2644444444444444,-0.6533333333333333,0.019006292372458877,-0.016041912738315598,-0.003272492347489368
1590504741.8743587,0.07884310773021491,-4.49,8.62077126151319,0.4622222222222222,0.2644444444444444,-0.6533333333333333,0.021690418279937743,-0.020515455917447033,-0.003272492347489368
1590504741.8843586,0.05,-4.511889567575911,8.667972391893978,0.4622222222222222,0.2644444444444444,-0.6677777777777778,0.012190200569254423,-0.008932766107712771,-0.0015181283639264112
1590504741.8943586,0.05,-4.484234201287303,8.651531597425395,0.4622222222222222,0.2644444444444444,-0.6677777777777778,0.004517283033435014,-0.00560811381593147,0.0009368708790472658
1590504741.9043586,0.05,-4.508285641352903,8.610286151882578,0.4622222222222222,0.2644444444444444,-0.6677777777777778,0.00526714639403311,-0.005796954621182059,-0.0003740150368983381
1590504741.9143586,0.05156781061958606,-4.501567810619586,8.674110295576275,0.4622222222222222,0.2644444444444444,-0.6677777777777778,0.004021279912991961,-0.0020106399564959803,-0.0013265535225082535
1590504741.9243586,0.058501454737816566,-4.508501454737816,8.73651309264035,0.4622222222222222,0.2644444444444444,-0.6677777777777778,0.0025085934251836933,-0.0012542967125918467,0.0024551626970124147
1590504741.9343586,0.06797061746951441,-4.502029382530486,8.742029382530486,0.4675359672018985,0.2644444444444444,-0.6624640327981015,0.002181661564992912,0.0006480881957536097,0.0006641138801142693
1590504741.9443586,0.04095645269651255,-4.491912905393026,8.702348378427901,0.4688888888888889,0.2644444444444444,-0.6611111111111111,0.00010433280433576316,0.0008821651738249297,0.0
1590504741.9543586,0.04949551090209492,-4.5089910218041895,8.634035912783242,0.4688888888888889,0.2644444444444444,-0.6611111111111111,0.0010357995587535823,-0.0009807683350107085,0.0
1590504741.9643586,0.03915469680894475,-4.491690606382111,8.664226515955276,0.4688888888888889,0.2644444444444444,-0.6611111111111111,0.0004610413706727757,-0.0012752473307655664,0.0019972450167238015
1590504741.9743586,0.03059699665388068,-4.508806006692239,8.707015016730598,0.4688888888888889,0.2644444444444444,-0.6611111111111111,0.005128542748932065,-0.003142247882069282,0.00013024446542008643
1590504741.9843585,0.04022704075846583,-4.500681122275397,8.710454081516932,0.4688888888888889,0.27111111111111114,-0.64,9.906521928634829e-05,-0.006495452085335561,0.002156895260171325
1590504741.9943585,0.0497402980335231,-4.529220894100569,8.729480596067047,0.4688888888888889,0.27111111111111114,-0.64,0.004250006770262678,-0.004419981309847397,0.0011191598724272424
1590504742.0043585,0.04205584547083106,-4.514111690941662,8.642614300179142,0.4688888888888889,0.27111111111111114,-0.64,0.006096468790251048,-0.0008970318094553768,0.001090830782496456
1590504742.0143585,0.05082574721625318,-4.5,8.68247724164876,0.4688888888888889,0.27111111111111114,-0.64,0.0020015114685829677,-0.001180905830701428,0.00209158651678794
1590504742.0243585,0.059019339714788045,-4.5,8.707058019144364,0.4688888888888889,0.27111111111111114,-0.64,0.00021394688525619085,-0.0020746881223648165,0.0011978042251245514
1590504742.0343585,0.05,-4.508827826219979,8.726483478659937,0.4566666666666666,0.2588888888888889,-0.6677777777777778,0.0030167636991528498,0.00012786432416825904,0.001090830782496456
1590504742.0443585,0.05,-4.500807518739483,8.702422556218448,0.4566666666666666,0.2588888888888889,-0.6677777777777778,0.001267004042190602,0.0010027441526493828,0.001090830782496456
1590504742.0543585,0.05830179260267756,-4.511698207397322,8.62,0.4566666666666666,0.2588888888888889,-0.6677777777777778,0.0022742844101960374,0.0006277165564808288,0.0009055850920902051
1590504742.0643585,0.04100304328923669,-4.528328261184606,8.62300912986771,0.4566666666666666,0.2588888888888889,-0.6677777777777778,0.0031995489810843093,-0.004180964713973177,-0.0010543590992939265
1590504742.0743585,0.06705297807589591,-4.484911703206841,8.701158934227688,0.4566666666666666,0.2588888888888889,-0.6677777777777778,0.0013051442645967675,0.0005550470772456764,-0.0001071567410501561
1590504742.0843585,0.030973995712554755,-4.51805200857489,8.731947991425109,0.4688888888888889,0.2588888888888889,-0.6533333333333333,0.001969168663938052,-0.00010624645052742999,0.001969168663938052
1590504742.0943584,0.0418926681486436,-4.5,8.742429327405425,0.4688888888888889,0.2588888888888889,-0.6533333333333333,6.881935591970047e-05,-0.0011596501384161565,-0.00013763871183940094
1590504742.1043584,0.06664607636771389,-4.5,8.643415694529144,0.4688888888888889,0.2588888888888889,-0.6533333333333333,0.0009688786778217887,-0.0020597094603182447,-0.0019377573556435773
1590504742.1143584,0.04,-4.5091645584514914,8.670835441548508,0.4688888888888889,0.2588888888888889,-0.6533333333333333,0.001090830782496456,-0.003181359811680404,0.0009996982466874917
1590504742.1243584,0.04,-4.492713420015297,8.687286579984702,0.4688888888888889,0.2588888888888889,-0.6533333333333333,0.001090830782496456,-0.001386818990349233,-0.0007948425746436786
1590504742.1343584,0.04066216278746935,-4.51,8.679558558141688,0.4622222222222222,0.2644444444444444,-0.6466666666666666,-0.0021335077282198973,-0.0032965692658758756,0.0010667538641099487
1590504742.1443584,0.06977442043403823,-4.51,8.660150386377309,0.4622222222222222,0.2644444444444444,-0.6466666666666666,-1.6404608963553006e-05,-0.004355120825504048,8.202304481776503e-06
1590504742.1543584,0.05524027378799164,-4.495240273787991,8.615720821363976,0.4622222222222222,0.2644444444444444,-0.6466666666666666,0.0008050181846639271,-0.0027532867606579695,-0.0008050181846639271
1590504742.1643584,0.06,-4.509711233258496,8.66086630022451,0.4622222222222222,0.2644444444444444,-0.6466666666666666,0.0021974113475225696,-0.005375404999833991,-0.0010750809999667981
1590504742.1743584,0.06,-4.493475652241233,8.709573043276302,0.4622222222222222,0.2644444444444444,-0.6466666666666666,0.0030829249247899086,-0.0009478371134972984,-0.0001895674226994596
1590504742.1843584,0.020538850420490213,-4.5,8.72892229915902,0.4688888888888889,0.2588888888888889,-0.6533333333333333,0.001090830782496456,-0.002181661564992912,-0.003272492347489368
1590504742.1943583,0.030559149091240377,-4.500559149091241,8.705526807270077,0.4688888888888889,0.2588888888888889,-0.6533333333333333,0.0009688433743504714,-0.0023646426772118887,-0.002967523827124407
1590504742.2043583,0.04037554385161438,-4.510125181283871,8.630125181283873,0.4688888888888889,0.2588888888888889,-0.6533333333333333,-0.0010771756227125145,-0.00545415391248228,0.002140696085641087
1590504742.2143583,0.06871849427168576,-4.518718494271686,8.641922258592471,0.4688888888888889,0.2588888888888889,-0.6533333333333333,-6.98952948195356e-05,-0.005803630386579958,-0.0009510401928573848
1590504742.2243583,0.05155687397708675,-4.501556873977087,8.66766468903437,0.4688888888888889,0.2588888888888889,-0.6533333333333333,-0.001005916479562761,-0.010483736310296084,0.000921002176629066
1590504742.2343583,0.026301006669704627,-4.468401342226273,8.662100335556568,0.463622445926601,0.2588888888888889,-0.6594775167893359,-0.010569747643413398,-0.02211066411513913,0.00022911106786764287
1590504742.2443583,0.02569953816897582,-4.502849769084488,8.696200307887349,0.4622222222222222,0.2588888888888889,-0.6611111111111111,-0.02597269772389053,-0.035113826095911,-0.0034797334035137784
1590504742.2543583,0.08048557110765509,-4.530485571107655,8.663398997753585,0.4622222222222222,0.2588888888888889,-0.6611111111111111,-0.02357453648586517,-0.03650560310242632,-0.005136348365689636
1590504742.2643583,0.09126360765372468,-4.539368196173138,8.73252721530745,0.4622222222222222,0.2588888888888889,-0.6611111111111111,-0.014582439892109878,-0.024055321403157724,0.0010219116762124054
1590504742.2743583,0.10684711127624001,-4.53157644436188,8.76369422255248,0.4622222222222222,0.2588888888888889,-0.6611111111111111,-0.006082957166817501,-0.011306097315219166,0.00017196340368316786
1590504742.2843583,0.09,-4.519685525490763,8.769371050981526,0.4888888888888889,0.2588888888888889,-0.6533333333333333,0.00777303086746944,0.007755878943720159,0.002181661564992912
1590504742.2943583,0.0898221515099006,-4.500533545470298,8.728399363589105,0.4888888888888889,0.2588888888888889,-0.6533333333333333,0.016440062780495215,0.015388032519522948,0.0022010618257550063
1590504742.3043582,0.08321497770986594,-4.520355066870402,8.668934799388794,0.4888888888888889,0.2588888888888889,-0.6533333333333333,0.01932298620704797,0.01971241765935208,0.0029217926823931948
1590504742.3143582,0.06416501213324509,-4.5220825060666225,8.624165012133245,0.4888888888888889,0.2588888888888889,-0.6533333333333333,0.022453114087984078,0.025271274091031946,0.0015451631269379536
1590504742.3243582,0.030748403534799715,-4.49659872282784,8.6492515964652,0.4888888888888889,0.2588888888888889,-0.6533333333333333,0.022269275595197476,0.028094451291599244,0.002367172456952656
1590504742.3343582,0.004066400673523921,-4.468132801347048,8.652199202020572,0.46251733632677294,0.2588888888888889,-0.6493776004490159,0.017285828692504876,0.020390857212555825,0.0013307265085932642
1590504742.3443582,0.048272407045009784,-4.490170254403131,8.67017025440313,0.4444444444444444,0.2588888888888889,-0.6466666666666666,0.007598671728716993,0.006940458884343301,-0.0006582128443736932
1590504742.3543582,0.05733321714883235,-4.494888811432555,8.621999651446497,0.4444444444444444,0.2588888888888889,-0.6466666666666666,0.0016241173825416039,0.002181661564992912,-0.00026664330002257395
1590504742.3643582,0.057221418234442836,-4.497221418234443,8.643328509406658,0.4444444444444444,0.2588888888888889,-0.6466666666666666,0.0026662998431787473,0.000606192504310621,0.001575469060682291
1590504742.3743582,0.06699151295133439,-4.486016974097332,8.680974538854002,0.4444444444444444,0.2588888888888889,-0.6466666666666666,0.003272492347489368,-0.0007626557543538188,0.0014190058106390933
1590504742.3843582,0.07,-4.493275183395957,8.716550366791912,0.47394485199101405,0.26700150096419556,-0.6562542991193018,0.004720590216648869,0.0018053649558225475,-0.00035726708666304575
1590504742.3943582,0.030232025419345304,-4.490058006354836,8.680290031774181,0.4888888888888889,0.27111111111111114,-0.6611111111111111,0.0032851473709765433,0.003272492347489368,0.0010781757590092808
1590504742.4043581,0.060146997817578415,-4.49,8.612169254910448,0.4888888888888889,0.27111111111111114,-0.6611111111111111,0.003272492347489368,0.002450360517007668,0.002735094443459857
1590504742.4143581,0.05984535405288741,-4.5,8.660463937841337,0.4888888888888889,0.27111111111111114,-0.6611111111111111,0.0,0.0032387538355896223,0.001090830782496456
1590504742.4243581,0.04410187114088922,-4.5,8.707694386577334,0.4888888888888889,0.27111111111111114,-0.6611111111111111,0.0,-0.00019594132123329326,0.001090830782496456
1590504742.4343581,0.04,-4.509207362327445,8.729207362327445,0.4837736875958636,0.2649728695594808,-0.6539498293008758,0.0,-0.001090830782496456,8.646335725888475e-05
1590504742.444358,0.0497437106138044,-4.490512578772392,8.739743710613805,0.4833333333333333,0.2644444444444444,-0.6533333333333333,0.0,-0.002153704729823983,0.0
1590504742.454358,0.05,-4.498037801835078,8.659621981649213,0.4833333333333333,0.2644444444444444,-0.6533333333333333,0.0008767881665310335,-0.003935237898054979,0.001753576333062067
1590504742.464358,0.05,-4.514387465670163,8.661581198505246,0.4833333333333333,0.2644444444444444,-0.6533333333333333,0.0018755453042527198,-0.0020091795647170325,0.0006122325214803844
1590504742.474358,0.05,-4.505155859197958,8.679896093868027,0.4833333333333333,0.2644444444444444,-0.6533333333333333,0.002181661564992912,-0.001090830782496456,0.0
1590504742.484358,0.04526309476209516,-4.49947381047581,8.70894762095162,0.4833333333333333,0.2644444444444444,-0.6533333333333333,0.0016649453602653823,0.0004593178316861326,0.0005167162047275295
1590504742.494358,0.06875699440447643,-4.490828670397016,8.758756994404477,0.4833333333333333,0.2644444444444444,-0.6533333333333333,-0.002046070688351666,0.003227295388608953,4.519695888041534e-05
1590504742.504358,0.05378881121666568,-4.498105594391667,8.630310489733326,0.4833333333333333,0.2644444444444444,-0.6533333333333333,0.0004708879968654419,0.003272492347489368,0.0
1590504742.514358,0.05816901763224181,-4.5,8.657183123425693,0.4833333333333333,0.2644444444444444,-0.6533333333333333,0.00019972919289588757,-0.00029191401091290545,0.0008911015896005684
1590504742.524358,0.0669955211233507,-4.5,8.704977605616754,0.4833333333333333,0.2644444444444444,-0.6533333333333333,0.0007630929780955114,0.0027246341079811007,0.0018539237605919674
1590504742.534358,0.06438834145835494,-4.5,8.736834975624935,0.49019202710645504,0.26132685636575276,-0.6658036856481001,-0.0001334431931206638,0.0019147751787515844,0.0009573875893757922
1590504742.544358,0.06,-4.491582378426529,8.71632951370612,0.4955555555555556,0.2588888888888889,-0.6755555555555556,0.0016638294358278939,0.0,-0.0009182200727747834
1590504742.554358,0.06,-4.496593111338384,8.650661997954549,0.4955555555555556,0.2588888888888889,-0.6755555555555556,0.0014624646849594098,0.0,-0.001810027662529958
1590504742.564358,0.043591725559481743,-4.491795862779741,8.644612411660777,0.4955555555555556,0.2588888888888889,-0.6755555555555556,-0.0015939668446086133,0.0017898650847367127,-0.0003917964802561992
1590504742.574358,0.04730425871548785,-4.504608517430976,8.701129811008416,0.4955555555555556,0.2588888888888889,-0.6755555555555556,-0.001384890539975695,-0.0002086515100587394,0.0
1590504742.584358,0.05,-4.500882874745976,8.72,0.465165138042142,0.2639539584744578,-0.6623863746330764,0.0008982173924965981,0.0008982173924965981,0.0
1590504742.594358,0.05,-4.5,8.72,0.4622222222222222,0.2644444444444444,-0.6611111111111111,0.001090830782496456,-0.0006189987690700029,-0.0008549147757832295
1590504742.604358,0.06817565989254848,-4.5,8.629121700537256,0.4622222222222222,0.2644444444444444,-0.6611111111111111,-0.0008918261478013539,-0.003073487712794266,0.002874483078099164
1590504742.614358,0.045628963063722924,-4.508123678978759,8.652494715915036,0.4622222222222222,0.2644444444444444,-0.6611111111111111,-0.0002046748727814843,-0.0006140246183444528,0.0006140246183444528
1590504742.624358,0.04991357152519954,-4.5050432142374,8.684783928813,0.4622222222222222,0.2644444444444444,-0.6611111111111111,0.0005407014492083997,0.0005407014492083997,0.0010814028984167995
1590504742.634358,0.05645665301296398,-4.503543346987036,8.720630040961108,0.469702621417076,0.2644444444444444,-0.6536307119162573,0.0018638691758014485,0.0018638691758014485,0.0014086231716879194
1590504742.644358,0.06526037044459077,-4.502369814777705,8.709479259110818,0.4833333333333333,0.2644444444444444,-0.64,0.002440168255826431,0.002440168255826431,0.0
1590504742.654358,0.05628465502841662,-4.513715344971583,8.651996292599458,0.4833333333333333,0.2644444444444444,-0.64,-6.25065081412586e-05,0.002181661564992912,0.0
1590504742.664358,0.05768141131485183,-4.52,8.653044233944556,0.4833333333333333,0.2644444444444444,-0.64,-0.001928742774022151,-0.0011699864011098684,0.0008379119915256951
1590504742.674358,0.06667459880427942,-4.4999762035871615,8.680023796412838,0.4833333333333333,0.2644444444444444,-0.64,2.595785963697538e-06,-0.0007254899976885058,-0.0003653407848079502
1590504742.684358,0.05988055055884553,-4.49,8.684940275279422,0.4861442915114318,0.26163348626634597,-0.6433731498137182,-0.0005649602603527233,-0.002207721390465572,-0.0016427611301128488
1590504742.6943579,0.05,-4.496239526509074,8.673760473490926,0.4888888888888889,0.2588888888888889,-0.6466666666666666,-0.003542915081853038,-0.006405203405276013,-0.0008204080481327856
1590504742.7043579,0.05,-4.487988139646102,8.62195255858441,0.4888888888888889,0.2588888888888889,-0.6466666666666666,-0.0069839045358018915,-0.010256396883291259,-0.0006551453514540169
1590504742.7143579,0.07078068992732414,-4.493853793284883,8.666195863066855,0.4888888888888889,0.2588888888888889,-0.6466666666666666,-0.01250468230234485,-0.016532781858308858,-0.001090830782496456
1590504742.7243578,0.08,-4.5065188177418705,8.732594088709355,0.4888888888888889,0.2588888888888889,-0.6466666666666666,-0.015602985584117305,-0.02067740141993482,-0.00037973807666476635
1590504742.7343578,0.08,-4.525913734392736,8.78182746878547,0.4676705763652415,0.26330937066464877,-0.6519712447975785,-0.015494502170443417,-0.015740898680905155,-0.0008679595670034229
1590504742.7443578,0.08827002946704099,-4.5217299705329586,8.814810088401122,0.4622222222222222,0.2644444444444444,-0.6533333333333333,-0.007152548511629411,-0.005159597457652845,-0.001090830782496456
1590504742.7543578,0.06802909322573794,-4.512676364408579,8.70282183053727,0.4622222222222222,0.2644444444444444,-0.6533333333333333,0.0025346932304260395,0.003118585366837287,0.0013058233603760402
1590504742.7643578,0.06590282667739664,-4.515902826677396,8.671805653354793,0.4622222222222222,0.2644444444444444,-0.6533333333333333,0.006741950921171387,0.008029747929860494,0.002181661564992912
1590504742.7743578,0.07,-4.514850365137702,8.68,0.4622222222222222,0.2644444444444444,-0.6533333333333333,0.00819755350011632,0.011502691110391487,0.0016199235423517843
1590504742.7843578,0.05649951603334687,-4.489749274050021,8.68,0.46672238354443996,0.2689446057666622,-0.6728340323962767,0.007990309085500392,0.01308996938995747,0.00035449360802520104
1590504742.7943578,0.03425650882404334,-4.495743491175957,8.656384763236066,0.4688888888888889,0.27111111111111114,-0.6822222222222222,0.005059792757670963,0.0036445527506752985,-0.000858674239934743
1590504742.8043578,0.05320745872180843,-4.505801864680452,8.615188811917287,0.4688888888888889,0.27111111111111114,-0.6822222222222222,0.002464667353190987,-0.003339366030024829,-0.001090830782496456
1590504742.8143578,0.07637672314761632,-4.51,8.628260338885697,0.4688888888888889,0.27111111111111114,-0.6822222222222222,-0.0003003543976790573,-0.005849392104890979,-0.00039523819240869934
1590504742.8243577,0.08,-4.51565367888524,8.695229431081922,0.4688888888888889,0.27111111111111114,-0.6822222222222222,-0.001090830782496456,-0.0029872711275342276,0.001233441392474026
1590504742.8343577,0.07639565612354447,-4.523604343876455,8.737208687752911,0.47409516337710245,0.2687082151934741,-0.6746130518163717,-0.0003044849322683972,0.0016613796933017497,0.001395315714764853
1590504742.8443577,0.06553123853771856,-4.516593715613156,8.758937522924562,0.4833333333333333,0.2644444444444444,-0.6611111111111111,0.0030406958075726493,0.009957248488862072,-0.00048746625626904834
1590504742.8543577,0.045219588434488145,-4.5,8.681317530606929,0.4833333333333333,0.2644444444444444,-0.6611111111111111,0.007872593099526324,0.014986946568135276,0.0013276084045475884
1590504742.8643577,0.033356916930248046,-4.4933569169302485,8.65,0.4833333333333333,0.2644444444444444,-0.6611111111111111,0.008726646259971648,0.015271630954950384,0.0014570136146762635
1590504742.8743577,0.04594978165938864,-4.4953165938864625,8.692532751091704,0.4833333333333333,0.2644444444444444,-0.6611111111111111,0.004666993271401322,0.011791928393318676,0.001670781209435074
1590504742.8843577,0.0536139650872818,-4.487227930174564,8.710841895261845,0.4783664172901081,0.2608966472707121,-0.6611111111111111,-0.00030238590968156127,0.004546996183437596,9.183652672588609e-05
1590504742.8943577,0.05662954429083461,-4.499888632872504,8.673481822836662,0.4755555555555556,0.2588888888888889,-0.6611111111111111,-0.00036765968385985264,0.0007353193677197053,0.0003555114147767507
1590504742.9043577,0.05307490597022832,-4.496149811940457,8.611524341791599,0.4755555555555556,0.2588888888888889,-0.6611111111111111,0.0015108211478714753,-0.0007554105739357377,0.0003354202085607183
1590504742.9143577,0.05,-4.49,8.631001126379816,0.4755555555555556,0.2588888888888889,-0.6611111111111111,0.001436240052124079,-0.0033270953211029554,0.0
1590504742.9243577,0.06079510703363915,-4.49539755351682,8.687782874617737,0.4755555555555556,0.2588888888888889,-0.6611111111111111,0.001090830782496456,-0.0037745413773539447,0.0
1590504742.9343576,0.07,-4.487556347194629,8.73244365280537,0.46725978701864157,0.26649334338106007,-0.6562719127979113,-0.00026656117018324706,-0.0019151003948096649,0.0
1590504742.9443576,0.0570004205214466,-4.512498948696384,8.746499789739277,0.4622222222222222,0.27111111111111114,-0.6533333333333333,-0.0032178820007037487,0.0003272033629750724,0.0014180341454715284
1590504742.9543576,0.05559621255696651,-4.507615149772135,8.68844166187337,0.4622222222222222,0.27111111111111114,-0.6533333333333333,-0.004363323129985824,0.002922187059256136,0.0015712094727396851
1590504742.9643576,0.06,-4.501627489777074,8.669068724442685,0.4622222222222222,0.27111111111111114,-0.6533333333333333,-0.004363323129985824,0.006265866695785143,0.001725011971096229
1590504742.9743576,0.04973121984838043,-4.49973121984838,8.67973121984838,0.4622222222222222,0.27111111111111114,-0.6533333333333333,-0.0032431729811782982,0.007635815477475192,0.0010615114161853865
1590504742.9843576,0.03639371363997824,-4.486393713639979,8.677212572720043,0.4718389858489469,0.26670342778219563,-0.6533333333333333,-0.003755200833796446,0.006455661025872541,0.0015735392688035344
1590504742.9943576,0.03,-4.484463341040009,8.69446334104001,0.4888888888888889,0.2588888888888889,-0.6533333333333333,-0.01092685951427854,0.0038764481500636236,0.004363323129985824
1590504743.0043576,0.04276193535066186,-4.496380967675331,8.648952258597351,0.4888888888888889,0.2588888888888889,-0.6533333333333333,-0.02471512889228584,-0.004384119211113048,0.00575543432245899
1590504743.0143576,0.05,-4.5,8.681406263333049,0.4888888888888889,0.2588888888888889,-0.6533333333333333,-0.031888207210377884,-0.0068998141977414705,0.00776287273646552
1590504743.0243576,0.04333668042110548,-4.5,8.739994979368342,0.4888888888888889,0.2588888888888889,-0.6533333333333333,-0.03236204343533624,-0.005817581617995752,0.009816929376512067
1590504743.0343575,0.03017540831855908,-4.5,8.75973688752216,0.4888888888888889,0.2588888888888889,-0.6533333333333333,-0.02949069928608235,-0.006535417655309226,0.011970437488452487
1590504743.0443575,-0.0298092862315925,-4.3805721413052225,8.615858211957834,0.4755555555555556,0.27111111111111114,-0.6677777777777778,-0.037498438304131604,0.010700271375739758,0.027083536758109074
1590504743.0543575,-0.16139917580887675,-4.2286008241911235,8.448600824191123,0.4755555555555556,0.27111111111111114,-0.6677777777777778,-0.05726967915054623,0.038544105074184515,0.05660365093317747
1590504743.0643575,-0.35722163681067787,-4.198166491043203,8.551749209694416,0.4755555555555556,0.27111111111111114,-0.6677777777777778,-0.08864503975300844,0.05701707747596772,0.10787691902825507
1590504743.0743575,-0.375903352384202,-4.279506312377378,8.774422289516336,0.4755555555555556,0.27111111111111114,-0.6677777777777778,-0.09191624163381519,0.06099714883331447,0.17751782177442374
1590504743.0843575,-0.325634567690071,-4.303807406140426,8.823249379970923,0.4755555555555556,0.26820082290449176,-0.6711731140188337,-0.05861720496259723,0.04618604400383705,0.2446946237837308
1590504743.0943575,-0.3036758700129149,-4.275441376662362,8.701027610038745,0.4755555555555556,0.2644444444444444,-0.6755555555555556,-0.02192871051619564,0.003431991462567646,0.3082409305651604
1590504743.1043575,-0.2311161120346266,-3.9357557318947403,8.451641627199448,0.4755555555555556,0.2644444444444444,-0.6755555555555556,-0.030299764037083676,-0.016959197461591743,0.3568114058548518
1590504743.1143575,-0.2815973724265,-3.568073379796523,8.321597372426499,0.4755555555555556,0.2644444444444444,-0.6755555555555556,-0.06370616054155742,-0.018213282531588867,0.4035938448011631
1590504743.1243575,-0.5745586723768736,-3.715735546038544,8.995444753747323,0.4755555555555556,0.2644444444444444,-0.6755555555555556,-0.16242201731372255,-0.035821084311096846,0.5180490863988698
1590504743.1343575,-0.5902488311525307,-3.8549455583796166,9.321850701308481,0.4715223780685515,0.2731829956662866,-0.6668170043337134,-0.16189761410700285,-0.043377064568043515,0.7122531143748225
1590504743.1443574,-0.6969913846023581,-4.128837450519676,8.725914989098452,0.4688888888888889,0.2788888888888889,-0.6611111111111111,-0.04602566535871512,-0.057983702406242094,0.9174855538345325
1590504743.1543574,-0.6883265743718827,-4.0705863981727495,8.257866498857968,0.4688888888888889,0.2788888888888889,-0.6611111111111111,0.012925630365623882,-0.09257448088226844,1.0843950181678967
1590504743.1643574,-0.57407493755204,-3.8695686927560367,8.367775187343879,0.4688888888888889,0.2788888888888889,-0.6611111111111111,-0.030104931405626995,-0.10826836117062867,1.2210024081568556
1590504743.1743574,-0.4834408279321124,-3.8118757395404694,8.651863906892958,0.4688888888888889,0.2788888888888889,-0.6611111111111111,-0.08242485227482682,-0.10270881821416006,1.2997907147992573
1590504743.1843574,-0.43,-3.8177563911058,8.7944872177884,0.4783589641453156,0.2642891895352311,-0.6662407352083423,-0.07679730832224407,-0.09740000170451092,1.3478179170629514
1590504743.1943574,-0.4245118933180619,-3.893904853455505,8.735488106681938,0.4955555555555556,0.23777777777777775,-0.6755555555555556,-0.030010820116100463,-0.1061703215603685,1.366810970468059
1590504743.2043574,-0.42,-3.985268238445405,8.70482930280747,0.4955555555555556,0.23777777777777775,-0.6755555555555556,-0.031117937576478634,-0.10412379925284215,1.3679071213006158
1590504743.2143574,-0.44914985590778095,-4.098299711815562,8.674858309317964,0.4955555555555556,0.23777777777777775,-0.6755555555555556,-0.0370882466048795,-0.09381144729469522,1.3668727946910826
1590504743.2243574,-0.49285285005474155,-4.164284283351581,8.705705700109483,0.4955555555555556,0.23777777777777775,-0.6755555555555556,-0.036620903788795386,-0.09474613292686343,1.3650966517191505
1590504743.2343574,-0.51,-4.180530370250867,8.74702024683391,0.5049158846674375,0.229197476091886,-0.6654151990176835,-0.03523162568766765,-0.09637600392704582,1.3661030347529206
1590504743.2443573,-0.5312565331010453,-4.231884799651568,8.76,0.5222222222222223,0.21333333333333332,-0.6466666666666666,-0.03342929958012722,-0.09862975835123625,1.3683567891771107
1590504743.2543573,-0.33222495692837806,-3.6896180162441548,8.712444991385675,0.5222222222222223,0.21333333333333332,-0.6466666666666666,-0.035318646837813134,-0.10339255529435999,1.380252325368263
1590504743.2643573,-0.18210716493129844,-3.2134105928778585,8.667892835068702,0.5222222222222223,0.21333333333333332,-0.6466666666666666,-0.04435202411258156,-0.1000973512511221,1.411538974125057
1590504743.2743573,-0.21292231991027172,-3.1379087521256195,8.669168927964108,0.5222222222222223,0.21333333333333332,-0.6466666666666666,-0.04558677310933071,-0.107585775951214,1.449901341792494
1590504743.2843573,-0.24,-3.0779728490185287,8.746081452944413,0.5222222222222223,0.1952221203041236,-0.6530300658390916,-0.04529603282947107,-0.12431640705604162,1.5047275219272478
1590504743.2943573,-0.2605785426583669,-3.05,8.83,0.5222222222222223,0.17222222222222222,-0.6611111111111111,-0.044566289047171206,-0.1331760192856777,1.577260228132553
1590504743.3043573,-0.3025351165168721,-3.063521069910123,8.780422743662882,0.5222222222222223,0.17222222222222222,-0.6611111111111111,-0.03926990816987242,-0.135862207836382,1.6436053041418133
1590504743.3143573,-0.3558178242517268,-3.1161449539524173,8.735490694551036,0.5222222222222223,0.17222222222222222,-0.6611111111111111,-0.03758013552402038,-0.13638953212679522,1.7146943201146028
1590504743.3243573,-0.4118115056705001,-3.1471080449390456,8.738432179756183,0.5222222222222223,0.17222222222222222,-0.6611111111111111,-0.03505102574175734,-0.13870653203538771,1.7593806625018442
1590504743.3343573,-0.47308119306260127,-3.141538073357945,8.716152293431781,0.5222222222222223,0.17222222222222222,-0.6611111111111111,-0.033228256804269024,-0.1411368906187055,1.7885449655016576
1590504743.3443573,-0.5124573710338873,-3.1732764947118497,8.773105978847399,0.5422222222222223,0.16,-0.6822222222222222,-0.03671223608045755,-0.14245206984573916,1.8497251483310575
1590504743.3543572,-0.5470717423133236,-3.174641288433382,8.767957540263543,0.5422222222222223,0.16,-0.6822222222222222,-0.03816709901128705,-0.14014460456499306,1.893959338180704
1590504743.3643572,-0.5687951896119228,-3.1275903792238453,8.529578353253653,0.5422222222222223,0.16,-0.6822222222222222,-0.02546038401242157,-0.14723915837450877,1.9184855002970758
1590504743.3743572,-0.5997402980669913,-3.1894805961339827,8.66883134130146,0.5422222222222223,0.16,-0.6822222222222222,-0.022928693247135555,-0.1548342306703668,1.93283174796703
1590504743.3843572,-0.6521165357790104,-3.2521165357790105,8.935184249546927,0.5436332460748958,0.14753595596805,-0.6777539800220892,-0.06668463217076691,-0.16316286089846846,1.9464001150266843
1590504743.3943572,-0.6597946070624416,-3.2597946070624415,8.88143775056291,0.54875196026385,0.10232064729895474,-0.6615447184237343,-0.047421036206578455,-0.16148776559723468,1.9556131391834695
1590504743.4043572,-0.7262422052567166,-3.277292965790547,8.636242205256716,0.5488888888888889,0.10111111111111112,-0.6611111111111111,-0.026951193459864065,-0.1425792564044884,1.9603375363396647
1590504743.4143572,-0.7766894664842682,-3.27,8.69672366621067,0.5488888888888889,0.10111111111111112,-0.6611111111111111,-0.03800784232268174,-0.15235891697439044,1.9511202242538896
1590504743.4243572,-0.8065761761487965,-3.2323379376367614,8.749185585339168,0.5488888888888889,0.10111111111111112,-0.6611111111111111,-0.051209820871883326,-0.1595755495841063,1.9221211904765787
1590504743.4343572,-0.8059363148723906,-3.1683108408213467,8.70187262974478,0.5512634148378451,0.09702164975457539,-0.6619026197607631,-0.045610620647868576,-0.15417565769772254,1.8979507860926774
1590504743.4443572,-0.8710281260463559,-3.2360080360132444,8.829052234086088,0.5688888888888889,0.06666666666666668,-0.6677777777777778,-0.03698047841622221,-0.1420279210671617,1.8611597024203448
1590504743.4543571,-0.9229740950420312,-3.239590667352891,8.856056956596328,0.5688888888888889,0.06666666666666668,-0.6677777777777778,-0.03489019170028346,-0.14102520104463145,1.8276847116959944
1590504743.4643571,-0.956817842698394,-3.1934542741587153,8.651451289904582,0.5688888888888889,0.06666666666666668,-0.6677777777777778,-0.02009091252839931,-0.13028461045681944,1.7716782102216757
1590504743.4743571,-0.9956128053685106,-3.2162581297543267,8.953161583894468,0.5688888888888889,0.06666666666666668,-0.6677777777777778,-0.04444248620045733,-0.15428570902728347,1.7163133737878085
1590504743.484357,-1.0240279934613814,-3.198657335512873,8.869258684102984,0.56530845025655,0.060699268946101816,-0.6697171820369614,-0.05734410941699192,-0.14840331531013667,1.6526940251986764
1590504743.494357,-1.049738863914998,-3.1900870453616674,8.800696362893339,0.5424543431866685,0.022609090496299326,-0.6820964900331471,-0.026493279587849868,-0.12783609542404195,1.5975364809586952
1590504743.504357,-1.1256028965981812,-3.150248189626137,8.721702172448637,0.5422222222222223,0.022222222222222227,-0.6822222222222222,-0.024342560347331288,-0.11560098965621571,1.5018689056157053
1590504743.514357,-1.190700758650699,-3.111401517301398,8.765795448095805,0.5422222222222223,0.022222222222222227,-0.6822222222222222,-0.038811262705502496,-0.1190740951458703,1.4224144067477216
1590504743.524357,-1.1986359422593034,-3.1272718845186067,8.71818434644418,0.5422222222222223,0.022222222222222227,-0.6822222222222222,-0.03361769717848633,-0.10868696409183798,1.34797330086049
1590504743.534357,-1.2874326452215743,-3.1062836773892126,8.72619387101798,0.5430480716912861,0.017542408564193965,-0.6848374122075909,-0.023583092949347944,-0.09627316382187773,1.2345130214300415
1590504743.544357,-1.3309788721427211,-3.0845105639286396,8.762482393452267,0.5478865413491912,-0.009875586163935565,-0.7001592327909575,-0.027541556681611516,-0.09152300734316143,1.1688025234744661
1590504743.554357,-1.3921838683695775,-3.068908065815211,8.73126452652169,0.5488888888888889,-0.015555555555555557,-0.7033333333333334,-0.0211019463971924,-0.08486540485386938,1.0701176744106402
1590504743.564357,-1.4082706247842596,-3.0608646876078702,8.666917500862962,0.5488888888888889,-0.015555555555555557,-0.7033333333333334,-0.015837567670895215,-0.07521404385565787,1.013964301330137
1590504743.574357,-1.4056476165622824,-3.06,8.753938108907446,0.5488888888888889,-0.015555555555555557,-0.7033333333333334,-0.015983788029613876,-0.07540861200853392,0.9398099291422937
1590504743.584357,-1.3918502093347804,-3.0581497906652193,8.830748953326097,0.5509446770386451,-0.01925597422511673,-0.7086783825226995,-0.017131337594931084,-0.07038021940761331,0.8903678505320276
1590504743.594357,-1.4068168070152534,-3.0568168070152533,8.807042017538134,0.56,-0.03555555555555556,-0.7322222222222222,-0.011280106971493368,-0.0614091896521504,0.834439714585788
1590504743.604357,-1.4284497848266524,-3.0587336202311297,8.814650645520043,0.56,-0.03555555555555556,-0.7322222222222222,-0.011384652914502082,-0.058735760011750564,0.7809752905380761
1590504743.614357,-1.4417748985676178,-3.0053246957028534,8.760966801909843,0.56,-0.03555555555555556,-0.7322222222222222,-0.011013769553347857,-0.0568995000317224,0.7162728786278719
1590504743.624357,-1.442184659510302,-2.9440335744564186,8.785966425543581,0.56,-0.03555555555555556,-0.7322222222222222,-0.012640818659260445,-0.04405491399263003,0.6449653349585511
1590504743.634357,-1.5351119954993437,-2.959148000750109,8.773407996999563,0.5605679994999271,-0.0371648874720156,-0.7329795548887916,-0.007474371703423302,-0.03736706270741287,0.5639499229312605
1590504743.644357,-1.5875483924739024,-2.95040860125435,8.808365594982602,0.5663942658304336,-0.053672642075117426,-0.7407479099961337,-0.017007577693932095,-0.040227024504565514,0.4743377866204778
1590504743.654357,-1.5250569605294257,-2.8107175608603168,8.792038761522099,0.5666666666666667,-0.054444444444444434,-0.7411111111111112,-0.020594091092036963,-0.04172738414543368,0.343891223485765
1590504743.664357,-1.582281621305757,-2.90684486391727,8.918057301719406,0.5666666666666667,-0.054444444444444434,-0.7411111111111112,-0.02085804131507584,-0.038999677747420525,0.2707692028073875
1590504743.674357,-1.5897087103571619,-2.929126131071486,8.814078054999735,0.5666666666666667,-0.054444444444444434,-0.7411111111111112,-0.007085155800330201,-0.02036577381570584,0.22539969758234302
1590504743.684357,-1.6991043969894486,-3.059104396989449,8.803343296481689,0.5659237118929582,-0.05490879117801224,-0.7415754578446789,0.03235370553782027,0.014265453575035216,0.17433753493287177
1590504743.694357,-1.5103012351903202,-2.87030123519032,8.833551802369549,0.5592107105845447,-0.05910441699577066,-0.7457710836624374,0.009287047856827654,-0.004682158091494432,0.13314707478824206
1590504743.704357,-1.5872546719837362,-2.975898558657179,8.768169781322491,0.5577777777777778,-0.06,-0.7466666666666667,0.001290476669709168,-0.014487490600446448,0.06377091090141296
1590504743.714357,-1.6868428574079917,-3.0254380950613387,8.83228095246933,0.5577777777777778,-0.06,-0.7466666666666667,-0.0022195807954380753,0.027251030507588106,0.012437548076382539
1590504743.724357,-1.7098560268313632,-3.01,8.840215959752955,0.5577777777777778,-0.06,-0.7466666666666667,0.00861671100502988,0.008789466405652658,-0.04205621363704505
1590504743.7343569,-1.69270072395599,-3.01,8.865948914066013,0.5577777777777778,-0.06,-0.7466666666666667,-0.0044827617166250736,0.016274879389455488,-0.11410331360614731
1590504743.7443569,-1.5360719119280881,-2.8152374507625493,8.866431471568529,0.5244444444444445,-0.057777777777777775,-0.7833333333333333,0.003324296067712561,0.015609093300853485,-0.23547514337748982
1590504743.7543569,-1.5106544793455208,-2.849127360872639,8.713926876073124,0.5244444444444445,-0.057777777777777775,-0.7833333333333333,0.010717927500537343,0.024851132591884463,-0.31218406949304695
1590504743.7643569,-1.7558768803691338,-3.1319589601230446,8.708974003076115,0.5244444444444445,-0.057777777777777775,-0.7833333333333333,-0.0022040453455393185,0.04894084715358973,-0.41572053400428
1590504743.7743568,-1.7794783734103612,-3.1398261244701207,8.905653111753011,0.5244444444444445,-0.057777777777777775,-0.7833333333333333,0.0020868271748351475,0.03521005508839144,-0.4775090982976724
1590504743.7843568,-1.5545942846220013,-2.9145942846220017,8.743395775590175,0.5244444444444445,-0.057777777777777775,-0.7833333333333333,0.007526867932057167,0.06056357560179501,-0.5333958184599996
1590504743.7943568,-1.6681037661311562,-3.0773136686858047,8.956523571240453,0.5244444444444445,-0.07199397184912065,-0.825981915547362,0.04735877609506868,0.0889999556051375,-0.5774508246314726
1590504743.8043568,-1.6291524702697477,-3.0345762351348737,9.008475297302523,0.5244444444444445,-0.07222222222222223,-0.8266666666666667,-0.04839411758537907,0.024783995993767488,-0.6685959940263306
1590504743.8143568,-1.6614537973195391,-3.0543613919586172,8.692246414295791,0.5244444444444445,-0.07222222222222223,-0.8266666666666667,-0.021038029728615636,0.04882800191341302,-0.7031486246996518
1590504743.8243568,-1.6875822476333302,-3.1417269659761926,8.552779548223825,0.5244444444444445,-0.07222222222222223,-0.8266666666666667,0.03648542175778988,0.10738942262005954,-0.7396998786971334
1590504743.8343568,-1.619523916605095,-3.1907141250923576,8.907857624722928,0.5246031389094128,-0.07304214362455874,-0.8264815231242035,0.018933863414969086,0.090253325414997,-0.8056820302142509
1590504743.8443568,-1.6023343905937495,-3.227003171781248,8.805993656437504,0.5311111111111111,-0.10666666666666667,-0.8188888888888889,-0.004979269318207324,0.08235945401679282,-0.891542572299933
1590504743.8543568,-1.6090100750055698,-3.2549496249721512,8.751090675050127,0.5311111111111111,-0.10666666666666667,-0.8188888888888889,0.01090830782496456,0.09706195938976603,-0.9463322520609438
1590504743.8643568,-1.6,-3.2977710334847448,8.677801382803393,0.5311111111111111,-0.10666666666666667,-0.8188888888888889,0.009084738858969007,0.11598946614072254,-1.0194669813533948
1590504743.8743567,-1.6,-3.280910881537163,8.73681191461993,0.5311111111111111,-0.10666666666666667,-0.8188888888888889,-0.004708940697523591,0.11047199431812552,-1.081998328676161
1590504743.8843567,-1.614418300416084,-3.323254901248251,8.74,0.5311111111111111,-0.10666666666666667,-0.8188888888888889,-0.010172531690025955,0.11174670162465661,-1.1349195952481823
1590504743.8943567,-1.5928467824310522,-3.3943064351378958,8.758102145045966,0.5200486891385767,-0.1237631369878561,-0.8128548405402337,-0.006075225493854623,0.12124144026754456,-1.2054395481991724
1590504743.9043567,-1.5191094526362374,-3.3842465450302748,8.704862907605962,0.5188888888888888,-0.12555555555555556,-0.8122222222222222,-0.0020172831901527164,0.12389148300076783,-1.2580791410030976
1590504743.9143567,-1.449145241945978,-3.381282137081033,8.552136895135055,0.5188888888888888,-0.12555555555555556,-0.8122222222222222,-0.0052676746330995085,0.13294149600503055,-1.3264597014834452
1590504743.9243567,-1.4335510196493968,-3.4046734705259047,8.591122450876508,0.5188888888888888,-0.12555555555555556,-0.8122222222222222,-0.001865543091058808,0.1303898973485,-1.3664347471024232
1590504743.9343567,-1.3729400193770003,-3.5050999677049997,8.7046099644755,0.5188888888888888,-0.12555555555555556,-0.8122222222222222,-0.007315109113718417,0.13292100228268924,-1.4253318433778066
1590504743.9443567,-1.358774721189591,-3.5549011152416354,8.692450557620818,0.5644444444444444,-0.08666666666666667,-0.7911111111111111,0.017453292519943295,0.13635384781205698,-1.5304355878425278
1590504743.9543567,-1.336186872082525,-3.5724196553777587,8.697442610984114,0.5644444444444444,-0.08666666666666667,-0.7911111111111111,0.01567255427672276,0.1342991498391102,-1.5460512924369232
1590504743.9643567,-1.2475584455500701,-3.4596198397909985,8.616871314136427,0.5644444444444444,-0.08666666666666667,-0.7911111111111111,0.004246899674397715,0.12111570222104286,-1.646245494334235
1590504743.9743567,-1.2244225242718447,-3.551633786407767,8.849323883495146,0.5644444444444444,-0.08666666666666667,-0.7911111111111111,0.01625799615649009,0.13315510833417254,-1.7186884107323344
1590504743.9843566,-1.1918454368932039,-3.502768155339806,8.670149902912621,0.5644444444444444,-0.08666666666666667,-0.7911111111111111,0.04113325895817878,0.1526999576783565,-1.7542245004490324
1590504743.9943566,-1.1569843238975976,-3.598492161948799,8.701664599075222,0.5577777777777778,-0.09777777777777777,-0.8266666666666667,0.0190980886812129,0.13406823316132938,-1.8093935088794662
1590504744.0043566,-1.1316321906293398,-3.5994137855419925,8.84234485783203,0.5577777777777778,-0.09777777777777777,-0.8266666666666667,0.029274386749265677,0.14088142146553836,-1.8481319005183934
1590504744.0143566,-1.058864545752706,-3.6879481797310594,8.540438176451294,0.5577777777777778,-0.09777777777777777,-0.8266666666666667,0.03584965815981465,0.15137776107799442,-1.882002513949585
1590504744.0243566,-1.0459148563930603,-3.7415379168141962,8.702334367775393,0.5577777777777778,-0.09777777777777777,-0.8266666666666667,0.026912028845196913,0.14944381720201447,-1.9106813002080614
1590504744.0343566,-0.923614229479516,-3.4882009039218547,8.772220440297419,0.5577777777777778,-0.09777777777777777,-0.8266666666666667,0.04882926910795333,0.14944381720201447,-1.9297397700017627
1590504744.0443566,-0.8573469099470277,-3.653061330194232,8.867755150088287,0.5363265188673075,-0.08022674776012033,-0.736961402131973,0.02542302163683035,0.1571018987251265,-1.9529210399897812
1590504744.0543566,-0.8432506704875271,-3.68,8.78550938682538,0.5333333333333333,-0.07777777777777778,-0.7244444444444444,0.035805130797421876,0.15301679998659407,-1.9683756328849544
1590504744.0643566,-0.8215155326853439,-3.790906803887936,8.527428625881456,0.5333333333333333,-0.07777777777777778,-0.7244444444444444,0.041534229220117964,0.16263270355143675,-1.9865017718855107
1590504744.0743566,-0.8131437151437152,-3.841137709137709,8.653981981981982,0.5333333333333333,-0.07777777777777778,-0.7244444444444444,0.039207855762425387,0.16287671271698842,-2.0002080648857024
1590504744.0843565,-0.78,-3.9699799221985193,8.700200778014807,0.5333166018320994,-0.07766623443621812,-0.7243719412724307,0.044718586711379675,0.15817046346198613,-2.021318200559493
1590504744.0943565,-0.7406808812751924,-3.9638773360205204,8.974012458776109,0.5166666666666667,0.03333333333333333,-0.6522222222222223,0.05037098006404142,0.15489060131143617,-2.029531492048897
1590504744.1043565,-0.5620886216056671,-3.890994318181818,8.892347992916175,0.5166666666666667,0.03333333333333333,-0.6522222222222223,0.10479992538673226,0.13910052462776812,-2.026842878730892
1590504744.1143565,-0.3222286378394333,-3.2952130681818184,7.252015200708382,0.5166666666666667,0.03333333333333333,-0.6522222222222223,0.19257815762304203,0.11462390217725871,-2.0217787499480275
1590504744.1243565,-0.5085238454213616,-3.911953063005872,9.062475400730042,0.5166666666666667,0.03333333333333333,-0.6522222222222223,-0.07977102601618778,0.20887881698478683,-2.0141566949446883
1590504744.1343565,-0.5002031423583558,-3.7538597048087605,9.245530868116171,0.5166666666666667,0.03333333333333333,-0.6522222222222223,-0.049818645206827904,0.1380822805262999,-2.0168796386546295
1590504744.1443565,-0.42153136131939933,-3.790487099250162,8.745568282458523,0.4977777777777778,0.11333333333333333,-0.6588888888888889,0.07114953493283332,0.14726215563702155,-1.9892704103461094
1590504744.1543565,-0.38025781818897486,-3.9390718545196908,8.918917163606306,0.4977777777777778,0.11333333333333333,-0.6588888888888889,0.035131573853343576,0.14726215563702155,-1.9766641239682883
1590504744.1643565,-0.33412854030501093,-3.87,8.584967320261438,0.4977777777777778,0.11333333333333333,-0.6588888888888889,0.04908738521234052,0.14598833145528278,-1.9513905139606234
1590504744.1743565,-0.26308717410454896,-3.8715361835323225,8.547666110621707,0.4977777777777778,0.11333333333333333,-0.6588888888888889,0.04858467032695407,0.14390587747530106,-1.923893587461809
1590504744.1843565,-0.19233445167094634,-3.8872590107397897,8.72847862350758,0.4977777777777778,0.11333333333333333,-0.6588888888888889,0.04343938715522065,0.1430483302800122,-1.898167171603142
1590504744.1943564,-0.17246037620830795,-3.897539623791692,8.699683009666463,0.4826985301943937,0.18035221148170727,-0.6538624730277609,0.043364845889403814,0.14618861399520386,-1.8673639865085023
1590504744.2043564,-0.17651555423249485,-3.9,8.816826638882391,0.4777777777777778,0.20222222222222225,-0.6522222222222223,0.04292249458767519,0.14584068221265545,-1.8346106051597375
1590504744.2143564,-0.1321261848563186,-3.880850473942527,8.650630924281593,0.4777777777777778,0.20222222222222225,-0.6522222222222223,0.06552018226044175,0.136724937074545,-1.7736429540335505
1590504744.2243564,-0.08887672153174336,-3.9485387974470942,8.708538797447094,0.4777777777777778,0.20222222222222225,-0.6522222222222223,0.054578400924191,0.1318679940090222,-1.739360571852495
1590504744.2343564,-0.054894080895512676,-4.010211838208974,8.604046728059615,0.4777777777777778,0.20222222222222225,-0.6522222222222223,0.05732638599087855,0.12980886311707826,-1.6809367630006453
1590504744.2443564,-0.008177142394297746,-4.006059047464766,8.74820285922566,0.473905290962435,0.25798603236315854,-0.6715846562989363,0.050871360939651875,0.12296561404383835,-1.6211677751663185
1590504744.2543564,0.011076199117938761,-4.03,8.688708561058473,0.4722222222222222,0.2822222222222222,-0.68,0.051104693619701394,0.11660149861452646,-1.5309737178312
1590504744.2643564,0.055330139905885325,-4.03,8.635603832112938,0.4722222222222222,0.2822222222222222,-0.68,0.044346395099543925,0.1117741425286997,-1.4633907326296256
1590504744.2743564,0.08914545407463034,-3.99113939456716,8.61056969728358,0.4722222222222222,0.2822222222222222,-0.68,0.03833443822078432,0.11020498119882371,-1.382075991525734
1590504744.2843564,0.11073494322508587,-3.9761767045166097,8.706763068383735,0.4722222222222222,0.2822222222222222,-0.68,0.03817907738737596,0.1026344709177287,-1.327878816868565
1590504744.2943563,0.15796650909382262,-3.9794916272734557,8.721525118179633,0.4500750919174924,0.32651648283168194,-0.6462519919166022,0.040249829228549625,0.0930533456836565,-1.2342280532658567
1590504744.3043563,0.18576369241163804,-3.98,8.78011528229382,0.4488888888888889,0.3288888888888889,-0.6444444444444445,0.03473997320169185,0.08709985076152174,-1.1667551108149958
1590504744.3143563,0.21776421483698222,-3.998509476557988,8.623414710978107,0.4488888888888889,0.3288888888888889,-0.6444444444444445,0.041892036976330135,0.08112795511788252,-1.0876322263352534
1590504744.3243563,0.2102293738443856,-4.009770626155614,8.658853130778072,0.4488888888888889,0.3288888888888889,-0.6444444444444445,0.035081730674995336,0.07219499808489035,-1.0096290577677818
1590504744.3343563,0.25885576484131556,-3.953001607685132,8.708855764841315,0.4488888888888889,0.3288888888888889,-0.6444444444444445,0.03401836217003134,0.06844194016534509,-0.9501931564861339
1590504744.3443563,0.25378452351331177,-3.9724309529733763,8.728107738243345,0.457897486937049,0.35050952420447323,-0.6678667993696608,0.032046920166937436,0.06586267442432757,-0.8759988660438375
1590504744.3543563,0.25644203890962985,-3.9671159221807404,8.755768155638519,0.46,0.3555555555555556,-0.6733333333333333,0.027417788085598735,0.05701723773619038,-0.8167824023663496
1590504744.3643563,0.2048770540961977,-3.932438527048099,8.66894126584303,0.46,0.3555555555555556,-0.6733333333333333,0.027093434871210305,0.04835122381224625,-0.7187852171990257
1590504744.3743563,0.2467428732051252,-3.920651425358975,8.594559977512825,0.46,0.3555555555555556,-0.6733333333333333,0.016053285272425943,0.039838384037127375,-0.6266517118466604
1590504744.3843563,0.2814289153725773,-3.9278572288431444,8.723572890333454,0.46,0.3555555555555556,-0.6733333333333333,0.011843268120062039,0.03584154533498407,-0.5435445514554956
1590504744.3943563,0.2700701239919676,-3.870210371975903,8.660350619959837,0.5009669673498442,0.4208812602485506,-0.6733333333333333,0.01308232004905449,0.026210536143526864,-0.4214163763956207
1590504744.4043562,0.303530107203687,-3.735879571185252,8.668382526800922,0.5011111111111111,0.4211111111111111,-0.6733333333333333,0.014004361216912169,0.017036020510367955,-0.3378510257907544
1590504744.4143562,0.2978674666427868,-3.8252590668935254,8.566873466463688,0.5011111111111111,0.4211111111111111,-0.6733333333333333,0.011533892001311278,0.013286449826593397,-0.26422482811410186
1590504744.4243562,0.29784320653240687,-3.8137247281435247,8.75098260903702,0.5011111111111111,0.4211111111111111,-0.6733333333333333,-0.004727061859877273,0.0008768441527263159,-0.15759235269514663
1590504744.4343562,0.2846047601951385,-3.859278579121877,8.750721420878124,0.5011111111111111,0.4211111111111111,-0.6733333333333333,0.013105035668003402,-0.0030213416391457987,-0.06884206322236033
1590504744.4443562,0.28968427292297133,-3.860631454154057,8.759052818768915,0.6270066591097383,0.624480842493509,-0.7443513347684565,0.005901880171319936,-0.009610834153773801,0.03123271814871134
1590504744.4543562,0.28052852018974894,-3.8505285201897492,8.741057040379498,0.6311111111111111,0.6311111111111111,-0.7466666666666667,0.004420975739200724,-0.01808290242872055,0.11956954263975925
1590504744.4643562,0.25229162300006985,-3.7576387433335663,8.647638743333566,0.6311111111111111,0.6311111111111111,-0.7466666666666667,-0.003696717020558334,-0.027611668471801923,0.20394760569121956
1590504744.4743562,0.19560125691773755,-3.6956012569177377,8.712531657443018,0.6311111111111111,0.6311111111111111,-0.7466666666666667,-0.004363323129985824,-0.031328591519070255,0.2718481586211723
1590504744.4843562,0.2123240223463687,-3.749530726256983,8.682793296089386,0.6311111111111111,0.6311111111111111,-0.7466666666666667,-0.007610220565260191,-0.033257541410034404,0.3049487533776098
1590504744.4943562,0.15462136856100253,-3.794516986789624,8.727206302509122,1.1940937707247006,0.8817291982939348,-1.570255815488482,-0.007835183463832286,-0.04807915899561994,0.3328799840779059
1590504744.5043561,0.2824014849374169,-3.880100835277297,8.748900092808588,1.32,0.9377777777777778,-1.7544444444444445,-0.008606664997743565,-0.053210745817870164,0.34677520699408865
1590504744.5143561,0.26589744171793067,-3.9837820352756905,8.596538487730689,1.32,0.9377777777777778,-1.7544444444444445,-0.0022166252011785285,-0.03857066020794206,0.38145512791873404
1590504744.5243561,0.19886318279251977,-3.9563308448518,8.68353980338532,1.32,0.9377777777777778,-1.7544444444444445,-0.008712536171499708,-0.04171369486413548,0.4491712840718933
1590504744.534356,0.17546732477788748,-3.920934649555775,8.707266337611056,1.32,0.9377777777777778,-1.7544444444444445,-0.006646939145607328,-0.051261379733728914,0.529486031327879
1590504744.544356,0.13478852058399649,-3.901197130145999,8.718802869854002,0.8681193474946216,0.2247453196037068,-0.9749014140401445,-0.008334886335798552,-0.0583825156892445,0.6465866483371023
1590504744.554356,0.15977002069423296,-3.8851149896528834,8.749770020694234,0.8066666666666666,0.12777777777777774,-0.8688888888888889,-0.008726646259971648,-0.06458782187435314,0.751412849289013
1590504744.564356,0.20198853974121997,-3.9173199630314235,8.68002865064695,0.8066666666666666,0.12777777777777774,-0.8688888888888889,-0.006400374004182717,-0.07235635837175614,0.8553309417619123
1590504744.574356,0.26766591422121894,-3.981388261851016,8.672776523702032,0.8066666666666666,0.12777777777777774,-0.8688888888888889,-0.005732894419431712,-0.0856664132939237,0.993121154136817
1590504744.584356,0.28351825260390334,-3.9935182526039035,8.716481747396097,0.8066666666666666,0.12777777777777774,-0.8688888888888889,-0.010080229486992985,-0.09548829765602579,1.0868735012423292
1590504744.594356,0.2959189364461738,-3.997959468223087,8.807554150453957,0.5917610246433204,0.29581099582072345,-0.7609938751981553,-0.020681571557506575,-0.10338423019470837,1.138049041189009
1590504744.604356,0.2823881039422982,-3.9383583637980437,8.63626914336528,0.5366666666666666,0.3388888888888889,-0.7333333333333333,-0.014262227171384475,-0.10087743544808594,1.1423603310029953
1590504744.614356,0.2958727918217203,-3.9934911672868814,8.59412720817828,0.5366666666666666,0.3388888888888889,-0.7333333333333333,-0.021747234351602748,-0.10381933797433206,1.1239195728543343
1590504744.624356,0.32939612954905423,-4.062913033188297,8.59,0.5366666666666666,0.3388888888888889,-0.7333333333333333,-0.010530471955609983,-0.09894783857995461,1.0986700129224123
1590504744.634356,0.38342797783933513,-4.177998614958449,8.7961391966759,0.5366666666666666,0.3388888888888889,-0.7333333333333333,-0.012030110949623309,-0.09307906471600386,1.0611917618930984
1590504744.644356,0.4216988518893239,-4.193204592442704,8.69092640654555,0.500270238566548,0.3512376769942863,-0.741132567926216,0.0035210038779758465,-0.0801444647450351,1.0192255127092404
1590504744.654356,0.41369469964664307,-4.274137102473498,8.728274204946995,0.4744444444444445,0.36,-0.7466666666666667,-0.01662549457348061,-0.0844452581250705,0.9615649449646713
1590504744.664356,0.41,-4.308379550382289,8.68782494579482,0.4744444444444445,0.36,-0.7466666666666667,-0.020518772247178005,-0.09183679834995696,0.9184747885676264
1590504744.674356,0.4182068494441304,-4.31820684944413,8.514069860561523,0.4744444444444445,0.36,-0.7466666666666667,-0.006206528083479166,-0.07033990650977034,0.8841824537640258
1590504744.684356,0.3457028744564897,-4.252457158596808,8.675874240069254,0.4744444444444445,0.36,-0.7466666666666667,-0.01285060771767339,-0.07502796231997139,0.8309649811641255
1590504744.694356,0.28546190935390553,-4.187282545805207,8.729103182256509,0.5189765348762455,0.34000600021429334,-0.7712047573127612,-0.01299214174986859,-0.07516949635216659,0.7467417292028429
1590504744.704356,0.27163500115287065,-4.104715010375836,8.72,0.5288888888888889,0.33555555555555555,-0.7766666666666666,-0.011999138607461015,-0.05957681602896529,0.6627773394050487
1590504744.714356,0.23970971666956373,-4.0824274291673905,8.613984008343474,0.5288888888888889,0.33555555555555555,-0.7766666666666666,-0.007868941924038617,-0.05341904334307779,0.5755268146204726
1590504744.724356,0.24588713632960735,-4.095887136329607,8.61971784082402,0.5288888888888889,0.33555555555555555,-0.7766666666666666,0.0003870862466426499,-0.03936224454428978,0.46964203351145273
1590504744.734356,0.28003412064210453,-4.124027296513684,8.63600682412842,0.5288888888888889,0.33555555555555555,-0.7766666666666666,0.006113118763587291,-0.028134501425194282,0.38346240782923613
1590504744.744356,0.33886278761594985,-4.14,8.77213347789423,0.4779354562368657,0.2526482753081958,-0.7032591789476501,-0.000599753245550394,-0.02375530093292758,0.24537950008266984
1590504744.754356,0.34779554402093826,-4.137795544020938,8.75929751248158,0.4633333333333333,0.2288888888888889,-0.6822222222222222,-0.0003868662187466814,-0.020631713398055564,0.19195505249654513
1590504744.764356,1.5381384066257755,-5.181749315590672,7.5417635235818,0.4633333333333333,0.2288888888888889,-0.6822222222222222,0.007360773554425527,-0.008726646259971648,0.07027650004827506
1590504744.774356,0.6263308317055625,-13.290032898118639,2.527014838422261,0.4633333333333333,0.2288888888888889,-0.6822222222222222,-1.3474549200693646,1.1560723021116472,-3.072132776465209
1590504744.7843559,-0.032555500633985934,-4.415926586576692,0.15158969289291035,0.4633333333333333,0.2288888888888889,-0.6822222222222222,-3.182515159494107,0.3345208382594038,-4.325592917591515
1590504744.7943559,0.42363557188026585,-0.3273313516481436,-0.20159001836529905,0.43530296432335547,0.29429308324550385,-0.6944855086640875,-3.5293640063114733,-0.16017211326750308,-2.728622917719319
1590504744.8043559,-0.1141591023701462,-0.6084476382585309,-0.05868045049588169,0.41,0.3533333333333333,-0.7055555555555556,-3.382630271391057,0.032606378828586066,-1.2718543708882093
1590504744.8143559,-0.04410353983797588,-0.4992487357721515,-0.11630050569113942,0.41,0.3533333333333333,-0.7055555555555556,-3.337667766379391,0.1650215530556267,-1.106972188972586
1590504744.8243558,0.20599294193134426,-0.5113699069618223,0.7016426050689767,0.41,0.3533333333333333,-0.7055555555555556,-3.273205919502685,0.2984018874915794,-0.9181061096721141
1590504744.8343558,-0.17249782851470408,-0.045877280059560654,-0.6234917483558755,0.41,0.3533333333333333,-0.7055555555555556,-1.71835597712184,-0.1874055642537228,-0.9490633197741947
1590504744.8443558,0.4423266325680979,-0.539695491852028,1.8946449387415245,0.39370934274348096,0.4108936556397006,-0.6767753944023719,0.8363092225300918,-0.47039477035193855,-1.0181305720311935
1590504744.8543558,0.9833836756784619,-0.9883564856575862,3.826428958016546,0.37666666666666665,0.4711111111111111,-0.6466666666666666,2.5626811863612238,0.12274912077081446,-0.9371838046078946
1590504744.8643558,0.7154112619029767,-2.0367931318887305,5.57794856414486,0.37666666666666665,0.4711111111111111,-0.6466666666666666,3.4459587334818007,0.9168942686388513,-0.8777326501860085
1590504744.8743558,0.27872639614302924,-2.063881785739607,5.067142013092903,0.37666666666666665,0.4711111111111111,-0.6466666666666666,5.09672388316922,0.31531614460092683,-1.0235449327421444
1590504744.8843558,3.482909896602659,-1.1327264894140816,9.946515263417036,0.37666666666666665,0.4711111111111111,-0.6466666666666666,5.640133310176329,0.07303275901412817,-1.0070368784512598
1590504744.8943558,4.002311333890281,-0.0362071846282373,7.024550264550265,0.37524737770351807,0.4862501933846963,-0.645247377703518,4.067148751095373,-0.1636865860404749,-0.7255188134928907
1590504744.9043558,0.15191535498354553,0.17753769228806857,-1.0100966861399527,0.37333333333333335,0.5066666666666667,-0.6433333333333333,0.6740219166835146,-0.4339984321325804,-0.18727081440723922
1590504744.9143558,1.2813770415666845,-1.0884354439198078,5.92803158139175,0.37333333333333335,0.5066666666666667,-0.6433333333333333,-0.2572024720257875,-0.022936555799424996,0.05269648232137662
1590504744.9243557,2.2235427666314678,-3.8869297782470964,16.99941129883844,0.37333333333333335,0.5066666666666667,-0.6433333333333333,-1.1704732363932702,0.7738257964952829,0.3048425683404714
1590504744.9343557,0.7759678207739305,-1.5517024439918536,6.653185132382893,0.37333333333333335,0.5066666666666667,-0.6433333333333333,-0.8061698697970076,0.3638986163583493,0.2384456782724671
1590504744.9443557,0.35223686371849394,-1.3632211494588526,3.8743213301454618,0.3586298236328351,0.46813333089984366,-0.693528073345379,-0.04375549210610946,-0.03732191784457509,0.16630404228059353
1590504744.9543557,0.6731391817044846,-2.7339807039485438,7.338039306771485,0.3411111111111111,0.4222222222222222,-0.7533333333333333,0.509513279383794,0.021672548807974243,0.2071660528375291
1590504744.9643557,0.542335571377835,-2.3740536792436875,6.403409325373337,0.3411111111111111,0.4222222222222222,-0.7533333333333333,0.19219708203035624,0.04361566849810383,0.25335533292286905
1590504744.9743557,0.5410983296564765,-2.873950520012606,8.825695713835486,0.3411111111111111,0.4222222222222222,-0.7533333333333333,-0.3068703292573437,-0.10601539599943707,0.2749724672873321
1590504744.9843557,0.5144956840233899,-2.971606657099407,8.921839698417118,0.3411111111111111,0.4222222222222222,-0.7533333333333333,-0.09281678588484549,-0.03063835650335848,0.36813521361799595
1590504744.9943557,0.5002672706681767,-2.9748924122310307,8.265426953567385,0.36348181703787596,0.40805410846860446,-0.7518419529382157,0.1642311835287218,-0.0005571513962694223,0.4515804719434903
1590504745.0043557,0.48608008823581733,-3.0786933627452724,8.623519470585096,0.3744444444444445,0.4011111111111111,-0.7511111111111111,-0.004069041579160215,-0.029318515071865416,0.5075271218608963
1590504745.0143557,0.43184776666559477,-2.9236083866610927,7.890389426632794,0.3744444444444445,0.4011111111111111,-0.7511111111111111,-0.07540234047879207,-0.053716286367675434,0.577912761605906
1590504745.0243556,-2.2425999954366027,-18.149791680927283,6.216597074862527,0.3744444444444445,0.4011111111111111,-0.7511111111111111,-0.004814394986859061,-0.04446784988268283,0.689652007854755
1590504745.0343556,-2.1596776082647606,-17.878647065889844,6.2245562796564355,0.3744444444444445,0.4011111111111111,-0.7511111111111111,-0.22002652780963416,-0.16221333170836388,1.5937013817729673
1590504745.0443556,0.050799502899751464,-4.72954183927092,7.379860811930405,0.3748628371536409,0.40086007548559327,-0.7501906471508791,-0.5138150989462743,-0.351416062039199,3.029930081372127
1590504745.0543556,8.447763655621124,-12.624605537902859,5.0173263731275535,0.38,0.3977777777777778,-0.7388888888888889,0.3561649487423537,-0.28013445583315066,4.592533597421712
1590504745.0643556,5.54943217281061,-9.60560561732007,9.599550906963136,0.38,0.3977777777777778,-0.7388888888888889,0.0693007327987818,-0.4418893373388659,3.1061715036488984
1590504745.0743556,-0.01334848122458765,-1.278942358287492,9.50855393446544,0.38,0.3977777777777778,-0.7388888888888889,-0.1865193839752677,-0.2547997554788231,-0.032707651770086166
1590504745.0843556,-1.0769985320955326,-0.19623859398555898,6.165378481313973,0.38,0.3977777777777778,-0.7388888888888889,0.1026659760017937,0.4441898346610424,-1.0929125183184993
1590504745.0943556,-1.1591757126467213,-1.509184979260436,6.807139705233431,0.41156801890585315,0.3703498269251513,-0.7316437697957423,0.15579308581007983,0.521757860265293,-1.058628458518763
1590504745.1043556,-0.4793734311005417,-2.538106420927467,9.002971660721364,0.4477777777777778,0.3388888888888889,-0.7233333333333334,-0.08393441339915977,-0.10688884237024221,-0.9517160620063326
1590504745.1143556,-0.4008291026515971,-3.0169790435607635,8.571336285100786,0.4477777777777778,0.3388888888888889,-0.7233333333333334,-0.10778514631520822,-0.08197539675901513,-0.839344618079547
1590504745.1243556,-2.964070073661311,-9.030785084538758,8.16754589519484,0.4477777777777778,0.3388888888888889,-0.7233333333333334,-0.01192140947227835,0.10322658134712302,-0.7134121579854935
1590504745.1343555,-2.9812207615152397,-9.27894790145097,9.238825786347258,0.4477777777777778,0.3388888888888889,-0.7233333333333334,-0.06854657840403312,0.021444422359860847,-0.0461953292622056
1590504745.1443555,3.1864543738200126,-5.301187539332914,8.505779106356199,0.4367003706034543,0.35981288021816654,-0.7362569750367107,-0.021556436375815752,-0.12462800041574251,1.0498733474357511
1590504745.1543555,2.5580207006655065,-4.1624173498125465,8.106730227635568,0.42777777777777776,0.37666666666666665,-0.7466666666666667,0.09288197031836709,-0.11328950896902534,0.9120373028051643
1590504745.1643555,-0.8,-2.1399617829713735,8.616532539595047,0.42777777777777776,0.37666666666666665,-0.7466666666666667,0.042874664374934014,0.050147711374784805,-0.11194309682533882
1590504745.1743555,-1.6660436918039496,-5.35416214741294,8.417429653125959,0.42777777777777776,0.37666666666666665,-0.7466666666666667,0.00928740895835108,0.07548127475506272,-0.47185005571262834
1590504745.1843555,-1.2993997942787245,-6.896362625448278,8.740094520586027,0.42777777777777776,0.37666666666666665,-0.7466666666666667,-0.05346772082652142,0.005438172487935412,-0.21443450903023784
1590504745.1943555,0.5306484769202018,-5.131502522892918,8.758041487572417,0.42777777777777776,0.3654737432255653,-0.7359401150356112,-0.06088735699593703,-0.04798371153332055,0.17103231854702605
1590504745.2043555,-0.12426122694466718,-4.630012028869286,8.612885926222935,0.42777777777777776,0.35,-0.7211111111111111,0.025244706654544834,-0.009036859464657137,0.024145018885943517
1590504745.2143555,0.1087610004631774,-4.615132005558129,8.686459008800371,0.42777777777777776,0.35,-0.7211111111111111,0.014938546103926396,0.0011632075817519525,-0.030374130087556774
1590504745.2243555,0.0877844425402266,-4.54664667237932,8.672694468247167,0.42777777777777776,0.35,-0.7211111111111111,0.00606162503947664,0.00048335965550209536,-0.0008491509547454083
1590504745.2343554,0.06876731511619105,-4.6598614790704715,8.635207781394293,0.42777777777777776,0.35,-0.7211111111111111,-0.0005378602465507471,0.0009563657208587692,-0.0006126479220670714
1590504745.2443554,0.06373669233677591,-4.673949614948362,8.604733846735519,0.4423093590874619,0.354567068411615,-0.7219414871859502,-0.0051785429351205794,0.0012228297077021342,-0.0019060505876312122
1590504745.2543554,0.07412629587291576,-4.621262958729157,8.64334778666877,0.4666666666666667,0.3622222222222222,-0.7233333333333334,-0.002043894139114136,0.0019221651807299885,-0.0014720561251435284
1590504745.2643554,0.08,-4.59880904723779,8.574127301841473,0.4666666666666667,0.3622222222222222,-0.7233333333333334,0.01026769583220143,0.0008434818146022294,0.0006690898751953412
1590504745.2743554,0.08,-4.472879303442754,8.658080464371498,0.4666666666666667,0.3622222222222222,-0.7233333333333334,0.019425565229769258,0.002151748871397633,1.495634679763943e-05
1590504745.2843554,0.08759437035005314,-4.654670518051223,8.638867555799361,0.4666666666666667,0.3622222222222222,-0.7233333333333334,0.0020016017438824383,-0.0005248269746896412,0.0002624134873448206
1590504745.2943554,0.08040422395172626,-4.489297150889705,8.725149312579285,0.4666666666666667,0.3622222222222222,-0.7233333333333334,-0.005057307975873444,-0.0020934735790798372,0.0010467367895399186
1590504745.3043554,0.0971905127548844,-4.612475897960925,8.61,0.4544444444444444,0.3555555555555556,-0.7233333333333334,-0.015957343880932288,-0.002181661564992912,-0.001090830782496456
1590504745.3143554,0.09,-4.649055979643766,8.6010239912759,0.4544444444444444,0.3555555555555556,-0.7233333333333334,-0.0026284620468965854,-0.0012025309029723744,-0.00043807700781609764
1590504745.3243554,0.08210299831007509,-4.576308994930225,8.615536507604663,0.4544444444444444,0.3555555555555556,-0.7233333333333334,0.007406413948258398,-0.00020131309742303823,0.001090830782496456
1590504745.3343554,0.07372112232518521,-4.543721122325185,8.666278877674815,0.4544444444444444,0.3555555555555556,-0.7233333333333334,0.007103000348872924,-0.0023846173038802525,0.0008878750436091156
1590504745.3443553,0.08509159063582997,-4.59926727491336,8.652454204682085,0.447899898625551,0.35719169201027895,-0.7211518180603689,-0.0008031366041295783,-0.002201643541983264,0.0
1590504745.3543553,0.07346093559510955,-4.664625030478247,8.639234386429342,0.42777777777777776,0.3622222222222222,-0.7144444444444444,-0.0036500218558276863,0.0007133012741581374,0.0
1590504745.3643553,0.08,-4.570720647773279,8.616080971659919,0.42777777777777776,0.3622222222222222,-0.7144444444444444,0.0014838831697117777,-0.0011694412599395204,0.0005847206299697602
1590504745.3743553,0.08,-4.558730929938782,8.661903605091828,0.42777777777777776,0.3622222222222222,-0.7144444444444444,0.011185175962548928,-0.00044158983965408936,0.0005108068740501818
1590504745.3843553,0.08,-4.569968080685982,8.702843463151135,0.42777777777777776,0.3622222222222222,-0.7144444444444444,0.011068617467215248,0.002491835278408168,0.0
1590504745.3943553,0.08291315966932242,-4.607086840330678,8.705434201653388,0.42939619981629024,0.3622222222222222,-0.7205944481907918,0.002594166095020606,0.003092217433336191,-0.0003177764241624082
1590504745.4043553,0.08235023820934231,-4.603824880895329,8.63557607194204,0.43333333333333335,0.3622222222222222,-0.7355555555555555,-0.0064494720399894765,0.00041722978200073053,-0.0006736010004957254
1590504745.4143553,0.07,-4.632284252669039,8.548165353329944,0.43333333333333335,0.3622222222222222,-0.7355555555555555,-0.008428428540964292,0.000743568657120503,0.0
1590504745.4243553,0.07,-4.678929048042704,8.481529931367565,0.43333333333333335,0.3622222222222222,-0.7355555555555555,-0.005520909761716143,1.668896230846615e-05,0.0
1590504745.4343553,0.07,-4.574798434924596,8.67,0.43333333333333335,0.3622222222222222,-0.7355555555555555,0.006283270668800966,0.002181661564992912,0.0016582335126373716
1590504745.4443552,0.07,-4.587720473835821,8.67,0.43333333333333335,0.3622222222222222,-0.7355555555555555,0.005578482777951899,0.002181661564992912,0.0002486577309392386
1590504745.4543552,0.10425995873670846,-4.621480082526584,8.657039834946833,0.43333333333333335,0.3555555555555556,-0.73,-0.003433944305552563,-0.0004646894122166303,0.00015161872707671726
1590504745.4643552,0.08155814608567528,-4.637337219128513,8.566232584342702,0.43333333333333335,0.3555555555555556,-0.73,-0.005163689578316196,0.00016996737138809598,-0.0012607981538845518
1590504745.4743552,0.07,-4.60910329819304,8.558138456324361,0.43333333333333335,0.3555555555555556,-0.73,-0.000598039351778038,-0.001090830782496456,-0.0005943228879358511
1590504745.4843552,0.06968061552086793,-4.579680615520868,8.662555075833057,0.43333333333333335,0.3555555555555556,-0.73,0.006754021347752052,-0.0010211518982386838,-0.0020771432386062537
1590504745.4943552,0.06291355545794901,-4.571456777728975,8.735629666813077,0.43333333333333335,0.3565267407082053,-0.73,0.01213651059594507,0.0007730111844923223,0.0009319209834943892
1590504745.5043552,0.08,-4.580763024274884,8.709236975725117,0.43333333333333335,0.3622222222222222,-0.73,0.006003969956536016,-0.0010075977458129607,8.323303668349532e-05
1590504745.5143552,0.07688825963842301,-4.609335221084731,8.630876933130036,0.43333333333333335,0.3622222222222222,-0.73,-0.00831469191218416,0.001090830782496456,0.0011633469129294592
1590504745.5243552,0.0727577636431664,-4.6272422363568335,8.527577636431664,0.43333333333333335,0.3622222222222222,-0.73,-0.007410874264215728,0.0004891800879333617,-0.0007900054352149089
1590504745.5343552,0.07712107988596033,-4.614242159771921,8.620152440798277,0.43333333333333335,0.3622222222222222,-0.73,0.0011074594940234277,-0.001090830782496456,-0.00031404146807426916
1590504745.5443552,0.07155549602643094,-4.596889007947138,8.674666488079293,0.43246916887420506,0.3632592195731762,-0.7322468275937336,0.006375306400210557,-0.001090830782496456,-0.001260509077264634
1590504745.5543551,0.0835526005811062,-4.601315603486637,8.678684396513363,0.42777777777777776,0.3688888888888889,-0.7444444444444445,0.001966396447875388,-0.001090830782496456,-0.0006315471362787375
1590504745.5643551,0.09,-4.651597257888038,8.593610968447848,0.42777777777777776,0.3688888888888889,-0.7444444444444445,-0.006893452309350134,-0.00024745438937501946,0.0017599733684321938
1590504745.5743551,0.08651243493348756,-4.6595373048004625,8.53395026026605,0.42777777777777776,0.3688888888888889,-0.7444444444444445,-0.009386570492760133,0.00032996211639424325,0.001090830782496456
1590504745.584355,0.07587986743993372,-4.631759734879867,8.586780861640431,0.42777777777777776,0.3688888888888889,-0.7444444444444445,-0.004297800982735622,-0.0006413940400478333,0.0008661124112721446
1590504745.594355,0.06429660314830157,-4.608593206296603,8.66207207953604,0.42777777777777776,0.3688888888888889,-0.7444444444444445,0.002019889642816553,0.0006221440850626015,0.00023434334871692722
1590504745.604355,0.07,-4.61,8.709521062618597,0.43333333333333335,0.3622222222222222,-0.73,0.00851767040456208,0.00212941760114052,0.002077173637288128
1590504745.614355,0.07391867385845811,-4.621756021575375,8.63730121826467,0.43333333333333335,0.3622222222222222,-0.73,0.0022260180943006933,0.001090830782496456,0.0
1590504745.624355,0.08,-4.634188525042796,8.55743442487161,0.43333333333333335,0.3622222222222222,-0.73,-0.0020417311487502003,0.0007738639937452079,0.0
1590504745.634355,0.07917336897096343,-4.62,8.60495978617422,0.43333333333333335,0.3622222222222222,-0.73,-0.0039124658438659185,9.017145722398113e-05,0.0
1590504745.644355,0.07088495575221239,-4.617345132743363,8.666194690265486,0.4328416912487709,0.3616322517207473,-0.7286234021632252,0.0016700329678928042,0.0012838981776285721,0.0
1590504745.654355,0.0797435951591442,-4.590769214522568,8.72820516611401,0.42792022491158654,0.35572649211612617,-0.714843296419109,0.007467998901563218,0.0032165534888520435,0.0
1590504745.664355,0.07,-4.6152403812704375,8.623798093647812,0.42777777777777776,0.3555555555555556,-0.7144444444444444,-0.00010488611573158729,0.0010383877246306623,-0.0013242061847212247
1590504745.674355,0.07,-4.62983128087386,8.550843595630697,0.42777777777777776,0.3555555555555556,-0.7144444444444444,-0.006471367088423281,-0.0021448527617151845,0.0010632241800381604
1590504745.684355,0.07298916614715843,-4.660652221529545,8.566358612323297,0.42777777777777776,0.3555555555555556,-0.7144444444444444,-0.006942198471853825,-0.0002549211125882604,-7.114633214341435e-05
1590504745.694355,0.051788343920068744,-4.632384458560091,8.615827197519838,0.42777777777777776,0.3555555555555556,-0.7144444444444444,-0.0015460129219601083,-0.0010258047625730771,0.0030123882677958527
1590504745.704355,0.07500764952572941,-4.604992350474271,8.7,0.44,0.3622222222222222,-0.7355555555555555,0.006544984694978735,0.001090830782496456,0.003272492347489368
1590504745.714355,0.08989488312428734,-4.590210233751425,8.69884371436716,0.44,0.3622222222222222,-0.7355555555555555,0.0064532529159489595,0.001067897837739012,0.003238092930353202
1590504745.724355,0.07337988370192196,-4.629860348894234,8.586689941850961,0.44,0.3622222222222222,-0.7355555555555555,-0.002542732897075413,-0.0003686881183314544,0.0
1590504745.734355,0.0679078527388434,-4.659456196348208,8.595815705477687,0.44,0.3622222222222222,-0.7355555555555555,-0.0009721912298948912,0.001090830782496456,0.0002875376396993096
1590504745.744355,0.09,-4.628029932866616,8.64492516783346,0.441970067133384,0.36342615213706797,-0.7355555555555555,0.00545415391248228,0.0009833802888624663,0.001090830782496456
1590504745.754355,0.09,-4.610808064218112,8.687979839454721,0.4591919357818884,0.3739506274222652,-0.7355555555555555,0.00545415391248228,4.4073066167505445e-05,0.001090830782496456
1590504745.764355,0.09038339690954937,-4.589616603090451,8.678328053274715,0.46,0.3744444444444445,-0.7355555555555555,0.00047513590105893993,0.0,-0.0003914916708888489
1590504745.774355,0.07191632630533172,-4.613832652610664,8.597665305221327,0.46,0.3744444444444445,-0.7355555555555555,-0.005663192684798634,0.0,0.001090830782496456
1590504745.784355,0.07963296169555138,-4.629265923391102,8.628531846782206,0.46,0.3744444444444445,-0.7355555555555555,-0.00650494702689395,0.0,0.001090830782496456
1590504745.794355,0.06976178175764883,-4.649047127030595,8.59190574593881,0.45952356351529766,0.37399447665333674,-0.7354232120875827,-0.003064607714122269,-0.0009868884658129065,0.0031425644516349313
1590504745.804355,0.06173641007978876,-4.616945640319155,8.65610871936169,0.4434728201595775,0.35883544126182326,-0.7309646722665493,0.003938850259625713,0.002514840521061085,-0.0012345967819575587
1590504745.814355,0.08,-4.599041895926836,8.63329327148786,0.44,0.3555555555555556,-0.73,0.0031679794059052305,-0.0011953437240805936,0.001090830782496456
1590504745.824355,0.08,-4.59116542412349,8.578157968864435,0.44,0.3555555555555556,-0.73,0.002308789615849666,-0.002054533514136158,0.001090830782496456
1590504745.8343549,0.09177342962714141,-4.61,8.615320288881424,0.44,0.3555555555555556,-0.73,-0.0033960673160472886,-0.0005104772941333347,0.000897379619708749
1590504745.8443549,0.0988179375209943,-4.61,8.636453812562984,0.44,0.3555555555555556,-0.73,0.000446115713029706,0.0017948325233128626,0.00012894301389334986
1590504745.8543549,0.07823033938696689,-4.601769660613033,8.667078642452132,0.42777777777777776,0.3622222222222222,-0.7233333333333334,0.004749403184239438,0.002181661564992912,0.001090830782496456
1590504745.8643548,0.07,-4.61,8.694890900860116,0.42777777777777776,0.3622222222222222,-0.7233333333333334,0.006297288578862745,0.001995889477905919,0.001090830782496456
1590504745.8743548,0.07,-4.61,8.61,0.42777777777777776,0.3622222222222222,-0.7233333333333334,0.0011196634017292299,-0.0004536318845382467,0.001090830782496456
1590504745.8843548,0.07,-4.61,8.61,0.42777777777777776,0.3622222222222222,-0.7233333333333334,-0.00304755420157965,0.0020466986774470815,0.001090830782496456
1590504745.8943548,0.07667176702032856,-4.616671767020328,8.636687068081315,0.42777777777777776,0.3622222222222222,-0.7233333333333334,-0.0061835998832569855,-0.0007294459707747054,-0.0003647229853873527
1590504745.9043548,0.08879556826304502,-4.628795568263045,8.641204431736956,0.4453689143038678,0.35147208323405604,-0.7213787626082122,-0.00475747249421167,-0.0002627662428172305,-0.00013138312140861526
1590504745.9143548,0.06172788715838966,-4.606544225683221,8.629632677049663,0.4477777777777778,0.35,-0.7211111111111111,0.0030840090973841914,-0.0009023475323912793,-0.000525381032180926
1590504745.9243548,0.07410067063521966,-4.59,8.586151005952829,0.4477777777777778,0.35,-0.7211111111111111,0.0012870340134375335,0.0,0.0019580046771040674
1590504745.9343548,0.09,-4.593865625117362,8.611932812558681,0.4477777777777778,0.35,-0.7211111111111111,-0.0023924987085734133,-0.0002108371435805014,0.001090830782496456
1590504745.9443548,0.09,-4.609617681300936,8.619808840650467,0.4477777777777778,0.35,-0.7211111111111111,-0.0032516400972061707,-0.0010699785322132586,0.001090830782496456
1590504745.9543548,0.07,-4.63,8.651949466798719,0.4544444444444444,0.3744444444444445,-0.7377777777777778,0.0021540999792454257,-0.003512707772586648,0.000878176943146662
1590504745.9643548,0.07169483306258033,-4.62830516693742,8.648136168561939,0.4544444444444444,0.3744444444444445,-0.7377777777777778,0.006360107087393201,-0.00018487760758553517,0.0
1590504745.9743547,0.08,-4.618411649282248,8.601118455024269,0.4544444444444444,0.3744444444444445,-0.7377777777777778,0.004934367355584763,-0.0014373551537614666,0.00034652437126501067
1590504745.9843547,0.08,-4.61,8.65957747211767,0.4544444444444444,0.3744444444444445,-0.7377777777777778,0.002066434959865626,-0.003249447026463911,0.0021355709229419974
1590504745.9943547,0.08,-4.61,8.645027318613081,0.4544444444444444,0.3744444444444445,-0.7377777777777778,-0.0019015038733476383,-0.002455859259821258,0.0005483953896566922
1590504746.0043547,0.07,-4.610011981139368,8.66,0.4477777777777778,0.3555555555555556,-0.7233333333333334,-0.002176433806740243,0.0021790476858665774,-1.3069395631672773e-06
1590504746.0143547,0.07,-4.61811722192162,8.66,0.4477777777777778,0.3555555555555556,-0.7233333333333334,0.0013601446511904095,0.0004107584569012512,-0.0008854515540458304
1590504746.0243547,0.09837997054491901,-4.6,8.603240058910162,0.4477777777777778,0.3555555555555556,-0.7233333333333334,0.002270020464900578,-0.002919056747858705,0.0018282259653622486
1590504746.0343547,0.08212425393380358,-4.6,8.635751492132393,0.4477777777777778,0.3555555555555556,-0.7233333333333334,0.0031566322684477613,0.0006273904663300287,-0.0017182212488264848
1590504746.0443547,0.05189176688251619,-4.6,8.668108233117485,0.4477777777777778,0.3555555555555556,-0.7233333333333334,0.00020635975487560184,6.87865849585338e-05,-0.0011596173674549898
1590504746.0543547,0.06756628113879004,-4.63513256227758,8.678783140569395,0.4302114966389877,0.3555555555555556,-0.7340682829181494,-0.0028742760300268606,0.0019161840200179068,-0.00013273877248750254
1590504746.0643547,0.06872094526462756,-4.628720945264628,8.637209452646276,0.42777777777777776,0.3555555555555556,-0.7355555555555555,-0.000532737871359608,-0.002574876208568308,-0.000951307554712244
1590504746.0743546,0.06563976377952756,-4.618120078740158,8.563159448818897,0.42777777777777776,0.3555555555555556,-0.7355555555555555,0.00388769514116109,0.002181661564992912,-0.0002050675978905739
1590504746.0843546,0.08770247229326512,-4.607702472293266,8.624595055413469,0.42777777777777776,0.3555555555555556,-0.7355555555555555,0.006043741905749759,0.002056350867685668,-0.0008402093878819676
1590504746.0943546,0.0728037084398977,-4.592803708439898,8.654392583120204,0.42777777777777776,0.3555555555555556,-0.7355555555555555,0.002793335859270017,0.0012437493560657322,0.0007849936353579038
1590504746.1043546,0.06,-4.618569465241738,8.658569465241738,0.44,0.3688888888888889,-0.7511111111111111,0.0,0.0,0.0012468779174707187
1590504746.1143546,0.060091457535605075,-4.61,8.649679898625383,0.44,0.3688888888888889,-0.7511111111111111,1.4964704269392996e-05,4.988234756464331e-06,0.002181661564992912
1590504746.1243546,0.08062424092604335,-4.608751518147914,8.58561816833439,0.44,0.3688888888888889,-0.7511111111111111,0.0031363041039249306,0.0008865484171497996,0.0020454733214284745
1590504746.1343546,0.08513225352264056,-4.599735492954719,8.626190281703765,0.44,0.3688888888888889,-0.7511111111111111,0.00215280832227493,-0.0005886952553252015,0.0010619775397784738
1590504746.1443546,0.08964026611923775,-4.590719467761525,8.666762395073139,0.44,0.3688888888888889,-0.7511111111111111,0.001169312540624929,-0.0020639389278002025,7.848175812847323e-05
1590504746.1543546,0.08910043436453463,-4.593598262541861,8.672803474916277,0.43333333333333335,0.3622222222222222,-0.7233333333333334,-0.0035668745133018505,-0.001090830782496456,0.001691024621972108
1590504746.1643546,0.08214678868662754,-4.62141284525349,8.61717430949302,0.43333333333333335,0.3622222222222222,-0.7233333333333334,-0.005842449740112198,-0.001090830782496456,-0.0021016007560451387
1590504746.1743546,0.08084912555933896,-4.6191508744406615,8.562547376678017,0.43333333333333335,0.3622222222222222,-0.7233333333333334,-0.0006277046333307294,-0.0018111606456603308,0.00081295509299702
1590504746.1843545,0.0883265291569358,-4.611673470843065,8.584979587470807,0.43333333333333335,0.3622222222222222,-0.7233333333333334,0.0034505863753734626,0.0014514721613030231,-0.0016340195122254953
1590504746.1943545,0.0738895486935867,-4.61,8.646386579572447,0.43333333333333335,0.3622222222222222,-0.7233333333333334,0.0017272566992439426,-0.001333093675996263,0.0004544048657489693
1590504746.2043545,0.07925713759863805,-4.61,8.687028550394551,0.4666666666666667,0.3555555555555556,-0.7233333333333334,0.0028673237602069405,-0.0021006278475364263,8.103371745648553e-05
1590504746.2143545,0.07,-4.611131687242799,8.646604938271606,0.4666666666666667,0.3555555555555556,-0.7233333333333334,-0.002099362946286046,-0.0009262335450827247,0.001049681473143023
1590504746.2243545,0.07,-4.638971193415638,8.563086419753088,0.4666666666666667,0.3555555555555556,-0.7233333333333334,-7.481692609715047e-05,0.003122858495295067,3.740846304857524e-05
1590504746.2343545,0.09819611537904045,-4.61,8.623607769241918,0.4666666666666667,0.3555555555555556,-0.7233333333333334,0.00208327492136218,0.001090830782496456,0.0
1590504746.2443545,0.0829971735034063,-4.61,8.654005652993188,0.4666666666666667,0.3555555555555556,-0.7233333333333334,0.0012543012383963723,0.001090830782496456,0.0
1590504746.2543545,0.07,-4.599189183718906,8.690810816281093,0.4544444444444444,0.3555555555555556,-0.73,0.000648599103313263,0.0,0.0030955996758160907
1590504746.2643545,0.07,-4.59069990082377,8.699300099176229,0.4544444444444444,0.3555555555555556,-0.73,-0.003981586448354401,0.0,0.001243525455149025
1590504746.2743545,0.07,-4.620120842928955,8.580120842928956,0.4544444444444444,0.3555555555555556,-0.73,-0.006479075101603024,3.954575602542683e-05,0.0010776488638213136
1590504746.2843544,0.07059321052021783,-4.629703394739891,8.591483026300544,0.4544444444444444,0.3555555555555556,-0.73,-0.001090830782496456,0.003175428503096218,0.0
1590504746.2943544,0.08274215038813579,-4.623628924805932,8.62185537597034,0.4544444444444444,0.3555555555555556,-0.73,-0.001090830782496456,0.0011875628657027158,0.0
1590504746.3043544,0.07744301914854063,-4.601164528722811,8.683949432980109,0.44118985354568174,0.35974121583937535,-0.7334880502365164,-0.0017757078448959783,-0.0013697541247990447,0.0
1590504746.3143544,0.0849433785680861,-4.604943378568087,8.680113242863827,0.43333333333333335,0.3622222222222222,-0.7355555555555555,-0.0013666266981646052,-0.0005515918313362986,-0.0008150348668283067
1590504746.3243544,0.07969280377506882,-4.610614392449863,8.551535981124657,0.43333333333333335,0.3622222222222222,-0.7355555555555555,0.001023810962812128,-0.001023810962812128,0.0
1590504746.3343544,0.07309539913488007,-4.62380920173024,8.5845230043256,0.43333333333333335,0.3622222222222222,-0.7355555555555555,-0.0004155194504084417,0.0004155194504084417,0.0
1590504746.3443544,0.07,-4.608702209750964,8.635496317081726,0.43333333333333335,0.3622222222222222,-0.7355555555555555,0.0020068072445436373,0.0018652402892564792,0.0
1590504746.3543544,0.07,-4.606608454218056,8.67643381687222,0.43333333333333335,0.3666278583675924,-0.7370241009373456,0.0025516218189120467,0.002181661564992912,0.0007208705285773212
1590504746.3643544,0.07,-4.60028314676376,8.69971685323624,0.43333333333333335,0.3688888888888889,-0.7377777777777778,0.0011217173030838561,0.002181661564992912,0.001090830782496456
1590504746.3743544,0.060383834612782045,-4.619232330774436,8.555757519191731,0.43333333333333335,0.3688888888888889,-0.7377777777777778,-0.0031050129030852644,0.0011327006435974819,0.001090830782496456
1590504746.3843544,0.09041939402118901,-4.619580605978811,8.600629091031783,0.43333333333333335,0.3688888888888889,-0.7377777777777778,-0.0042946999437396315,0.001090830782496456,0.0010450819916656613
1590504746.3943543,0.10457115864768203,-4.6054288413523174,8.621856737971523,0.43333333333333335,0.3688888888888889,-0.7377777777777778,-0.001979122871556175,0.001090830782496456,-0.000498636056456643
1590504746.4043543,0.09160910545971901,-4.6,8.657586341810422,0.43333333333333335,0.37399747070563366,-0.7224520323275436,-0.001090830782496456,0.0020938984766056814,0.0009153046057219949
1590504746.4143543,0.06308181078147612,-4.6089727297395084,8.642054540520984,0.43333333333333335,0.3744444444444445,-0.7211111111111111,-0.00011205780220878707,0.001202888584705243,0.0020696037627841246
1590504746.4243543,0.08912696970483631,-4.619708989901612,8.542910100983878,0.43333333333333335,0.3744444444444445,-0.7211111111111111,-0.00423634602065029,0.0021499172876590284,6.348855466776701e-05
1590504746.4343543,0.09,-4.61034301665405,8.60759888342165,0.43333333333333335,0.3744444444444445,-0.7211111111111111,-0.00014966925005865418,-0.0009785788449524655,0.0010534134699817924
1590504746.4443543,0.07900960807729888,-4.61,8.620990391922701,0.43333333333333335,0.3744444444444445,-0.7211111111111111,0.0,0.0007074678906509627,0.001090830782496456
1590504746.4543543,0.0773754320883568,-4.6063122839558215,8.659501728353428,0.43866003428603545,0.365430027447564,-0.7211111111111111,0.0012068022534287577,0.0009748593115641543,-0.0009205063065514734
1590504746.4643543,0.0838013698630137,-4.5876027397260275,8.69140410958904,0.4477777777777778,0.35,-0.7211111111111111,0.00259632669121588,0.0016138318425974964,-0.0023348261611653596
1590504746.4743543,0.05157329354718389,-4.608426706452817,8.575768743006341,0.4477777777777778,0.35,-0.7211111111111111,-0.0009192110793793339,-0.0029292529412551236,0.000976417647085041
1590504746.4843543,0.06903324255798667,-4.603655585814004,8.608066485115973,0.4477777777777778,0.35,-0.7211111111111111,-0.001090830782496456,-0.0011962876601920238,-0.0002933056757017736
1590504746.4943542,0.07413042791725881,-4.605869572082741,8.647608716248223,0.4477777777777778,0.35,-0.7211111111111111,-0.0017311017732900493,-0.0006402709907935933,-0.00045055979170286267
1590504746.5043542,0.08807671833411618,-4.61,8.66,0.4407479428700659,0.36104688342640434,-0.7150855383330724,-0.001195729524724313,0.0008810332980407419,0.0
1590504746.5143542,0.08178893559493886,-4.61,8.684633193215182,0.44,0.3622222222222222,-0.7144444444444444,-0.00019514260148629072,-0.0007005455795238745,0.0008956881810101653
1590504746.5243542,0.08609016811003566,-4.61,8.610827814569536,0.44,0.3622222222222222,-0.7144444444444444,0.0,-0.0017551650669969721,0.0017551650669969721
1590504746.5343542,0.07344757819770971,-4.61,8.60965726540687,0.44,0.3622222222222222,-0.7144444444444444,-0.0036111782453607435,-0.001278867003652726,0.0003760724423125402
1590504746.5443542,0.06307323260174258,-4.616926767398257,8.626926767398258,0.44,0.3622222222222222,-0.7144444444444444,-0.002852136909743408,-0.0003352376723752482,-0.0007555931101212078
1590504746.5543542,0.06921390999415547,-4.610786090005845,8.676069549970777,0.42873855445158776,0.3683648288849925,-0.7287771933242418,0.0018386650945176968,0.0,-8.574911761880378e-05
1590504746.5643542,0.07,-4.602936090892952,8.665872181785904,0.42777777777777776,0.3688888888888889,-0.73,0.0014111086151204376,0.0,0.0
1590504746.5743542,0.0957151533556028,-4.6085717177852015,8.56571110436279,0.42777777777777776,0.3688888888888889,-0.73,0.0001558014205995039,-0.0018700587237939041,0.0009350293618969521
1590504746.5843542,0.07335107886554226,-4.61,8.594414868557429,0.42777777777777776,0.3688888888888889,-0.73,0.0,-0.00024369733207378662,-0.0008471334504226693
1590504746.5943542,0.07,-4.61,8.635178250591016,0.42777777777777776,0.3688888888888889,-0.73,-0.0023024111171433,0.0015349407447621997,-0.00032336041011535614
1590504746.6043541,0.07,-4.601688603429729,8.658311396570271,0.4323952203168175,0.35780702679519366,-0.7364644195546556,0.00035403854226566606,-0.0014448693247621222,0.0
1590504746.6143541,0.07909262525149656,-4.6,8.669092625251496,0.43333333333333335,0.3555555555555556,-0.7377777777777778,0.005058236989711267,-0.00019795846138550644,-0.0019837031036074055
1590504746.6243541,0.08,-4.609124922548973,8.597000619608217,0.43333333333333335,0.3555555555555556,-0.7377777777777778,0.001472655350756023,-0.0019907492808631283,-0.0011862869245613478
1590504746.634354,0.08572131196555642,-4.615721311965556,8.624327871793339,0.43333333333333335,0.3555555555555556,-0.7377777777777778,-0.0007814641799918176,0.0015629283599836352,-0.0004667324616670314
1590504746.644354,0.08171594689550105,-4.611715946895501,8.64585797344775,0.43333333333333335,0.3555555555555556,-0.7377777777777778,-0.002181661564992912,0.0016523730909189854,0.0004518250065111397
1590504746.654354,0.05340731164260576,-4.608296344178697,8.664889032536092,0.4388642294524647,0.361086451674687,-0.7313250656387911,-0.0030866523262237217,-0.002181661564992912,0.0019958215437272655
1590504746.664354,0.0727790818721806,-4.617593027290727,8.624441836255638,0.44,0.3622222222222222,-0.73,-0.0024442215573833143,-0.000525119984780805,0.000525119984780805
1590504746.674354,0.0867026053707985,-4.599892183887604,8.583189578516807,0.44,0.3622222222222222,-0.73,0.0014740425657036298,0.0007311408261393082,0.0014622816522786165
1590504746.684354,0.07328812723461965,-4.615067809148071,8.61177968191345,0.44,0.3622222222222222,-0.73,0.0005380185606432097,0.0020023220447785085,0.0030931528272749647
1590504746.694354,0.0643408563920235,-4.62,8.63697743082393,0.44,0.3622222222222222,-0.73,0.0,0.000329711149948264,0.0020378587374596025
1590504746.704354,0.07636664174111535,-4.62,8.666366641741115,0.4296950774222607,0.3622222222222222,-0.73,0.0,9.938499199021208e-05,0.0004957228952531219
1590504746.714354,0.07766195811008281,-4.62,8.667661958110083,0.4211111111111111,0.3622222222222222,-0.73,-0.0013458715889252426,0.001090830782496456,-0.0006729357944626213
