time,acc_x,acc_y,acc_z,mag_x,mag_y,mag_z,gyr_x,gyr_y,gyr_z
1590506333.0018961,-0.14,-4.34,8.81,0.44,0.32,-0.6433333333333333,-0.003272492347489368,-0.003272492347489368,0.002181661564992912
1590506333.0118961,-0.12005743871855028,-4.329971280640725,8.819856403203625,0.44,0.32,-0.6433333333333333,-0.0010845651902662765,-0.0032662267552591886,0.0010876979863813662
1590506333.0218961,-0.13165605095541402,-4.315828025477707,8.79920382165605,0.44,0.32,-0.6433333333333333,0.001090830782496456,0.00027444468731598753,0.0
1590506333.031896,-0.12,-4.317143947305004,8.84,0.44,0.32,-0.6433333333333333,0.0014804726639380268,0.0029609453278760535,0.0007792837628831417
1590506333.041896,-0.1233406194303393,-4.33,8.83331876113932,0.4418558996835218,0.3155458407595476,-0.6377656342827678,0.0029104716664368905,0.0036345130285418453,0.0025460666157149014
1590506333.051896,-0.13991335885553094,-4.320086641144469,8.790259923433407,0.4455555555555555,0.30666666666666664,-0.6266666666666667,0.0032819434302311266,0.0011002818652382145,0.0005690430981026245
1590506333.061896,-0.15441102301383555,-4.323233069041507,8.720300792875479,0.4455555555555555,0.30666666666666664,-0.6266666666666667,0.0017004935964136996,0.001443503905737637,-0.0017004935964136996
1590506333.071896,-0.15575720506923718,-4.34,8.682728384792288,0.4455555555555555,0.30666666666666664,-0.6266666666666667,-0.0007604377432219509,0.0009584066903413594,-0.0015536479139260577
1590506333.081896,-0.15,-4.336589355513977,8.7,0.4455555555555555,0.30666666666666664,-0.6266666666666667,-0.00252840514878826,-0.002181661564992912,-0.0014375743662918042
1590506333.091896,-0.14771920406556438,-4.3277192040655645,8.718246367475484,0.43820632421126293,0.30970772791258083,-0.6256529795846953,-0.0005932382997214281,-0.002181661564992912,0.0
1590506333.101896,-0.13637808433477921,-4.32,8.794487662660883,0.4133333333333333,0.32,-0.6222222222222222,0.0006957410725735591,-0.0009963924352242213,0.0
1590506333.111896,-0.13224313928545012,-4.324486278570901,8.8020548857164,0.4133333333333333,0.32,-0.6222222222222222,-0.00024468853819960816,0.00035676516789763133,-0.00024468853819960816
1590506333.121896,-0.14798811496485917,-4.347988114964859,8.771952459859437,0.4133333333333333,0.32,-0.6222222222222222,-0.001090830782496456,-0.0013102933952140162,-0.0006551466976070081
1590506333.131896,-0.16,-4.351197547827925,8.824401226086037,0.4133333333333333,0.32,-0.6222222222222222,-0.0008507811377276555,0.0002400496447688005,-0.0002400496447688005
1590506333.141896,-0.1571491903034068,-4.32,8.83928729757585,0.4156298189222556,0.3194456758923291,-0.6216678981145514,-7.774377430208121e-05,0.0007798556852881311,-0.001090830782496456
1590506333.151896,-0.13346228239845262,-4.32,8.833365570599613,0.4347109391790242,0.31483988824414355,-0.6170621104663658,-0.0007237039814241478,-0.0018039851432001353,-0.001090830782496456
1590506333.161896,-0.12452591055670825,-4.32,8.762111341649376,0.4455555555555555,0.31222222222222223,-0.6144444444444445,0.001377670494545058,-0.003272492347489368,-0.0005971305270881533
1590506333.171896,-0.1347186911487759,-4.324718691148776,8.713030838041432,0.4455555555555555,0.31222222222222223,-0.6144444444444445,0.006422240553257148,-0.004816680414942861,-0.0005147293558178309
1590506333.181896,-0.14,-4.3192207098520985,8.75,0.4455555555555555,0.31222222222222223,-0.6144444444444445,0.007942754159518887,-0.0073288767954314965,-0.001090830782496456
1590506333.191896,-0.14230212588042326,-4.30690637764127,8.75690637764127,0.4473460979069958,0.31222222222222223,-0.6193044879697824,0.0055404927847597625,-0.008726646259971648,-0.001090830782496456
1590506333.201896,-0.15,-4.33,8.776156571477355,0.4533333333333333,0.31222222222222223,-0.6355555555555555,0.0005046495078625771,-0.005791875159993562,-0.0015100837967790396
1590506333.211896,-0.15,-4.332715980257974,8.75370411845216,0.4533333333333333,0.31222222222222223,-0.6355555555555555,-0.0033667315130129923,-0.002572168217521557,-0.0018853940779878916
1590506333.221896,-0.1411021207177814,-4.337775530179445,8.727795758564438,0.4533333333333333,0.31222222222222223,-0.6355555555555555,-0.007030288725977811,-0.006787636710478273,-0.0003628747359978422
1590506333.231896,-0.11,-4.33,8.806755481543158,0.4533333333333333,0.31222222222222223,-0.6355555555555555,-0.00811739975854403,-0.0061126992239061515,0.0015724150635652956
1590506333.241896,-0.11,-4.33,8.84555925617541,0.4533333333333333,0.31222222222222223,-0.6355555555555555,-0.006706454697013552,-0.0025853365700799526,0.00016147000203481626
1590506333.251896,-0.11224169796697073,-4.34,8.837758302033029,0.44,0.32666666666666666,-0.6433333333333333,-0.00253889840325995,-0.004965091282996001,0.001090830782496456
1590506333.261896,-0.12590423909728576,-4.34,8.819175561654976,0.44,0.32666666666666666,-0.6433333333333333,0.0,-0.0030578081556714215,0.0009834886865874829
1590506333.271896,-0.16821508846752348,-4.34,8.731784911532477,0.44,0.32666666666666666,-0.6433333333333333,0.0012855344268622865,-0.0017335979959275992,0.0
1590506333.2818959,-0.13736027276171234,-4.337360272761712,8.762639727238287,0.44,0.32666666666666666,-0.6433333333333333,0.004651272702877678,-0.003416467133935295,-0.00014397478644592696
1590506333.2918959,-0.12228580051305266,-4.32,8.782285800513051,0.43847613299129823,0.3251427996579649,-0.6395236658115789,0.006046300382521928,-0.00411398097375742,-0.001090830782496456
1590506333.3018959,-0.12237851543418084,-4.316189257717091,8.767135546302542,0.43333333333333335,0.32,-0.6266666666666667,0.003531948132714106,-0.003272492347489368,-0.0006751432838605969
1590506333.3118958,-0.11710444027517199,-4.3171044402751715,8.705134459036898,0.43333333333333335,0.32,-0.6266666666666667,0.0014066873505363929,-0.00172254391857633,0.0
1590506333.3218958,-0.13,-4.33,8.691099407182401,0.43333333333333335,0.32,-0.6266666666666667,0.0003769354519106121,0.001467766234407068,0.0
1590506333.3318958,-0.13,-4.33,8.76479211190985,0.43333333333333335,0.32,-0.6266666666666667,-0.0005227383184432696,0.001858947744804967,-0.0003227138201879451
1590506333.3418958,-0.13,-4.331713049227625,8.810278295365752,0.4367594317885837,0.32,-0.6245729398329026,-0.003802729081158229,0.0012776954654389876,-0.0009039660995539243
1590506333.3518958,-0.13,-4.34,8.847399482614986,0.4533333333333333,0.32,-0.6144444444444445,-0.001090830782496456,0.002181661564992912,-0.00034362580597385836
1590506333.3618958,-0.12351950569420887,-4.342160164768597,8.804878846619822,0.4533333333333333,0.32,-0.6144444444444445,-0.00014828109255646043,0.0028885738324479085,-0.000855193360011457
1590506333.3718958,-0.10308583308583309,-4.345885555885555,8.754114444114444,0.4533333333333333,0.32,-0.6144444444444445,0.003272492347489368,0.00545415391248228,-0.00011220405732242529
1590506333.3818958,-0.1327442119944212,-4.31,8.795488423988841,0.4533333333333333,0.32,-0.6144444444444445,0.0041705336226525586,0.00545415391248228,-0.001090830782496456
1590506333.3918958,-0.14193702195291547,-4.311937021952915,8.810968510976458,0.4525800470183106,0.32064567398430516,-0.6144444444444445,0.006756281012239894,0.004925913119329382,-0.001090830782496456
1590506333.4018958,-0.15061882375515687,-4.33,8.82,0.4455555555555555,0.32666666666666666,-0.6144444444444445,0.008470814364374163,-0.0005116637911949701,-0.001346662678093941
1590506333.4118958,-0.12379161469826346,-4.33,8.82,0.4455555555555555,0.32666666666666666,-0.6144444444444445,0.007739215728180987,-0.0019748610635813226,-0.0020782613142871172
1590506333.4218957,-0.13585080881103834,-4.31207459559448,8.704522169161365,0.4455555555555555,0.32666666666666666,-0.6144444444444445,0.00845965740105337,-0.002181661564992912,-0.002819885800351123
1590506333.4318957,-0.12001698786311557,-4.319991506068442,8.759940542479095,0.4455555555555555,0.32666666666666666,-0.6144444444444445,0.0032780516126939586,-0.002181661564992912,-0.0010926838708979862
1590506333.4418957,-0.11143526833277526,-4.321435268332776,8.812870536665551,0.44475818425956926,0.32570982111148317,-0.618590775183573,0.003272492347489368,-0.0018685345892861882,0.0015554076135794646
1590506333.4518957,-0.12647790184855026,-4.33,8.82352209815145,0.44,0.32,-0.6433333333333333,0.002919177610369903,-0.001059944211358396,-0.002181661564992912
1590506333.4618957,-0.14248315797441527,-4.32503368405117,8.790134736204678,0.44,0.32,-0.6433333333333333,0.0019107910493635406,-0.0027307513162306255,-0.0016399205337341693
1590506333.4718957,-0.14847112273697252,-4.311528877263027,8.730764438631514,0.44,0.32,-0.6433333333333333,0.0011742181015549206,-0.0015077673777887787,-0.00016677463811692907
1590506333.4818957,-0.12734688860795057,-4.324693777215901,8.758571779744347,0.44,0.32,-0.6433333333333333,0.003049890237744779,-0.006834394252562691,-0.002471071122576868
1590506333.4918957,-0.11996195426978566,-4.309885862809357,8.81,0.44002113651678576,0.3200253638201429,-0.6432699237829761,0.005450003767116244,-0.007635815477475192,-0.003264192056757297
1590506333.5018957,-0.12106875863054141,-4.294758344840722,8.80631041378982,0.4455555555555555,0.32666666666666666,-0.6266666666666667,0.003960851708711894,-0.00803828689874912,-0.0014933022037703853
1590506333.5118957,-0.13678896792711845,-4.323211032072882,8.77752277548983,0.4455555555555555,0.32666666666666666,-0.6266666666666667,0.002221684558884583,-0.007325569208498601,-0.0018313923021246502
1590506333.5218956,-0.1252339967724583,-4.322850995158688,8.741915008068855,0.4455555555555555,0.32666666666666666,-0.6266666666666667,-0.0012997257575199836,-0.004363323129985824,-0.001090830782496456
1590506333.5318956,-0.11188699953624981,-4.305660998608749,8.791321997217498,0.4455555555555555,0.32666666666666666,-0.6266666666666667,-0.00627751278476141,-0.0051866820022649545,-0.0008849910644266733
1590506333.5418956,-0.11837069098778791,-4.325112072963364,8.830224145926728,0.4455555555555555,0.32666666666666666,-0.6266666666666667,-0.00910655687258017,-0.008015726090083712,-0.0001777300424719839
1590506333.5518956,-0.14,-4.302000515301595,8.804998711746014,0.4455555555555555,0.32,-0.6222222222222222,-0.007526704293883465,-0.006544984694978735,-0.000981719598904729
1590506333.5618956,-0.1380260413730906,-4.323947917253819,8.754078124119271,0.4455555555555555,0.32,-0.6222222222222222,-0.007190961145060905,-0.007190961145060905,0.0
1590506333.5718956,-0.13014542584972663,-4.339709148300547,8.730436277549181,0.4455555555555555,0.32,-0.6222222222222222,-0.009769886544432354,-0.009769886544432354,0.0
1590506333.5818956,-0.11191634578163519,-4.31383269156327,8.747665383126542,0.4455555555555555,0.32,-0.6222222222222222,-0.01049022603126158,-0.012208179504312505,-0.0004180817937029792
1590506333.5918956,-0.12,-4.33,8.781393232635828,0.4446783350070706,0.32,-0.6222222222222222,-0.00882796499639437,-0.013241947494591556,-0.002181661564992912
1590506333.6018956,-0.12,-4.33,8.80718156292911,0.4284412381557464,0.32,-0.6222222222222222,-0.0107033452972674,-0.0160550179459011,-0.002181661564992912
1590506333.6118956,-0.11798672949655244,-4.324026541006895,8.783893835972421,0.4266666666666667,0.32,-0.6222222222222222,-0.009597863298602832,-0.012870355646092197,-0.0026136511158935476
1590506333.6218956,-0.11072034926024739,-4.338559301479505,8.72576279408198,0.4266666666666667,0.32,-0.6222222222222222,-0.008805224174694289,-0.012077716522183656,-0.00023573374416792185
1590506333.6318955,-0.0921213612297518,-4.3342427224595035,8.81060680614876,0.4266666666666667,0.32,-0.6222222222222222,-0.0023468738954062454,-0.0038343216213368152,0.0013222353955172365
1590506333.6418955,-0.10058211678832117,-4.349417883211679,8.85058211678832,0.42776622060016223,0.31954724249797245,-0.6222222222222222,0.0012178289648381968,0.002372158838505523,0.0021181624738220418
1590506333.6518955,-0.11,-4.334977810312486,8.852466715468728,0.4455555555555555,0.31222222222222223,-0.6222222222222222,0.0046420821241585815,0.006823743689151493,0.0008169128271626133
1590506333.6618955,-0.11447719093473398,-4.317761404532633,8.803136854391596,0.4455555555555555,0.31222222222222223,-0.6222222222222222,0.008726646259971648,0.011152500709500654,0.00024419288453609504
1590506333.6718955,-0.12801103108941927,-4.31,8.719944844552904,0.4455555555555555,0.31222222222222223,-0.6222222222222222,0.009160571962589625,0.011999138607461015,0.001307793633805445
1590506333.6818955,-0.11926751070651283,-4.310732489293486,8.761831223233719,0.4455555555555555,0.31222222222222223,-0.6222222222222222,0.010988210011883047,0.011999138607461015,0.002101759378074424
1590506333.6918955,-0.10121550591327201,-4.328541392904073,8.807325886990801,0.44574463425317556,0.31257336837494526,-0.6223302671922909,0.013143005840617613,0.012025656832791087,5.3036450660143065e-05
1590506333.7018955,-0.13543887748426536,-4.289414830020979,8.72912224503147,0.4533333333333333,0.32666666666666666,-0.6266666666666667,0.01262434417697279,0.011236868645373155,0.0016522042093973933
1590506333.7118955,-0.0932842319989016,-4.348357884000549,8.79865249200714,0.4533333333333333,0.32666666666666666,-0.6266666666666667,0.004005068993859651,0.004558518572166848,0.00017912706806308632
1590506333.7218955,-0.10973795186630839,-4.340131024066846,8.691703312868995,0.4533333333333333,0.32666666666666666,-0.6266666666666667,0.002210246582065569,7.146254268164225e-05,0.0010765382739601275
1590506333.7318954,-0.13185771053033776,-4.313256915787864,8.742798410515055,0.4533333333333333,0.32666666666666666,-0.6266666666666667,0.011085945024834645,0.008041105043767243,-0.0009131935826263698
1590506333.7418954,-0.09179294666055327,-4.329282821335779,8.85497974935045,0.4533333333333333,0.32666666666666666,-0.6266666666666667,0.0119600225792869,-0.0006996705007553099,-3.9116028174114364e-05
1590506333.7518954,-0.12045860105362526,-4.3,8.869312098419561,0.4455555555555555,0.31222222222222223,-0.6355555555555555,0.016587577003227723,-0.010783243788419623,-0.0076608282847841795
1590506333.7618954,-0.14471837503191218,-4.287417666581567,8.803825791422007,0.4455555555555555,0.31222222222222223,-0.6355555555555555,0.02617993877991494,-0.004253199209242029,-0.008383516344760148
1590506333.7718954,-0.16479576206280316,-4.233877967832525,8.649899157518508,0.4455555555555555,0.31222222222222223,-0.6355555555555555,0.02617993877991494,0.000857041545349207,-0.00692344755773408
1590506333.7818954,-0.0771354831226076,-4.351278853961258,8.88414337083865,0.4455555555555555,0.31222222222222223,-0.6355555555555555,0.005194700424544803,-0.0061990467110621,-0.0008313772945589796
1590506333.7918954,-0.15011367590766733,-4.26208328500174,8.721969609094073,0.4455555555555555,0.31222222222222223,-0.6355555555555555,0.0025411384531813393,-0.0026609640825774818,0.0018221846768044852
1590506333.8018954,-0.11199681397987014,-4.32,8.81602230214091,0.44,0.32666666666666666,-0.6144444444444445,0.006328903783778224,0.004365060834401473,-0.0008730121668802946
1590506333.8118954,-0.11808693190479301,-4.32,8.750434659523965,0.44,0.32666666666666666,-0.6144444444444445,0.002342930922854641,0.0002086833567263641,-0.0004173667134527282
1590506333.8218954,-0.11117315436241611,-4.317653691275168,8.708826845637585,0.44,0.32666666666666666,-0.6144444444444445,0.008531614501275637,0.0004509743369247093,-0.0024376041432216107
1590506333.8318954,-0.11821307011572497,-4.298213070115725,8.706254254594961,0.44,0.32666666666666666,-0.6144444444444445,0.015174169048753882,-0.004265861223789323,-0.004265861223789323
1590506333.8418953,-0.10523485364193329,-4.285234853641933,8.751678012253233,0.44,0.32666666666666666,-0.6144444444444445,0.014466317147178151,-0.0035580093222135935,-0.0035580093222135935
1590506333.8518953,-0.11991603096891722,-4.299832061937834,8.879580154844588,0.4133333333333333,0.30666666666666664,-0.6222222222222222,0.006517505893814288,0.001081671182108307,0.0
1590506333.8618953,-0.11277849462365591,-4.282778494623656,8.818886021505376,0.4133333333333333,0.30666666666666664,-0.6222222222222222,0.0029694056010408903,0.0004546301196727165,-0.00015154337322423884
1590506333.8718953,-0.1291784946236559,-4.299178494623655,8.753286021505376,0.4133333333333333,0.30666666666666664,-0.6222222222222222,0.0011804431177467023,0.003138073844613998,-0.0010460246148713327
1590506333.8818953,-0.1387692068308243,-4.31,8.838769206830824,0.4133333333333333,0.30666666666666664,-0.6222222222222222,0.0031382336399070447,0.004363323129985824,0.0008223133673318091
1590506333.8918953,-0.1306113120939822,-4.31,8.830611312093982,0.4133333333333333,0.30666666666666664,-0.6222222222222222,0.002248345369975725,0.004363323129985824,-0.0009574631725308297
1590506333.9018953,-0.09380174927113702,-4.319049562682216,8.820950437317785,0.425399416909621,0.31169420149011984,-0.6282552640103661,0.002181661564992912,0.004363323129985824,0.0008834775258819694
1590506333.9118953,-0.019347386941222466,-4.35803157174508,8.811642121725532,0.4266666666666667,0.31222222222222223,-0.6288888888888889,0.003272492347489368,-0.00021472221336023539,-0.002557136666051292
1590506333.9218953,0.1036445979408315,-4.405861788088101,8.702315912941483,0.4266666666666667,0.31222222222222223,-0.6288888888888889,0.003272492347489368,0.005002745018683,-0.004793194051212679
1590506333.9318953,0.10352008109535843,-4.387643665852857,8.684712668294285,0.4266666666666667,0.31222222222222223,-0.6288888888888889,0.0019888844283766282,0.005582672003559802,-0.020214858486447544
1590506333.9418952,0.03764823460544538,-4.363690267129252,8.732619465741495,0.4266666666666667,0.31222222222222223,-0.6288888888888889,2.9201577892674652e-05,0.006889127237215771,-0.03719877652397514
1590506333.9518952,-0.09208476685454946,-4.323690066612985,8.77973245004026,0.44420662225800944,0.31222222222222223,-0.6245038999910533,-0.00037333865189679964,0.010505783999873817,-0.060538074128741085
1590506333.9618952,-0.17928234550493508,-4.28,8.848803909174892,0.4533333333333333,0.31222222222222223,-0.6222222222222222,-0.0032463976936755764,0.015245536301136592,-0.07412430390213143
1590506333.9718952,-0.12,-4.280573974808639,8.751147949617277,0.4533333333333333,0.31222222222222223,-0.6222222222222222,-0.0011221362519784645,0.013027358450993454,-0.06975055914080916
1590506333.9818952,-0.12,-4.299078375576291,8.78815675115258,0.4533333333333333,0.31222222222222223,-0.6222222222222222,-0.0021313947504287955,0.011008841454092793,-0.06773204214390852
1590506333.9918952,-0.12910553131211588,-4.318211062624232,8.83552765656058,0.4533333333333333,0.31222222222222223,-0.6222222222222222,-0.002181661564992912,0.007928529671092156,-0.060678692822411326
1590506334.0018952,-0.16066959695142852,-4.296997802286429,8.84,0.44736980059277776,0.3232973544546825,-0.6111470899897619,0.00032748896811041466,0.006799431966440749,-0.05832292601523619
1590506334.0118952,-0.1797134633834346,-4.299713463383434,8.84,0.4455555555555555,0.32666666666666666,-0.6077777777777778,0.0021504052688267198,0.0012471122633274153,-0.055694882499651634
1590506334.0218952,-0.2011018277984507,-4.268347258302324,8.710550913899226,0.4455555555555555,0.32666666666666666,-0.6077777777777778,0.0010307353985184397,-0.0009706400145404234,-0.047455695974041916
1590506334.0318952,-0.22030921532666786,-4.240309215326668,8.72154607663334,0.4455555555555555,0.32666666666666666,-0.6077777777777778,3.3730159674898795e-05,0.001090830782496456,-0.03770685515192738
1590506334.0418952,-0.22858052811138063,-4.248580528111381,8.762902640556902,0.4455555555555555,0.32666666666666666,-0.6077777777777778,0.0009359904193970163,0.001090830782496456,-0.025075211515817732
1590506334.0518951,-0.1779750630107691,-4.2620249369892305,8.798785037806462,0.4455555555555555,0.32,-0.6144444444444445,0.001002476238477706,0.004098259497929574,-0.008505759899924773
1590506334.0618951,-0.13793171923928815,-4.302068280760712,8.774759031543573,0.4455555555555555,0.32,-0.6144444444444445,-0.0007447442423230597,-0.0011434019444727227,-0.004137708697922859
1590506334.0718951,-0.12,-4.32,8.72015826076316,0.4455555555555555,0.32,-0.6144444444444445,-0.0054455221268764915,-0.004380586701197401,0.0
1590506334.081895,-0.12,-4.32,8.75437440091367,0.4455555555555555,0.32,-0.6144444444444445,-0.003579321180156982,-0.00811298859463642,0.0
1590506334.091895,-0.11420643710842576,-4.32,8.783174251566297,0.4455555555555555,0.32,-0.6144444444444445,-0.003272492347489368,-0.011254564956954987,-0.0006319796742458349
1590506334.101895,-0.09751315142111039,-4.313756575710555,8.81248684857889,0.43376242078660426,0.31514400333043185,-0.6054261649152464,-0.003953544287800613,-0.017176281031824944,-0.0017718827228077013
1590506334.111895,-0.09,-4.300783026743818,8.792349080231453,0.4266666666666667,0.31222222222222223,-0.6,-0.006374154759843844,-0.02667286478943928,-0.007208740639637964
1590506334.121895,-0.09920490014315553,-4.290795099856845,8.725565698997912,0.4266666666666667,0.31222222222222223,-0.6,-0.01759007196353482,-0.03731175798837148,-0.0026153212644951527
1590506334.131895,-0.1070475441899574,-4.311142632569872,8.790475441899574,0.4266666666666667,0.31222222222222223,-0.6,-0.023156730188485505,-0.03433523831567117,0.000124641878029966
1590506334.141895,-0.1384362854543951,-4.32,8.834218142727197,0.4266666666666667,0.31222222222222223,-0.6,-0.02121171105822969,-0.0265210883721916,0.004968227721685256
1590506334.151895,-0.14398738411545448,-4.307974768230909,8.846012615884545,0.43468348784606076,0.32090711183323245,-0.6173697792220205,-0.01832320478689832,-0.019407154671789426,0.011136107238111337
1590506334.161895,-0.13167370956913235,-4.3,8.833347419138265,0.44,0.32666666666666666,-0.6288888888888889,-0.010187233395146399,-0.010004660003249554,0.017813829734852373
1590506334.171895,-0.07931505629979083,-4.339771685433264,8.740456629133472,0.44,0.32666666666666666,-0.6288888888888889,-0.006507626811355476,-0.006470268927732216,0.0273330327017835
1590506334.181895,-0.02331389914993992,-4.3211046330499805,8.777790733900039,0.44,0.32666666666666666,-0.6288888888888889,-0.0034532375076315332,-0.0003614903202843302,0.032423681541323406
1590506334.191895,0.0044068530430479945,-4.344406853043048,8.796271235362033,0.44,0.32666666666666666,-0.6288888888888889,-0.0006101176871669625,0.0017749164402149368,0.029175090594463802
1590506334.201895,0.0006198323544505911,-4.3406198323544505,8.818760335291099,0.42749310980593414,0.32041322156963375,-0.6153397578453176,-0.00409287024509704,0.005251314248815692,0.021199077415988032
1590506334.211895,-0.027261447765286537,-4.358174298510192,8.847261447765286,0.4266666666666667,0.32,-0.6144444444444445,-0.009319594196284788,0.013384187618560618,0.017752022227653284
1590506334.221895,-0.08907529448393958,-4.36,8.800770587930051,0.4266666666666667,0.32,-0.6144444444444445,-0.007669438718863957,0.01847687681966222,0.013157215872735002
1590506334.231895,-0.09764730904383208,-4.344705381912336,8.792352690956168,0.4266666666666667,0.32,-0.6144444444444445,-0.0017964714016822985,0.013538971237474415,0.00891900933581969
1590506334.241895,-0.128375006068845,-4.3068958262530135,8.775812496965576,0.4266666666666667,0.32,-0.6144444444444445,-0.004642849511012979,0.011999138607461015,0.008151687645365523
1590506334.251895,-0.1759320161461653,-4.27,8.775932016146166,0.43419011873568913,0.32265533602436086,-0.6201976724972263,-0.014162260452335016,0.005481963492660648,0.00959560294194503
1590506334.261895,-0.30175859805462174,-4.197069003242297,8.787152746006802,0.4455555555555555,0.32666666666666666,-0.6288888888888889,-0.023062740047493847,-0.011935194177727022,0.023327652684963247
1590506334.271895,-0.47696258428977784,-3.905062359517037,8.503489149245121,0.4455555555555555,0.32666666666666666,-0.6288888888888889,-0.03853418920855904,-0.005564597464347236,0.06519157394431613
1590506334.281895,-0.6701003547697917,-3.7766206707305123,8.81022579823203,0.4455555555555555,0.32666666666666666,-0.6288888888888889,-0.08438449190577378,0.007279503221446978,0.1574961534751504
1590506334.291895,-0.75,-3.642381683064055,8.99,0.4455555555555555,0.32666666666666666,-0.6288888888888889,-0.09270473174225176,0.01636643292993359,0.30283063470609906
1590506334.301895,-0.756608429359455,-3.497656700889264,8.930524135764905,0.4330729667654738,0.32226104709369663,-0.6274203490312322,-0.07321906922679441,0.0037568039983741624,0.4192456429208197
1590506334.311895,-0.062234794908062274,-2.348623653574149,8.9805113698183,0.4266666666666667,0.32,-0.6266666666666667,-0.08594217907549762,-0.004248317686808905,0.570713858999789
1590506334.321895,-0.18438715468235764,-2.4438525979854395,9.243050762940062,0.4266666666666667,0.32,-0.6266666666666667,-0.08304891719472769,-0.02984352882991501,0.7417840790226643
1590506334.3318949,-0.250957301742873,-2.4587081859632676,8.797174329910087,0.4266666666666667,0.32,-0.6266666666666667,0.007338854960409591,-0.06758997541280044,0.8810162890073643
1590506334.3418949,-0.30260776629853936,-2.5594181213632585,8.70159482246764,0.4266666666666667,0.32,-0.6266666666666667,-0.015681874523192436,-0.07463492452899129,1.0009536319035757
1590506334.3518949,-0.34,-2.78,9.07,0.4455555555555555,0.31222222222222223,-0.6,-0.04254240051736178,-0.08617563181722003,1.1660981064887117
1590506334.3618948,-0.34,-2.78,9.07,0.4455555555555555,0.31222222222222223,-0.6,-0.04254240051736178,-0.08617563181722003,1.1660981064887117
1590506334.3718948,-0.35974372116863146,-2.91820604818042,8.823203485392106,0.4455555555555555,0.31222222222222223,-0.6,-0.03285072405206524,-0.10663583768840162,1.3685464593193502
1590506334.3818948,-0.379580449316104,-2.998321797264416,9.006014268502987,0.4455555555555555,0.31222222222222223,-0.6,-0.02631723642015829,-0.11864884295166754,1.4469985904124139
1590506334.3918948,-0.4194334946980175,-3.055206892577224,8.939019709543569,0.4455555555555555,0.31222222222222223,-0.6,-0.02101810639455395,-0.1232020822799145,1.4985209922137834
1590506334.4018948,-0.423282094704618,-3.0565641894092357,8.960307431772293,0.4589913661463196,0.3002792794748764,-0.6238858854946916,-0.026963051975034853,-0.12728594836063542,1.5434022854675122
1590506334.4118948,-0.4289277156549521,-2.9875059904153356,8.819301118210863,0.4655555555555556,0.29444444444444445,-0.6355555555555555,-0.02275236026686298,-0.13163962045072097,1.5928823828757257
1590506334.4218948,-0.4558260521576736,-3.0833042086306945,8.84304342026279,0.4655555555555556,0.29444444444444445,-0.6355555555555555,-0.0443540977970886,-0.1263561541452813,1.625148118258761
1590506334.4318948,-0.49444963605120384,-3.1137798544204816,8.822440291159037,0.4655555555555556,0.29444444444444445,-0.6355555555555555,-0.03672293739470823,-0.132961284677183,1.6454842528988953
1590506334.4418948,-0.5549874374984453,-3.145707107141969,8.829280330356477,0.4655555555555556,0.29444444444444445,-0.6355555555555555,-0.02672672452750328,-0.1335496374321176,1.6617223192169337
1590506334.4518948,-0.58,-3.14480663287792,8.91090237990304,0.4655555555555556,0.2809392292248176,-0.6428708804661868,-0.030627634233535903,-0.13254297110028898,1.6706565605821095
1590506334.4618948,-0.608243101379724,-3.1412972405518893,8.934811037792443,0.4655555555555556,0.2677777777777778,-0.65,-0.03462357105462581,-0.13184901768944077,1.67442525113206
1590506334.4718947,-0.6095555555555555,-3.109111111111111,8.838666666666667,0.4655555555555556,0.2677777777777778,-0.65,-0.03328245920816965,-0.13312983683267857,1.6705225009991282
1590506334.4818947,-0.6220992691407081,-3.074585609877244,8.80292804938622,0.4655555555555556,0.2677777777777778,-0.65,-0.03381575425739013,-0.1332621672653135,1.6597864614797202
1590506334.4918947,-0.710870093658397,-3.1626639021948955,8.912663902194895,0.4655555555555556,0.2677777777777778,-0.65,-0.03589665416005478,-0.13159332720046293,1.6397260385845347
1590506334.5018947,-0.7737518987341773,-3.235313924050633,8.934686075949367,0.4880568213783404,0.23308832630098453,-0.6621881856540084,-0.030645164836164362,-0.13475184544009194,1.604440033564313
1590506334.5118947,-0.7884166117037004,-3.206333553185199,8.854250494666697,0.4922222222222222,0.22666666666666666,-0.6644444444444444,-0.0257799914751178,-0.12791813772498753,1.5697784099215124
1590506334.5218947,-0.79,-3.1831127953848757,8.764007579231938,0.4922222222222222,0.22666666666666666,-0.6644444444444444,-0.026931216259867906,-0.1200889918510159,1.5292512851133788
1590506334.5318947,-0.8044276888057882,-3.1222892447768475,8.757213844402894,0.4922222222222222,0.22666666666666666,-0.6644444444444444,-0.026483861208929736,-0.11575292187818703,1.491323438225786
1590506334.5418947,-0.8411840070686989,-3.1249472056549594,8.822368014137398,0.4922222222222222,0.22666666666666666,-0.6644444444444444,-0.028220927269842377,-0.11657822065205531,1.4499123727095677
1590506334.5518947,-0.8849404201630184,-3.154964252097811,8.89990467226083,0.4955476115772913,0.21114818300967741,-0.657239434175128,-0.02999654668824863,-0.11672149338792862,1.4197461595184273
1590506334.5618947,-0.9457376241109781,-3.181912541370326,8.904262375889022,0.4988888888888889,0.1955555555555556,-0.65,-0.030543261909900768,-0.11302914957972149,1.3954765992783653
1590506334.5718946,-0.9880716743799691,-3.147832759780072,8.837832759780072,0.4988888888888889,0.1955555555555556,-0.65,-0.029229052662905906,-0.1066650074501565,1.3796514998535228
1590506334.5818946,-1.010112286713125,-3.14022457342625,8.845393003495937,0.4988888888888889,0.1955555555555556,-0.65,-0.026706981300691882,-0.103077384655758,1.365070611361644
1590506334.5918946,-1.053934183056807,-3.1543443028238656,8.823443028238655,0.4988888888888889,0.1955555555555556,-0.65,-0.02262134456693617,-0.10562279784276976,1.3454146680635448
1590506334.6018946,-1.1028751532130976,-3.1728751532130977,8.87150061285239,0.5146473277690228,0.17979711667542173,-0.65,-0.02521731069768317,-0.1059960137648156,1.327377370828987
1590506334.6118946,-1.13,-3.1785190749934675,8.915557224980404,0.5333333333333333,0.16111111111111112,-0.65,-0.025075782588721934,-0.10440999281161743,1.3057785677600493
1590506334.6218946,-1.1365692053760905,-3.113723178495638,8.760584767743458,0.5333333333333333,0.16111111111111112,-0.65,-0.02530387897204347,-0.10079446189360969,1.266056890661894
1590506334.6318946,-1.2007140710464625,-3.1789282923604016,8.788571256837171,0.5333333333333333,0.16111111111111112,-0.65,-0.03385470079130867,-0.09751248264839946,1.2325999032536321
1590506334.6418946,-1.2566348063555115,-3.1634607745779544,8.842179741807348,0.5333333333333333,0.16111111111111112,-0.65,-0.025109960522307316,-0.0964790810144026,1.2069656701206835
1590506334.6518946,-1.3058393070489844,-3.1315035842293906,8.910175029868578,0.5381119076065313,0.1348289526085225,-0.6651321518651268,-0.013234892189256879,-0.09521121647264064,1.1828762438272062
1590506334.6618946,-1.3339075855273024,-3.084369657890791,8.909138621709047,0.54,0.12444444444444445,-0.6711111111111111,-0.01655038532847609,-0.09338519583685331,1.1633526741506308
1590506334.6718946,-1.3754686420511246,-3.0741874568204497,8.8148752590773,0.54,0.12444444444444445,-0.6711111111111111,-0.020865540496202647,-0.09117300504969016,1.1442167627974167
1590506334.6818945,-1.3848294225047335,-3.0955117324857993,8.831705774952665,0.54,0.12444444444444445,-0.6711111111111111,-0.02068857063090511,-0.08884688741866982,1.129238954264596
1590506334.6918945,-1.3881251328777524,-3.089687167805619,8.875937433561123,0.54,0.12444444444444445,-0.6711111111111111,-0.02052126859042885,-0.08815277710520912,1.1100905968106949
1590506334.7018945,-1.3950041271611824,-3.020033017289459,8.865004127161182,0.5427754849104542,0.11722818367726344,-0.682213050752928,-0.020726685274325078,-0.0872682634135013,1.0804800455557872
1590506334.7118945,-1.4373888002220525,-3.040928457428353,8.8464603427937,0.5455555555555556,0.11,-0.6933333333333334,-0.018158006598427926,-0.08360785354821529,1.0450644096879216
1590506334.7218945,-1.4390217927014806,-3.028043585402961,8.846992735766174,0.5455555555555556,0.11,-0.6933333333333334,-0.01897887080546441,-0.07985198289868843,1.006975214306996
1590506334.7318945,-1.444352789920288,-2.988470815119568,8.756706865518128,0.5455555555555556,0.11,-0.6933333333333334,-0.01024107504908321,-0.07071158380986733,0.9697873295411599
1590506334.7418945,-1.5095205597954593,-3.0097602798977294,8.88070551144774,0.5455555555555556,0.11,-0.6933333333333334,-0.01888108787007726,-0.07737053733722647,0.933311076482195
1590506334.7518945,-1.569250952439474,-3.03,8.925830158535087,0.5248786066390835,0.09360104051452214,-0.6990373192413256,-0.020270925724626902,-0.07349420449555037,0.89560746376873
1590506334.7618945,-1.585856267043147,-3.0475688011294406,8.919281335215734,0.5133333333333333,0.08444444444444445,-0.7022222222222222,-0.013168363556854735,-0.06763150851478028,0.8642215362488364
1590506334.7718945,-1.6321392523912917,-3.0479602136024884,8.933980106801243,0.5133333333333333,0.08444444444444445,-0.7022222222222222,-0.010251639344110157,-0.06828817699563468,0.8280871196965439
1590506334.7818944,-1.6545085821545367,-3.0454914178454633,8.908034328618147,0.5133333333333333,0.08444444444444445,-0.7022222222222222,-0.006223352467239152,-0.06153409014681882,0.7951901201036733
1590506334.7918944,-1.6750299829947193,-3.0416566723350935,8.906686655329812,0.5133333333333333,0.08444444444444445,-0.7022222222222222,-0.008733187534689919,-0.05563236990731925,0.7603765183974974
1590506334.8018944,-1.6930036355859708,-2.984676361562589,8.93,0.5164808082248201,0.0737430298133891,-0.7097761619617906,-0.01389044073833347,-0.05377835415798422,0.7083180758464848
1590506334.8118944,-1.7103526294333469,-2.95,8.909764913711102,0.5188888888888888,0.06555555555555556,-0.7155555555555555,-0.011447312232200968,-0.050704398434049745,0.6689874786531383
1590506334.8218944,-1.7553701120102045,-2.985863594690477,8.879753258659864,0.5188888888888888,0.06555555555555556,-0.7155555555555555,-0.013702673043489481,-0.04796963912493055,0.6311603781868318
1590506334.8318944,-1.760128916503306,-2.9706445825165297,8.795966873774795,0.5188888888888888,0.06555555555555556,-0.7155555555555555,-0.01044023678331421,-0.04421380321365096,0.5963710556831068
1590506334.8418944,-1.7639910861468955,-2.975964344587582,8.828430917638439,0.5188888888888888,0.06555555555555556,-0.7155555555555555,-0.007415704619904474,-0.04145156973486533,0.565930788763447
1590506334.8518944,-1.8164982242950667,-3.0270035514098668,8.906341619956356,0.509565439599884,0.06212060055434323,-0.7346931619908813,-0.004418445767191262,-0.03518880267397862,0.5321534494985893
1590506334.8618944,-1.8345670313971234,-2.923989739926621,9.002071820513653,0.4977777777777778,0.057777777777777775,-0.7588888888888888,-0.010289772522340507,-0.03624930674498166,0.5046768159119611
1590506334.8718944,-1.7893405282590173,-2.900219823913661,8.943625106503834,0.4977777777777778,0.057777777777777775,-0.7588888888888888,-0.00667076637566421,-0.03469077341731146,0.4841610139442013
1590506334.8818944,-1.806328095055577,-2.91,8.690885396703719,0.4977777777777778,0.057777777777777775,-0.7588888888888888,-0.002600182689285342,-0.030142719215522994,0.469393391302578
1590506334.8918943,-1.947895378860268,-2.942631792953423,8.828772643178075,0.4977777777777778,0.057777777777777775,-0.7588888888888888,-0.022295089111054232,-0.039652686938772504,0.45717288714225063
1590506334.9018943,-2.0241704022473255,-2.952511206741976,8.890852011236626,0.501664176279561,0.04158445068701479,-0.762775287390672,-0.022819396287678612,-0.03663821615384957,0.4526947747360292
1590506334.9118943,-2.02,-2.93447216132409,8.9252783867591,0.5044444444444445,0.03,-0.7655555555555555,-0.021443935061443337,-0.029222118057054387,0.4526947747360292
1590506334.9218943,-1.9462058823529411,-2.8959411764705885,8.879176470588236,0.5044444444444445,0.03,-0.7655555555555555,-0.017334584464201032,-0.02974759710384453,0.4396914301435053
1590506334.9318943,-1.9159995705389734,-2.9284990337126904,8.926998067425382,0.5044444444444445,0.03,-0.7655555555555555,-0.026561507030867643,-0.018162555051487055,0.40851647939690344
1590506334.9418943,-1.9153520597239377,-2.923380149309845,8.927746253826736,0.5044444444444445,0.03,-0.7655555555555555,-0.0254270815769086,-0.013704532051791736,0.3798855988639145
1590506334.9518943,-1.8928250711638648,-2.867062677909662,8.832006552446426,0.5044444444444445,0.03,-0.7655555555555555,-0.012526186983815177,-0.018004830249489543,0.3534694813637708
1590506334.9618943,-1.91,-2.940847153948638,8.897965727936784,0.5044444444444445,-0.03555555555555556,-0.7866666666666666,-0.019265163101151516,-0.004825524274239273,0.29378487964838335
1590506334.9718943,-1.8959105199516324,-3.0294328899637244,8.882627569528417,0.5044444444444445,-0.03555555555555556,-0.7866666666666666,-0.0193256435426201,-0.0029013196967100424,0.24443407401341713
1590506334.9818943,-1.8617292968687564,-3.0017292968687563,8.71684238287806,0.5044444444444445,-0.03555555555555556,-0.7866666666666666,-0.012335421287351832,0.00891528328562306,0.21215425142555897
1590506334.9918942,-1.862631506613984,-2.9954135028345648,8.84721800377942,0.5044444444444445,-0.03555555555555556,-0.7866666666666666,-0.01902801666209657,0.008620018066320989,0.19251935868762954
1590506335.0018942,-1.92,-3.0405644129934353,8.921128825986871,0.501588275973134,-0.058976137020301064,-0.7723858243101145,-0.035713664034728795,0.009164317814445884,0.14325084840879626
1590506335.0118942,-1.907780154924382,-3.066109922537809,8.856131316857248,0.4988888888888889,-0.0811111111111111,-0.7588888888888888,-0.034726724707988425,0.020116915394886137,0.08381877743677194
1590506335.0218942,-1.9296002538071066,-3.1114403553299494,8.872880710659897,0.4988888888888889,-0.0811111111111111,-0.7588888888888888,-0.029653155065807846,0.027515099046054325,0.02472226769619823
1590506335.0318942,-1.901173546133646,-2.9874173316676442,8.630937970068581,0.4988888888888889,-0.0811111111111111,-0.7588888888888888,-0.009904469844845509,0.017524961462311126,-0.03371343759500316
1590506335.0418942,-1.9135811086952967,-2.863851334782822,8.675337986954602,0.4988888888888889,-0.0811111111111111,-0.7588888888888888,-0.018595730506581334,0.03101498456752249,-0.07355738508488427
1590506335.0518942,-1.9885906683901096,-2.8640828920485344,8.989295334195056,0.5040529634416971,-0.0793897529268417,-0.7427081219567564,-0.050285602538533515,0.045492733233761525,-0.114736176991492
1590506335.0618942,-2.017800706272371,-2.9339003531361856,8.9673024719533,0.5155555555555555,-0.07555555555555556,-0.7066666666666667,-0.035856879019670176,0.026899655969269576,-0.16559821214596138
1590506335.0718942,-2.0212341039199404,-2.9805534676397327,8.883829480400298,0.5155555555555555,-0.07555555555555556,-0.7066666666666667,-0.0187529890575203,0.03557968431222195,-0.19230195943540407
1590506335.0818942,-2.038650144274477,-3.0373002885489546,8.796749278627614,0.5155555555555555,-0.07555555555555556,-0.7066666666666667,-0.007398410272193344,0.03092489530473361,-0.22834125046377302
1590506335.0918941,-2.0388472044243606,-3.0644611182302555,8.813608450799219,0.5155555555555555,-0.07555555555555556,-0.7066666666666667,-0.001719583232412847,0.023410448392358688,-0.26765534735799335
1590506335.1018941,-2.0034868820395224,-3.078605247184191,9.046986578539151,0.5155555555555555,-0.07555555555555556,-0.7066666666666667,-0.021005647300602996,0.03883929964691081,-0.3000559349925529
1590506335.1118941,-1.9155191859998393,-3.203205426667737,8.972167054668057,0.5433333333333333,-0.07555555555555556,-0.7655555555555555,-0.00011326881409321377,0.027811259270789316,-0.365243631866562
1590506335.1218941,-1.945278089677371,-3.0471973950145967,8.760479826334306,0.5433333333333333,-0.07555555555555556,-0.7655555555555555,-0.004878403643196965,0.04420065274664076,-0.41016903186367304
1590506335.131894,-2.002522682703621,-3.1986322395084326,8.826109556804811,0.5433333333333333,-0.07555555555555556,-0.7655555555555555,0.0004243815194865941,0.0324033073707381,-0.4740306775605381
1590506335.141894,-1.866810636892459,-3.063621273784918,8.856947433466154,0.5433333333333333,-0.07555555555555556,-0.7655555555555555,0.004104950732674228,0.031952153855118695,-0.5218247083441422
1590506335.151894,-1.803928651059086,-2.9572451027233635,8.70306099697404,0.5174829325264108,-0.097097556227991,-0.7477834050007963,0.024393436268571732,0.02958599231638078,-0.5656403216569988
1590506335.161894,-1.9147430584334852,-3.124743058433485,8.904311023622046,0.49,-0.12,-0.7288888888888889,0.0038280791820057974,0.05711954792916664,-0.5859978676638437
1590506335.171894,-1.9524644709130488,-3.121161177282622,8.92562217935331,0.49,-0.12,-0.7288888888888889,-0.003525821932253337,0.07569836267835706,-0.5931786554248875
1590506335.181894,-1.9,-3.044791381242994,8.636550006227425,0.49,-0.12,-0.7288888888888889,0.016234570919587826,0.052279945798668,-0.5961777657627403
1590506335.191894,-1.8714154648568826,-3.1956847959279857,9.137054387783957,0.49,-0.12,-0.7288888888888889,-0.011918183999478589,0.0340511121291155,-0.5532740546770587
1590506335.201894,-1.815822887181561,-3.0774937323089366,8.78582288718156,0.4888861032484162,-0.11777220649683245,-0.7261041470099295,0.0009113046488627893,0.04017847802259631,-0.5058155872666981
1590506335.211894,-1.7160768039907113,-2.906227315730627,8.693923196009289,0.4633333333333333,-0.06666666666666668,-0.6622222222222223,0.008122078137291062,0.02829423847152413,-0.33781167969614495
1590506335.221894,-1.7005566867989645,-2.7866598792062125,9.077732528041414,0.4633333333333333,-0.06666666666666668,-0.6622222222222223,-0.019785656263446416,0.004516246499735628,-0.13051941842989404
1590506335.231894,-1.7140433066426073,-2.813935040036089,8.838809067328295,0.4633333333333333,-0.06666666666666668,-0.6622222222222223,0.025839267910072922,0.008976699564189792,0.18687455539350395
1590506335.241894,-1.8390558711734173,-2.8395708505333714,8.732124698573589,0.4633333333333333,-0.06666666666666668,-0.6622222222222223,0.029723946207528697,-0.006851654067496896,0.45906664070258063
1590506335.251894,-1.9613232047218274,-2.8786767952781727,9.13039042518308,0.47633404986580197,-0.05198843832355692,-0.654254041121677,-0.03429608225939748,-0.07443202589453837,0.6952898177467846
1590506335.261894,-1.9625556311340004,-2.825111262268001,9.138417063453502,0.4977777777777778,-0.027777777777777776,-0.6411111111111111,-0.07061621487699339,-0.12297609243682327,0.9217637770453674
1590506335.271894,-1.9019819470809283,-2.699211637546972,8.763378142796265,0.4977777777777778,-0.027777777777777776,-0.6411111111111111,-0.01902071996168103,-0.10041048121180282,1.0819936290309589
1590506335.281894,-1.902159853411789,-2.7863048415402085,8.759788118096418,0.4977777777777778,-0.027777777777777776,-0.6411111111111111,-0.0067234115944177445,-0.09884751697184005,1.1596593671579616
1590506335.291894,-1.8546425404680895,-2.969527373956078,9.076036498608104,0.4977777777777778,-0.027777777777777776,-0.6411111111111111,-0.0367074511761367,-0.10223397906493902,1.2037456358356466
1590506335.301894,-1.6318327462092204,-2.817604533619237,8.811270026037677,0.5052108030836779,-0.023474447337519782,-0.6411111111111111,-0.013644122788545963,-0.10447422212563974,1.2339137647490066
1590506335.311894,-1.608254935838947,-2.8661456776222556,8.788437032866765,0.5188888888888888,-0.015555555555555557,-0.6411111111111111,0.005565056065574512,-0.09599310885968812,1.2283863632441014
1590506335.321894,-1.6877576471153615,-2.89,8.88427277314559,0.5188888888888888,-0.015555555555555557,-0.6411111111111111,-0.018471413482158486,-0.1007002178594681,1.1964066472592398
1590506335.331894,-1.7935042475728156,-2.8724787621359225,8.890427791262136,0.5188888888888888,-0.015555555555555557,-0.6411111111111111,-0.0329393829248505,-0.10847709792114102,1.138641008731353
1590506335.341894,-1.7960808154072265,-2.855676738371094,8.905413906968754,0.5188888888888888,-0.015555555555555557,-0.6411111111111111,-0.019147951889853233,-0.09926560120717748,1.0774147152706972
1590506335.351894,-1.7661858378346469,-2.8680929189173234,9.022603972962601,0.5205426501503717,-0.019193830330817847,-0.6411111111111111,-0.002973116786945903,-0.09796674014971099,1.0096625916935702
1590506335.361894,-1.7131933911635846,-2.8431933911635845,8.86874052047226,0.5244444444444445,-0.027777777777777776,-0.6411111111111111,0.002667394407050129,-0.08863206918996933,0.9085231760072315
1590506335.371894,-1.7466704337321226,-2.87159035111648,8.93,0.5244444444444445,-0.027777777777777776,-0.6411111111111111,-0.004380794446442939,-0.07485171070514787,0.8092554373114257
1590506335.3818939,-1.945390855747647,-2.9853705745677943,8.814568581892647,0.5244444444444445,-0.027777777777777776,-0.6411111111111111,0.0005924758064108655,-0.06443986299644294,0.6366886046583891
1590506335.3918939,-2.005436477602813,-2.949081180247669,8.714502369668248,0.5244444444444445,-0.027777777777777776,-0.6411111111111111,0.012102701658360006,-0.049981095984913286,0.5104319260691073
1590506335.4018939,-2.1199794165025954,-3.003995883300519,8.920020583497404,0.5213365352107074,-0.02733379074438677,-0.6477709166119762,-0.007857125069735748,-0.03796674904014759,0.3353815568811262
1590506335.4118938,-2.171815454613635,-3.037269318267043,8.944538636534087,0.5166666666666667,-0.02666666666666667,-0.6577777777777778,-0.00029787116915099086,-0.022908264535059883,0.16730381581155934
1590506335.4218938,-2.1985645277577506,-3.0385886806056237,8.887225666906994,0.5166666666666667,-0.02666666666666667,-0.6577777777777778,0.004050151668132839,-0.01138069968473853,0.04243323879233617
1590506335.4318938,-2.2068650124221696,-3.022539950311321,8.768809925466982,0.5166666666666667,-0.02666666666666667,-0.6577777777777778,0.008938803361827612,-0.00019472549011224048,-0.07765334694790225
1590506335.4418938,-2.2037461697563967,-3.0387614907308103,8.899908074153517,0.5166666666666667,-0.02666666666666667,-0.6577777777777778,0.008459787971025543,0.008588203338346015,-0.22356683012214595
1590506335.4518938,-2.1688258763180395,-2.996471929324594,9.005884867483614,0.5202612330198537,-0.036470029448085875,-0.6616991228903455,0.005646269450693397,0.014886467278828095,-0.34681797425516914
1590506335.4618938,-2.1637811254980077,-3.033781125498008,8.969316484063745,0.5288888888888889,-0.06,-0.6711111111111111,0.02315095484789073,0.02937787110504493,-0.48065125204505726
1590506335.4718938,-2.284180455269837,-3.1409975013280342,8.996175457925906,0.5288888888888889,-0.06,-0.6711111111111111,0.018186529454721885,0.04151116870948497,-0.5782518508668373
1590506335.4818938,-2.2258691647259203,-3.0521495359588444,8.779009350342381,0.5288888888888889,-0.06,-0.6711111111111111,0.0023345803506930824,0.045922955978971024,-0.6711300652648021
1590506335.4918938,-2.1699032457670024,-3.019951622883501,8.799612983068009,0.5288888888888889,-0.06,-0.6711111111111111,0.018554677552008823,0.05235987755982988,-0.7645668360343248
1590506335.5018938,-2.217091185239354,-3.043545592619677,8.988364740957417,0.5288888888888889,-0.06,-0.6711111111111111,0.013407271858106718,0.05235987755982988,-0.8160408929733459
1590506335.5118937,-2.17,-3.01697174808711,8.922113007651559,0.5488888888888889,-0.07444444444444444,-0.6711111111111111,0.009686821324847134,0.05225535298573311,-0.907592655267855
1590506335.5218937,-2.17,-3.058116539140671,8.757533843437317,0.5488888888888889,-0.07444444444444444,-0.6711111111111111,0.041104224559273456,0.07738927557327417,-0.9399076985946935
1590506335.5318937,-2.1182160118677325,-3.175605589319041,8.894713595252906,0.5488888888888889,-0.07444444444444444,-0.6711111111111111,0.01971484672563156,0.07534721663295081,-1.004290505111397
1590506335.5418937,-1.9258951874611614,-3.3210407604317704,8.91693594789293,0.5488888888888889,-0.07444444444444444,-0.6711111111111111,0.018436945769919385,0.07472508451055604,-1.0479859048388258
1590506335.5518937,-1.7339474866266487,-3.339332761648087,8.84,0.5551796044482556,-0.08361840463518767,-0.6679657533314277,0.024843048573084687,0.08265708004539685,-1.0931805520026936
1590506335.5618937,-1.514764828544949,-3.2958418288538773,8.831274714241582,0.5755555555555556,-0.11333333333333333,-0.6577777777777778,0.039130858416512024,0.09637382127134254,-1.1618455682273525
1590506335.5718937,-1.6327893961708395,-3.3176907216494844,8.69480706921944,0.5755555555555556,-0.11333333333333333,-0.6577777777777778,0.03372129056076158,0.0995907619588377,-1.3152276873121451
1590506335.5818937,-1.8557351888667992,-3.015882306163022,8.748675944333996,0.5755555555555556,-0.11333333333333333,-0.6577777777777778,0.019426416732958356,0.10231350819515327,-1.460830781622759
1590506335.5918937,-1.8855282998251748,-3.015528299825175,8.999024256993007,0.5755555555555556,-0.11333333333333333,-0.6577777777777778,0.013639794826982837,0.11125591972308424,-1.5900058306527654
1590506335.6018937,-1.807003973509934,-3.0359920529801325,8.985925449385054,0.6020047513928309,-0.17356417533900975,-0.6336854409755073,0.01914256318338019,0.13161578251202377,-1.6743845900792402
1590506335.6118937,-1.7,-3.25,9.07,0.6877777777777778,-0.3688888888888889,-0.5555555555555556,0.05999569303730508,0.15162547876700738,-1.7202401439969108
1590506335.6218936,-1.675471652882656,-3.286792520676016,8.88603739661992,0.6877777777777778,-0.3688888888888889,-0.5555555555555556,0.060664599939289,0.15530446672791895,-1.7319460147816295
1590506335.6318936,-1.6284267701260913,-3.363445845457485,8.48170384739735,0.6877777777777778,-0.3688888888888889,-0.5555555555555556,0.06125813657724181,0.16270539934941222,-1.7579085447037002
1590506335.6418936,-1.784773484038491,-3.209063540552925,8.75045303192302,0.6877777777777778,-0.3688888888888889,-0.5555555555555556,0.03133095270069506,0.13464679010897654,-1.7448118613071617
1590506335.6518936,-1.7335219184359247,-3.138592637849397,8.852956163128152,0.6877777777777778,-0.3688888888888889,-0.5555555555555556,-0.00640612745133546,0.10319922331561782,-1.7357270086779693
1590506335.6618936,-1.576039177942592,-3.261320274019136,8.74660137009568,1.3788888888888888,-0.3322222222222222,-0.05111111111111112,0.04268642007150217,0.13531102354760732,-1.6560812030221141
1590506335.6718936,-1.5048004302779823,-3.2850665232406726,8.865332616203364,1.3788888888888888,-0.3322222222222222,-0.05111111111111112,0.04527673403347063,0.13617446153493015,-1.6008211718334542
1590506335.6818936,-1.3842871846658769,-3.230998970733886,8.869854349134833,1.3788888888888888,-0.3322222222222222,-0.05111111111111112,0.033255012199000025,0.11179482853874487,-1.5125157587773663
1590506335.6918936,-1.3028333948303654,-3.2880166236187445,9.024616549822305,1.3788888888888888,-0.3322222222222222,-0.05111111111111112,0.019038643990428355,0.09757846033017319,-1.4592043779952222
1590506335.7018936,-1.1038155857214682,-3.3630922071392657,8.889900653594772,1.298319713982459,-0.2628193508742528,-0.15057710742416625,0.02401995123831281,0.10296514640218538,-1.417484310661206
1590506335.7118936,-1.0700756158873808,-3.3799621920563094,8.780245751633986,0.8587628847550416,0.11581808837495111,-0.6932282889224065,0.047942939740403714,0.11124618088367838,-1.4082831612373248
1590506335.7218935,-1.0029112937508857,-3.351266118747343,8.823459685418733,0.8577777777777778,0.11666666666666667,-0.6944444444444444,0.0338755745086054,0.11086887505142842,-1.4503448503385235
1590506335.7318935,-0.980623317273629,-3.418130048179113,8.7714544069718,0.8577777777777778,0.11666666666666667,-0.6944444444444444,0.03063391973247894,0.1027647381111123,-1.4900551213460724
1590506335.7418935,-0.864293251706708,-3.3776961959039005,8.853141349658658,0.8577777777777778,0.11666666666666667,-0.6944444444444444,0.03471810550802161,0.12055106923461671,-1.5659246361443488
1590506335.7518935,-0.8130591449004021,-3.464840244314171,8.876940855099598,0.8058796026313905,0.12527154544741484,-0.6974023715253266,0.03933961473778493,0.1260083820203188,-1.6277538580653172
1590506335.7618935,-0.7250004509582864,-3.48,8.867778579481397,0.6433333333333333,0.15222222222222226,-0.7066666666666667,0.033573336485298026,0.12774836124621333,-1.713270559261386
1590506335.7718935,-0.6571814805217241,-3.483204629869569,8.786023149347844,0.6433333333333333,0.15222222222222226,-0.7066666666666667,0.038052723057296685,0.13552835170033103,-1.7868186997610307
1590506335.7818935,-0.5830575246476004,-3.4878662511203458,8.82426749775931,0.6433333333333333,0.15222222222222226,-0.7066666666666667,0.04356028260233245,0.1411826827340517,-1.861499175108879
1590506335.7918935,-0.4118271378868339,-3.4842633217359458,8.816856253433437,0.6433333333333333,0.15222222222222226,-0.7066666666666667,0.04079795016217079,0.1438289450240869,-1.937043371253366
1590506335.8018935,-0.4348685222486724,-3.538026551913569,8.524998718183484,0.6433333333333333,0.15222222222222226,-0.7066666666666667,0.06006754285097729,0.15555826231292566,-2.0023924247197527
1590506335.8118935,-0.4513104162691165,-3.6186895837308835,9.019586456941909,0.5544444444444444,0.22,-0.7444444444444445,0.03951068610095421,0.17026743576010528,-2.128955463220215
1590506335.8218935,-0.413818657570731,-3.6469093287853656,8.85436791813658,0.5544444444444444,0.22,-0.7444444444444445,0.029154283116180187,0.16164076971349475,-2.2219414657974395
1590506335.8318934,-0.3833668026357076,-3.659405396925008,8.763266394728586,0.5544444444444444,0.22,-0.7444444444444445,0.04890375461465952,0.17762178694924133,-2.2795659380789766
1590506335.8418934,-0.33608006469874646,-3.7197998382531337,8.848040032349372,0.5544444444444444,0.22,-0.7444444444444445,0.05191044469113371,0.18020087841651533,-2.323316726900979
1590506335.8518934,-0.309749781395036,-3.762196475415349,8.841464316943567,0.5537936369139705,0.22081350941309238,-0.7439563387965891,0.054940869624166104,0.181477240393755,-2.3563289455235434
1590506335.8618934,-0.16349131302930847,-3.7635861008468936,8.846793050423447,0.5455555555555556,0.2311111111111111,-0.7377777777777778,0.05783471096615766,0.18797271852099226,-2.3939306859258145
1590506335.8718934,-0.11334328845369238,-3.7453955120359037,8.788768665850673,0.5455555555555556,0.2311111111111111,-0.7377777777777778,0.055267673711313976,0.1929394729769909,-2.41482420139739
1590506335.8818934,-0.058582945736434106,-3.8617612403100776,8.686093023255815,0.5455555555555556,0.2311111111111111,-0.7377777777777778,0.06124110046091808,0.1996595780702955,-2.4282644115839993
1590506335.8918934,0.0067032672258087594,-3.908324183193548,8.831840519322592,0.5455555555555556,0.2311111111111111,-0.7377777777777778,0.05381631485398692,0.18744608008604546,-2.4572941127103105
1590506335.9018934,0.036705949677211684,-3.900823512580697,8.974353260966756,0.5455555555555556,0.2311111111111111,-0.7377777777777778,0.055452707332759754,0.1915370612829775,-2.4703852525404932
1590506335.9118934,0.13001087115589655,-3.954282608241172,8.804304350552965,0.48,0.2966666666666667,-0.67,0.061086523819801536,0.19853120241435496,-2.471822553136969
1590506335.9218934,-0.8796956022944551,-5.837132950924156,5.448965965583175,0.48,0.2966666666666667,-0.67,0.0604371145034763,0.19658297446537926,-2.4713896135927524
1590506335.9318933,-2.4032071451239974,-9.598114430792945,-7.376326789681279,0.48,0.2966666666666667,-0.67,-1.1611644673328045,-0.35169834450741577,-1.989736275936728
1590506335.9418933,5.438441533173357,2.095748102989818,-3.0160743238861145,0.48,0.2966666666666667,-0.67,-5.060581048372595,-2.0064533703324936,-0.44789176593815216
1590506335.9518933,0.838540246794968,-1.4343702524994746,1.486688984297595,0.4739697360915123,0.3114073117763033,-0.6736181583450926,-5.0188789262012685,-1.6033391885914674,-0.39843237065066417
1590506335.9618933,-0.12,-0.81,3.65,0.43,0.4188888888888889,-0.7,-4.78002048889947,-1.1486448139687682,-0.2334377874542416
1590506335.9718933,0.24174543772601126,-0.2992258851232024,3.473438735177866,0.43,0.4188888888888889,-0.7,-3.7269218468151712,0.21705418060743759,-0.05452287088293918
1590506335.9818933,0.30347300479354133,-0.6255001681944328,4.302351778656126,0.43,0.4188888888888889,-0.7,-3.1324559022912926,0.8721210223886054,0.0618693286112184
1590506335.9918933,0.17482341388722455,-0.4188962119699088,3.849922275480994,0.43,0.4188888888888889,-0.7,-1.9050959841088726,1.6851408244588724,0.22805467443204472
1590506336.0018933,0.2655728646561481,-0.19551294853871248,0.9249976699287665,0.43,0.4188888888888889,-0.7,-0.35167844132031556,1.0942329748491073,0.2562294043747783
1590506336.0118933,0.7109961270690213,-0.8756162109825257,6.510209783761353,0.3938577671220946,0.5363511457420813,-0.6403653157514562,1.519494161290546,-0.32143331469608394,0.2553861738935174
1590506336.0218933,-0.5136170929207088,-1.5774387877816083,8.849576044255592,0.3855555555555555,0.5633333333333334,-0.6266666666666667,3.0993408322721363,0.25113936575880025,0.3758751005028158
1590506336.0318933,-0.3387565140703921,-1.1806397819289667,5.002643309548625,0.3855555555555555,0.5633333333333334,-0.6266666666666667,4.144027225066081,-0.056984429868627284,0.41035562048969454
1590506336.0418932,-0.5811356687607429,-2.3195477707975236,7.487567727901918,0.3855555555555555,0.5633333333333334,-0.6266666666666667,5.79722964320749,-0.01702353761407545,0.50093142775614
1590506336.0518932,-0.523715337460641,-2.510948875131197,6.824043899545185,0.3855555555555555,0.5633333333333334,-0.6266666666666667,6.578090092584578,-0.014239721395262295,0.5378169926554143
1590506336.0618932,-4.885294884327143,5.540128977951559,13.09130688606495,0.41,0.5666666666666667,-0.6133333333333333,4.264577145494661,-0.3466858855839324,0.3211600365229777
1590506336.0718932,0.6240721331689272,-0.08453298397040691,-2.405852342786683,0.41,0.5666666666666667,-0.6133333333333333,0.30732072478449396,-0.5598989944785234,0.04963078303740657
1590506336.0818932,0.2200281288532675,-0.011805063193588164,0.5759924090628856,0.41,0.5666666666666667,-0.6133333333333333,-0.2480162583277281,-0.012495396839332984,0.13425356141641182
1590506336.0918932,1.8887481829841812,-5.728235998289867,20.51518683197948,0.41,0.5666666666666667,-0.6133333333333333,-0.9466031791191811,0.6830333249243109,0.2632046893796952
1590506336.1018932,-0.46084490765510305,-1.561952190382434,7.963464592205791,0.4098435356194253,0.5627237642761858,-0.6156802990419529,-0.49685405694548523,0.5606916444664295,0.22660157682967944
1590506336.1118932,-0.48777345003959166,-4.811329638110728,17.316644980418175,0.4048567685111868,0.43705723314857226,-0.6904818056655324,0.11217688977428675,-0.20402406194537426,0.11302024271473804
1590506336.1218932,-0.1281746795683672,-2.3538583514869043,5.87467450225442,0.4044444444444445,0.4266666666666667,-0.6966666666666667,0.49479452088550024,-0.13402855844404934,0.15453721609407337
1590506336.1318932,0.005140693127163212,-1.9174165055962602,5.281277026115881,0.4044444444444445,0.4266666666666667,-0.6966666666666667,-0.17761838226037435,0.14575577260560807,0.20407743976323442
1590506336.1418931,-0.05432189576628913,-2.5794090358172777,8.329757596021231,0.4044444444444445,0.4266666666666667,-0.6966666666666667,-0.31497559904023403,-0.12330071510334902,0.17144520892756768
1590506336.1518931,-0.08031496315283564,-2.197795578340276,6.250945850688882,0.4047244116914095,0.42621171989034856,-0.6967716543842786,0.20567738481166378,-0.14002995803446688,0.19452864683761903
1590506336.1618931,-0.07949708650829224,-3.2497194083370684,9.820333482743164,0.4133333333333333,0.4122222222222222,-0.7,-0.022920158938183038,0.09445069075728413,0.2704163153555835
1590506336.1718931,-0.05764009804750233,-2.989660637308765,9.523514918434621,0.4133333333333333,0.4122222222222222,-0.7,-0.12759562268783,-0.058328882211003755,0.2689814818430463
1590506336.181893,-0.09309187727157467,-3.2200972022652357,10.096652015890458,0.4133333333333333,0.4122222222222222,-0.7,-0.01609166721389077,-0.05059450379662647,0.2921846170861782
1590506336.191893,-0.0143635571054926,-2.437393199651264,7.22993679163034,0.4133333333333333,0.4122222222222222,-0.7,0.028394648618396738,0.0182962612512731,0.34063342887589065
1590506336.201893,-0.0598163343692168,-2.9145102831802787,8.873571702922588,0.4133333333333333,0.4122222222222222,-0.7,-0.010514277151933867,-0.038481846823811026,0.3501566811813624
1590506336.211893,-0.04219991750309364,-3.030999587515468,9.239598515055686,0.4189527857983103,0.42747502177001695,-0.7,-0.0032615435440901917,-0.03973890691273869,0.37222421940782346
1590506336.221893,-0.10572272215973003,-3.34861361079865,9.49720753655793,0.4211111111111111,0.43333333333333335,-0.7,0.02529862358359539,-0.031271198199795056,0.3952457850610092
1590506336.231893,-0.04657157369000254,-2.74412342334716,8.204901379835775,0.4211111111111111,0.43333333333333335,-0.7,-0.024439023454222428,-0.0505165554502731,0.39559759075076695
1590506336.241893,-0.09627969186489461,-3.0778779310928637,9.376592736815372,0.4211111111111111,0.43333333333333335,-0.7,-0.0112705452746875,-0.03657346090723612,0.40101990529528125
1590506336.251893,-0.032028501733213505,-2.809381820516112,8.101584285530878,0.4211111111111111,0.43333333333333335,-0.7,-0.02889924309417014,-0.025282723809050445,0.39720070183701855
1590506336.261893,-0.13903520060560182,-3.0336468584405756,8.97901097653293,0.4418797207502734,0.4246797459836824,-0.709518946084616,-0.0039655125853471675,-0.039531695171250866,0.3843189455576815
1590506336.271893,5.317151992249001,-9.692103185176213,4.859200193774979,0.4477777777777778,0.4222222222222222,-0.7122222222222222,-0.11178490901931351,0.001090830782496456,-0.3214246184796329
1590506336.281893,-0.09888007928642262,-15.352517343904857,9.057338949454905,0.4477777777777778,0.4222222222222222,-0.7122222222222222,-0.3644920787788877,0.09113680373087338,-3.9949596289749048
1590506336.291893,-14.075418882978724,-18.70159574468085,10.814621010638298,0.4477777777777778,0.4222222222222222,-0.7122222222222222,0.2608615924522293,0.6443567894236396,-5.164231543571892
1590506336.301893,-3.356109956781914,-7.825418882978722,5.533400515292552,0.4477777777777778,0.4222222222222222,-0.7122222222222222,0.3616301231222422,0.5664037751317429,-2.394047596662295
1590506336.311893,1.7841099180849533,2.408342606089224,11.48273707117781,0.44222222222222224,0.41,-0.7211111111111111,0.2426797168338515,-0.3632509055929519,0.4755130448729878
1590506336.321893,1.0652704125106511,0.9489699764422836,7.0466517969024105,0.44222222222222224,0.41,-0.7211111111111111,0.20072713428330416,-0.06542316530867372,0.5527475937070473
1590506336.331893,1.16539247441189,-2.1286762664494994,10.235980491958022,0.44222222222222224,0.41,-0.7211111111111111,-0.27267030424894173,0.07444927661686093,0.6055019784383547
1590506336.341893,0.6219787521516222,-2.4780136593310997,10.065193322104795,0.44222222222222224,0.41,-0.7211111111111111,-0.20577170302904757,-0.05511383713812387,0.6198978799666863
1590506336.351893,0.3067502474430881,-2.4511217419993403,9.035724183437809,0.44222222222222224,0.41,-0.7211111111111111,-0.03499079962355672,-0.026084927454748642,0.6378448556314134
1590506336.361893,0.09260543694040432,-2.5536539318559335,8.88352388283434,0.4264240345356904,0.4290894767878927,-0.7211111111111111,0.015616031728275942,-0.028187035600311935,0.6481964170563236
1590506336.371893,0.03981066362715299,-2.673270221209051,9.252512875717663,0.4155555555555556,0.44222222222222224,-0.7211111111111111,-0.049190652184214395,-0.07650272853537533,0.6490649689797661
1590506336.381893,3.159550990462216,-7.0860308143800435,7.670254585473221,0.4155555555555556,0.44222222222222224,-0.7211111111111111,-0.0017695788284504135,-0.05661987988715959,0.5726326996981884
1590506336.391893,-1.7025135730007337,-18.933466617754952,7.685640865737344,0.4155555555555556,0.44222222222222224,-0.7211111111111111,-0.17464300867275093,0.015550581115800807,-0.15578544158750507
1590506336.401893,0.6662612163509469,-3.733519441674975,8.455902293120637,0.4155555555555556,0.44222222222222224,-0.7211111111111111,0.2549585845868835,0.02328374498750411,-0.34217719419115644
1590506336.411893,0.0465714231325669,-1.9542317063884869,6.197958767989036,0.4155555555555556,0.44222222222222224,-0.7051674957909254,0.26329476372183847,-0.006107256969115925,-0.2360429111403692
1590506336.421893,-0.4813778436804932,-4.114092168416123,11.281337651695477,0.4155555555555556,0.44222222222222224,-0.6977777777777778,-0.35160063687787885,0.06762925253353111,0.14413093879455055
1590506336.4318929,2.3537270352539887,-7.229444528399647,7.8975669782604,0.4155555555555556,0.44222222222222224,-0.6977777777777778,-0.012373408887166034,-0.0883265378932999,0.42405392585549295
1590506336.4418929,-0.5257172772608532,-3.625611709591762,8.902656030741998,0.4155555555555556,0.44222222222222224,-0.6977777777777778,0.04886595040204251,0.004520232641951755,0.14156268784398263
1590506336.4518929,-0.7795931496919174,-3.9306809532439293,8.270132747372235,0.4155555555555556,0.44222222222222224,-0.6977777777777778,0.020108658916860297,0.018613263945096176,-0.08760796498767637
1590506336.4618928,0.22772547573218382,-4.632333997994491,9.004653127557312,0.43,0.43,-0.6966666666666667,-0.028534036625978143,-0.00016757059818481534,0.02819727353531335
1590506336.4718928,0.0875303419739284,-4.521144753979323,8.845120733970331,0.43,0.43,-0.6966666666666667,-0.00902238422594578,-0.001222254511700078,0.013431698746099674
1590506336.4818928,-0.04,-4.42,8.7,0.43,0.43,-0.6966666666666667,0.008726646259971648,-0.002181661564992912,0.0
1590506336.4918928,-0.04351101634683724,-4.395422885572139,8.703511016346837,0.43,0.43,-0.6966666666666667,0.007003180140931405,-0.002564654035890744,-0.00019149623544891588
1590506336.5018928,-0.0313338237096972,-4.3301658085080295,8.784498896653181,0.43,0.43,-0.6966666666666667,-0.001872579470344765,-0.003581574442137515,-0.001090830782496456
1590506336.5118928,-0.006959660212566551,-4.336959660212567,8.783919320425133,0.43941802317981304,0.43362231660762035,-0.7060846898464798,-0.005026622375862051,-0.0004275315366202288,-0.00037959057977917114
1590506336.5218928,-0.019076994976048606,-4.492154457296413,8.798615492464073,0.4444444444444444,0.4355555555555555,-0.7111111111111111,0.0038599019837232936,0.004212296786107065,-0.001040488667870203
1590506336.5318928,-0.07863757343244215,-4.314314350797266,8.663178995324301,0.4444444444444444,0.4355555555555555,-0.7111111111111111,0.009693628972569514,9.907845591887194e-05,0.002107352723053758
1590506336.5418928,-0.0536973293768546,-4.36260534124629,8.73233234421365,0.4444444444444444,0.4355555555555555,-0.7111111111111111,0.007665594834148685,0.0,0.001464367495553106
1590506336.5518928,-0.04,-4.332945884380964,8.776339346179892,0.4444444444444444,0.4355555555555555,-0.7111111111111111,-0.00037016925894973064,0.00207454618617854,0.0003993153871036094
1590506336.5618927,-0.04550949691991787,-4.366113963039014,8.796528490759753,0.44015928017339717,0.442289385124344,-0.7080502794889345,-0.006767294664512151,0.0020705065802262045,-0.0012019857672631636
1590506336.5718927,-0.04307951616101527,-4.42,8.747715645449137,0.43666666666666665,0.4477777777777778,-0.7055555555555556,-0.00646192321957151,-0.0011738922579036819,-0.0006718462047261536
1590506336.5818927,-0.03353668683812405,-4.400610060514372,8.700610060514371,0.43666666666666665,0.4477777777777778,-0.7055555555555556,0.0037113413275731344,0.0006384908165626003,0.0007050380953888781
1590506336.5918927,-0.03,-4.373246107266436,8.748638624567473,0.43666666666666665,0.4477777777777778,-0.7055555555555556,0.006899080067930115,-0.0014734708190901526,-0.0007367354095450763
1590506336.6018927,-0.036409202958093675,-4.331544782251438,8.81127362366475,0.43666666666666665,0.4477777777777778,-0.7055555555555556,0.003748442343796367,-0.0007833903894017276,-0.001090830782496456
1590506336.6118927,-0.031622582707367744,-4.343509669170529,8.798112913536839,0.4245659527995312,0.43753871219789386,-0.7353419281515814,-0.0014736762992556404,0.0,0.0016506726156899582
1590506336.6218927,-0.03,-4.370086606101311,8.763217858531585,0.4222222222222222,0.4355555555555555,-0.7411111111111112,-0.0014512919566198562,0.0007303696083730556,0.0007209223482468007
1590506336.6318927,-0.03,-4.4137757437070935,8.674004576659039,0.4222222222222222,0.4355555555555555,-0.7411111111111112,0.001672440787809212,0.001090830782496456,0.0
1590506336.6418927,-0.06734807725683684,-4.317292787543698,8.716022115885256,0.4222222222222222,0.4355555555555555,-0.7411111111111112,0.009311237224285262,0.003127852399437127,0.0
1590506336.6518927,-0.06274984768199693,-4.353500913908018,8.77075106622602,0.4222222222222222,0.4355555555555555,-0.7411111111111112,0.00428139451408206,0.00010901661698305707,0.0015817378652531555
1590506336.6618927,-0.07676175328430968,-4.35882549781046,8.81793625547385,0.43712155847494194,0.43245152716957225,-0.7330406373075546,-0.0020846602736055027,-0.001090830782496456,0.0003532379198793055
1590506336.6718926,-0.05073418301152408,-4.389265816988476,8.792881019613828,0.4488888888888889,0.43,-0.7266666666666667,-0.00802409562473639,-0.00023418354507841947,-0.0019474780199144925
1590506336.6818926,-0.03103660192018165,-4.364146407680727,8.690366019201816,0.4488888888888889,0.43,-0.7266666666666667,-0.003837870989353908,-0.000977755054123548,-0.00022615145674581604
1590506336.6918926,-0.03663356591735944,-4.3799006977520785,8.713167829586798,0.4488888888888889,0.43,-0.7266666666666667,0.0025163859728106457,-0.00253805036257146,0.0
1590506336.7018926,-0.0458376453711768,-4.354974127772939,8.776701162969415,0.4488888888888889,0.43,-0.7266666666666667,0.007364518892935561,-0.0007253390402183263,0.0006367883268177605
1590506336.7118926,-0.04160463976474432,-4.321604639764745,8.801604639764745,0.44515761767321965,0.4234702753725789,-0.7266666666666667,0.0004845206226844253,0.00017503904502009777,0.0029224142574491726
1590506336.7218926,-0.05452833519684576,-4.349056670393692,8.741886659212618,0.4444444444444444,0.4222222222222222,-0.7266666666666667,-0.003468024070168365,0.003169591050229213,0.0008952990598174587
1590506336.7318926,-0.0448116099281161,-4.375188390071884,8.68202902482029,0.4444444444444444,0.4222222222222222,-0.7266666666666667,-0.004363323129985824,0.0018781286159396458,0.0
1590506336.7418926,-0.04678232338767559,-4.386782323387675,8.68356464677535,0.4444444444444444,0.4222222222222222,-0.7266666666666667,-0.001403976278736954,0.004050177633745326,0.0007398367128122175
1590506336.7518926,-0.05,-4.365622054556007,8.732661404526988,0.4444444444444444,0.4222222222222222,-0.7266666666666667,0.0033240266630408543,0.002794932582049596,-0.00023877988271988585
1590506336.7618926,-0.03386174552696669,-4.390345636182584,8.800345636182584,0.4166507839631093,0.4329810585375777,-0.7078387031147945,0.002813538199240401,0.00021062554474916308,0.0006695796929981298
1590506336.7718925,-0.03604742750391302,-4.375810289984348,8.797905144992173,0.41,0.4355555555555555,-0.7033333333333334,-0.003095714495954312,0.0,-0.001547857247977156
1590506336.7818925,-0.046789024569663086,-4.387156098278653,8.722109754303368,0.41,0.4355555555555555,-0.7033333333333334,-0.005804416996607411,0.0,0.00043034614436725715
1590506336.7918925,-0.029507003146788426,-4.372676004195719,8.710492996853212,0.41,0.4355555555555555,-0.7033333333333334,-0.0017284219469679142,-0.0014902927862057462,0.002181661564992912
1590506336.8018925,-0.03242857142857143,-4.372428571428571,8.769714285714286,0.41,0.4355555555555555,-0.7033333333333334,0.004745113903859583,-0.0008259147353187452,0.00014804132048166184
1590506336.8118925,-0.05098291508670274,-4.352542712283243,8.821965830173406,0.41427113364482887,0.4422673369974294,-0.7124857625722523,0.006437765291663184,0.0011980501858120081,0.0007062444962215562
1590506336.8218925,-0.037444368057314464,-4.3525556319426855,8.82496291203821,0.4177777777777778,0.4477777777777778,-0.72,-0.001107013458648845,0.002181661564992912,0.0013615156436015212
1590506336.8318925,-0.05508580008580008,-4.368361933361934,8.677847132847134,0.4177777777777778,0.4477777777777778,-0.72,-0.003272492347489368,0.00035737070251671394,0.002002976213734555
1590506336.8418925,-0.06617027640445484,-4.38234055280891,8.68702165842673,0.4177777777777778,0.4477777777777778,-0.72,-0.0025994196036402783,0.0006730727438490897,0.0001624433334456426
1590506336.8518925,-0.07,-4.384775493293283,8.725673520120152,0.4177777777777778,0.4477777777777778,-0.72,-0.0004719457432790612,0.001090830782496456,0.0006188850392173947
1590506336.8618925,-0.042317568761411156,-4.366158784380706,8.809206078096473,0.4262362984340133,0.43931925712154224,-0.713848348613647,0.0033555943922010216,-0.0004190116239732545,-8.310204471165348e-05
1590506336.8718925,-0.03650577515135236,-4.366505775151353,8.820482674545943,0.43,0.4355555555555555,-0.7111111111111111,0.002234313190257117,0.001038179157232251,-0.001090830782496456
1590506336.8818924,-0.03327187206020696,-4.376728127939793,8.735990592662276,0.43,0.4355555555555555,-0.7111111111111111,-0.0018448688436238272,-2.011315459730066e-05,0.0003770190305636856
1590506336.8918924,-0.03,-4.38,8.693755375159943,0.43,0.4355555555555555,-0.7111111111111111,-0.0019101265473543021,0.0009527179177061427,0.001090830782496456
1590506336.9018924,-0.03452935413369508,-4.37094129173261,8.739822895470645,0.43,0.4355555555555555,-0.7111111111111111,0.00039139689166219223,0.00119350978222048,0.00059675489111024
1590506336.9118924,-0.04,-4.370503743489583,8.8,0.43,0.43905680338541664,-0.7035250741464121,0.002754551901487124,0.0005728903364942121,0.0005728903364942121
1590506336.9218924,-0.04525781969120687,-4.358968721235172,8.821031278764828,0.43,0.44222222222222224,-0.6966666666666667,0.003272492347489368,0.0022379090960933474,-0.0006297866878988813
1590506336.9318924,-0.04498509712562952,-4.365074514371853,8.764776456884443,0.43,0.44222222222222224,-0.6966666666666667,-9.753908466599622e-06,0.0021784102621707118,-0.0005405384370149281
1590506336.9418924,-0.03510411267404243,-4.380208225348085,8.70958354930383,0.43,0.44222222222222224,-0.6966666666666667,-0.0038065508077682456,0.0016248892427753337,0.0005567723222175783
1590506336.9518924,-0.03823399151134896,-4.374116995755674,8.734116995755675,0.43,0.44222222222222224,-0.6966666666666667,-0.0034651339896464278,0.0017325669948232139,0.00044909457016969795
1590506336.9618924,-0.05,-4.38,8.758264054275822,0.42441931674905437,0.44222222222222224,-0.7032620195996024,-0.0006874371186989595,0.0005927559670651384,9.468115163382084e-05
1590506336.9718924,-0.04396630496858938,-4.373966304968589,8.78603369503141,0.4177777777777778,0.44222222222222224,-0.7111111111111111,0.003065352864234044,-0.0013163480544917255,-0.0004326567552505932
1590506336.9818923,-0.04582534803832942,-4.364174651961671,8.743397215693365,0.4177777777777778,0.44222222222222224,-0.7111111111111111,0.001186088650503288,-0.0002753208773033902,0.0
1590506336.9918923,-0.05,-4.353234650303226,8.723530699393548,0.4177777777777778,0.44222222222222224,-0.7111111111111111,-0.003304786293574687,-0.00038513955822236444,0.0
1590506337.0018923,-0.03155410325833256,-4.368445896741667,8.73,0.4177777777777778,0.44222222222222224,-0.7111111111111111,-0.004363323129985824,0.00025059268260767243,0.0
1590506337.0118923,-0.040570298176203806,-4.373143233941265,8.784854128469878,0.4360624872677367,0.43765104484973244,-0.7073017966340364,0.0008723769096854002,0.0018387879310209163,-0.0007479571485244605
1590506337.0218923,-0.03738565294959516,-4.37,8.816307173525203,0.4444444444444444,0.4355555555555555,-0.7055555555555556,0.0025844864443056188,0.002181661564992912,-0.00040282487931270704
1590506337.0318923,-0.03654830390795477,-4.350355088276135,8.747968657012498,0.4444444444444444,0.4355555555555555,-0.7055555555555556,0.0036102798601806924,0.0007530432698051313,0.0
1590506337.0418923,-0.04707531022678648,-4.36122593068036,8.738301240907147,0.4444444444444444,0.4355555555555555,-0.7055555555555556,0.0020479332726586223,0.0,0.0007717966191090671
1590506337.0518923,-0.05,-4.37,8.75,0.4444444444444444,0.4355555555555555,-0.7055555555555556,-0.0018628008833353963,0.001181452666332741,-9.062188383628512e-05
1590506337.0618923,-0.03791421603787118,-4.382085783962129,8.756042891981064,0.43571582269401804,0.43958415020959846,-0.7089127177672581,-0.003044968612336614,0.00020412978851909718,-0.0017500080413210607
1590506337.0718923,-0.035237748254592284,-4.3742867552362235,8.780950993018369,0.43,0.44222222222222224,-0.7111111111111111,0.0018177863539605332,-0.001090830782496456,0.00010373724583762805
1590506337.0818923,-0.04527982298859345,-4.36,8.757761416091252,0.43,0.44222222222222224,-0.7111111111111111,0.004302275224064247,-0.002242709470914489,0.0016057222207838955
1590506337.0918922,-0.045299709112873746,-4.364700290887127,8.72,0.43,0.44222222222222224,-0.7111111111111111,0.001734325751579899,-0.0012216035529434093,0.0005781085838599663
1590506337.1018922,-0.042882707774798925,-4.367117292225201,8.7257654155496,0.43,0.44222222222222224,-0.7111111111111111,-0.0009433639133077595,0.0004619215069579497,0.0
1590506337.1118922,-0.04447910833799963,-4.376562674986001,8.767604458310002,0.43368059444133356,0.4385416277808886,-0.7196991648075561,-0.0026702564903155653,-0.0004885949253226533,-0.0006022358571738027
1590506337.1218922,-0.04644017006454257,-4.377119659870915,8.770679489806373,0.43666666666666665,0.4355555555555555,-0.7266666666666667,-7.412083971834607e-05,0.001405027150183044,0.00101670994277811
1590506337.1318922,-0.05,-4.374932547709085,8.730404713745493,0.43666666666666665,0.4355555555555555,-0.7266666666666667,0.001628888270216632,0.002181661564992912,0.0005674891018323837
1590506337.1418922,-0.04474530831099196,-4.364235924932975,8.72627345844504,0.43666666666666665,0.4355555555555555,-0.7266666666666667,0.002181661564992912,0.0016084636203030852,0.0006287630515730241
1590506337.1518922,-0.044618218660771855,-4.354618218660772,8.759236437321544,0.43666666666666665,0.4355555555555555,-0.7266666666666667,0.0006703530423520635,0.0005870612749495065,0.0006703530423520635
1590506337.1618922,-0.05270689994102615,-4.365413799882052,8.77,0.43486206670598254,0.4340517222549854,-0.7248620667059825,-0.001090830782496456,0.0,-0.0007955538044155399
1590506337.1718922,-0.04539337301752487,-4.384868875660825,8.77973775132165,0.43,0.43,-0.72,-0.000559718837798883,0.0,0.0
1590506337.1818922,-0.03561145008438271,-4.384388549915617,8.739496949240555,0.43,0.43,-0.72,0.0006121142486486993,-0.0006121142486486993,0.0
1590506337.1918921,-0.04677367844034511,-4.386773678440345,8.733868392201725,0.43,0.43,-0.72,0.0025686181731886617,-0.001090830782496456,0.0014777873906922053
1590506337.2018921,-0.05,-4.359393933952269,8.76020202201591,0.43,0.43,-0.72,0.001046756415757055,-0.001090830782496456,0.0027380955479259905
1590506337.2118921,-0.05296801619433199,-4.338904048582996,8.775936032388664,0.43,0.43164889788573996,-0.723957354925776,-0.0017383514680415183,-0.001090830782496456,0.002301211319171775
1590506337.221892,-0.055467698307856826,-4.356978465538571,8.782446163846428,0.43,0.4355555555555555,-0.7333333333333333,-0.0029428940673993315,-0.0005964333623614011,-0.00016479914004501826
1590506337.231892,-0.03058844911147011,-4.34117689822294,8.73646930533118,0.43,0.4355555555555555,-0.7333333333333333,-0.0009624511015515984,0.0022458514054653407,-0.0009624511015515984
1590506337.241892,-0.04,-4.36,8.705802164945599,0.43,0.4355555555555555,-0.7333333333333333,0.0022166626136048938,0.0015837446008267113,0.0005279148669422372
1590506337.251892,-0.04,-4.355145754370647,8.74456273688806,0.43,0.4355555555555555,-0.7333333333333333,0.0022134602358298795,0.0,0.0
1590506337.261892,-0.043247277373298997,-4.356494554746598,8.776236386866495,0.42603110543263456,0.4337515125703894,-0.7243131184075028,0.0003823847588767009,0.00035422301180987754,0.0
1590506337.271892,-0.046576790592706974,-4.373423209407293,8.799730371778121,0.4177777777777778,0.43,-0.7055555555555556,-0.001090830782496456,0.0007174165628557877,0.0007468284392813365
1590506337.281892,-0.044359168502202645,-4.3756408314977975,8.740767483480175,0.4177777777777778,0.43,-0.7055555555555556,-0.001090830782496456,-0.0004755115188291613,0.002181661564992912
1590506337.291892,-0.04738349514563107,-4.37,8.71354854368932,0.4177777777777778,0.43,-0.7055555555555556,-0.0008054143787267522,-0.00023458157118734458,0.0018962451612232081
1590506337.301892,-0.04,-4.37,8.78,0.4177777777777778,0.43,-0.7055555555555556,0.0006481283900211643,0.0015335331749717477,0.0007667665874858739
1590506337.311892,-0.04,-4.37,8.78,0.4214256740354422,0.43167195245142953,-0.7055555555555556,0.0018832187503018665,0.00029844281469104537,0.00014922140734552268
1590506337.321892,-0.03218709417401818,-4.377812905825982,8.78,0.4444444444444444,0.44222222222222224,-0.7055555555555556,-0.0012783837263590301,0.0009032778386338818,0.0006647028737101126
1590506337.331892,-0.030093201754385967,-4.379906798245614,8.72953399122807,0.4444444444444444,0.44222222222222224,-0.7055555555555556,-0.0010704973139630792,1.0166734266688505e-05,0.0011009975167631445
1590506337.341892,-0.046467072912500296,-4.37,8.712335364562502,0.4444444444444444,0.44222222222222224,-0.7055555555555556,0.001796279003056889,-0.0010255138791848432,0.0007707651238720459
1590506337.351892,-0.060039146968906124,-4.375019573484453,8.760117440906718,0.4444444444444444,0.44222222222222224,-0.7055555555555556,0.0027292120921773516,-0.0016341110378084724,0.0
1590506337.361892,-0.06318960504539965,-4.3765948025227,8.8002155924319,0.4444444444444444,0.44222222222222224,-0.7074473319318335,0.0029010429246175374,-0.0007193813596246253,0.0
1590506337.371892,-0.041192277773849095,-4.365596138886925,8.797980694434623,0.4444444444444444,0.44222222222222224,-0.7111111111111111,-0.00022027206699799405,-0.00048038672639818115,-0.0009607734527963623
1590506337.381892,-0.03,-4.36,8.716286706734614,0.4444444444444444,0.44222222222222224,-0.7111111111111111,-0.003272492347489368,-0.0023928777541218334,-0.00022859110755484567
1590506337.391892,-0.04127793377114613,-4.3769169006567195,8.696916900656719,0.4444444444444444,0.44222222222222224,-0.7111111111111111,-0.0014271447494109877,0.00041820284866739277,0.0004757149164703292
1590506337.401892,-0.05,-4.371643737858304,8.751301589818818,0.4444444444444444,0.44222222222222224,-0.7111111111111111,0.0,0.0022713135577025483,0.0005005893948934099
1590506337.411892,-0.04132800473653049,-4.363007992895204,8.804335997631735,0.4444444444444444,0.43692266956121306,-0.7087022235379252,0.0014189519068584008,0.0015638147514492563,0.001090830782496456
1590506337.421892,-0.03923893231803637,-4.375380533840982,8.800761067681963,0.4444444444444444,0.43,-0.7055555555555556,0.0017607755820020562,0.002181661564992912,8.30196055049148e-05
1590506337.431892,-0.05,-4.37299625833106,8.760037416689402,0.4444444444444444,0.43,-0.7055555555555556,-0.0003268410819831432,0.0012011383190434822,-0.0007639897005133128
1590506337.441892,-0.05495399975246504,-4.377523000123768,8.707338999133627,0.4444444444444444,0.43,-0.7055555555555556,-0.001090830782496456,-0.001090830782496456,-0.0002701987713234342
1590506337.451892,-0.05686464624078896,-4.36562154874693,8.77313535375921,0.4444444444444444,0.43,-0.7055555555555556,0.0012972439207582008,-0.001090830782496456,-0.0006132158418455246
1590506337.461892,-0.04740402252614642,-4.363702011263073,8.793702011263074,0.4362177527487262,0.434524680432645,-0.7158389201752033,0.003151842777113171,-0.0006870039982055716,-0.00040382678429088433
1590506337.4718919,-0.0545475372279496,-4.380904925544101,8.761832760595647,0.4222222222222222,0.44222222222222224,-0.7333333333333333,-0.0012882549103709576,0.0,0.0012882549103709576
1590506337.4818919,-0.038950265755504934,-4.39,8.696850797266515,0.4222222222222222,0.44222222222222224,-0.7333333333333333,-0.0020671533222593242,-0.0006026695126150218,0.0008618142970292808
1590506337.4918919,-0.03,-4.3850615091675404,8.694692454162299,0.4222222222222222,0.44222222222222224,-0.7333333333333333,-0.0016295365644088174,-0.001090830782496456,-0.0005521250005840944
1590506337.5018919,-0.037537719515211475,-4.376231140242394,8.73884429878803,0.4222222222222222,0.44222222222222224,-0.7333333333333333,-0.0005371862695895235,-0.001090830782496456,0.0004111188238508471
1590506337.5118918,-0.04215451602098917,-4.37,8.780460645305348,0.4280336918363043,0.4390259139344771,-0.7275218637192512,0.002181661564992912,-0.0005202910873039365,0.0008055609349001962
1590506337.5218918,-0.02999737010181463,-4.366667543299395,8.81,0.4444444444444444,0.43,-0.7111111111111111,0.002181661564992912,0.0018178600525677311,0.0003635146350356375
1590506337.5318918,-0.04453210096946962,-4.365467899030531,8.744385211633634,0.4444444444444444,0.43,-0.7111111111111111,0.0015852063071844047,0.0020795818318723536,0.0004943755246879488
1590506337.5418918,-0.04497002724795641,-4.37,8.729760217983651,0.4444444444444444,0.43,-0.7111111111111111,0.001090830782496456,-0.0010777527022703406,-0.0005421458711916991
1590506337.5518918,-0.05,-4.37,8.77,0.4444444444444444,0.43,-0.7111111111111111,0.00021903834538589562,-0.0015289074732682474,-0.0006549345639411758
1590506337.5618918,-0.04640801553672316,-4.366408015536724,8.784367937853107,0.4444444444444444,0.4343902032328939,-0.7115102204959196,0.0004764681066200976,0.0006990060602173175,-0.0003918247222791384
1590506337.5718918,-0.04,-4.355194108815328,8.819611782369343,0.4444444444444444,0.44222222222222224,-0.7122222222222222,0.0016997681350189647,-0.0010484828083136021,-4.234797418285383e-05
1590506337.5818918,-0.044052048347847074,-4.358104096695694,8.77327132313014,0.4444444444444444,0.44222222222222224,-0.7122222222222222,-0.0004420099069995494,-0.0026236714719924613,0.0006488208754969066
1590506337.5918918,-0.04645392511038477,-4.366453925110385,8.700638224668845,0.4444444444444444,0.44222222222222224,-0.7122222222222222,-0.001864464311822459,-0.0017252252888373622,0.0
1590506337.6018918,-0.03708108026916607,-4.362918919730834,8.728756759192501,0.4444444444444444,0.44222222222222224,-0.7122222222222222,-0.0035908970968923605,0.0007724260330934635,0.00031840474940299246
1590506337.6118917,-0.030781062244652727,-4.369218937755347,8.747656813266042,0.4444444444444444,0.44222222222222224,-0.7122222222222222,-0.004278122456034527,8.520067395129745e-05,0.0010056301085451585
