time,acc_x,acc_y,acc_z,mag_x,mag_y,mag_z,gyr_x,gyr_y,gyr_z
1590504939.673208,0.02,-4.56,8.55,0.56,0.26222222222222225,-0.6644444444444444,-0.001090830782496456,0.0,-0.002181661564992912
1590504939.683208,0.01240383222254419,-4.544807664445088,8.610769342219648,0.56,0.26222222222222225,-0.6644444444444444,-0.0019194441465621047,0.0016572267281312972,-0.003010274929058561
1590504939.693208,0.01,-4.548226685796269,8.64645337159254,0.56,0.26222222222222225,-0.6644444444444444,-0.00038687714409343455,0.0012842693545431732,-0.0014777079265898903
1590504939.703208,0.00208310273836141,-4.55,8.689584486308192,0.56,0.2587036012170495,-0.6697223759522035,0.0017271990469714543,0.001090830782496456,-0.001090830782496456
1590504939.713208,0.006787782680639824,-4.57,8.72036334804192,0.56,0.2577777777777778,-0.6711111111111111,0.001831263011790279,-0.0006236327115596121,-0.001324429817964878
1590504939.723208,-0.01490088940981798,-4.57,8.655297331770546,0.56,0.2577777777777778,-0.6711111111111111,-0.0005346041029840347,0.002530856774806139,-0.002901674561147754
1590504939.733208,0.0,-4.557425452483342,8.660858182505553,0.56,0.2577777777777778,-0.6711111111111111,-0.0020880483755872335,0.0002808395682170357,0.0008099912142794203
1590504939.743208,0.0,-4.537604555550305,8.667465148149898,0.56,0.2577777777777778,-0.6711111111111111,-0.001367340225212348,0.0024429640193416925,-0.0013521332368452365
1590504939.753208,0.0009543419874664278,-4.54,8.649363772008357,0.5722222222222222,0.2577777777777778,-0.6788888888888889,-0.005350051350786557,0.00320309063969222,-0.00320309063969222
1590504939.763208,0.025987466427931958,-4.54,8.63267502238138,0.5722222222222222,0.2577777777777778,-0.6788888888888889,-0.00261936107861414,0.0013826304582439412,-0.0013826304582439412
1590504939.773208,0.01813205798078544,-4.5509339710096075,8.564669855048036,0.5722222222222222,0.2577777777777778,-0.6788888888888889,-0.0009889503497725644,0.004639110450691147,0.0008870699170486728
1590504939.783208,0.0004584527220630359,-4.559770773638968,8.608853868194842,0.5722222222222222,0.2577777777777778,-0.6788888888888889,-2.5004717077282664e-05,-0.003072454610871107,-0.0010408213483418906
1590504939.793208,0.0,-4.544533994548758,8.679597024530587,0.5722222222222222,0.2577777777777778,-0.6788888888888889,-0.0016870794828472407,0.0009452063596287336,-0.00024729104107283563
1590504939.8032079,-0.008580499636936672,-4.54,8.741419500363063,0.56,0.26222222222222225,-0.6855555555555556,0.00023226520376915595,-0.002181661564992912,0.0007811438441375814
1590504939.8132079,0.004379470700016996,-4.54,8.754379470700018,0.56,0.26222222222222225,-0.6855555555555556,0.0023528353913376604,-0.002181661564992912,-0.002046283072620424
1590504939.8232079,0.01,-4.54,8.648177324440958,0.56,0.26222222222222225,-0.6855555555555556,0.00022300193046641964,0.0008678288520300365,-0.002255995541815052
1590504939.8332078,0.03865890583566848,-4.56,8.66,0.56,0.26222222222222225,-0.6855555555555556,-0.004070741770649987,0.002181661564992912,4.876355988930615e-05
1590504939.8432078,0.014994828202283116,-4.56,8.66,0.56,0.26222222222222225,-0.6855555555555556,0.0010919590937265421,0.002181661564992912,0.0009092137039520608
1590504939.8532078,8.479908908398844e-05,-4.540169598178168,8.66,0.5644067559604071,0.2578154662618151,-0.6789454216149449,0.0011000809281665035,1.850029134009513e-05,-0.003235491764809178
1590504939.8632078,0.0012920919757346799,-4.5612920919757345,8.627415816048531,0.5644444444444444,0.2577777777777778,-0.6788888888888889,0.001090830782496456,-0.0013727215226860664,-0.004292850444938421
1590504939.8732078,0.0165280249918268,-4.576528024991827,8.596943950016346,0.5644444444444444,0.2577777777777778,-0.6788888888888889,0.001090830782496456,-0.004696686469487538,-0.003461859208238054
1590504939.8832078,0.02,-4.550289899391456,8.659323568086602,0.5644444444444444,0.2577777777777778,-0.6788888888888889,0.002171120525658675,-0.008695023141968936,-0.002192202604327149
1590504939.8932078,0.026587801481293916,-4.556587801481293,8.679763404443882,0.5644444444444444,0.2577777777777778,-0.6788888888888889,0.003618896893947143,-0.005852175602063185,-0.0014630439005157963
1590504939.9032078,0.022094791141449792,-4.5441895822828995,8.753241670868402,0.5433638874883105,0.2577777777777778,-0.6560516188530772,0.004363323129985824,-0.0026386740969917763,-0.0036778043319875275
1590504939.9132078,0.010207680145778063,-4.549792319854221,8.740623040437335,0.5377777777777778,0.2577777777777778,-0.65,0.007567852308696773,-0.006454367136607509,-0.004363323129985824
1590504939.9232078,-0.0004915834258231595,-4.568525249722531,8.63147475027747,0.5377777777777778,0.2577777777777778,-0.65,0.007743062344085785,-0.00545415391248228,-0.004363323129985824
1590504939.9332078,-0.009860568594816752,-4.540278862810367,8.659442274379266,0.5377777777777778,0.2577777777777778,-0.65,0.009832686649350168,-0.005545411553774653,-0.004408951950632011
1590504939.9432077,-0.0027373390849495605,-4.5545253218301,8.630949356339798,0.5377777777777778,0.2577777777777778,-0.65,0.010609710451365193,-0.010207554365864818,-0.006740023356677094
1590504939.9532077,0.0061949768512965684,-4.56,8.626194976851297,0.542596093106564,0.2605311008227985,-0.6678965997926345,0.013611376403463465,-0.014026440041335195,-0.004932746898976286
1590504939.9632077,0.0009935078389391536,-4.541987015677878,8.657019476483184,0.5455555555555556,0.26222222222222225,-0.6788888888888889,0.016254086844110203,-0.014289175065790562,-0.002290036458329548
1590504939.9732077,0.03372774168483305,-4.523136129157583,8.575680645787918,0.5455555555555556,0.26222222222222225,-0.6788888888888889,0.0191218061514897,-0.019699489000539642,-0.007700350393078629
1590504939.9832077,0.010292152108344669,-4.5298539239458275,8.660146076054172,0.5455555555555556,0.26222222222222225,-0.6788888888888889,0.02184848450122448,-0.02722296628546836,-0.006576853546274096
1590504939.9932077,0.026828907682299362,-4.52158554615885,8.66841445384115,0.5455555555555556,0.26222222222222225,-0.6788888888888889,0.023652364703493443,-0.024517145982064913,-0.008380733748543059
1590504940.0032077,0.04705102733697156,-4.537051027336972,8.738204109347887,0.557870186410035,0.26222222222222225,-0.660890582255419,0.02399827721492203,-0.021208309391068457,-0.006866667710735933
1590504940.0132077,0.06959272332337768,-4.510610915014933,8.642240021721424,0.56,0.26222222222222225,-0.6577777777777778,0.02506689450062586,-0.013245463867505839,-0.0012018982664595756
1590504940.0232077,0.08359908883826879,-4.51,8.585603644646925,0.56,0.26222222222222225,-0.6577777777777778,0.0176719556380747,-0.007897962738416822,-0.0018325460184308343
1590504940.0332077,0.05874229090153143,-4.517814427274617,8.622515418196938,0.56,0.26222222222222225,-0.6577777777777778,0.009918691263087793,-0.00033962322124291965,0.00037560378062676805
1590504940.0432076,0.05,-4.526623605947956,8.692988847583644,0.56,0.26222222222222225,-0.6577777777777778,0.008004122934056012,0.006871017389821543,-0.0003542158693348157
1590504940.0532076,0.05,-4.547450462351387,8.72,0.5532137090855717,0.26222222222222225,-0.6635945985615734,0.003828715177137495,0.009817477042468105,-0.003946156007749729
1590504940.0632076,0.028163705511721635,-4.542721235170574,8.72,0.5522222222222222,0.26222222222222225,-0.6644444444444444,0.0008905221271421943,0.005847526675222814,-0.00039337276274053427
1590504940.0732076,0.02,-4.531329201535267,8.667975209211603,0.5522222222222222,0.26222222222222225,-0.6644444444444444,0.0,0.0015258109677397259,0.00014499339508109008
1590504940.0832076,0.012580308842333039,-4.515160617684666,8.667419691157667,0.5522222222222222,0.26222222222222225,-0.6644444444444444,-0.0016187255022799773,0.001090830782496456,0.002428088253419966
1590504940.0932076,0.01646714378659727,-4.51,8.67,0.5522222222222222,0.26222222222222225,-0.6644444444444444,-0.002887117516718011,0.004618110541121951,0.000450668540588972
1590504940.1032076,0.036464426380625165,-4.52097628425375,8.675488142126875,0.5522222222222222,0.26222222222222225,-0.6644444444444444,-0.003871155784560456,0.005946321257907648,-0.001090830782496456
1590504940.1132076,0.05806282101935994,-4.53806282101936,8.66387435796128,0.5522222222222222,0.26222222222222225,-0.6644444444444444,-0.007001875138489006,0.008092705920985462,0.0006682038898389987
1590504940.1232076,0.06734148613561136,-4.532658513864389,8.630634055457554,0.5522222222222222,0.26222222222222225,-0.6644444444444444,-0.009237479290674358,0.015133301512768307,0.0018916626890960384
1590504940.1332076,0.07,-4.53,8.681427494886425,0.5522222222222222,0.26222222222222225,-0.6644444444444444,-0.011492652100311999,0.01829088004886524,-0.002006276079616827
1590504940.1432076,0.10706006674082313,-4.5225879866518355,8.7,0.5522222222222222,0.26222222222222225,-0.6644444444444444,-0.013616189071551533,0.019352648534485012,-0.0016554418833988483
1590504940.1532075,0.05507202913297274,-4.560579981791892,8.80550795265892,0.5801773207899701,0.2586151127296096,-0.6590337802055255,-0.02391929669663706,0.02494686127994519,-0.00020551291666162544
1590504940.1632075,-0.15547739559327145,-4.524889831786168,8.702187856727477,0.5866666666666667,0.2577777777777778,-0.6577777777777778,-0.014698174758625383,0.020439056769270162,0.002460378004562049
1590504940.1732075,-0.0629868863740633,-4.608860108579293,8.787936611102616,0.5866666666666667,0.2577777777777778,-0.6577777777777778,-0.005199149905005044,0.006491456582525219,0.00390684322748487
1590504940.1832075,0.21638262563584548,-4.578723619178181,8.749787510371947,0.5866666666666667,0.2577777777777778,-0.6577777777777778,0.010745818546818602,-0.010072761117869615,-0.0003713366017401992
1590504940.1932075,0.27479436243241606,-4.54,8.689588724864832,0.5866666666666667,0.2577777777777778,-0.6577777777777778,0.019246559745818796,-0.014225663330205588,-0.002181661564992912
1590504940.2032075,0.19457630969148987,-4.530572038711436,8.665858058067155,0.5636205390723997,0.25987288028634753,-0.6577777777777778,0.022907446432425576,-0.018356924071875478,-0.00475273916243049
1590504940.2132075,-0.06544668699108554,-4.490758885501485,8.56812487940416,0.5377777777777778,0.26222222222222225,-0.6577777777777778,0.019079793495287642,-0.02054073133754981,-0.004446104696526914
1590504940.2232075,-0.05408895114690948,-4.491459639292593,8.595838557170373,0.5377777777777778,0.26222222222222225,-0.6577777777777778,0.003877749672576876,-0.004029064003848757,0.0032803999633876963
1590504940.2332075,0.05592260076548694,-4.507988942966498,8.653966828899495,0.5377777777777778,0.26222222222222225,-0.6577777777777778,-0.0037052062547358712,0.008281871000218216,-0.002388972504235966
1590504940.2432075,0.06338929425955588,-4.54305352870222,8.745939174625773,0.5377777777777778,0.26222222222222225,-0.6577777777777778,-0.009411136050977561,0.01198082543717885,-0.0007577424721345832
1590504940.2532074,-0.020519417278740418,-4.494577973461023,8.724577973461024,0.5450468918376641,0.26222222222222225,-0.653863639437839,-0.013097051844415102,0.01144309953452634,0.0005418741640194118
1590504940.2632074,0.03259522762700348,-4.4858295695271595,8.625106519045525,0.5522222222222222,0.26222222222222225,-0.65,-0.01113576952176635,0.010578734705139998,0.006090061301375154
1590504940.2732074,-0.10247648902821316,-4.579291536050157,8.563805642633229,0.5522222222222222,0.26222222222222225,-0.65,-0.003098780110025983,-0.0025290860399196837,0.00032827509441899633
1590504940.2832074,-0.08928491675557651,-4.513570453812371,8.392855370567947,0.5522222222222222,0.26222222222222225,-0.65,0.0023375331992731667,-0.011687530667633169,0.0021037934122191165
1590504940.2932074,0.002990736129096533,-4.430280306803467,8.422990736129098,0.5522222222222222,0.26222222222222225,-0.65,0.008339254098824484,-0.007299384531288766,0.0025486692401557797
1590504940.3032074,0.1517066335467023,-4.6234132670934045,8.882889398426801,0.5522222222222222,0.26842814630815015,-0.6615252875881518,-0.0038881320763961592,-0.005233701947712925,0.0013112827472658108
1590504940.3132074,0.12282787261380324,-4.53298595814978,8.663302129221732,0.5522222222222222,0.27,-0.6644444444444444,-0.0005083735970555251,-0.002781363207324905,0.0001999005474439976
1590504940.3232074,0.09883558828848082,-4.516746617567279,8.629075440990317,0.5522222222222222,0.27,-0.6644444444444444,-0.00012701761384245006,0.002080807822193259,0.0
1590504940.3332074,-0.09080009928843294,-4.517531027635281,8.585186165811683,0.5522222222222222,0.27,-0.6644444444444444,-0.0024509846706498232,0.008854538632865696,-0.0020402308322300506
1590504940.3432074,-0.10397789570632868,-4.57721547300557,8.765651945090127,0.5522222222222222,0.27,-0.6644444444444444,-0.005891089026579912,0.011955746496600778,-0.0022250536758531498
1590504940.3532073,-0.0222317280891917,-4.585775007742336,8.822265407246826,0.5486541670967964,0.26807873954784767,-0.662797649771171,-0.006840453221810871,0.010395407906870647,-0.0016297430791138209
1590504940.3632073,-0.019296597633136098,-4.406636094674556,8.262477071005916,0.5377777777777778,0.26222222222222225,-0.6577777777777778,0.002992281156098082,-8.673395644849839e-05,-0.003272492347489368
1590504940.3732073,0.0759895429899303,-4.526250968241673,8.496564678543765,0.5377777777777778,0.26222222222222225,-0.6577777777777778,0.002602024318123808,-0.002835019351643094,-0.0010851273682579965
1590504940.3832073,0.11271420217378153,-4.557875219293823,8.611768264402816,0.5377777777777778,0.26222222222222225,-0.6577777777777778,0.0016089594566854023,-0.0027640861472546362,0.00043438781820773946
1590504940.3932073,0.12273464423271843,-4.51998378268802,8.631763632677885,0.5377777777777778,0.26222222222222225,-0.6577777777777778,0.005752457323304846,-0.001487978985489287,-0.001090830782496456
1590504940.4032073,0.05756125171828253,-4.601829061211288,8.900792027169079,0.556050016621295,0.26222222222222225,-0.6577777777777778,-0.002514194277050132,0.0,-0.001090830782496456
1590504940.4132073,-0.03382121419071925,-4.535812875166242,8.781442795010962,0.5722222222222222,0.26222222222222225,-0.6577777777777778,-0.005434196582828756,0.0014677459297642908,-0.00035695781761431054
1590504940.4232073,-0.06,-4.5273078598072445,8.717307859807244,0.5722222222222222,0.26222222222222225,-0.6577777777777778,-0.002328495034645598,0.0015033855332128366,-0.0013565520635601504
1590504940.4332073,0.01350844106463879,-4.543317414448669,8.726634828897339,0.5722222222222222,0.26222222222222225,-0.6577777777777778,0.0003670832227150812,0.002548744787707994,0.001463123448035931
1590504940.4432073,0.0675053581500282,-4.5341648806166575,8.609132731716487,0.5722222222222222,0.26222222222222225,-0.6577777777777778,-0.00018219478608194227,0.005818543484646164,8.992842604337156e-05
1590504940.4532073,0.08,-4.536485547617487,8.614312119027332,0.5549274285755901,0.26222222222222225,-0.675793187826353,-0.003920684775497028,0.004098497986224477,-0.0014741980667427688
1590504940.4632072,0.07266108747267214,-4.532661087472673,8.608627612308705,0.5455555555555556,0.26222222222222225,-0.6855555555555556,-0.0030525004040248506,-0.0010205431129503267,-0.0002902796130106463
1590504940.4732072,-0.006963482369499105,-4.53769634823695,8.566910955289151,0.5455555555555556,0.26222222222222225,-0.6855555555555556,-0.0013421202080251828,-0.0005025788510574537,-0.0016790827139354582
1590504940.4832072,-0.03761069960758818,-4.54,8.64371769568347,0.5455555555555556,0.26222222222222225,-0.6855555555555556,0.0005695662991617202,-0.0033207941633163524,-0.0030118601058220004
1590504940.4932072,-0.03544790393327101,-4.54,8.71552096066729,0.5455555555555556,0.26222222222222225,-0.6855555555555556,0.001090830782496456,-0.002873653175645118,-0.002279379044595564
1590504940.5032072,-0.023745331331100072,-4.54312733433445,8.773127334334449,0.5497253346681555,0.26222222222222225,-0.6832969252028973,0.001090830782496456,-0.0012614004104552603,-0.0012614004104552603
1590504940.5132072,0.08330527926549348,-4.573328232593726,8.829984697781178,0.5722222222222222,0.26222222222222225,-0.6711111111111111,-0.003997765453831694,0.0007261077129088879,-0.002181661564992912
1590504940.5232072,0.09986138863765433,-4.533009906821193,8.662039627284774,0.5722222222222222,0.26222222222222225,-0.6711111111111111,-0.005812724121952751,0.004378443284070866,1.5120154085042446e-05
1590504940.5332072,0.07210391494570761,-4.533861446739056,8.677376510325754,0.5722222222222222,0.26222222222222225,-0.6711111111111111,-0.0022005538352494643,0.008057033974268534,-0.00021060924839667026
1590504940.5432072,0.02962447319313107,-4.565187763403435,8.755062587801145,0.5722222222222222,0.26222222222222225,-0.6711111111111111,-0.000552242661257982,0.010369719703726086,0.0011181398625354718
1590504940.5532072,-0.007755712960620626,-4.552855004637828,8.678565013913484,0.5692061116264253,0.26049873045319544,-0.6603392875546935,-0.00024481373873128575,0.008370256693669049,0.001157449738076442
1590504940.5632071,-0.02934385863267671,-4.524015787949015,8.601391222479723,0.5644444444444444,0.2577777777777778,-0.6433333333333333,0.000581202351305506,0.0007959241116491738,-0.002691289996183862
1590504940.5732071,-0.0255134071078953,-4.520684542810527,8.466845428105271,0.5644444444444444,0.2577777777777778,-0.6433333333333333,-0.002106989528026956,-0.004852734493509585,-0.0027457449654826292
1590504940.5832071,0.037042276555728185,-4.489546160765394,8.416807588519093,0.5644444444444444,0.2577777777777778,-0.6433333333333333,0.001908530167821913,-0.005974816213359851,-0.0010413246017551415
1590504940.5932071,0.08558169982850504,-4.507908499142525,8.649307197256082,0.5644444444444444,0.2577777777777778,-0.6433333333333333,0.0064180774791574935,-0.004845284913323431,0.0
1590504940.603207,0.09649792231255647,-4.517004155374887,8.765485456187895,0.5521705911873933,0.2577777777777778,-0.6570511693265081,0.0019100870720787084,-0.0008192562895822527,-0.0014176267361614286
1590504940.613207,0.02244426122505068,-4.570936651894603,8.867555738774948,0.5455555555555556,0.2577777777777778,-0.6644444444444444,-0.002417148206141963,0.001090830782496456,-0.002181661564992912
1590504940.623207,-0.02175630923832363,-4.5409440066994025,8.674588329336531,0.5455555555555556,0.2577777777777778,-0.6644444444444444,-0.0017098858674281167,0.007061064623251297,-0.00019158361807463178
1590504940.633207,-0.01,-4.517889229142341,8.649446145711705,0.5455555555555556,0.2577777777777778,-0.6644444444444444,0.0007605607412140697,0.013189990048606767,-0.001190851441145753
1590504940.643207,-0.01,-4.533810553340991,8.725242213363963,0.5455555555555556,0.2577777777777778,-0.6644444444444444,0.00025949700595703134,0.011686798842835652,-0.0009346609001837751
1590504940.653207,-0.01,-4.539478143368691,8.747912573474766,0.5455555555555556,0.2577777777777778,-0.6644444444444444,-0.0009769793270001704,0.00797736984396405,0.0009200535992520274
1590504940.663207,0.04120736492604891,-4.551723513431935,8.732612938927458,0.5522222222222222,0.26222222222222225,-0.6711111111111111,-0.0015578279632513028,-0.006438414950557359,-0.0017961007903767486
1590504940.673207,0.1054957507082153,-4.503796033994334,8.487450424929179,0.5522222222222222,0.26222222222222225,-0.6711111111111111,0.004978267395472495,-0.007098125516697902,0.0
1590504940.683207,0.09806910423101789,-4.539475612384168,8.529654478844911,0.5522222222222222,0.26222222222222225,-0.6711111111111111,-0.003061864293229582,-0.007769730412270569,-0.0006123728586459165
1590504940.693207,0.07944166195700894,-4.488411903416289,8.535880965837118,0.5522222222222222,0.26222222222222225,-0.6711111111111111,0.002762270189153323,-0.009358678883174387,-0.0004587981592937173
1590504940.703207,0.030618539037066652,-4.503257753155521,8.66651550631104,0.5599748066073955,0.2604994256921837,-0.6741260050386785,0.003652591645222584,-0.007280449735093572,-0.00042283788456242197
1590504940.713207,-0.007450845907636032,-4.536274577046182,8.747450845907636,0.5722222222222222,0.2577777777777778,-0.6788888888888889,-0.003956942526401467,-0.002459731140320655,-0.0014972113860808123
1590504940.723207,8.95814276251454e-05,-4.53,8.707767088288175,0.5722222222222222,0.2577777777777778,-0.6788888888888889,-0.0023959189943404636,0.0011006026003758044,-0.002181661564992912
1590504940.733207,0.03,-4.53,8.62145109178058,0.5722222222222222,0.2577777777777778,-0.6788888888888889,-0.0012462543198711506,0.005295864354233992,-0.0018708144902435224
1590504940.743207,0.046221711618068095,-4.539733026970841,8.608932107883364,0.5722222222222222,0.2577777777777778,-0.6788888888888889,-0.0025355644125482934,0.010554404977409178,0.0
1590504940.753207,0.07823664974253718,-4.551183248712686,8.684709949227612,0.5686955217072965,0.2585614890033168,-0.6800644557271974,-0.0026954373251403194,0.009817477042468105,-0.0007694066964653984
1590504940.763207,0.04632160596026491,-4.517892798013245,8.671839197019867,0.5522222222222222,0.26222222222222225,-0.6855555555555556,-0.0004304853516437277,0.008095535635893193,-0.0022108963717671856
1590504940.773207,-0.0033049129918233267,-4.525565029002726,8.672260116010902,0.5522222222222222,0.26222222222222225,-0.6855555555555556,-0.00012327020583526233,0.001583911605837505,0.00012327020583526233
1590504940.783207,-0.02,-4.51445833688336,8.677708315583198,0.5522222222222222,0.26222222222222225,-0.6855555555555556,0.001090830782496456,-0.003272492347489368,-0.00048632911111087416
1590504940.793207,-0.007336828783221842,-4.518442114144519,8.725326342433556,0.5522222222222222,0.26222222222222225,-0.6855555555555556,-0.0007509528131415064,-0.0028120464485798776,-0.0004604458989094906
1590504940.803207,0.023794330881775592,-4.53,8.763448582720443,0.5549044532270119,0.26490445322701195,-0.6805742694038033,-0.0036486743662339253,-0.001429297527503797,-0.001090830782496456
1590504940.813207,0.05991528156421306,-4.534957640782107,8.735296514525254,0.56,0.27,-0.6711111111111111,-0.004904117847353984,0.0005407947173681607,-9.241347760134602e-06
1590504940.823207,0.08042580536417841,-4.5295741946358214,8.63223226513284,0.56,0.27,-0.6711111111111111,-0.006022793383660404,0.0033653886672089534,0.0005221913113183317
1590504940.833207,0.0719342105263158,-4.529032894736842,8.579032894736843,0.56,0.27,-0.6711111111111111,-0.008515656621778254,0.007917493820981678,0.0019706719267995184
1590504940.843207,0.018878201777313124,-4.543890224777836,8.613341348667015,0.56,0.27,-0.6711111111111111,-0.013030096294211455,0.014303169375759595,0.0030902500484376863
1590504940.8532069,-0.03755956507100275,-4.5474801449763325,8.65,0.556360209410258,0.2669201771932952,-0.6657914171722573,-0.014713220481099876,0.018535459914038235,0.0008159572397719622
1590504940.8632069,-0.05031547204824867,-4.543228175983917,8.65,0.5455555555555556,0.2577777777777778,-0.65,-0.010169616415925361,0.014391282521307242,0.0003521393734572569
1590504940.8732069,0.013669006479481643,-4.566834503239741,8.660251754859612,0.5455555555555556,0.2577777777777778,-0.65,-0.00938978832651765,0.009444712716619053,0.0006906042615967033
1590504940.8832068,0.045717239495962236,-4.571995864705653,8.673139312604844,0.5455555555555556,0.2577777777777778,-0.65,-0.0038643998633378137,0.00835245380998564,-0.002056930748330909
1590504940.8932068,0.07798388775552687,-4.534032224488946,8.700107414963155,0.5455555555555556,0.2577777777777778,-0.65,-0.0013107545122203865,0.0032695630587816354,-0.0024015852947168424
1590504940.9032068,0.031425288784001984,-4.553671593590859,8.81183579679543,0.5514519245366345,0.2577777777777778,-0.655896368981079,-0.003717780555994473,-0.0008905764170102105,-0.001246305670450087
1590504940.9132068,-0.017957785659642532,-4.5419366784894635,8.768168857361431,0.56,0.2577777777777778,-0.6644444444444444,-0.003061233496278783,-0.0008795719312858707,0.0015363728358799796
1590504940.9232068,-0.027151649721475594,-4.554303299442951,8.697213197771806,0.56,0.2577777777777778,-0.6644444444444444,-0.001090830782496456,-0.00015199648276225395,-0.0007801239661817784
1590504940.9332068,-0.02,-4.54,8.63607600412632,0.56,0.2577777777777778,-0.6644444444444444,-0.0006627892335563804,-0.0028444507985492928,0.0
1590504940.9432068,-0.0156702758785815,-4.5529891723642555,8.64154593099045,0.56,0.2577777777777778,-0.6644444444444444,-0.0003148664234240482,-0.0028113944118410084,-0.0007871660585601204
1590504940.9532068,0.016708513411538724,-4.598693604079486,8.65856806384487,0.5609938538387466,0.2577777777777778,-0.6659352252025641,-0.0012059478404466777,-0.008008555281798087,-0.005210225481345721
1590504940.9632068,0.06123249193395332,-4.496066426266844,8.52549819700133,0.5644444444444444,0.2577777777777778,-0.6711111111111111,0.005490383820802052,-0.011766480487633815,-0.0033707064532430817
1590504940.9732068,0.07707439631507933,-4.531950402456614,8.651950402456615,0.5644444444444444,0.2577777777777778,-0.6711111111111111,0.007103925717992436,-0.003339206955203116,-0.0004922264152999524
1590504940.9832067,0.028318026638457474,-4.544579506659614,8.675420493340386,0.5644444444444444,0.2577777777777778,-0.6711111111111111,-0.0001834748318109633,0.0016821148816974249,-0.0005912840992009688
1590504940.9932067,-0.002784312995570115,-4.54852287533038,8.73539868964747,0.5644444444444444,0.2577777777777778,-0.6711111111111111,-0.002181661564992912,0.004041064518144559,-0.001090830782496456
1590504941.0032067,-0.02700763069937567,-4.5529923693006245,8.792480923251562,0.5578261265617007,0.2620602187607296,-0.6761721777273269,-0.0017994546010306044,0.008073812550827964,-0.001090830782496456
1590504941.0132067,-0.012106914128872045,-4.54,8.741404609419249,0.5455555555555556,0.27,-0.6855555555555556,-0.0005837201710457335,0.00887986537916167,-0.001090830782496456
1590504941.0232067,0.03125919206971395,-4.537185201982572,8.677778029738572,0.5455555555555556,0.27,-0.6855555555555556,-0.0009211404971762972,0.006544984694978735,-0.0004767371177122579
1590504941.0332067,0.05843402766529528,-4.530391493083677,8.575872396255143,0.5455555555555556,0.27,-0.6855555555555556,-0.0031443765354468366,0.006544984694978735,0.0010054202411347681
1590504941.0432067,0.045627207124213115,-4.5321863964378934,8.625627207124214,0.5455555555555556,0.27,-0.6855555555555556,-0.00156782848993541,-0.0004769977074389538,0.000852331928776979
1590504941.0532067,0.03131634167562311,-4.539341829162188,8.611316341675623,0.5455555555555556,0.27,-0.6855555555555556,-0.003128901745484103,-0.002038070962987646,7.17953010026329e-05
1590504941.0632067,-0.007521527371907267,-4.5450430547438145,8.692478472628093,0.56,0.25,-0.6644444444444444,0.0008204713588666116,-0.004083570618378901,-0.0008204713588666116
1590504941.0732067,0.0,-4.53,8.690835394339103,0.56,0.25,-0.6644444444444444,0.0008568886255154117,-0.006544984694978735,-0.0002856295418384706
1590504941.0832067,0.013604671131719044,-4.536802335565859,8.653808174480508,0.56,0.25,-0.6644444444444444,0.005802964992167734,-0.005431955140762233,-0.001810651713587411
1590504941.0932066,0.041982474430137216,-4.550991237215069,8.707929897720549,0.56,0.25,-0.6644444444444444,0.003930814303204664,-0.0022993474872317595,-0.000982703575801166
1590504941.1032066,0.05787478950397544,-4.5557495790079505,8.773624368511927,0.56,0.251652941496908,-0.6675141929387021,0.0002318245028348148,0.007472282706317995,-0.0002318245028348148
1590504941.1132066,0.04505668336409175,-4.5432955444239385,8.736817822304245,0.56,0.2577777777777778,-0.6788888888888889,0.0005515985870889012,0.011088051890100412,-0.001090830782496456
1590504941.1232066,0.011513586748127509,-4.551513586748127,8.644540760244382,0.56,0.2577777777777778,-0.6788888888888889,-0.0017187995245864936,0.011536276567054598,-0.001090830782496456
1590504941.1332066,0.0043351040085706635,-4.5269946879742875,8.618670208017141,0.56,0.2577777777777778,-0.6788888888888889,-0.002509490251858254,0.009489648355602762,-0.001090830782496456
1590504941.1432066,0.019290054783763062,-4.503806630144158,8.614516575360396,0.56,0.2577777777777778,-0.6788888888888889,-0.006390098675827266,0.0066224277045544705,-0.001090830782496456
1590504941.1532066,0.036139595664539934,-4.50158121300638,8.60316242601276,0.5557106618494889,0.25863564540788003,-0.6761008190910566,-0.014066593736466522,0.0071005042532875234,-0.0006697259942961946
1590504941.1632066,-0.028111994120079014,-4.578867196472047,8.76735679176811,0.5377777777777778,0.26222222222222225,-0.6644444444444444,-0.038291998843040236,0.024841968605656232,0.003714932992169989
1590504941.1732066,-0.0381658780294478,-4.596055292676483,8.756331756058895,0.5377777777777778,0.26222222222222225,-0.6644444444444444,-0.04409368959427835,0.026056610158551825,0.009080204028544828
1590504941.1832066,0.006933562071116657,-4.558534934497817,8.638534934497816,0.5377777777777778,0.26222222222222225,-0.6644444444444444,-0.0280568414141898,0.01294502431405495,0.008988670210564449
1590504941.1932065,0.00039223331253898826,-4.512745633187773,8.592745633187773,0.5377777777777778,0.26222222222222225,-0.6644444444444444,-0.008791037939818017,-0.0013259412225167452,0.002566735719107186
1590504941.2032065,0.0,-4.53047427819705,8.658247593990168,0.5377777777777778,0.26222222222222225,-0.6644444444444444,-0.009124747004591106,0.0007962014892389144,0.004415058855666782
1590504941.2132065,-0.026897534288210935,-4.495170776186315,8.62723908666084,0.5616866971450764,0.25126396751221036,-0.645516549945333,-0.01568560871743498,0.004137705456648538,0.007410197804137906
1590504941.2232065,-0.16651343655028836,-4.324172868458207,8.549828423747876,0.5644444444444444,0.25,-0.6433333333333333,-0.025703031498185053,0.01157837952293972,0.012363749494773719
1590504941.2332065,-0.5834826304047593,-3.577081058111123,8.632359077871028,0.5644444444444444,0.25,-0.6433333333333333,-0.05688240427305097,0.013421008082540003,0.03556824523703328
1590504941.2432065,-0.688141042642855,-3.077602923407892,8.729657560486842,0.5644444444444444,0.25,-0.6433333333333333,-0.08410603332085595,-0.00988151308168459,0.07568355824716261
1590504941.2532065,-0.2706915808354444,-2.573369514968842,8.714427041920153,0.5637725056553067,0.2540316327348262,-0.6475329507654439,-0.11465259045730895,-0.011692982250710127,0.17651414693592182
1590504941.2632065,-0.06903881358752934,-2.488054882671647,8.993638565801882,0.560325449804915,0.27471396783717655,-0.6690770498303922,-0.154416225675817,0.04583738359734406,0.2594255565404705
1590504941.2732065,-0.06626508980272844,-2.799276916282265,8.935782216115419,0.56,0.2766666666666667,-0.6711111111111111,-0.10188074729845642,-0.007530736430167281,0.3232539559336558
1590504941.2832065,-0.10169521390997902,-2.738926951879972,8.408755668420097,0.56,0.2766666666666667,-0.6711111111111111,0.0256379577630046,-0.03323640498636716,0.40635067729213376
1590504941.2932065,-0.14988707128030318,-2.8822793319494964,8.503542305421721,0.56,0.2766666666666667,-0.6711111111111111,0.030639546510781934,-0.03878721798948949,0.5655006082725599
1590504941.3032064,-0.18174440493620583,-3.0770466429617236,8.975440284459319,0.5610439471054406,0.273273838573985,-0.6661523623602686,-0.05075660044027277,-0.06460771007085106,0.7169961601007206
1590504941.3132064,-0.22,-3.1,8.7,0.5644444444444444,0.26222222222222225,-0.65,-0.04908738521234052,-0.07963064712224129,0.8388488717397746
1590504941.3232064,-0.22715783890643457,-3.1322102750789558,8.7,0.5644444444444444,0.26222222222222225,-0.65,-0.04206019329857987,-0.08353464262988608,0.9399623553877752
1590504941.3332064,-0.26160101592079577,-3.2116010159207957,8.72880135456106,0.5644444444444444,0.26222222222222225,-0.65,-0.03259417154068433,-0.09525156556712586,1.162216669778997
1590504941.3432064,-0.3059751323502566,-3.2679253970507696,8.803900529401025,0.5644444444444444,0.26222222222222225,-0.65,-0.03589782698337336,-0.10362892433716332,1.2674097372717394
1590504941.3532064,-0.3246327411380206,-3.3146327411380208,8.856911505907986,0.5678761045466819,0.25947689414043223,-0.6544611581329087,-0.03104861557396982,-0.10480808288665779,1.3594010364004179
1590504941.3632064,-0.3507997775587068,-3.340799777558707,8.834801445868406,0.5866666666666667,0.24444444444444444,-0.6788888888888889,-0.033728512059371406,-0.11135198201265722,1.4479677494411034
1590504941.3732064,-0.36907771056305255,-3.36,8.698010237319684,0.5866666666666667,0.24444444444444444,-0.6788888888888889,-0.0319359112048553,-0.11485488777110239,1.545330884715513
1590504941.3832064,-0.3635510147489558,-3.362536439106397,8.583551014748956,0.5866666666666667,0.24444444444444444,-0.6788888888888889,-0.03501725807409402,-0.1292160609885152,1.6317804393016981
1590504941.3932064,-0.41443595209622347,-3.398882822925874,8.634435952096224,0.5866666666666667,0.24444444444444444,-0.6788888888888889,-0.036603168246202675,-0.1363526567630042,1.6928379809278817
1590504941.4032063,-0.4960495910684149,-3.406654550175256,8.844555368038426,0.5878093672018117,0.24316730855222352,-0.6784183651391232,-0.05626126507868972,-0.1604181158285684,1.7995639197306454
1590504941.4132063,-0.587379353459576,-3.5257238792425434,8.762620646540423,0.6055555555555555,0.22333333333333333,-0.6711111111111111,-0.048229780637439344,-0.16115708761784175,1.9029426299553591
1590504941.4232063,-0.5827653746770025,-3.5644692506459945,8.752025064599483,0.6055555555555555,0.22333333333333333,-0.6711111111111111,-0.045965720655991686,-0.16125709177382216,1.9813174412796266
1590504941.4332063,-0.6084509673771419,-3.525774516311429,8.64,0.6055555555555555,0.22333333333333333,-0.6711111111111111,-0.04736665241519059,-0.16804943164156522,2.0754520509810024
1590504941.4432063,-0.6515327418249871,-3.51988520727856,8.646590138185708,0.6055555555555555,0.22333333333333333,-0.6711111111111111,-0.048548230792799935,-0.1725309817742869,2.1509805617054427
1590504941.4532063,-0.7005913412535298,-3.5619354353601684,8.674623623573446,0.6055555555555555,0.22333333333333333,-0.6711111111111111,-0.046254746632679186,-0.17329547649432714,2.201437213228099
1590504941.4632063,-0.7661135135135135,-3.5961135135135134,8.710945945945946,0.6133333333333333,0.18444444444444444,-0.6711111111111111,-0.04351412437117484,-0.17310069386392812,2.2894568732809515
1590504941.4732063,-0.803380024360536,-3.608292478684531,8.85480739951279,0.6133333333333333,0.18444444444444444,-0.6711111111111111,-0.06381169082567746,-0.19362437384348613,2.3498663263844777
1590504941.4832063,-0.879066838876332,-3.570400387471747,8.604933806909912,0.6133333333333333,0.18444444444444444,-0.6711111111111111,-0.05886118675689789,-0.1961022811757061,2.413674263216937
1590504941.4932063,-0.9185364505173367,-3.6421341126293343,8.707072901034673,0.6133333333333333,0.18444444444444444,-0.6711111111111111,-0.0535970025267256,-0.19781946139119702,2.470924455034391
1590504941.5032063,-0.9508451325658818,-3.6478871685852954,8.77,0.6135211405701959,0.18134562503621104,-0.6717214846309146,-0.06194688044775946,-0.20716565901251124,2.509617667364753
1590504941.5132062,-0.9676687657935903,-3.6058280855160243,8.77,0.6172597257319089,0.11965896986794664,-0.6838718864064819,-0.0573589461982058,-0.20533048531268977,2.545403554511271
1590504941.5232062,-1.070841290187564,-3.6106309676406725,8.738107097077982,0.6177777777777778,0.1111111111111111,-0.6855555555555556,-0.05456448175566297,-0.2095542233935204,2.5923186770900637
1590504941.5332062,-1.1121294304244729,-3.6385803797170184,8.65070981014149,0.6177777777777778,0.1111111111111111,-0.6855555555555556,-0.055709798182525895,-0.2142742379501487,2.616586499178568
1590504941.5432062,-1.1318893198699729,-3.625407120086685,8.657296439956658,0.6177777777777778,0.1111111111111111,-0.6855555555555556,-0.05642828803805517,-0.20852631910591443,2.6237713977338606
1590504941.5532062,-1.14,-3.501396524369996,8.723863409954618,0.6177777777777778,0.1111111111111111,-0.6855555555555556,-0.0567232006898157,-0.20915262532555964,2.632691739118925
1590504941.5632062,-1.1473655479573537,-3.437365547957354,8.76,0.6377777777777778,0.057777777777777775,-0.7,-0.04456337075351798,-0.2064543920301431,2.6210036534520658
1590504941.5732062,-1.1886944011981948,-3.4786944011981946,8.76,0.6377777777777778,0.057777777777777775,-0.7,-0.04366171504711023,-0.2019461134981043,2.6011672279110947
1590504941.5832062,-1.2459461524745918,-3.4005415318780408,8.882433836827225,0.6377777777777778,0.057777777777777775,-0.7,-0.05121014152608168,-0.2010372596436706,2.550745837105264
1590504941.5932062,-1.2114304083541148,-3.1925734491895263,8.566570877493765,0.6377777777777778,0.057777777777777775,-0.7,-0.035061917065082715,-0.1769946052025137,2.5001521052271225
1590504941.6032062,-1.2931460411471323,-3.2824606452618452,8.54205618765586,0.6377777777777778,0.057777777777777775,-0.7,-0.012777435149632643,-0.15560150256368166,2.4609314170559315
1590504941.6132061,-1.415523273874728,-3.3465698216241844,8.913875872668116,0.6555555555555556,0.0011111111111111113,-0.7233333333333334,-0.08508480103472357,-0.21489366415180186,2.301652951067522
1590504941.6232061,-1.3949505419943429,-3.284851625983029,9.023597109363505,0.6555555555555556,0.0011111111111111113,-0.7233333333333334,-0.08508480103472357,-0.21489366415180186,2.301652951067522
1590504941.6332061,-1.5476519789078127,-3.2374772208416673,8.60939208436875,0.6555555555555556,0.0011111111111111113,-0.7233333333333334,-0.03550422023312535,-0.18356295098850425,2.22919229542838
1590504941.6432061,-1.5222304382083762,-3.1018956704446734,8.711078247166496,0.6555555555555556,0.0011111111111111113,-0.7233333333333334,-0.041974693364259394,-0.16322717829065442,2.0942367129790127
1590504941.653206,-1.5681235064771728,-3.147748207772607,8.768123506477172,0.6555555555555556,0.0011111111111111113,-0.7233333333333334,-0.04884175278459789,-0.15829327967585743,1.994205032044429
1590504941.663206,-1.57,-2.984774867851994,8.828314752522825,0.6350374018901169,-0.06152325270970153,-0.7503309039457525,-0.04272623249978442,-0.15711027134322675,1.89640907948645
1590504941.673206,-1.6922544940733182,-3.066618258890023,8.800982023706728,0.6344444444444445,-0.06333333333333334,-0.7511111111111111,-0.04139008794651205,-0.1269052614997086,1.7835362445112364
1590504941.683206,-1.7435272615730681,-3.013006058127348,8.659018174382046,0.6344444444444445,-0.06333333333333334,-0.7511111111111111,-0.04068864902629741,-0.13193367020581775,1.6568820621768834
1590504941.693206,-1.8355990200569643,-3.028266775549226,8.729065468958513,0.6344444444444445,-0.06333333333333334,-0.7511111111111111,-0.03932828772476651,-0.12204236173610923,1.536531026065488
1590504941.703206,-1.9097443753829992,-3.0196165630744987,8.818849689223496,0.6342598266654995,-0.06400079761105762,-0.751295728890056,-0.02395645073477378,-0.10567116430166205,1.4340554408000978
1590504941.713206,-1.9060904492710502,-2.99321808985421,8.750917584052365,0.62,-0.11555555555555555,-0.7655555555555555,-0.021954421883266812,-0.09437571935611988,1.3000715349936747
1590504941.723206,-1.9892859268074978,-3.0098571853614993,8.859071704849747,0.62,-0.11555555555555555,-0.7655555555555555,-0.028307075033554265,-0.09165315372028242,1.1975215627104627
1590504941.733206,-2.0015053126190576,-2.92,8.712257968928588,0.62,-0.11555555555555555,-0.7655555555555555,-0.017124884251513595,-0.07856332024984476,1.07331921505599
1590504941.743206,-2.019260466494518,-2.92,8.738890699741777,0.62,-0.11555555555555555,-0.7655555555555555,-0.013251310572450915,-0.06597420579289104,0.9697011191410633
1590504941.753206,-2.0023736543226116,-2.8494946172904467,8.819318555548247,0.62,-0.11555555555555555,-0.7655555555555555,-0.020780913569084843,-0.06544984694978735,0.8605961280687531
1590504941.763206,-2.0876112346181546,-2.8509514043272692,8.856194382690923,0.6111111111111112,-0.14222222222222222,-0.7733333333333333,-0.020414438529396953,-0.05075013621394058,0.7295164056027759
1590504941.773206,-2.1401434073331873,-2.8575179259166483,8.829928296333406,0.6111111111111112,-0.14222222222222222,-0.7733333333333333,-0.018265549364310275,-0.04716865427212945,0.6600356559316399
1590504941.783206,-2.0924006914682898,-2.7897817553210644,8.79759930853171,0.6111111111111112,-0.14222222222222222,-0.7733333333333333,-0.014890722132712272,-0.03556889339736516,0.532388278099564
1590504941.793206,-2.175480066265711,-2.782229084884935,8.71451993373429,0.6111111111111112,-0.14222222222222222,-0.7733333333333333,-0.0017088254898631784,-0.020739259674159936,0.45906397802371585
1590504941.803206,-2.2881550555706154,-2.852126863648685,8.96247926267281,0.6111111111111112,-0.14222222222222222,-0.7733333333333333,-0.02666701290974096,-0.03646911364407954,0.34825451358644693
1590504941.813206,-2.3026454779154006,-2.8405819116616033,8.971163823323206,0.5898647139778245,-0.14058788398120017,-0.797848406948664,-0.01696842218848542,-0.01979071421770212,0.26037358350690765
1590504941.823206,-2.1960205878369226,-2.6986008397670322,8.656880671813626,0.5822222222222222,-0.14,-0.8066666666666666,0.011647643763690315,-0.003084851132025397,0.1540899318960932
1590504941.833206,-2.264396179054525,-2.7927053409566307,8.731690838097895,0.5822222222222222,-0.14,-0.8066666666666666,-0.014644528751514093,-0.0005006169439681825,0.06181371898863772
1590504941.843206,-2.389388459641624,-2.870305770179188,8.78175817853033,0.5822222222222222,-0.14,-0.8066666666666666,0.003339201052254892,0.016529233499360647,-0.011575394872619799
1590504941.853206,-2.3204372842347527,-2.904781357882624,8.979992807825086,0.5822222222222222,-0.14,-0.8066666666666666,0.010860607514567706,0.03533274965514269,-0.08678945949574794
1590504941.863206,-2.175482760034439,-2.7080640400147593,8.489034479931123,0.5877777777777777,-0.17222222222222222,-0.8355555555555556,0.0212523943735577,0.03328699806283248,-0.20286120715095968
1590504941.873206,-2.115296420810955,-2.6822698946332664,8.60940715837809,0.5877777777777777,-0.17222222222222222,-0.8355555555555556,-0.04440071713719257,-0.017359687959746302,-0.30415457919611727
1590504941.883206,-2.2063235294117645,-2.8148529411764702,8.870441176470589,0.5877777777777777,-0.17222222222222222,-0.8355555555555556,-0.017605687996909716,0.045429893765146515,-0.3929236645068852
1590504941.893206,-2.233862189563031,-2.804091873624646,8.63342404118202,0.5877777777777777,-0.17222222222222222,-0.8355555555555556,0.02007899354092021,0.07055555055454746,-0.4601779476319078
1590504941.9032059,-2.2187347406757945,-2.7840510555068456,8.617846833479463,0.5877777777777777,-0.17222222222222222,-0.8355555555555556,0.010894991552513503,0.062440075093583805,-0.5341051306357697
1590504941.9132059,-2.2542951448040887,-2.8423935264054516,8.810819846678024,0.5663278440280143,-0.18361749952678402,-0.8355555555555556,-0.009402608265309101,0.058075124700490616,-0.6393055846322049
1590504941.9232059,-2.1290536392867585,-2.782702426191172,8.766936568254897,0.5522222222222222,-0.19111111111111112,-0.8355555555555556,0.008158352438836218,0.06716963526472294,-0.7226918945711029
1590504941.9332058,-2.0660886066145148,-2.794495778793277,8.585504221206723,0.5522222222222222,-0.19111111111111112,-0.8355555555555556,0.005058325377434964,0.0941126909748897,-0.8185364045230252
1590504941.9432058,-2.1781884589783416,-2.881367786861463,8.71341946715366,0.5522222222222222,-0.19111111111111112,-0.8355555555555556,-0.0006694187096216582,0.1014472627721704,-0.8886338628885242
1590504941.9532058,-2.2747366148531953,-2.98947322970639,8.782210708117443,0.5522222222222222,-0.19111111111111112,-0.8355555555555556,0.00421401684412599,0.10750994577402462,-0.9714361505675378
1590504941.9632058,-2.188347258089017,-2.952231505392678,8.77,0.5493985349469171,-0.2202892129559303,-0.8054362246189681,0.01578547969511771,0.11479415653221153,-1.0510379118551332
1590504941.9732058,-2.115471941681221,-2.94,9.015376262434504,0.5488888888888889,-0.2255555555555556,-0.8,0.0194359886707395,0.12851558792479964,-1.12482462819453
1590504941.9832058,-2.0645820697498105,-2.949083586050038,8.52223559514784,0.5488888888888889,-0.2255555555555556,-0.8,0.030534474891656626,0.11890934231035785,-1.1896525875939614
1590504941.9932058,-2.119714562040934,-3.0594766970750453,8.828287372245603,0.5488888888888889,-0.2255555555555556,-0.8,-0.04110387936286121,0.13952255198879887,-1.2737167165411696
1590504942.0032058,-2.1501774036203347,-3.1128104563355854,8.89035480724067,0.5488888888888889,-0.2255555555555556,-0.8,-0.014293856070838547,0.12069823669673982,-1.323468015163182
1590504942.0132058,-2.075063249001331,-3.073375499334221,8.759001331557922,0.5677637224441485,-0.21821534250628788,-0.7790279627163782,0.020282407908235534,0.1402737939828457,-1.3848365497101112
1590504942.0232058,-1.9879180261011418,-3.1684983686786294,8.766416394779771,0.5688888888888889,-0.21777777777777774,-0.7777777777777778,0.0021183560102012167,0.12748199471382804,-1.4421546570638286
1590504942.0332057,-1.95255131038838,-3.15510262077676,8.76127565519419,0.5688888888888889,-0.21777777777777774,-0.7777777777777778,-0.005988375113509119,0.10912785501053114,-1.5083231011341318
1590504942.0432057,-1.9319405564616245,-3.204178330615126,8.705821669384873,0.5688888888888889,-0.21777777777777774,-0.7777777777777778,0.013154812231437874,0.13349614253531508,-1.557624361215549
1590504942.0532057,-1.975190491308834,-3.322976228272085,8.782849234066196,0.5688888888888889,-0.21777777777777774,-0.7777777777777778,0.021022735171128768,0.13553226149546008,-1.5990410647817859
1590504942.0632057,-1.976066916955916,-3.3739330830440837,8.621903378904866,0.5967550549770568,-0.18604131084403097,-0.797903342174788,0.03658621872403517,0.14286233496934364,-1.6445940646823107
1590504942.0732057,-1.8571769115719112,-3.288667023653452,8.6850582565504,0.6088888888888889,-0.17222222222222222,-0.8066666666666666,0.029063206945101717,0.12683161233780413,-1.689628318688306
1590504942.0832057,-1.7800609997623387,-3.35042699833637,8.763191000554544,0.6088888888888889,-0.17222222222222222,-0.8066666666666666,0.014535538377488225,0.119656609995121,-1.7435954852202484
1590504942.0932057,-1.4702989220807168,-3.1602989220807167,8.83716024023319,0.6088888888888889,-0.17222222222222222,-0.8066666666666666,0.062275176624462115,0.16693786889785947,-1.7869397825152114
1590504942.1032057,-1.53594127198388,-3.2259412719838805,8.213557916153139,0.6088888888888889,-0.17222222222222222,-0.8066666666666666,0.08375658539739426,0.1758884558865812,-1.821847071771226
1590504942.1132057,-1.48,-3.31,8.81,0.5777777777777777,-0.1988888888888889,-0.7855555555555556,-0.01963495408493621,0.07853981633974483,-1.9111355309337907
1590504942.1232057,-1.4369668246445497,-3.263380726698262,8.874549763033176,0.5777777777777777,-0.1988888888888889,-0.7855555555555556,-0.020026136687821983,0.0977077638811478,-1.9216974612117066
1590504942.1332057,-1.3933594144926262,-3.235599024154377,8.745364293720742,0.5777777777777777,-0.1988888888888889,-0.7855555555555556,0.009598778644746554,0.14775929770840435,-1.9496853311148488
1590504942.1432056,-1.4775691778101416,-3.4455113862041573,8.722707533430425,0.5777777777777777,-0.1988888888888889,-0.7855555555555556,0.02910588691151655,0.16113710291795794,-1.9726499816182204
1590504942.1532056,-1.459649370554704,-3.463884994919662,8.709298741109407,0.5777777777777777,-0.1988888888888889,-0.7855555555555556,0.03796029881619174,0.15138222239415278,-1.991971752056182
1590504942.1632056,-1.2472541063555849,-3.3149377706683314,8.886892825094613,0.5619849227714703,-0.1635429753033436,-0.735920868392875,0.03621680767926609,0.17056897611115235,-2.0046277428611767
1590504942.1732056,-1.2216985743380855,-3.410818737270876,8.602386965376782,0.5544444444444444,-0.14666666666666667,-0.7122222222222222,0.05930298216565049,0.17503368539978875,-2.0180027341886055
1590504942.1832056,-1.2335889656026502,-3.471794482801325,8.575904826774822,0.5544444444444444,-0.14666666666666667,-0.7122222222222222,0.030821010210320313,0.14709318983607322,-2.0449730953228102
1590504942.1932056,-1.2550123399838542,-3.5700493599354166,8.835111059854688,0.5544444444444444,-0.14666666666666667,-0.7122222222222222,0.02363556434303946,0.14271747607109445,-2.0569468350832816
1590504942.2032056,-1.2141240176979462,-3.6358759823020534,8.826478020647604,0.5544444444444444,-0.14666666666666667,-0.7122222222222222,0.037343059527546796,0.15540956592512142,-2.056729588781734
1590504942.2132056,-1.2090346362900428,-3.5235150919394007,9.379182086272696,0.5735175655012015,-0.038251031186153195,-0.6871260103054366,0.049335777233935924,0.13560867174727076,-2.0562160250058192
1590504942.2232056,-1.0555575241469966,-3.4162313539463907,8.529892553009088,0.5755555555555556,-0.02666666666666667,-0.6844444444444444,0.08868578326007621,0.11623429478602545,-2.0459874524509902
1590504942.2332056,-0.9616421935870543,-3.3281341774048547,8.062913919688343,0.5755555555555556,-0.02666666666666667,-0.6844444444444444,0.05915644470640551,0.198752220683104,-2.016962134429097
1590504942.2432055,-0.9292047589229806,-3.544306199123356,8.261852849092048,0.5755555555555556,-0.02666666666666667,-0.6844444444444444,0.03933541266081881,0.14132262642457558,-2.0047014900736775
1590504942.2532055,-1.038037227889368,-3.8259480492165316,9.42258786412872,0.5755555555555556,-0.02666666666666667,-0.6844444444444444,-0.0098239928893969,0.0886127650566918,-2.001094598447458
1590504942.2632055,-0.7122236080178175,-3.182387527839644,8.57314832962138,0.5805389755011137,0.04509458054936896,-0.6844444444444444,0.11611823225125348,0.19098663772572289,-1.9279505538252766
1590504942.2732055,-0.7679485329995546,-3.622392175997624,8.846281265248106,0.5811111111111111,0.05333333333333334,-0.6844444444444444,0.043153249093528634,0.145020001642187,-1.9100680269949366
1590504942.2832055,-0.8712807898960296,-3.786446165654874,9.09095003837834,0.5811111111111111,0.05333333333333334,-0.6844444444444444,-0.017624479347787447,0.0971584009647006,-1.8970967458009325
1590504942.2932055,-0.830142951779924,-3.7014197552386596,8.788089676092186,0.5811111111111111,0.05333333333333334,-0.6844444444444444,0.02389691868365209,0.11692727773943895,-1.8403017013624003
1590504942.3032055,-0.7235826947584449,-3.6661023485212096,8.648307045563628,0.5811111111111111,0.05333333333333334,-0.6844444444444444,0.055851399037145755,0.14117669521186427,-1.7837746053985049
1590504942.3132055,-0.7115496227510156,-3.7473244341265235,8.718450377248985,0.5846166247501129,0.09598374927452119,-0.676849164893274,0.04524130453696851,0.1282109194751624,-1.728019040006507
1590504942.3232055,-0.6453393068404414,-3.7012556001629138,8.772828106514613,0.5877777777777777,0.13444444444444445,-0.67,0.04020648967025289,0.11502835036745501,-1.6541387308160709
1590504942.3332055,-0.6462112470677741,-3.6929689976542193,8.743925378811893,0.5877777777777777,0.13444444444444445,-0.67,0.055866815881621096,0.11452232859060514,-1.5556181284391442
1590504942.3432055,-0.6949188106535683,-3.8766475118624673,8.78951286392141,0.5877777777777777,0.13444444444444445,-0.67,0.05568550821029834,0.12946087615890042,-1.4427805367716866
1590504942.3532054,-0.6029568669616642,-3.7812005293412185,8.729426409164219,0.5877777777777777,0.13444444444444445,-0.67,0.051654159981509115,0.097474872174384,-1.3559123615231343
1590504942.3632054,-0.5851078547631148,-3.9246902704839344,8.651913716189508,0.5838769050263205,0.17111264830814213,-0.6801422691537887,0.04667343933537097,0.0965973498987586,-1.253477692965104
1590504942.3732054,-0.5746552781993736,-3.954103723318371,8.847826718765138,0.5822222222222222,0.18666666666666668,-0.6844444444444444,0.04748874235374793,0.088684609545579,-1.184100742052961
1590504942.3832054,-0.4707391102873031,-3.742801204819277,8.876380908248379,0.5822222222222222,0.18666666666666668,-0.6844444444444444,0.05017821599483697,0.07473252372910381,-1.1173756794899772
1590504942.3932054,-0.3325164170413742,-3.5598686636690067,8.649868663669006,0.5822222222222222,0.18666666666666668,-0.6844444444444444,0.052627212791227444,0.07989798235363886,-1.02221589248371
1590504942.4032054,-0.34410569777043765,-3.5729471511147812,9.08611808422791,0.5822222222222222,0.18666666666666668,-0.6844444444444444,0.04191051133988757,0.08841494257303026,-0.9603545399188065
1590504942.4132054,-0.3580883470736128,-3.739855288545869,8.677639010699876,0.5741338751486094,0.2351967491083436,-0.672761276449226,0.07855643105171584,0.05986692104701914,-0.8972718754573815
1590504942.4232054,-0.3362585779109015,-3.882879495719427,9.093966515412298,0.5722222222222222,0.2466666666666667,-0.67,-0.03422597705026226,0.07566796419135687,-0.8324598906960559
1590504942.4332054,-0.3361812874365001,-3.977994161801501,8.974204640230495,0.5722222222222222,0.2466666666666667,-0.67,-0.028107067648484106,0.06090981899253611,-0.7857579415386159
1590504942.4432054,-0.30609370625019444,-3.864031048750894,8.579437202501323,0.5722222222222222,0.2466666666666667,-0.67,0.028184382339550652,0.039859628062459934,-0.7332155038429756
1590504942.4532053,-0.27085581423529587,-3.804358139323528,8.805023250882321,0.5722222222222222,0.2466666666666667,-0.67,0.027970930946380975,0.03860779921462925,-0.6958394343877998
1590504942.4632053,-0.2363309221765839,-3.7461869797535527,8.954028570390026,0.5673621056627853,0.2500079968012795,-0.6718225437097889,0.03715105333525914,0.018190954396195124,-0.6624089454686188
1590504942.4732053,-0.1690023197175996,-3.576569440242057,8.428710640443773,0.5544444444444444,0.2588888888888889,-0.6766666666666666,0.06825773229833748,0.00950183473132516,-0.5974354004819572
1590504942.4832053,-0.08006237892289811,-3.5156733824099184,8.151533901588532,0.5544444444444444,0.2588888888888889,-0.6766666666666666,0.020240215132442282,0.0836212873448248,-0.5185445225329294
1590504942.4932053,-0.04,-3.545404036723987,8.479138735062664,0.5544444444444444,0.2588888888888889,-0.6766666666666666,0.03524931764948472,0.0694782665893878,-0.4849496728661041
1590504942.5032053,-0.030021666001482414,-3.3655741490392836,8.92008666400593,0.5544444444444444,0.2588888888888889,-0.6766666666666666,0.015884403079047902,0.008279311725328524,-0.4810469215043968
1590504942.5132053,-0.05401104707970249,-3.4206755867514804,8.739097090669805,0.589535207304455,0.2756244834836631,-0.6912428297008248,-0.002021524847994789,0.020152211777168673,-0.4673995539054633
1590504942.5232053,-0.00655765920826161,-3.3984165232358,8.768010327022376,0.6266666666666667,0.2933333333333333,-0.7066666666666667,-0.022589021474230395,0.0018362005254415337,-0.4616812677779243
1590504942.5332053,-0.07307159215373893,-3.6596435328089214,8.765356965050284,0.6266666666666667,0.2933333333333333,-0.7066666666666667,-0.026826616895301518,-0.013121077020755732,-0.45276487552135464
1590504942.5432053,-0.21460672779123607,-4.03451044126215,8.66,0.6266666666666667,0.2933333333333333,-0.7066666666666667,-0.016768675868342457,0.042670212127552176,-0.4120994190252528
1590504942.5532053,-0.21437082429039533,-3.994370824290395,8.43574471254096,0.6266666666666667,0.2933333333333333,-0.7066666666666667,0.005134526892061016,0.04056299222779919,-0.3788902938625793
1590504942.5632052,-0.14343384178786805,-4.0688896771904925,8.827176303653777,0.7918757636671792,0.33912498521934487,-0.7282156793189074,0.04079064778505903,0.04682871927497556,-0.3466636235461742
1590504942.5732052,-0.13,-4.09,8.95,0.8311111111111111,0.35,-0.7333333333333333,0.04581489286485115,0.05017821599483697,-0.34143003492139073
1590504942.5832052,-0.17275041308485495,-3.992563635983351,8.666876032712137,0.8311111111111111,0.35,-0.7333333333333333,-0.004172562924751614,0.006159768177196841,-0.33009576213628705
1590504942.5932052,-0.11,-3.8828147100424326,8.528183205538598,0.8311111111111111,0.35,-0.7333333333333333,0.015641196271048156,0.014677086357760789,-0.30167277314910984
1590504942.6032052,-0.13625798784726115,-4.252515975694522,8.70315029484966,0.8311111111111111,0.35,-0.7333333333333333,0.005315766940411942,0.019900110176172423,-0.2542281186665476
1590504942.6132052,-0.12373795878551397,-4.032147299109865,8.79457931959517,1.182931078865721,0.431101356203173,-0.9372289964638458,-0.003272492347489368,0.003140078977903315,-0.20356710033420708
1590504942.6232052,-0.11397380197955118,-3.8874017574233166,8.767259824257668,1.5155555555555555,0.5077777777777778,-1.13,0.009235145939245671,0.0188430301073583,-0.1303304578968837
1590504942.6332052,-0.16267170411612647,-4.081373632929012,8.763358520580633,1.5155555555555555,0.5077777777777778,-1.13,0.01714536979597591,0.01169121588349363,-0.049545885532094144
1590504942.6432052,-0.12152248875562219,-3.897612443778111,8.725080209895053,1.5155555555555555,0.5077777777777778,-1.13,-0.000905536738033415,-0.002513817085120393,0.06966802580399123
1590504942.6532052,-0.06386685416600084,-3.744674166640033,8.459858416695964,1.5155555555555555,0.5077777777777778,-1.13,0.021555491211279802,0.006268415913696356,0.15884101986425325
1590504942.6632051,-0.03862953260719703,-4.16925981367316,8.54851962734632,1.2919787323909755,0.33001179588522755,-1.004020186501918,-0.007207720633149853,-0.03139985981948205,0.23230258950218266
1590504942.6732051,0.0,-4.4168480314657,8.73762850422242,1.0166666666666666,0.1111111111111111,-0.8488888888888889,-0.038769311357220955,-0.05817914199527786,0.2981148451727011
1590504942.6832051,0.03799340017768753,-4.3965789712255,8.465723714031874,1.0166666666666666,0.1111111111111111,-0.8488888888888889,0.009907171485175142,-0.028365199989576585,0.36495464241009645
1590504942.693205,0.08058845873824824,-4.370588458738248,8.56294419296635,1.0166666666666666,0.1111111111111111,-0.8488888888888889,0.012768807758226927,-0.027656122084732955,0.4052759383215044
1590504942.703205,0.09,-4.552980319422978,8.818340236991242,1.0166666666666666,0.1111111111111111,-0.8488888888888889,-0.007786362489332559,-0.046194508721090564,0.41634175145051766
1590504942.713205,0.0832500082337055,-4.615750090570761,8.731000230543755,0.7706669667394892,0.21011099035009717,-0.7768889767150808,-0.011617349629903137,-0.04835107533231335,0.4118977106559253
1590504942.723205,0.07333132354775666,-4.593337352904486,8.546638529668593,0.6522222222222223,0.2577777777777778,-0.7422222222222222,-0.002179030761825013,-0.03926727736670452,0.3959676278414617
1590504942.733205,0.0057562921069827105,-4.477352921295148,8.424075617944615,0.6522222222222223,0.2577777777777778,-0.7422222222222222,-0.00673748569064157,-0.03490658503988659,0.35884665590334514
1590504942.743205,-0.04574806619014981,-4.361259669049251,8.663151375697641,0.6522222222222223,0.2577777777777778,-0.7422222222222222,0.003212466214153128,-0.022993266713805766,0.3032078070751752
1590504942.753205,-0.07307800672439377,-4.358462405379515,8.607679520652153,0.6522222222222223,0.2577777777777778,-0.7422222222222222,0.008726338920206862,-0.01921564019917971,0.24040054933615287
1590504942.763205,-0.10477057956954476,-4.346605943013187,8.66210520642449,0.6172379720455607,0.27367970967626026,-0.7560038965342404,-0.016602412369851105,-0.036537677095996327,0.1505552644550507
1590504942.773205,-0.10223502728754695,-4.325529945424906,8.856463250407542,0.5788888888888889,0.2911111111111111,-0.7711111111111111,-0.01736281905040772,-0.031299815566364075,0.07663967246170536
1590504942.783205,-0.09034389396838896,-4.3493122120632215,8.529457084130696,0.5788888888888889,0.2911111111111111,-0.7711111111111111,0.011173852328867195,-0.004060265613419829,0.040320272524446366
1590504942.793205,0.006424464038217691,-4.472145321577069,8.651430214384714,0.5788888888888889,0.2911111111111111,-0.7711111111111111,0.009623089073413044,0.001675249220655036,-0.058083916473201117
1590504942.803205,0.04079020724760635,-4.512036722821477,8.711641619197673,0.5788888888888889,0.2911111111111111,-0.7711111111111111,0.009601981444907903,0.00947268408637178,-0.12371489880926309
1590504942.813205,0.026535120427290136,-4.514846115086163,8.783662198931776,0.57961501338081,0.2958309203085984,-0.7758309203085985,0.010994404637304701,0.011771848299500754,-0.17521479612331373
1590504942.823205,0.01905028911862625,-4.365985631680393,8.684158051515682,0.5811111111111111,0.3055555555555556,-0.7855555555555556,0.006425713903270694,0.003368253031216496,-0.2356838628923204
1590504942.833205,-0.06638393103829363,-4.416383931038293,8.614895839089352,0.5811111111111111,0.3055555555555556,-0.7855555555555556,0.009306690721482581,0.01768541880294014,-0.3030659074979721
1590504942.843205,-0.06283899650682756,-4.321381390917751,8.496113051762464,0.5811111111111111,0.3055555555555556,-0.7855555555555556,0.011379765651251535,0.019219267537144608,-0.36185167579802247
1590504942.853205,0.014105476918127711,-4.207156184654979,8.629817436062408,0.5811111111111111,0.3055555555555556,-0.7855555555555556,0.024698798672074532,0.03068088783800446,-0.4286540144258503
1590504942.863205,-0.015966617912759183,-4.394510883592877,8.860500731308612,0.5669185618553252,0.26356926400718883,-0.7577618132629748,0.004030058042775559,0.03506538102061309,-0.48745823692094664
1590504942.873205,0.01583199227550692,-4.46,8.668332796910203,0.5544444444444444,0.22666666666666666,-0.7333333333333333,0.006771787619179801,0.039951370206829484,-0.5425512143819241
1590504942.883205,0.16283847110204341,-4.48228123306449,8.62686983965061,0.5544444444444444,0.22666666666666666,-0.7333333333333333,0.023063686755858154,0.04952428782164542,-0.6006369739441719
1590504942.893205,0.3431311280887649,-4.557009804942023,8.561636030559777,0.5544444444444444,0.22666666666666666,-0.7333333333333333,0.027204598050864157,0.054312277772530095,-0.684287775839349
1590504942.903205,0.37,-4.559320098003891,8.639057072854364,0.5544444444444444,0.22666666666666666,-0.7333333333333333,0.03282778087050487,0.06386502947384827,-0.7547030522143554
1590504942.913205,1.2141256372307188,-4.274477881927314,7.526874856109194,0.5472296954082845,0.2350994902154251,-0.7303349960715525,-0.0706702283452906,0.17038109516146543,-0.8860369808200783
1590504942.923205,6.15640352213522,-1.2975527863258278,-3.6142341793364006,0.4688888888888889,0.32666666666666666,-0.6977777777777778,-2.197359344824897,0.4306739585947179,-1.4522342776884483
1590504942.933205,0.09042216358839056,-0.02,-0.9941978040684314,0.4688888888888889,0.32666666666666666,-0.6977777777777778,-3.4967135479193825,-0.5237606036733597,-0.7472374692337453
1590504942.9432049,-0.2742596413267735,-0.41892953499444535,-0.3944873829550865,0.4688888888888889,0.32666666666666666,-0.6977777777777778,-3.4291098356245193,-0.20797595152876167,-0.14320196608903085
1590504942.9532049,-0.03394763828139713,-0.7192790322918192,-0.05129648619802024,0.4688888888888889,0.32666666666666666,-0.6977777777777778,-3.513638249378625,-0.17598207755993966,-0.026874369468083525
1590504942.9632049,0.9553860107386446,-2.0546531708024958,3.4793397184733705,0.4655697447556394,0.3469134458794885,-0.6937948048178784,-3.524205943316963,-0.1516672694108296,0.10367435583253068
1590504942.9732049,2.5897322650777035,-4.885726306465899,10.246566148643208,0.4577777777777778,0.3944444444444444,-0.6844444444444444,-3.2553064266500686,-0.1464524428124428,0.19290809665308195
1590504942.9832048,1.06481715870168,-0.9790712771162942,4.447062469417713,0.4577777777777778,0.3944444444444444,-0.6844444444444444,-0.22693045074386187,-0.2422137888698264,0.1291457177097188
1590504942.9932048,2.5162722118640843,-1.773985769186865,9.711064647463948,0.4577777777777778,0.3944444444444444,-0.6844444444444444,1.9555881823968102,-0.19202535829347517,0.08107312047500942
1590504943.0032048,0.6498483689833731,-2.010648692346348,7.984596997968057,0.4577777777777778,0.3944444444444444,-0.6844444444444444,2.8656654710948284,0.10242996142898823,0.19250452262066203
1590504943.0132048,1.3672122905027932,-2.1073072625698326,6.316194483240224,0.4587753724394786,0.4368422175667287,-0.6724733085040348,4.566472462022304,0.12158847812669263,0.1343950752742697
1590504943.0232048,0.75,-2.46,7.49,0.46,0.4888888888888889,-0.6577777777777778,5.2698035102403775,-0.025089107997418484,0.13199052468207118
1590504943.0332048,0.24582276860033292,-1.5387306953515174,3.965342809578691,0.46,0.4888888888888889,-0.6577777777777778,3.7263819653783177,-0.3470727409391635,0.28698264612918445
1590504943.0432048,0.0963068619892059,-0.1250192752505782,-0.4079876638396299,0.46,0.4888888888888889,-0.6577777777777778,1.2350054749086936,-0.7190761564465439,0.5415205282152742
1590504943.0532048,1.389960044288259,-0.904565541809079,3.7217522745872045,0.46,0.4888888888888889,-0.6577777777777778,0.16131608693302474,-0.5437665684619378,0.6759091677575029
1590504943.0632048,3.4090713907476053,-4.330324459635103,16.240242622635154,0.46,0.4888888888888889,-0.6577777777777778,-0.40986786446179246,-0.07683470074072485,0.7926421346878061
1590504943.0732048,-0.19989938349035205,-4.572967519816382,10.167292695294778,0.4722222222222222,0.35,-0.7388888888888889,-1.0819569123642943,0.902440326627594,1.0244929342515259
1590504943.0832047,-0.2824935571196535,-1.530759501894965,3.62012885760693,0.4722222222222222,0.35,-0.7388888888888889,-0.021418624828213537,0.7055440111310121,0.9580958470122788
1590504943.0932047,-0.07213528267553493,-2.407147518353517,7.280717198970948,0.4722222222222222,0.35,-0.7388888888888889,0.13615110948126988,-0.42673530191271963,0.8185195970513595
1590504943.1032047,-0.08020235171379515,-3.278150579234498,9.81057314873177,0.4722222222222222,0.35,-0.7388888888888889,-0.38613356494572104,-0.07090677482391955,0.9784519058796467
1590504943.1132047,-0.1901555209953344,-3.64799066874028,10.578858475894245,0.48863469846207014,0.3451206151719371,-0.7397760497667185,-0.05568818379961185,0.04008285702052919,1.0877866351308079
1590504943.1232047,-0.0881165308940974,-2.4813888833289965,6.398695782710514,0.5133333333333333,0.3377777777777778,-0.7411111111111112,0.15796500885412612,-0.20049780256729471,1.1189525620748673
1590504943.1332047,-0.11720556322746103,-2.901177747090156,7.742794436772539,0.5133333333333333,0.3377777777777778,-0.7411111111111112,0.08463364168662652,-0.08408198559845734,1.187582243630265
1590504943.1432047,-0.1378915959755376,-2.81843361609785,7.722108404024462,0.5133333333333333,0.3377777777777778,-0.7411111111111112,-0.1327421520672683,0.0753770741794863,1.2492598044877714
1590504943.1532047,-0.29054156712441775,-3.6961021260505644,10.078451265833662,0.5133333333333333,0.3377777777777778,-0.7411111111111112,-0.09113968711867779,-0.1725917102388695,1.256568011545538
1590504943.1632047,-0.2617063403399619,-3.1049799769692177,8.03115016413729,0.5133333333333333,0.3377777777777778,-0.7411111111111112,0.013446036595518768,-0.04362886295219101,1.3328448175626586
1590504943.1732047,-0.21397505295363617,-3.37945227754124,8.653338753503498,0.5255555555555556,0.31555555555555553,-0.7388888888888889,-0.0242315482235241,-0.11304749511859825,1.4290577345730668
1590504943.1832047,0.9101447804412072,-10.189559688348906,7.019739096689453,0.5255555555555556,0.31555555555555553,-0.7388888888888889,-0.09822074950062017,-0.13651399306380535,1.4433292704945595
1590504943.1932046,1.5238531782471176,-15.261602557562153,5.085864707682889,0.5255555555555556,0.31555555555555553,-0.7388888888888889,-0.24153224305512638,-0.09825405163347588,0.2719378851035279
1590504943.2032046,-0.4266593316316052,-0.47183815978640375,5.754498136901094,0.5255555555555556,0.31555555555555553,-0.7388888888888889,-0.4405536293749979,-0.028714712923709126,-2.0767064121557604
1590504943.2132046,0.9835239440470223,-1.9534287146307012,6.607953251013806,0.5336878236964809,0.30770371045397243,-0.7388888888888889,0.43799437985813866,0.41283270554448354,-3.3159230889451528
1590504943.2232046,0.47999386341719996,-1.9080687297273604,4.972875719587388,0.5577777777777778,0.28444444444444444,-0.7388888888888889,0.7315488130000709,0.3190195044489995,-2.9573091273299403
1590504943.2332046,-0.011996860830136069,-3.2239553540286012,9.211138821067319,0.5577777777777778,0.28444444444444444,-0.7388888888888889,-0.18301987024106742,0.15090104841825494,-2.7989475617783075
1590504943.2432046,-0.2853031130529765,-3.34,9.677752594210814,0.5577777777777778,0.28444444444444444,-0.7388888888888889,-0.39493644652868887,0.2201830912967471,-2.6596049616215063
1590504943.2532046,-0.09329548941393065,-3.368742904265112,8.553262120282294,0.5577777777777778,0.28444444444444444,-0.7388888888888889,0.03572552399053078,0.24617319081680308,-2.517786958267901
1590504943.2632046,-2.9176250460405155,-8.990839779005524,7.2381561694290975,0.5485361162267239,0.3000232453447923,-0.7423215060364232,0.3572905939651011,0.28670391838902504,-2.33316257253472
1590504943.2732046,-5.897343485617597,-15.37500742850068,10.489155008047543,0.5188888888888888,0.35,-0.7533333333333333,-0.10551360225838877,0.160585543276628,-0.8246743290671668
1590504943.2832046,0.10068230838024089,-1.2384065442685044,10.20065127045084,0.5188888888888888,0.35,-0.7533333333333333,-0.17901428920056378,-0.16555556403132687,1.2198757943564553
1590504943.2932045,-0.16956254383913955,-2.438861351414543,6.6491589899462245,0.5188888888888888,0.35,-0.7533333333333333,0.2836388810551552,-0.28195797636609254,1.8606783968786924
1590504943.3032045,-0.018487007043654802,-2.3686644912252777,8.01377651319193,0.5188888888888888,0.35,-0.7533333333333333,0.12155863326197341,-0.030593877083301652,1.785766347799196
1590504943.3132045,-0.6167973912297262,-1.666843945765039,9.915327598043422,0.5080087149708706,0.3524933731895458,-0.751973311593581,-0.31858390267093845,-0.14334897689263,1.2697821199802126
1590504943.3232045,0.012533024780638318,-2.560930479220904,11.251978594156784,0.4655555555555556,0.3622222222222222,-0.7466666666666667,-0.3223310825400127,-0.25597899410413383,-0.2436500082944832
1590504943.3332045,-0.052175103654420976,-1.962380291196606,6.762852183974544,0.4655555555555556,0.3622222222222222,-0.7466666666666667,0.12676991436899637,0.29547114944818575,-0.6724576399207669
1590504943.3432045,-0.12697065698224735,-4.274880135993973,7.3983887418625764,0.4655555555555556,0.3622222222222222,-0.7466666666666667,0.26627553006119786,0.10076076025004335,-0.6440947712648971
1590504943.3532045,-0.6698224737767303,-14.499939729943787,9.318625765449031,0.4655555555555556,0.3622222222222222,-0.7466666666666667,-0.10404509502417059,-0.030044615675098724,-0.5857626441631445
1590504943.3632045,0.1506125326587318,-0.7203854767138058,9.43662754530751,0.47469679794670466,0.36349774441633603,-0.7492177110548943,-0.16318691434141383,0.01906438620685233,-0.1998690116174975
1590504943.3732045,0.27172394405790995,-2.3096626607632302,7.260002811160306,0.5133333333333333,0.3688888888888889,-0.76,0.19680077635331694,-0.02392291797258638,0.10765370584542562
1590504943.3832045,0.18260469056064377,-4.987225016323434,8.53483667743131,0.5133333333333333,0.3688888888888889,-0.76,0.05638684820490275,-0.0022509417454542914,0.05728140760090738
1590504943.3932045,0.12436216453323765,-4.746401882202815,9.044729034573512,0.5133333333333333,0.3688888888888889,-0.76,-0.15119883808771062,-0.0626098676808306,-0.05801486752617771
1590504943.4032044,-0.021367222868969082,-4.494798861725521,8.383351442245505,0.5133333333333333,0.3688888888888889,-0.76,-0.03429534730223627,-0.004608975230920545,-0.029718542478560477
1590504943.4132044,0.10385770067853028,-4.408901229035975,8.803383369606964,0.5103759299563294,0.3661589780793468,-0.7581800594603053,0.0038649010249122285,0.0023791311241338656,0.00042080986497982915
1590504943.4232044,0.07672088384225871,-4.5731164646309646,8.696720883842259,0.4988888888888889,0.3555555555555556,-0.7511111111111111,-0.009406553370375301,-0.0007331346980718854,-0.002181661564992912
1590504943.4332044,0.059405806369100915,-4.631782580892697,8.624669139276122,0.4988888888888889,0.3555555555555556,-0.7511111111111111,-0.01488641520400663,-0.0001926078754718771,-0.0017964458140491578
1590504943.4432044,0.030903809462559224,-4.708927047827299,8.380621047441421,0.4988888888888889,0.3555555555555556,-0.7511111111111111,-0.009441566376645423,4.929515916355883e-05,-0.00022802518833200296
1590504943.4532044,0.1070843443096476,-4.438542172154824,8.619475880993646,0.4988888888888889,0.3555555555555556,-0.7511111111111111,0.00491990835117036,0.004045274432166089,-0.001090830782496456
1590504943.4632044,0.08285384170999423,-4.426426920854997,8.698225014442519,0.4988888888888889,0.3555555555555556,-0.7511111111111111,0.009545399520606263,0.001402136621059858,-0.001090830782496456
1590504943.4732044,0.07,-4.6136381514257625,8.748068256309407,0.4988888888888889,0.3555555555555556,-0.7511111111111111,-0.0003224046732599739,0.0,-0.00021072054815924246
1590504943.4832044,0.08,-4.6634240881477655,8.633151823704468,0.4988888888888889,0.3555555555555556,-0.7511111111111111,-0.009050925550363312,0.001090830782496456,-0.0005797964544265946
1590504943.4932044,0.07818001178748843,-4.699960259324746,8.505479834975162,0.4988888888888889,0.3555555555555556,-0.7511111111111111,-0.0037655658625950737,0.001487890615694122,0.000296711116101124
1590504943.5032043,0.07111711711711713,-4.544576576576576,8.60436036036036,0.4988888888888889,0.3555555555555556,-0.7511111111111111,0.007020626225364579,0.0030287751996883583,-0.0027850580518873477
1590504943.5132043,0.08958739811647451,-4.685667680222982,8.652063009417628,0.4987513549277137,0.355440943921243,-0.751019421803661,0.015069095478990855,0.002204165506766193,-0.001068326840723175
1590504943.5232043,0.07187423455382407,-4.499679462815153,8.74062882723088,0.4928469670734969,0.35052062070939555,-0.7470831632341831,0.0063741666477006905,0.003170268710242878,-0.00010222363724648998
1590504943.5332043,0.07,-4.604855024220023,8.628442342569848,0.4922222222222222,0.35,-0.7466666666666667,-0.011141479509709952,0.0035372928409377375,-0.00023317168474539136
1590504943.5432043,0.07,-4.630319325407797,8.534127730163119,0.4922222222222222,0.35,-0.7466666666666667,-0.012570037880689049,0.00368792486142049,-0.003913057617608935
1590504943.5532043,0.07,-4.667311409564453,8.564787247395508,0.4922222222222222,0.35,-0.7466666666666667,-0.0013018224024069665,0.0007975510616344743,-0.002035021704561921
1590504943.5632043,0.07,-4.652269719736772,8.647516541447757,0.4922222222222222,0.35,-0.7466666666666667,0.00362055908303285,-0.0008432427668454644,-0.0012146247903219516
1590504943.5732043,0.06183089687870407,-4.531970762544448,8.744507309363888,0.4988888888888889,0.3555555555555556,-0.76,0.0052391770676346976,-0.0006913910475230402,-0.0003994397349734158
1590504943.5832043,0.07017143851710035,-4.628971368897398,8.717771299277697,0.4988888888888889,0.3555555555555556,-0.76,-0.0055289580771857175,0.0010534287001447368,-0.0021629605238170525
1590504943.5932043,0.08,-4.587476633262671,8.586116303719406,0.4988888888888889,0.3555555555555556,-0.76,-0.008334717634009647,-0.001090830782496456,-0.001090830782496456
1590504943.6032043,0.07842894936451261,-4.647431594916101,8.579426303812925,0.4988888888888889,0.3555555555555556,-0.76,-0.0009820362891577257,-0.0009194557430914293,-0.0012622058219014826
1590504943.6132042,0.07066934305218953,-4.585354744417516,8.625983941686863,0.4988888888888889,0.3555555555555556,-0.76,0.00494305590871736,-7.301400053784574e-05,-0.002108647564455066
1590504943.6232042,0.07,-4.612326768166674,8.670408460208343,0.5105624440601877,0.3609433502500012,-0.7492244106111088,0.010743608984707408,0.0017631516907417096,-0.002181661564992912
1590504943.6332042,0.06871823475602955,-4.548972356707793,8.719491756096472,0.5133333333333333,0.3622222222222222,-0.7466666666666667,0.0013427481745586771,0.0023214804633986176,0.0001398188984057058
1590504943.6432042,0.06058306725508938,-4.611749201765268,8.58,0.5133333333333333,0.3622222222222222,-0.7466666666666667,-0.004554131443020987,0.003272492347489368,0.0009000224694612926
1590504943.6532042,0.06911309511704054,-4.637339285351121,8.58,0.5133333333333333,0.3622222222222222,-0.7466666666666667,-0.007345576533231611,0.003272492347489368,-0.0018914226207493309
1590504943.6632042,0.09737882467217096,-4.630873725109276,8.607378824672171,0.5133333333333333,0.3622222222222222,-0.7466666666666667,-0.0016626825292796873,0.002276970189456784,-0.000190617248927744
1590504943.6732042,0.077909321350386,-4.615272880900258,8.683635595498714,0.4977880409502716,0.3622222222222222,-0.7401212804001144,0.0029253679303762447,0.0005751820798438317,0.0
1590504943.6832042,0.09871765476580413,-4.552564690468391,8.723588273829021,0.4922222222222222,0.3622222222222222,-0.7377777777777778,0.002992728016439671,-0.001044203393988173,0.001044203393988173
1590504943.6932042,0.07295836062888962,-4.6040832787422215,8.594791803144448,0.4922222222222222,0.3622222222222222,-0.7377777777777778,-0.002627078179545694,-0.00010756902799061228,0.00010756902799061228
1590504943.7032042,0.07284692621854436,-4.612846926218545,8.598102049187636,0.4922222222222222,0.3622222222222222,-0.7377777777777778,-0.010183687715538198,0.0019746272480139515,-0.0029619408720209274
1590504943.7132041,0.09528793850653636,-4.635287938506536,8.583141374328976,0.4922222222222222,0.3622222222222222,-0.7377777777777778,-0.004471840083576186,0.0003426707817390912,-0.0005140061726086366
1590504943.7232041,0.09104279756773757,-4.61,8.66417119027095,0.4988888888888889,0.3555555555555556,-0.7466666666666667,0.005681657049842396,0.0042495715613057655,0.0009770792138163978
1590504943.7332041,0.0962967082439554,-4.6090741770609895,8.6916675935489,0.4988888888888889,0.3555555555555556,-0.7466666666666667,0.006928874164764902,0.003171500731387898,-0.00030297484830441013
1590504943.743204,0.061744088317470414,-4.60174408831747,8.61174408831747,0.4988888888888889,0.3555555555555556,-0.7466666666666667,-0.0009512526120445891,0.002181661564992912,-0.0030822418250804505
1590504943.753204,0.07,-4.611485156395087,8.622227734592629,0.4988888888888889,0.3555555555555556,-0.7466666666666667,-0.005211145765594986,0.002100658849363814,-0.002181661564992912
1590504943.763204,0.07,-4.622612686705755,8.63891903005863,0.4988888888888889,0.3555555555555556,-0.7466666666666667,-0.0033904078761891744,0.0014937462195618767,-0.002181661564992912
1590504943.773204,0.07,-4.623877887788779,8.656122112211222,0.4914063072973964,0.35963696369636966,-0.7466666666666667,0.0018252515073455557,0.001090830782496456,-0.002181661564992912
1590504943.783204,0.08158038038833794,-4.58,8.664468668640817,0.4866666666666667,0.3622222222222222,-0.7466666666666667,0.006027806422282918,0.001090830782496456,-0.002267857943775548
1590504943.793204,0.0982518830613908,-4.58,8.606118409285132,0.4866666666666667,0.3622222222222222,-0.7466666666666667,0.000572069930411521,0.001090830782496456,-0.003177147359087448
1590504943.803204,0.08459723903099424,-4.595402760969005,8.630805521938012,0.4866666666666667,0.3622222222222222,-0.7466666666666667,-0.006720722320170571,0.0019309210725177773,-0.0007522214774254039
1590504943.813204,0.08,-4.633891446370979,8.64,0.4866666666666667,0.3622222222222222,-0.7466666666666667,-0.009650892084091438,0.00033316991675333483,-0.001848491648239577
1590504943.823204,0.07354671157596171,-4.627093423151924,8.64645328842404,0.4995732435147433,0.3493156453741456,-0.7466666666666667,-0.006297754211833599,0.002111833698380703,-0.001477716998866011
1590504943.833204,0.07866487596776742,-4.611335124032233,8.641335124032233,0.5066666666666667,0.3422222222222222,-0.7466666666666667,0.003198207615737753,0.0051628750339202615,-0.001090830782496456
1590504943.843204,0.08097848135678287,-4.6180430372864345,8.585870888140697,0.5066666666666667,0.3422222222222222,-0.7466666666666667,0.00481373936203569,0.002952285072266073,0.0
1590504943.853204,0.08974968108910683,-4.600500637821786,8.638498086534641,0.5066666666666667,0.3422222222222222,-0.7466666666666667,-0.0009269974384305078,8.1916672032974e-05,0.0
1590504943.863204,0.09857088767353808,-4.6085708876735385,8.631429112326463,0.5066666666666667,0.3422222222222222,-0.7466666666666667,-0.0029607084040194093,0.0018698776215229532,0.0009349388107614766
1590504943.873204,0.07,-4.63,8.631981272787538,0.4922222222222222,0.3377777777777778,-0.7466666666666667,-0.0037869942379409613,-0.0008026663364740247,-0.002181661564992912
1590504943.883204,0.07,-4.63,8.65283460391117,0.4922222222222222,0.3377777777777778,-0.7466666666666667,0.0022789938973257077,0.00223032773115931,-0.002181661564992912
1590504943.893204,0.0702620551146129,-4.580262055114613,8.58183438580229,0.4922222222222222,0.3377777777777778,-0.7466666666666667,0.008497960031387334,0.0021244900078468336,-0.0011480023396425345
1590504943.903204,0.0783618175849217,-4.5883618175849215,8.638532723094452,0.4922222222222222,0.3377777777777778,-0.7466666666666667,0.001429583844569443,0.00035739596114236073,-0.002915096386347007
1590504943.913204,0.07176409776749453,-4.606471804465011,8.666471804465012,0.4922222222222222,0.3377777777777778,-0.7466666666666667,-0.0071871805414786055,0.0008983975676848257,-0.003272492347489368
1590504943.923204,0.07971993962770418,-4.658599698138521,8.660280060372296,0.4922222222222222,0.35505767044925196,-0.7304667672871596,-0.01084720812995302,0.004271673587468513,0.0009686313924733752
1590504943.933204,0.07017192496994716,-4.6098280750300535,8.628624600240423,0.4922222222222222,0.3555555555555556,-0.73,-0.004250798500286945,0.0032162300326399286,-0.0021441533550932857
1590504943.943204,0.07968518224500443,-4.600314817754995,8.552518542039966,0.4922222222222222,0.3555555555555556,-0.73,0.00197561382617755,0.0001030238694076811,-6.868257960512044e-05
1590504943.953204,0.08901347322338378,-4.580986526776616,8.622959580329848,0.4922222222222222,0.3555555555555556,-0.73,-0.00010761337756899784,0.002127854876208413,-0.0031110722811358714
1590504943.963204,0.07318413405291166,-4.596815865947088,8.670447597841264,0.4922222222222222,0.3555555555555556,-0.73,-0.001834326420941789,0.0012644983545220174,-0.0005210027160766845
1590504943.973204,0.07,-4.620499258725007,8.640499258725008,0.5066666666666667,0.3622222222222222,-0.7466666666666667,-0.004199941094285549,0.00016338203570027458,0.0
1590504943.983204,0.07,-4.628902311976599,8.6489023119766,0.5066666666666667,0.3622222222222222,-0.7466666666666667,-0.00145004834814726,0.002913274781838564,0.0
1590504943.9932039,0.08061154457448345,-4.58816536627655,8.574892356595868,0.5066666666666667,0.3622222222222222,-0.7466666666666667,0.004363323129985824,0.0041631956359712485,0.0
1590504944.0032039,0.0881868588354284,-4.565439423493714,8.635494870683427,0.5066666666666667,0.3622222222222222,-0.7466666666666667,0.004363323129985824,0.0016841798410943058,0.0
1590504944.0132039,0.08255101564324072,-4.582346953070278,8.672346953070278,0.5066666666666667,0.3622222222222222,-0.7466666666666667,0.0003005324126420317,0.0019033889259652144,-0.0008125581434687586
1590504944.0232038,0.0803869104908566,-4.590773820981713,8.667291626564003,0.5066666666666667,0.35,-0.7388888888888889,-0.0075514047027757545,0.0022238669523426307,0.0
1590504944.0332038,0.08772666025024062,-4.605453320500481,8.615913378248315,0.5066666666666667,0.35,-0.7388888888888889,-0.0059501197081043445,0.0030245094496783352,0.0
1590504944.0432038,0.09890062209211146,-4.619267081394741,8.562198755815778,0.5066666666666667,0.35,-0.7388888888888889,-0.000970907256144318,0.00015989803513618393,-0.002181661564992912
1590504944.0532038,0.0769742276125255,-4.604649485075017,8.606051544774948,0.5066666666666667,0.35,-0.7388888888888889,0.0014208913486049555,0.0033489628414685485,-0.002181661564992912
1590504944.0632038,0.07,-4.5718276286628905,8.676344742674218,0.5066666666666667,0.35,-0.7388888888888889,-0.00012318517529004555,0.004363323129985824,-0.0006450970714709404
1590504944.0732038,0.06318668062636562,-4.587253277494537,8.7,0.5195362699279761,0.3537851774297969,-0.7328326050012138,-0.003320484333618412,0.0013904517284898834,-0.0029728714014959404
1590504944.0832038,0.08011746599370799,-4.610352397981124,8.658590408075504,0.5255555555555556,0.3555555555555556,-0.73,-0.0053900861515656755,0.0011164578868630975,-0.0011164578868630975
1590504944.0932038,0.0896104836701899,-4.638831451010569,8.54467419595772,0.5255555555555556,0.3555555555555556,-0.73,-0.00021244820142095333,0.0031875130669209864,-0.0031875130669209864
1590504944.1032038,0.09,-4.613710538355956,8.645157846576177,0.5255555555555556,0.3555555555555556,-0.73,0.0028677354016583665,0.0013606687463837903,-0.00040475694583100167
1590504944.1132038,0.07503075081520617,-4.595030750815206,8.674969249184795,0.5255555555555556,0.3555555555555556,-0.73,0.003272492347489368,0.0019072766725781102,0.0008164458900816542
1590504944.1232038,0.07,-4.572087171151646,8.733738486545061,0.48475411206763924,0.36152649850500673,-0.7449273573736279,0.0013185058365519139,0.002181661564992912,-0.001840148983909725
1590504944.1332037,0.09277854521056164,-4.5851856968070415,8.702035757982397,0.48,0.3622222222222222,-0.7466666666666667,-0.002222174323659256,0.002181661564992912,-0.0005251590119150558
1590504944.1432037,0.07414901938063097,-4.633084967698948,8.577979083982735,0.48,0.3622222222222222,-0.7466666666666667,-0.0023325241669117994,0.0012416933844153436,-0.0018799363611551366
1590504944.1532037,0.07723441940130017,-4.6255311611974,8.5889376776052,0.48,0.3622222222222222,-0.7466666666666667,-0.0006033560897073511,0.002669136257782017,0.0001857966479354295
1590504944.1632037,0.08,-4.6262151805122915,8.624860722049167,0.48,0.3622222222222222,-0.7466666666666667,0.0020339130664740186,0.0019165503031733555,-0.00026511126181955644
1590504944.1732037,0.08,-4.62125697934115,8.6749720826354,0.4858286804392332,0.3563935417829891,-0.738895092747689,0.0004113455274866243,0.002998261995831619,-0.00013711517582887473
1590504944.1832037,0.06134560493026273,-4.626218131689912,8.661345604930263,0.4866666666666667,0.3555555555555556,-0.7377777777777778,-0.0027131717827892712,0.0025941994017920503,-0.0006782929456973178
1590504944.1932037,0.06393803322855861,-4.62303098338572,8.573340817242928,0.4866666666666667,0.3555555555555556,-0.7377777777777778,-0.004363323129985824,0.001421459780334403,-0.0026112343518134747
1590504944.2032037,0.07588338577612434,-4.614116614223876,8.557650157328373,0.4866666666666667,0.3555555555555556,-0.7377777777777778,-0.002437989637016356,0.002374386444476101,-0.0026307145164995455
1590504944.2132037,0.07428513314766719,-4.5928553994430015,8.63286353537566,0.4866666666666667,0.3555555555555556,-0.7377777777777778,0.0007793550216215253,0.0026490970794500407,-0.00031147576087493063
1590504944.2232037,0.07,-4.5985966952667265,8.698596695266726,0.4825340677185052,0.36382075345187853,-0.7432879097086598,0.00488644125161312,0.002181661564992912,-0.00026155906081364835
1590504944.2332036,0.06109708913397216,-4.61,8.701097089133972,0.48,0.3688888888888889,-0.7466666666666667,0.0007180431590875242,0.002181661564992912,-0.001090830782496456
1590504944.2432036,0.07388070350683172,-4.603059648246584,8.595894723698763,0.48,0.3688888888888889,-0.7466666666666667,-0.003785374666989637,0.003695811431788767,-0.001090830782496456
1590504944.2532036,0.08799574248484066,-4.6159914849696815,8.573987227454522,0.48,0.3688888888888889,-0.7466666666666667,-0.001965353099930719,0.0008745223174342633,0.0006535696237793243
1590504944.2632036,0.08319680871320309,-4.613196808713203,8.634425530294376,0.48,0.3688888888888889,-0.7466666666666667,-0.001090830782496456,0.0007421130474849742,0.0003487177350114818
1590504944.2732036,0.08,-4.575425243118794,8.677287378440603,0.4905645090470354,0.3573639699284867,-0.7322605179661638,-0.001090830782496456,0.0020337110100802453,0.0
1590504944.2832036,0.06299765074393109,-4.604004698512139,8.645995301487863,0.4922222222222222,0.3555555555555556,-0.73,-0.001090830782496456,0.00032699297066534315,-0.0009273342971637844
1590504944.2932036,0.07668197093766271,-4.61,8.564931130780518,0.4922222222222222,0.3555555555555556,-0.73,-0.004730272264799206,0.0,-0.00018097041192076857
1590504944.3032036,0.08,-4.6187079968092535,8.584831987237013,0.4922222222222222,0.3555555555555556,-0.73,-0.00545415391248228,0.0,0.0
1590504944.3132036,0.0736084015787735,-4.613608401578774,8.634741188948585,0.4922222222222222,0.3555555555555556,-0.73,-0.004059723451036355,0.0013944304614459243,0.0
1590504944.3232036,0.06253531546130271,-4.61,8.689858738154788,0.49719867858135375,0.3605320119146871,-0.7424411408978289,0.0007988614907288132,0.0013673907973492756,0.0
1590504944.3332036,0.08130316825309239,-4.604674207936727,8.689348415873454,0.4988888888888889,0.3622222222222222,-0.7466666666666667,0.0027626153573722728,0.0022527383672551774,-0.0005809537923793605
1590504944.3432035,0.09085148040116675,-4.604574259799416,8.634257402005833,0.4988888888888889,0.3622222222222222,-0.7466666666666667,0.0017755693285874507,0.002274543668221423,-9.28821032285111e-05
1590504944.3532035,0.06419964905439657,-4.617900175472802,8.603700526418404,0.4988888888888889,0.3622222222222222,-0.7466666666666667,-0.0043088772964278025,0.001090830782496456,-0.0023562710546457854
1590504944.3632035,0.07280506187773332,-4.613597469061133,8.6292075928166,0.4988888888888889,0.3622222222222222,-0.7466666666666667,-0.004755746129082111,-0.00030598478430388164,-0.003272492347489368
1590504944.3732035,0.08,-4.617048848156115,8.675244240780573,0.5129865852011181,0.35360696336474884,-0.751365898770743,0.0002501371999140854,0.0012158993824534987,-0.0017346722375227316
1590504944.3832035,0.07288306451612904,-4.605766129032258,8.682883064516128,0.5188888888888888,0.35,-0.7533333333333333,0.005287010486132016,0.0006289871044233598,0.00046184367807309613
1590504944.3932035,0.07,-4.605235237419754,8.627647625802462,0.5188888888888888,0.35,-0.7533333333333333,0.0025474540031774308,-0.0022843032524578885,0.0005197549693819838
1590504944.4032035,0.08263787428754917,-4.61,8.592637874287549,0.5188888888888888,0.35,-0.7533333333333333,-0.001780119897405411,-0.002984744900167914,0.0
1590504944.4132035,0.08358732022307015,-4.622825359553859,8.62565071910772,0.5188888888888888,0.35,-0.7533333333333333,-0.002181661564992912,-8.31170153026352e-05,0.0
1590504944.4232035,0.08,-4.63,8.670255654514,0.49871845254622216,0.3542021742380556,-0.7516524636381111,-0.0005314716005704527,-0.0005593591819260033,-0.0016501899644224593
1590504944.4332035,0.08672061845581759,-4.616558763088365,8.686720618455817,0.4922222222222222,0.3555555555555556,-0.7511111111111111,0.0014662114978039262,-0.0025570422803003826,-0.0007154500671889858
1590504944.4432034,0.09,-4.61,8.609450574050976,0.4922222222222222,0.3555555555555556,-0.7511111111111111,0.003060319498369043,-0.001515176480737106,0.0017573158667522617
1590504944.4532034,0.09,-4.61,8.606730894839973,0.4922222222222222,0.3555555555555556,-0.7511111111111111,0.002359963591981637,-0.002003359538004187,0.0012691328094851812
1590504944.4632034,0.07728490318823701,-4.603642451594118,8.635430193623526,0.4922222222222222,0.3555555555555556,-0.7511111111111111,0.001488160614758231,-0.00079465966452355,-0.000989672068207587
1590504944.4732034,0.07,-4.6,8.67038962246606,0.4956204926332321,0.3555555555555556,-0.752243867914781,0.0005347900867599907,0.0005560406957364652,-0.0010695801735199815
1590504944.4832034,0.07681369666078547,-4.606813696660786,8.696813696660785,0.4988888888888889,0.3555555555555556,-0.7533333333333333,0.00222977701805343,0.0018340897885142662,-0.0007432590060178101
1590504944.4932034,0.07355716115603235,-4.5971143223120645,8.622685933872388,0.4988888888888889,0.3555555555555556,-0.7533333333333333,0.0018668829599566077,0.0014788568712265319,-0.0003880260887300759
1590504944.5032034,0.07,-4.603979987275146,8.621939961825438,0.4988888888888889,0.3555555555555556,-0.7533333333333333,0.00032834075956455306,-0.00043414926336734984,0.0030499600917276116
1590504944.5132034,0.07626253599443948,-4.628787607983319,8.64,0.4988888888888889,0.3555555555555556,-0.7533333333333333,0.0,-0.0017739674864191198,0.0009476396103725044
1590504944.5232034,0.06558686031290906,-4.625586860312909,8.654413139687092,0.474866989410404,0.3555555555555556,-0.7365180036983939,0.0,-0.001395546742837905,-0.0018769456046514629
1590504944.5332034,0.0810085996390275,-4.605994266907315,8.63198853381463,0.4655555555555556,0.3555555555555556,-0.73,-0.0007638942394465043,-0.0033825135008359684,0.0016378096322396101
1590504944.5432034,0.0805409677254882,-4.6047295161372555,8.591622903176464,0.4655555555555556,0.3555555555555556,-0.73,-0.0005749206036132088,-0.002815592593336082,0.002756582168606121
1590504944.5532033,0.07,-4.601436293133838,8.58997297403157,0.4655555555555556,0.3555555555555556,-0.73,0.0,-0.0020249862886851096,0.0012475060588042583
1590504944.5632033,0.07550868286393489,-4.60101736572787,8.646526048591806,0.4655555555555556,0.3555555555555556,-0.73,-0.0006009040838990912,-0.0026715882635902767,0.0012018081677981824
1590504944.5732033,0.08,-4.603580646215165,8.666419353784834,0.4791075246568729,0.3555555555555556,-0.7207276000885723,-0.0031915593961662457,-0.002181661564992912,0.0007811758225463857
1590504944.5832033,0.08549197908357706,-4.616475937250731,8.675491979083576,0.4866666666666667,0.3555555555555556,-0.7155555555555555,-0.0037642411458665703,-0.0015825795808736584,0.0005990819841192537
1590504944.5932033,0.07800334229455788,-4.618003342294558,8.62601504032551,0.4866666666666667,0.3555555555555556,-0.7155555555555555,0.0013077208817699826,-0.0004365146068879773,0.001090830782496456
1590504944.6032033,0.07,-4.61,8.637795831861533,0.4866666666666667,0.3555555555555556,-0.7155555555555555,0.0036185064918488937,-0.0007448166381369303,0.001090830782496456
1590504944.6132033,0.07,-4.61,8.665652468022303,0.4866666666666667,0.3555555555555556,-0.7155555555555555,0.0014227265127480732,-0.0004742421709160243,0.0004742421709160243
1590504944.6232033,0.07,-4.61,8.665777275411907,0.4890126247711633,0.35320959745105895,-0.7286929209407367,-0.000921255593339505,-0.000921255593339505,0.0004606277966697525
1590504944.6332033,0.07,-4.604779264728503,8.665220735271497,0.4922222222222222,0.35,-0.7466666666666667,-0.001042673816710195,-0.0016121676908515533,0.001090830782496456
1590504944.6432033,0.07,-4.6,8.60076029004052,0.4922222222222222,0.35,-0.7466666666666667,0.0,0.00028242025377494097,-0.0009690457719106393
1590504944.6532032,0.07,-4.593427677162195,8.606006259864637,0.4922222222222222,0.35,-0.7466666666666667,0.0007169292063982486,0.001090830782496456,0.001402984466998331
1590504944.6632032,0.0755735195637616,-4.595573519563762,8.641147039127524,0.4922222222222222,0.35,-0.7466666666666667,-0.00012512255890301835,0.0004828541117967188,0.0038804690181891053
1590504944.6732032,0.08,-4.606062012505641,8.656062012505641,0.48885443749686647,0.35740912639578276,-0.7412782111060974,-0.0017520937669995612,-0.0006612629845031053,0.0017182711919734028
1590504944.6832032,0.08,-4.61,8.646284461875648,0.4866666666666667,0.3622222222222222,-0.7377777777777778,-0.002181661564992912,-0.0033350304601783443,0.0007480665592272961
1590504944.6932032,0.08,-4.615301152953507,8.592289623418432,0.4866666666666667,0.3622222222222222,-0.7377777777777778,-0.0004468633176705084,-0.0008937266353410168,0.001669096864937257
1590504944.7032032,0.07448494972323214,-4.6144849497232325,8.583090301660608,0.4866666666666667,0.3622222222222222,-0.7377777777777778,0.001090830782496456,0.001580062904101512,0.001580062904101512
1590504944.7132032,0.07823027283718627,-4.61,8.638805954930152,0.4866666666666667,0.3622222222222222,-0.7377777777777778,0.001539722530453817,0.0006419390345390949,0.00019304728658173383
1590504944.7232032,0.09,-4.609377469558907,8.679377469558906,0.4866666666666667,0.3622222222222222,-0.7387461584639231,0.002181661564992912,0.00013581507363716861,-0.0010229232456778717
1590504944.7332032,0.0862754400302988,-4.607449119939402,8.666275440030299,0.4866666666666667,0.3622222222222222,-0.7533333333333333,0.00015022923189084462,0.0005565156985112582,0.0
1590504944.7432032,0.07613414634146341,-4.612268292682927,8.61360975609756,0.4866666666666667,0.3622222222222222,-0.7533333333333333,-0.002850793130353543,-0.0009165639135854365,0.0
1590504944.7532032,0.07909185485462145,-4.604545927427311,8.590005201700418,0.4866666666666667,0.3622222222222222,-0.7533333333333333,-0.001189894050451821,-0.0003968204893151806,0.0
1590504944.7632031,0.09305694676312372,-4.600829159710629,8.653056946763124,0.4866666666666667,0.3622222222222222,-0.7533333333333333,-0.0003334611629668261,-0.002181661564992912,0.0
1590504944.7732031,0.08988953114964676,-4.590110468850353,8.670110468850353,0.48947513023620925,0.3622222222222222,-0.7415377863412546,-0.0005393902501246123,-0.000527339967877381,0.0005514405323718437
1590504944.7832031,0.09269184795601243,-4.612691847956012,8.641924456131962,0.4922222222222222,0.3622222222222222,-0.73,-0.0006922329218591543,0.00039859786063730165,0.001090830782496456
1590504944.793203,0.09035336264452044,-4.615176681322261,8.586236769255821,0.4922222222222222,0.3622222222222222,-0.73,-0.0021431156799901875,0.0,0.001090830782496456
1590504944.803203,0.08442673573065046,-4.605573264269349,8.576560414383902,0.4922222222222222,0.3622222222222222,-0.73,-0.0023067284272952748,0.0,0.0006079488223994095
1590504944.813203,0.08514951703395222,-4.6048504829660475,8.624551448898144,0.4922222222222222,0.3622222222222222,-0.73,0.0004964860563054321,0.0005291056129339626,-0.0005291056129339626
1590504944.823203,0.08,-4.614664706963072,8.658658827852287,0.48652091371180106,0.3622222222222222,-0.7398477146998182,0.00167282097032848,0.001090830782496456,-0.0021085119718253194
1590504944.833203,0.08,-4.61374052232519,8.68,0.48,0.3622222222222222,-0.7511111111111111,0.001090830782496456,0.001090830782496456,-0.00258968925448611
1590504944.843203,0.07515300594973803,-4.61,8.616989077346595,0.48,0.3622222222222222,-0.7511111111111111,0.001090830782496456,3.3380719975870544e-05,-0.0011242115024723265
1590504944.853203,0.08333207300725261,-4.61,8.589996219021758,0.48,0.3622222222222222,-0.7511111111111111,0.0020603664912165385,-0.0006060629281364148,-0.0009695357087200824
1590504944.863203,0.09464271241388626,-4.604642712413886,8.6587505065514,0.4889288126435229,0.3589483242529305,-0.7478372131418194,0.003272492347489368,0.0,-0.001889466854511962
1590504944.873203,0.08592628767963092,-4.595926287679631,8.689257993121293,0.5034561872006151,0.35362162024866334,-0.7425105091375522,0.003272492347489368,0.0,-0.001414059633840001
