time,acc_x,acc_y,acc_z,mag_x,mag_y,mag_z,gyr_x,gyr_y,gyr_z
1589995327.4642794,-4.08,-0.79,8.9,0.2911111111111111,-0.3855555555555555,-0.5722222222222222,0.0,-0.00545415391248228,0.001090830782496456
1589995327.4742794,-4.073433684012775,-0.7768673680255496,8.9,0.2736009351451771,-0.3979585968647588,-0.568574268895986,0.0021488218819391723,-0.008319249755067844,0.0003745568218500653
1589995327.4842794,-4.074424837468489,-0.7611503250630224,8.86460130025209,0.2644444444444444,-0.4044444444444445,-0.5666666666666667,0.0018244676720379892,-0.0074041025833824735,-0.00048267489181712627
1589995327.4942794,-4.084335691518309,-0.7543356915183084,8.837342766073233,0.2644444444444444,-0.4044444444444445,-0.5666666666666667,-0.0004729505771579519,-0.0019985702441960643,-0.0006178802053385041
1589995327.5042794,-4.093744616589294,-0.76,8.889956932714357,0.2644444444444444,-0.4044444444444445,-0.5666666666666667,-0.00027388217364654574,0.00027388217364654574,-0.0004084743044249551
1589995327.5142794,-4.097426073619632,-0.7651478527607362,8.937426073619632,0.26959229720518063,-0.4010125426039537,-0.5703845603271983,0.000248515344220895,-0.000248515344220895,-0.0005292871569794154
1589995327.5242794,-4.094397440983932,-0.78,8.925602559016069,0.28444444444444444,-0.3911111111111111,-0.5811111111111111,0.0002167704297492217,-0.0016558296265945017,0.00013145798459960256
1589995327.5342793,-4.1,-0.78,8.8782024818184,0.28444444444444444,-0.3911111111111111,-0.5811111111111111,0.00428569278003258,-0.00857138556006516,-7.763034995324366e-05
1589995327.5442793,-4.091922388428221,-0.7759611942141108,8.858271640501224,0.28444444444444444,-0.3911111111111111,-0.5811111111111111,0.006775850015214092,-0.013111134662850913,0.00020970004734191452
1589995327.5542793,-4.08,-0.7589015333013895,8.897780306660279,0.28444444444444444,-0.3911111111111111,-0.5811111111111111,0.009453039206773014,-0.017088854684248204,-0.0008486998002293341
1589995327.5642793,-4.08,-0.7230135532890684,8.890602710657815,0.28444444444444444,-0.3911111111111111,-0.5811111111111111,0.011801902005916461,-0.019437717483391657,-6.574553384818449e-05
1589995327.5742793,-4.056208033433944,-0.7468959832830276,8.874479916415138,0.28444444444444444,-0.3977777777777778,-0.5722222222222222,0.009215329332836034,-0.016812723860762883,-7.504368721934036e-05
1589995327.5842793,-4.07,-0.7468781077057055,8.82624378458859,0.28444444444444444,-0.3977777777777778,-0.5722222222222222,0.004328726170875829,0.0023546463605428874,0.002181661564992912
1589995327.5942793,-4.082115234205267,-0.768076822803511,8.824230468410533,0.28444444444444444,-0.3977777777777778,-0.5722222222222222,-0.00046147251665879484,0.015292581124667226,0.003062706258876814
1589995327.6042793,-4.085326493858637,-0.7741305975434549,8.87173880491309,0.28444444444444444,-0.3977777777777778,-0.5722222222222222,-0.004363323129985824,0.016303239596378867,0.0037230706425398575
1589995327.6142793,-4.051419796738933,-0.7571604065221345,8.901419796738933,0.2836556684783707,-0.39399165314062373,-0.575535081279732,-0.004363323129985824,0.009979053032334984,0.0023365373637645077
1589995327.6242793,-4.0598943284908975,-0.7402113430182046,8.909894328490898,0.27894759528283464,-0.3713929018020506,-0.5953089887009835,-0.004363323129985824,0.004432484970962807,0.003260965373993204
1589995327.6342793,-4.103529127325478,-0.7694126180235665,8.954121344768788,0.2788888888888889,-0.3711111111111111,-0.5955555555555555,-0.004748291202183883,0.010459266318668777,0.0
1589995327.6442792,-4.090292798167327,-0.7539414403665347,8.873941440366535,0.2788888888888889,-0.3711111111111111,-0.5955555555555555,-0.0037343761208062463,0.0050561487899611415,0.00042994444791900834
1589995327.6542792,-4.063082853790714,-0.76,8.88,0.2788888888888889,-0.3711111111111111,-0.5955555555555555,-0.0020996923263506564,0.001763405145065923,0.0014271179637811895
1589995327.6642792,-4.072999718776365,-0.7614998593881823,8.882999718776366,0.2777223315869693,-0.37411082988747585,-0.5955555555555555,-0.004199713850981262,0.003926929463507615,0.0018544430069837884
1589995327.6742792,-4.093648153648154,-0.7736481536481536,8.881759231759231,0.27111111111111114,-0.3911111111111111,-0.5955555555555555,-0.003272492347489368,0.0072378636476069175,0.0007959036597365489
1589995327.6842792,-4.0814977723222405,-0.7651982178577923,8.812995544644481,0.27111111111111114,-0.3911111111111111,-0.5955555555555555,-0.0012542123979235598,0.0033157367756734423,0.000970693595253427
1589995327.6942792,-4.056484392800182,-0.74,8.775937571200728,0.27111111111111114,-0.3911111111111111,-0.5955555555555555,0.0032426678558284943,-0.003950005383052216,-0.00038349325527273453
1589995327.7042792,-4.068183633029694,-0.74,8.839081834851532,0.27111111111111114,-0.3911111111111111,-0.5955555555555555,0.004463479410722256,-0.0064470060753631635,0.0008926958821444512
1589995327.7142792,-4.061981249260617,-0.74,8.870093753696914,0.27111111111111114,-0.3911111111111111,-0.5955555555555555,0.0010806038406399737,-0.002387555391264424,0.00021612076812799468
1589995327.7242792,-4.08,-0.77,8.948755988904765,0.28444444444444444,-0.3977777777777778,-0.5788888888888889,-0.0023173621246377596,0.00013570055964484787,0.0020459610053480642
1589995327.7342792,-4.086508532353956,-0.7678304892153481,8.922643913722784,0.28444444444444444,-0.3977777777777778,-0.5788888888888889,-0.0035091492621750022,0.001090830782496456,0.00132748769718209
1589995327.7442791,-4.108609215194075,-0.7613907848059249,8.862086177208887,0.28444444444444444,-0.3977777777777778,-0.5788888888888889,-0.004363323129985824,0.0008632641507767629,0.0021058060210863475
1589995327.7542791,-4.091206563906811,-0.7787934360931893,8.888190154139785,0.28444444444444444,-0.3977777777777778,-0.5788888888888889,-0.004363323129985824,-0.0019842380074031546,0.0011566386350263752
1589995327.7642791,-4.08,-0.739636286291609,8.94,0.2839594928332565,-0.39680787455540195,-0.5784443499119666,0.0,-0.0034311923911408784,0.007635815477475192
1589995327.774279,-4.08,-0.7307150909284271,8.94,0.27206456568234727,-0.3730180202535834,-0.5675406666902998,0.0,-0.007323798198670292,0.007635815477475192
1589995327.784279,-4.06679586883297,-0.7564082623340599,8.85834629482861,0.27111111111111114,-0.3711111111111111,-0.5666666666666667,0.003929244019069177,-0.007985331968290444,0.011956857297410316
1589995327.794279,-4.0635612738478155,-0.77,8.791367643086895,0.27111111111111114,-0.3711111111111111,-0.5666666666666667,0.005693441908426576,-0.008338171546161925,0.014180800172453925
1589995327.804279,-4.064587149645341,-0.7727064251773295,8.840825700709317,0.27111111111111114,-0.3711111111111111,-0.5666666666666667,0.0024768867543883445,-0.006454914719893463,0.01359034979366306
1589995327.814279,-4.050144962468149,-0.7799275187659253,8.8697100750637,0.27111111111111114,-0.3711111111111111,-0.5666666666666667,0.0032645858713611572,-0.0033041182520022125,0.012014951559717437
1589995327.824279,-4.06692105823108,-0.7469210582310802,8.91769298058964,0.2788888888888889,-0.3911111111111111,-0.6022222222222222,0.00268497512272043,-0.006460781027937316,0.008223332702244129
1589995327.834279,-4.085119495549732,-0.7675597477748657,8.895358486649194,0.2788888888888889,-0.3911111111111111,-0.6022222222222222,0.004629513354409019,-0.010349857491314495,0.005480223797285955
1589995327.844279,-4.0641940308654565,-0.7570970154327282,8.855805969134543,0.2788888888888889,-0.3911111111111111,-0.6022222222222222,0.005770820405191496,-0.011999138607461015,0.0018649950722836952
1589995327.854279,-4.0514917662253795,-0.7485082337746206,8.877458831126896,0.2788888888888889,-0.3911111111111111,-0.6022222222222222,0.006219531791192256,-0.012161865059354255,0.001741736590069414
1589995327.864279,-4.057380073282699,-0.7426199267173,8.906900366413499,0.2788888888888889,-0.3911111111111111,-0.6022222222222222,0.004934902472208981,-0.012804179718845891,0.004310995228035965
1589995327.874279,-4.06,-0.7492245819795547,8.92,0.2963130992947142,-0.3911111111111111,-0.5878728724762483,-0.0006679058594943237,-0.009064986198373353,0.004447908114586251
1589995327.884279,-4.0640048450847885,-0.7659951549152111,8.911966084406476,0.2977777777777777,-0.3911111111111111,-0.5866666666666667,-0.004363323129985824,0.002618522394754657,0.006326554280097863
1589995327.894279,-4.079081802293363,-0.7481636045867258,8.80367279082655,0.2977777777777777,-0.3911111111111111,-0.5866666666666667,-0.004463482962267565,0.005164601788239753,0.005654473577045762
1589995327.904279,-4.070142162922546,-0.7302843258450914,8.839431348309818,0.2977777777777777,-0.3911111111111111,-0.5866666666666667,-0.005438646343278027,0.012965908836323446,0.007604800339066686
1589995327.914279,-4.091633808765093,-0.7489107941566046,8.88,0.2963255033199171,-0.3908085539323901,-0.5870297352811318,-0.012177359496828633,0.021141633609290438,0.00781403636684281
1589995327.924279,-4.115788493655578,-0.7328076708962816,8.88,0.27485467230615335,-0.38633546413785597,-0.5923974430345729,-0.014812226878832869,0.027289657500633648,0.010448903748847044
1589995327.934279,-4.1618088280687315,-0.7218088280687314,8.879095585965635,0.27111111111111114,-0.3855555555555555,-0.5933333333333334,-0.014279456439334714,0.018648391416128323,0.01764499320689709
1589995327.944279,-4.176194052886099,-0.7361940528860994,8.87190297355695,0.27111111111111114,-0.3855555555555555,-0.5933333333333334,-0.015064048741530566,0.010802468394169812,0.027844693135443153
1589995327.954279,-4.18787482031159,-0.72,8.904250359376821,0.27111111111111114,-0.3855555555555555,-0.5933333333333334,-0.010444665540473661,0.006360799195125222,0.05186923891928591
1589995327.964279,-4.17157931543572,-0.72,8.93684136912856,0.27111111111111114,-0.3855555555555555,-0.5933333333333334,-0.006889537873489796,-0.003415801889080406,0.07320000492118911
1589995327.974279,-4.112089874811402,-0.66,8.92,0.27111111111111114,-0.3855555555555555,-0.5722222222222222,-0.004640312212993834,-0.008905597132131795,0.10932817377676526
1589995327.984279,-4.117464005587193,-0.6616906629418717,8.912392016761578,0.27111111111111114,-0.3855555555555555,-0.5722222222222222,-0.010370745196414007,-0.004900885758536377,0.13255949836141243
1589995327.994279,-4.076410150038028,-0.6840769549885917,8.83,0.27111111111111114,-0.3855555555555555,-0.5722222222222222,-0.016362461737446838,0.0012390730491767287,0.15320300878475585
1589995328.004279,-4.003909631473415,-0.7058271105579755,8.83,0.27111111111111114,-0.3855555555555555,-0.5722222222222222,-0.016362461737446838,0.0020299310231490864,0.16743845231625828
1589995328.014279,-3.999983800182616,-0.7998542016435451,8.780080999086918,0.27111111111111114,-0.3855555555555555,-0.5722222222222222,-0.014184334424348556,3.5342518946309374e-06,0.15710083819085743
1589995328.0242789,-4.287912649005322,-0.775321772942401,8.862260756858664,0.2656270606538669,-0.3956096480605033,-0.5969004492798212,-0.02943533635384464,0.03409837499369688,0.04311927414792377
1589995328.0342789,-4.07,-0.6377590564448189,8.95743049705139,0.2644444444444444,-0.3977777777777778,-0.6022222222222222,-0.03007825738088375,0.03681990407034794,0.02516078853746459
1589995328.0442789,-4.0657877245085565,-0.547893862254278,8.763689895347193,0.2644444444444444,-0.3977777777777778,-0.6022222222222222,-0.0179118741710278,0.017280531365573584,0.0525326387141996
1589995328.0542789,-4.036129260359214,-0.5330646301796069,8.860079903832556,0.2644444444444444,-0.3977777777777778,-0.6022222222222222,-0.005779737050151461,0.008383630810264268,0.06142953926950892
1589995328.0642788,-4.048300060496068,-0.4659497882637629,8.953200241984272,0.2644444444444444,-0.3977777777777778,-0.6022222222222222,-0.016247967399417113,0.012533665488176157,0.10918140479930799
1589995328.0742788,-4.05840731986989,-0.3936292794795591,8.95681463973978,0.2577777777777778,-0.3855555555555555,-0.5788888888888889,-0.022115660477508414,0.006544984694978735,0.15425995776233994
1589995328.0842788,-4.0517794604827255,-0.36355892096545195,8.931992427827733,0.2577777777777778,-0.3855555555555555,-0.5788888888888889,-0.028870104046166262,0.0058656031002010086,0.18796465037642904
1589995328.0942788,-4.064185695693327,-0.38837139138665405,8.876164369380028,0.2577777777777778,-0.3855555555555555,-0.5788888888888889,-0.024810173067381758,0.0011290169582857529,0.20555768461782856
1589995328.1042788,-4.045760278442462,-0.44847944311507504,8.89039953592923,0.2577777777777778,-0.3855555555555555,-0.5788888888888889,-0.02026330298901509,-0.009904642260531412,0.21380283336930533
1589995328.1142788,-3.981188365095286,-0.5996776328986961,8.914702908726179,0.2577777777777778,-0.3855555555555555,-0.5788888888888889,-0.012417680641098123,-0.020018331322836667,0.19375485158086625
1589995328.1242788,-3.95,-0.7821318155011885,8.870933216577013,0.2788888888888889,-0.3855555555555555,-0.5866666666666667,-0.0027924503863589424,-0.016333513014105572,0.12608623274219954
1589995328.1342788,-3.95,-0.8795743159926372,8.878428793537896,0.2788888888888889,-0.3855555555555555,-0.5866666666666667,-0.007698294035258868,-0.00733946632445571,0.07866307746950027
1589995328.1442788,-3.997851866842052,-0.932148133157948,8.807851866842052,0.2788888888888889,-0.3855555555555555,-0.5866666666666667,-0.015322807912637067,0.008543498240299235,0.01459827316948544
1589995328.1542788,-4.040291409491045,-0.8897085905089548,8.850291409491044,0.2788888888888889,-0.3855555555555555,-0.5866666666666667,-0.021495389181516136,0.0193455154608376,-0.0008331800027122221
1589995328.1642787,-4.010155201083944,-0.7604656032518322,8.929728398103098,0.2788888888888889,-0.3855555555555555,-0.5866666666666667,-0.03486002805692976,0.0283362056269314,-0.005449921459486204
1589995328.1742787,-3.9653063652587743,-0.6119852901411498,8.988645827699962,0.28444444444444444,-0.3911111111111111,-0.5433333333333333,-0.027123052279442863,0.018687829093698278,0.012656846270326896
1589995328.1842787,-3.740438653169646,-0.48933017445617055,8.82288678297078,0.28444444444444444,-0.3911111111111111,-0.5433333333333333,-0.011175357359626985,0.005648136814933548,0.04038595594655107
1589995328.1942787,-3.6219795642004184,-0.4325278837867783,8.797472116213221,0.28444444444444444,-0.3911111111111111,-0.5433333333333333,-0.018472144316914935,0.006341214335584408,0.05685499206368522
1589995328.2042787,-3.468898812119521,-0.40155505939402397,8.833110118788047,0.28444444444444444,-0.3911111111111111,-0.5433333333333333,-0.022568185101303248,0.00545415391248228,0.06183809327117566
1589995328.2142787,-3.322574962061086,-0.4088712518969457,8.84774250379389,0.28444444444444444,-0.3911111111111111,-0.5433333333333333,-0.020972039502731885,0.00545415391248228,0.0602419476726043
1589995328.2242787,-2.76,-0.24,8.96,0.2577777777777778,-0.3977777777777778,-0.5722222222222222,-0.029452431127404314,-0.001090830782496456,0.029452431127404314
1589995328.2342787,-2.6587201543532437,-0.2287466838170271,9.008764370126217,0.2577777777777778,-0.3977777777777778,-0.5722222222222222,-0.02495142777163511,-0.0031367413987551836,0.011448417704327508
1589995328.2442787,-2.433729506608271,-0.20488450060075192,8.92630401922406,0.2577777777777778,-0.3977777777777778,-0.5722222222222222,-0.004618960831096818,-0.003196898167453568,-0.034168527097557196
1589995328.2542787,-2.13929534423872,-1.2952061837138233,9.287515009886752,0.2577777777777778,-0.3977777777777778,-0.5722222222222222,0.012230756317380988,0.011159142039771221,-0.06615430833199062
1589995328.2642787,-1.9316443748164105,-1.7479996083423088,8.880487809654362,0.2577777777777778,-0.3977777777777778,-0.5722222222222222,0.11219572164490896,0.05414889131099596,-0.09129528422724245
1589995328.2742786,-1.935777869189634,-1.2479991772932948,8.094832579185521,0.2766605420723068,-0.39181479957950544,-0.5781852004204946,0.11317959431123471,0.07257053542672533,-0.16182490363426405
1589995328.2842786,-2.1091253758150796,-1.186937448752489,8.498188473702706,0.2788888888888889,-0.3911111111111111,-0.5788888888888889,-0.012428915969172005,0.011617213667917625,-0.24706652784037997
1589995328.2942786,-2.478279569892473,-1.086989247311828,9.063118279569892,0.2788888888888889,-0.3911111111111111,-0.5788888888888889,-0.032150184675513824,0.012515230590577617,-0.3326212831186505
1589995328.3042786,-2.424105395718299,-0.9921844425070231,8.846421582873196,0.2788888888888889,-0.3911111111111111,-0.5788888888888889,0.020296500739379594,0.02876631621209388,-0.3643847686516141
1589995328.3142786,-2.5011395916184873,-0.9111001570698125,8.765559937172075,0.2788888888888889,-0.3911111111111111,-0.5788888888888889,0.022416658248595418,0.03345142705623151,-0.42689206808314945
1589995328.3242786,-2.585104589447393,-0.9,8.958930020962491,0.26751810059022046,-0.3867377309962386,-0.5736408327510419,0.002623082897207814,0.022420389344714416,-0.4922183067794646
1589995328.3342786,-2.6578349575324096,-0.8792783191774698,8.869174787662049,0.2644444444444444,-0.3855555555555555,-0.5722222222222222,0.015901416280033005,0.03974224716368439,-0.5627564115824931
1589995328.3442786,-2.6353353598569513,-0.8717784532856504,8.756676799284756,0.2644444444444444,-0.3855555555555555,-0.5722222222222222,0.022446283943546474,0.04465089791131949,-0.6069342683112091
1589995328.3542786,-2.6977488719567626,-0.8537518800720625,8.769249623985587,0.2644444444444444,-0.3855555555555555,-0.5722222222222222,0.0158446042334281,0.04824211440633451,-0.6787439473616694
1589995328.3642786,-2.6769517214022445,-0.8884137976629258,8.762317240467414,0.2644444444444444,-0.3855555555555555,-0.5722222222222222,0.021138044369813768,0.050510731607642655,-0.7112607939137527
1589995328.3742785,-2.6996349099656847,-0.9,8.809391516609475,0.29737212218409365,-0.3910435018454971,-0.5864908825760703,0.029372780837841478,0.058811936916985316,-0.7673873188505651
1589995328.3842785,-2.746310645024826,-0.9463106450248258,8.86557277402979,0.2977777777777777,-0.3911111111111111,-0.5866666666666667,0.03046277267041124,0.053853154539773976,-0.8113895572268028
1589995328.3942785,-2.768379882951896,-0.9775698244278441,8.82405029262026,0.2977777777777777,-0.3911111111111111,-0.5866666666666667,0.028538327699639755,0.06046797807823987,-0.8569542129403338
1589995328.4042785,-2.791567361862478,-1.0231347237249562,8.863134723724956,0.2977777777777777,-0.3911111111111111,-0.5866666666666667,0.03228265738104638,0.06422336944871236,-0.8896813094571288
1589995328.4142785,-2.8444097428779163,-1.0355590257122085,8.915527794302333,0.2977777777777777,-0.3911111111111111,-0.5866666666666667,0.03381575425739013,0.06738758753274672,-0.9184658915887067
1589995328.4242785,-2.9,-1.0391280923584387,8.96,0.3038631726834035,-0.38705418117402723,-0.5849762791928818,0.03414766106172532,0.07014507688410837,-0.9502533386420006
1589995328.4342785,-2.920126668273761,-1.0700633341368806,8.914714996384037,0.31777777777777777,-0.37777777777777777,-0.5811111111111111,0.033808845574780914,0.07255061005992816,-0.9883894104983183
1589995328.4442785,-3.002187802516941,-1.0877734753146178,8.823359148112294,0.31777777777777777,-0.37777777777777777,-0.5811111111111111,0.03187696885887756,0.07078467474569451,-1.0230672760651103
1589995328.4542785,-2.993391533038682,-1.1099563502209886,8.783391533038682,0.31777777777777777,-0.37777777777777777,-0.5811111111111111,0.032359726063308364,0.07779513715979569,-1.044617362054203
1589995328.4642785,-2.9867977544263713,-1.133595508852742,8.763202245573629,0.31777777777777777,-0.37777777777777777,-0.5811111111111111,0.030500363540852542,0.07958774875319306,-1.0689651446253818
1589995328.4742785,-2.9714633266171475,-1.1770733467657053,8.778536673382852,0.33631445116063047,-0.3715988866501602,-0.6006775996819,0.03349650591362399,0.0775287976431899,-1.0928262814688807
1589995328.4842784,-3.0283073025555254,-1.2091536512777628,8.818871535037017,0.3377777777777778,-0.3711111111111111,-0.6022222222222222,0.03381575425739013,0.07850904223178007,-1.1131842949855157
1589995328.4942784,-3.048069716968596,-1.2461394339371927,8.765790849094211,0.3377777777777778,-0.3711111111111111,-0.6022222222222222,0.03677240478244165,0.08346756721483069,-1.1275359313791218
1589995328.5042784,-3.067571705743472,-1.311500970102153,8.856644381589097,0.3377777777777778,-0.3711111111111111,-0.6022222222222222,0.0399634102337719,0.08303558237592965,-1.1433856780282938
1589995328.5142784,-3.1078333024481646,-1.3502666419585316,8.877566660489633,0.3377777777777778,-0.3711111111111111,-0.6022222222222222,0.042836922807206246,0.07960156099661415,-1.152800873185791
1589995328.5242784,-3.070958846128801,-1.399232923096959,8.870191769225759,0.35630443590689737,-0.36457229059495133,-0.6076712393190221,0.040423495284747306,0.0796097283447818,-1.1680287427241907
1589995328.5342784,-3.0333589544800086,-1.4274807841399932,8.924961568279986,0.3566666666666667,-0.3644444444444445,-0.6077777777777778,0.03736305042566435,0.0816291061400443,-1.1822689811783254
1589995328.5442784,-2.9428053936692953,-1.412561078733859,8.790488629870872,0.3566666666666667,-0.3644444444444445,-0.6077777777777778,0.036137100998347556,0.0818123086872342,-1.192111709467442
1589995328.5542784,-2.912191512300304,-1.4278084876996961,8.761095756150151,0.3566666666666667,-0.3644444444444445,-0.6077777777777778,0.034054811165129234,0.08084100635860729,-1.205024503994646
1589995328.5642784,-2.94003566991303,-1.4350059449855048,8.775017834956515,0.3566666666666667,-0.3644444444444445,-0.6077777777777778,0.03217756259168837,0.08290573345900676,-1.2102812926610511
1589995328.5742784,-2.9735957270684694,-1.434606409397296,8.795393590602703,0.36285930772903063,-0.36244681829529485,-0.6105744543865873,0.030739378398487876,0.08528091752331068,-1.2162519422930136
1589995328.5842783,-2.99,-1.4261557865769758,8.803844213423023,0.3911111111111111,-0.3533333333333333,-0.6233333333333333,0.03295583489091786,0.08441330888585918,-1.229177864655898
1589995328.5942783,-2.9980167045751145,-1.4660334091502294,8.767974943137327,0.3911111111111111,-0.3533333333333333,-0.6233333333333333,0.036218315258593876,0.08224955209346996,-1.2381020490658492
1589995328.6042783,-3.0274288504934153,-1.533572126233539,8.811000976726955,0.3911111111111111,-0.3533333333333333,-0.6233333333333333,0.04578384803607444,0.08860671745625451,-1.253193289808242
1589995328.6142783,-3.052365225552883,-1.5698203007371776,8.849820300737177,0.3911111111111111,-0.3533333333333333,-0.6233333333333333,0.04283961089892072,0.09107456926408014,-1.266653738116205
1589995328.6242783,-3.065187018110095,-1.6059350905504752,8.896309126770666,0.400908811985735,-0.3320089255473871,-0.6198753212599366,0.04031993793009368,0.089366522120159,-1.2798709160465445
1589995328.6342783,-3.07,-1.6499709052436684,8.910029094756332,0.41,-0.31222222222222223,-0.6166666666666667,0.04362688380869513,0.09107881628368635,-1.2926281297671371
1589995328.6442783,-3.047938131598987,-1.675515467100253,8.807267993496204,0.41,-0.31222222222222223,-0.6166666666666667,0.04919984268840458,0.09249570156007061,-1.3000060210346873
1589995328.6542783,-2.997880792063429,-1.7362086138889996,8.764089405952427,0.41,-0.31222222222222223,-0.6166666666666667,0.04054314529501749,0.08791120839270962,-1.3138388560369187
1589995328.6642783,-2.8745526172088307,-1.7427845385755518,8.813292768546688,0.41,-0.31222222222222223,-0.6166666666666667,0.02794697572616115,0.07546019145216093,-1.3292261103639482
1589995328.6742783,-2.958397149013758,-1.8317122492955413,8.903369799436433,0.43955172477300775,-0.2826704974492145,-0.609533491721458,0.03400253168127856,0.09991633881470356,-1.3380877487797085
1589995328.6842782,-2.9835215371694006,-1.8738038429235013,8.720698479628393,0.44222222222222224,-0.28,-0.6088888888888889,0.04818132311383354,0.10327557900321947,-1.3362369137774937
1589995328.6942782,-3.0282121774888906,-1.9282121774888903,8.698781919480004,0.44222222222222224,-0.28,-0.6088888888888889,0.04287029367291488,0.09445866005352138,-1.333509556996818
1589995328.7042782,-3.0328331001563655,-1.9901682989054397,8.806002798123611,0.44222222222222224,-0.28,-0.6088888888888889,0.037706333176971356,0.08615727325454858,-1.3345587912035701
1589995328.7142782,-2.995094986371521,-2.0216350045428264,8.834182497728587,0.44222222222222224,-0.28,-0.6088888888888889,0.0466071124372304,0.09224365397359789,-1.3294655582762516
1589995328.7242782,-2.974556206802378,-2.075562068023781,8.834556206802379,0.45437210702856384,-0.25975019198943067,-0.6316699229007794,0.051959693152890195,0.09867177548782641,-1.3238683855437579
1589995328.7342782,-2.9831273777240184,-2.1425095108960726,8.843127377724018,0.4688888888888889,-0.23555555555555555,-0.6588888888888889,0.046084488127013684,0.09653644929529528,-1.3224280523746896
1589995328.7442782,-2.995146951756907,-2.188014331149174,8.826838717093919,0.4688888888888889,-0.23555555555555555,-0.6588888888888889,0.03849185995799407,0.09194256830032041,-1.3220548484857095
1589995328.7542782,-2.997621207410523,-2.2482525283929844,8.718737358035078,0.4688888888888889,-0.23555555555555555,-0.6588888888888889,0.045243034118709835,0.0982436368608115,-1.3161137824368674
1589995328.7642782,-2.934810868815391,-2.2788288046602534,8.693891848388457,0.4688888888888889,-0.23555555555555555,-0.6588888888888889,0.04580113885697772,0.0981610164168076,-1.3143233353153383
1589995328.7742782,-2.8111367673179393,-2.3262877442273537,8.839582593250444,0.4851766331162424,-0.22469705940398657,-0.6824156305506217,0.03680730439624364,0.09005554059510484,-1.3177235852557188
1589995328.7842782,-2.7643468210376576,-2.344261271584937,8.760171098905442,0.4888888888888889,-0.2222222222222222,-0.6877777777777778,0.03833091092874174,0.09411511437742677,-1.3231684071705558
1589995328.7942781,-2.7798844728620216,-2.3798844728620216,8.715019254522996,0.4888888888888889,-0.2222222222222222,-0.6877777777777778,0.03546670282960558,0.09653642390829767,-1.331335866267899
1589995328.8042781,-2.7891688500727803,-2.4464545123726347,8.725623362445415,0.4888888888888889,-0.2222222222222222,-0.6877777777777778,0.03277025567116773,0.09537969517402882,-1.3492882506177453
1589995328.8142781,-2.789385568955063,-2.4751536077612344,8.749692784477531,0.4888888888888889,-0.2222222222222222,-0.6877777777777778,0.03857368871167797,0.10121267866803184,-1.3687245359140368
1589995328.824278,-2.7834692286705383,-2.4921089761078847,8.751156409556845,0.4918367523699402,-0.2045350413359144,-0.6907256412588291,0.041221516129062295,0.10811839218132722,-1.3912248832494813
1589995328.834278,-2.7451333309849235,-2.544333345075384,8.74,0.4955555555555556,-0.18222222222222226,-0.6944444444444444,0.03711733491340246,0.10743228792163945,-1.4252504197865006
1589995328.844278,-2.7603870967741937,-2.5547096774193547,8.724709677419355,0.4955555555555556,-0.18222222222222226,-0.6944444444444444,0.03766533127690988,0.11132807837620283,-1.4598482797880796
1589995328.854278,-2.7585645044610563,-2.525709669640704,8.688564504461056,0.4955555555555556,-0.18222222222222226,-0.6944444444444444,0.04082874139466878,0.11141956571253515,-1.4992765470896505
1589995328.864278,-2.7753315382026256,-2.538998653651969,8.736995960955907,0.4955555555555556,-0.18222222222222226,-0.6944444444444444,0.03937913811190968,0.11155553011411248,-1.5272708567991997
1589995328.874278,-2.79,-2.55,8.754052354204168,0.5032340516794745,-0.16273065513842805,-0.7068481689523134,0.03817907738737596,0.11409518889137929,-1.5496688586149652
1589995328.884278,-2.736689667219845,-2.544076629691094,8.751846740617813,0.51,-0.14555555555555555,-0.7177777777777777,0.036240658986651846,0.11950489974607256,-1.5676416925728285
1589995328.894278,-2.6112185563734576,-2.613984536355452,8.656421649102366,0.51,-0.14555555555555555,-0.7177777777777777,0.03248544674932893,0.11571667886478264,-1.585083679812678
1589995328.904278,-2.58,-2.7235773088569264,8.695979371688116,0.51,-0.14555555555555555,-0.7177777777777777,0.03329170544183994,0.12173446512684495,-1.5967997074698284
1589995328.914278,-2.5430080875080003,-2.768495956246,8.683008087508,0.51,-0.14555555555555555,-0.7177777777777777,0.039196009837348604,0.1330976245220285,-1.6018480549297835
1589995328.924278,-2.52,-2.8230789258928226,8.703078925892823,0.5147865473214247,-0.14555555555555555,-0.7177777777777777,0.04066272777973081,0.1366558366394189,-1.6119797775891296
1589995328.934278,-2.52,-2.83,8.71,0.5155555555555555,-0.14555555555555555,-0.7177777777777777,0.04036073895236887,0.13635384781205698,-1.6133387273122584
1589995328.944278,-2.446541095890411,-2.96,8.657859589041097,0.5155555555555555,-0.14555555555555555,-0.7177777777777777,0.03666984575679867,0.14069662447182457,-1.6159182432551136
1589995328.954278,-2.46,-2.9993872852842216,8.572967947582788,0.5155555555555555,-0.14555555555555555,-0.7177777777777777,0.03668355553186196,0.14133647384423578,-1.6106855378669618
1589995328.964278,-2.4559335518677865,-3.05780065560336,8.678465136925494,0.5155555555555555,-0.14555555555555555,-0.7177777777777777,0.021744131981871407,0.13809192869724557,-1.6052230893209498
1589995328.974278,-2.4281762987136193,-3.0318161120176073,8.692720373392024,0.5155555555555555,-0.14555555555555555,-0.7177777777777777,0.01705707834128978,0.13982527510967266,-1.595983246545779
1589995328.984278,-2.382793597304128,-3.0270581297388373,8.641322662173547,0.5155555555555555,-0.14555555555555555,-0.7177777777777777,0.0171647323971936,0.14849726648089287,-1.5737964330902106
1589995328.994278,-2.4,-3.0456068847618307,8.656820654285493,0.5155555555555555,-0.14555555555555555,-0.7177777777777777,0.006116162492115299,0.14587490436758827,-1.5578891514512871
1589995329.004278,-2.373124938946957,-3.04,8.653437530526523,0.5155555555555555,-0.14555555555555555,-0.7177777777777777,0.008794843163439238,0.1341380877953303,-1.5328387827861287
1589995329.014278,-2.371178119792177,-3.056767179688266,8.682356239584355,0.5155555555555555,-0.14555555555555555,-0.7177777777777777,0.0179673442538534,0.12650347796018827,-1.5092584785558611
1589995329.024278,-2.38,-3.0871811032898417,8.711454068859895,0.5181009041910877,-0.1404648582844913,-0.7292318466376723,0.021191893105068763,0.11842471237044094,-1.4795937105666837
1589995329.034278,-2.3734322033898305,-3.1328389830508474,8.752838983050847,0.52,-0.13666666666666666,-0.7377777777777778,0.02574083316831679,0.11276232105840482,-1.4402848946992612
1589995329.044278,-2.346934452938965,-3.2134302544178466,8.683504198521117,0.52,-0.13666666666666666,-0.7377777777777778,0.033393722094767424,0.10937769415844117,-1.402275069974799
1589995329.054278,-2.2952718436231576,-3.2831521042512284,8.648940130314035,0.52,-0.13666666666666666,-0.7377777777777778,0.033299992405358456,0.1042039932676281,-1.3590092349911955
1589995329.064278,-2.248416494845361,-3.3,8.69158350515464,0.52,-0.13666666666666666,-0.7377777777777778,0.0328976570915859,0.10203586156759169,-1.3159098822804502
1589995329.0742779,-2.2419733829858672,-3.3419068404505357,8.668093159549464,0.49871398580290255,-0.14265335815960034,-0.6952057493835827,0.03360049156672625,0.09796676639860566,-1.2654290356771853
1589995329.0842779,-2.2002542017325206,-3.37710654260964,8.68974579826748,0.4844444444444445,-0.14666666666666667,-0.6666666666666666,0.02497288803917576,0.08870064972861734,-1.2131702047809374
1589995329.0942779,-2.1388511903411027,-3.3594255951705514,8.593411705966457,0.4844444444444445,-0.14666666666666667,-0.6666666666666666,0.03303821270968234,0.08542752534656982,-1.1610123242722903
1589995329.1042778,-2.113316127497621,-3.3633677450047577,8.499896764985728,0.4844444444444445,-0.14666666666666667,-0.6666666666666666,0.03963727216175122,0.08435570364753593,-1.109652180245655
1589995329.1142778,-2.1359657647298826,-3.4115452235678125,8.630601435433318,0.4844444444444445,-0.14666666666666667,-0.6666666666666666,0.02619861122316051,0.07832911916054376,-1.0703530396947154
1589995329.1242778,-2.029310831581919,-3.299204805671445,8.714708428746196,0.4799764386865614,-0.10310361052730638,-0.6331566234825433,0.020217957782422784,0.07363396922668296,-1.0236087931888314
1589995329.1342778,-1.9561357278821483,-3.232044525366217,8.707499462054125,0.4755555555555556,-0.06,-0.6,0.0272707695624114,0.0722923522875531,-0.9764425453788892
1589995329.1442778,-2.0478849315068492,-3.3727890410958903,8.731249315068492,0.4755555555555556,-0.06,-0.6,0.0262952978708858,0.06656159777468786,-0.935575975230096
1589995329.1542778,-2.1079812391170027,-3.4769718586755043,8.64449530977925,0.4755555555555556,-0.06,-0.6,0.02350791498651563,0.05939522448321503,-0.8858851666614861
1589995329.1642778,-2.119422033564782,-3.513525988811739,8.681733899305653,0.4755555555555556,-0.06,-0.6,0.022907446432425576,0.05768793875655511,-0.8425880788571625
1589995329.1742778,-2.0278863751906457,-3.431861125233011,8.607791687849517,0.4862390555273118,-0.03551697923139204,-0.5937679583498089,0.020722341938552137,0.05039156205090352,-0.7897305001675093
1589995329.1842778,-1.9091359203980098,-3.3651844776119404,8.32308736318408,0.5022222222222222,0.0011111111111111113,-0.5844444444444444,0.016268205274609038,0.04462980561951689,-0.734237136002676
1589995329.1942778,-1.8899622753405927,-3.3999245506811855,8.450754493188146,0.5022222222222222,0.0011111111111111113,-0.5844444444444444,0.032243292474243464,0.04637059606103454,-0.6882236910718342
1589995329.2042778,-1.9053175690289093,-3.426415543219667,8.692195948381515,0.5022222222222222,0.0011111111111111113,-0.5844444444444444,0.02699363830457004,0.0403419437280147,-0.6514279275108089
1589995329.2142777,-1.94,-3.5205459047319603,8.648180317560133,0.5022222222222222,0.0011111111111111113,-0.5844444444444444,0.015053734890965231,0.03169364166099051,-0.6082270345404739
1589995329.2242777,-1.961760102629891,-3.588080179602309,8.664240538806927,0.5094755897655192,0.030124581284299047,-0.5844444444444444,0.022043458074358466,0.0319395113175157,-0.5634183673234818
1589995329.2342777,-1.9422891730141458,-3.57600403518317,8.678293208197317,0.5155555555555555,0.054444444444444434,-0.5844444444444444,0.01788918466274038,0.032880442036534965,-0.518396532575853
1589995329.2442777,-1.9543586985748858,-3.567179349287443,8.675811598099848,0.5155555555555555,0.054444444444444434,-0.5844444444444444,0.01885180856483254,0.02928465613208622,-0.4786697855496349
1589995329.2542777,-1.957327385377943,-3.5743318463444855,8.664654770755886,0.5155555555555555,0.054444444444444434,-0.5844444444444444,0.0223996897098271,0.02137931010500563,-0.4379260343440528
1589995329.2642777,-1.9533834812697457,-3.5900752219046184,8.67684218444411,0.5155555555555555,0.054444444444444434,-0.5844444444444444,0.025085005278964685,0.016354256300539237,-0.4075606049170326
1589995329.2742777,-1.9763291710546111,-3.6244937565819164,8.757152098691138,0.5155555555555555,0.054444444444444434,-0.5844444444444444,0.023207765423243765,0.012599776589097396,-0.38628521988552883
1589995329.2842777,-1.9421096459431393,-3.623671062170582,8.693206105374532,0.51,0.08666666666666667,-0.5844444444444444,0.019694756669912303,0.007865942150969703,-0.3365882911115961
1589995329.2942777,-1.948100230894432,-3.601899769105568,8.770501154472159,0.51,0.08666666666666667,-0.5844444444444444,0.024343664984920247,0.008588491151972362,-0.29946610214553226
1589995329.3042777,-1.9152570467207237,-3.6252570467207237,8.620514093441448,0.51,0.08666666666666667,-0.5844444444444444,0.02013966414084554,0.003958104976490188,-0.24047481631734127
1589995329.3142776,-1.9004998754463174,-3.6104998754463176,8.633750311384206,0.51,0.08666666666666667,-0.5844444444444444,0.013444536947715705,0.004199739272708684,-0.1985309306803728
1589995329.3242776,-1.903165207423365,-3.639495622270095,8.666582603711683,0.5147541026806596,0.09361497058455376,-0.5902956477437178,0.015299140492639682,0.005840688788055514,-0.16162176780445592
1589995329.3342776,-1.9044777250428748,-3.684906871933953,8.651287440673235,0.5244444444444445,0.10777777777777778,-0.6022222222222222,0.01090830782496456,0.0032256796835893084,-0.11742108368562167
1589995329.3442776,-1.8713080060319418,-3.631308006031942,8.585738398793612,0.5244444444444445,0.10777777777777778,-0.6022222222222222,0.013697519292156042,0.002664942445290797,-0.06632896429334771
1589995329.3542776,-1.9065051157781367,-3.682767905223479,8.628788368336027,0.5244444444444445,0.10777777777777778,-0.6022222222222222,0.012486106145796805,-0.0025100268893954534,-0.031543630688894556
1589995329.3642776,-1.8933018115885396,-3.688045703924848,8.668975569345234,0.5244444444444445,0.10777777777777778,-0.6022222222222222,0.009254440105762757,-0.005038108115966406,0.00791518560066328
1589995329.3742776,-1.86197967764541,-3.634744218640505,8.605017519271199,0.5269018142178619,0.10880168185003504,-0.6016078797788679,0.017810659997740837,-0.006373754074600876,0.0370175375317324
1589995329.3842776,-1.9751232030165755,-3.7751232030165753,8.78906569954699,0.5511111111111111,0.11888888888888888,-0.5955555555555555,-0.007716451663261347,-0.02511598672601387,0.0748372643347293
1589995329.3942776,-1.9600942853348677,-3.760094285334868,8.610094285334867,0.5511111111111111,0.11888888888888888,-0.5955555555555555,-0.0011216855861800124,-0.021296912595083855,0.11271071469900126
1589995329.4042776,-1.941156956059696,-3.7632645659104558,8.582313912119393,0.5511111111111111,0.11888888888888888,-0.5955555555555555,0.0007347218838350544,-0.019991062983597607,0.14562149936793573
1589995329.4142776,-1.9207397706971014,-3.7738265137980673,8.597040917211594,0.5511111111111111,0.11888888888888888,-0.5955555555555555,-0.0007541193432772145,-0.021479904210709878,0.1728911447429297
1589995329.4242775,-1.9074865414523268,-3.7633273517565895,8.682495513817441,0.5538839042416025,0.11824190382510755,-0.596572246370069,-0.0002722183290211278,-0.021179482082467872,0.20107190681855214
1589995329.4342775,-1.9811861411463783,-3.7911861411463783,8.683558423439136,0.5844444444444444,0.1111111111111111,-0.6077777777777778,-0.004233935202500313,-0.02569921735240947,0.24157322143939802
1589995329.4442775,-1.9847076353920459,-3.78,8.635292364607954,0.5844444444444444,0.1111111111111111,-0.6077777777777778,-0.007860685125989003,-0.025891285068587393,0.2682654551299438
1589995329.4542775,-1.9975130561063477,-3.783121735973413,8.625608679867065,0.5844444444444444,0.1111111111111111,-0.6077777777777778,-0.010637024329610832,-0.02795182670133649,0.29472065289420646
1589995329.4642775,-1.9849603611777158,-3.804960361177716,8.648779729116713,0.5844444444444444,0.1111111111111111,-0.6077777777777778,-0.007635815477475192,-0.029044450565156376,0.3225850984124327
1589995329.4742775,-2.0244832979555354,-3.83,8.638689978773321,0.6069740190419444,0.0979152174182897,-0.6122836926972778,-0.010163627836189803,-0.028045623800068524,0.3453948288563235
1589995329.4842775,-2.07916375648891,-3.8651335535630014,8.67916375648891,0.6622222222222223,0.06555555555555556,-0.6233333333333333,-0.015665647887901202,-0.02901280418627549,0.3637154143799755
1589995329.4942775,-2.1268513021184727,-3.9194460936445825,8.675466536229928,0.6622222222222223,0.06555555555555556,-0.6233333333333333,-0.014180800172453925,-0.03384596516254563,0.3811944672744358
1589995329.5042775,-2.1365386411393885,-3.871923495991906,8.59115378628687,0.6622222222222223,0.06555555555555556,-0.6233333333333333,-0.013929083052825784,-0.035997415822383035,0.3922794399711283
1589995329.5142775,-2.0993018247971933,-3.7814715327925152,8.621396350405613,0.6622222222222223,0.06555555555555556,-0.6233333333333333,-0.011999138607461015,-0.03677540907756717,0.41240199375774667
1589995329.5242774,-2.0824923013754875,-3.7549230137548757,8.664984602750975,0.7367143411117955,0.02263258742215836,-0.619733342457629,-0.01335847813728107,-0.03790720948141195,0.4275955892626894
1589995329.5342774,-2.113050593523107,-3.8415252967615534,8.683841765587184,0.9611111111111112,-0.10666666666666667,-0.6088888888888889,-0.017453292519943295,-0.03792638983720679,0.44035664509422434
1589995329.5442774,-2.156344783306581,-3.8441380417335473,8.645586516853932,0.9611111111111112,-0.10666666666666667,-0.6088888888888889,-0.01606907553212564,-0.03892385392291801,0.4447129050115996
1589995329.5542774,-2.1789620494592428,-3.8413671731073493,8.585848197836972,0.9611111111111112,-0.10666666666666667,-0.6088888888888889,-0.014556381303617123,-0.037201469444936186,0.44738975627459676
1589995329.5642774,-2.2073106012857684,-3.907696962057229,8.636924240514308,0.9611111111111112,-0.10666666666666667,-0.6088888888888889,-0.017495437942209167,-0.034486780882699936,0.4500933090138496
1589995329.5742774,-2.228752415986034,-3.9375048319720682,8.652249516802794,1.0698377565794488,-0.16365442567076086,-0.626635076999813,-0.0184080329978213,-0.03237024534466617,0.4472406208235469
1589995329.5842774,-2.1949111071994367,-3.871459250132019,8.661637035733145,1.4444444444444444,-0.36,-0.6877777777777778,-0.01400222727547774,-0.035085157936862774,0.44777633951447543
1589995329.5942774,-2.216285510058205,-3.93,8.640284080465639,1.4444444444444444,-0.36,-0.6877777777777778,-0.01430553338089256,-0.036807791816339766,0.4505131131710362
1589995329.6042774,-2.213083763705156,-3.8991623629484384,8.586916236294844,1.4444444444444444,-0.36,-0.6877777777777778,-0.014680529549681997,-0.03784269094982299,0.4505131131710362
1589995329.6142774,-2.223463824554212,-3.8681020700963313,8.604246771879483,1.4444444444444444,-0.36,-0.6877777777777778,-0.01090830782496456,-0.03784393589465979,0.44862388994658553
1589995329.6242774,-2.193065053158511,-3.863821672139429,8.659233736710373,1.2987565985696827,-0.29485085765459595,-0.6859823289729832,-0.011411930037021638,-0.0385144748517868,0.4445553370464969
1589995329.6342773,-2.094328138500432,-3.655953150500816,8.695406253000096,0.8133333333333334,-0.07777777777777778,-0.68,-0.011910507951863764,-0.036587146541429895,0.44022350945785027
1589995329.6442773,-2.2004415803929853,-3.788666052941354,8.666669735293231,0.8133333333333334,-0.07777777777777778,-0.68,-0.009356859414049842,-0.03660354450218048,0.43148428776589753
1589995329.6542773,-2.289059792943165,-3.8076556699163926,8.571721650418038,0.8133333333333334,-0.07777777777777778,-0.68,-0.010737823330329122,-0.033151134711482275,0.42803187797519926
1589995329.6642773,-2.2559871149653286,-3.6814012885034675,8.625223193062409,0.8133333333333334,-0.07777777777777778,-0.68,-0.012784255663009397,-0.03678253287793143,0.4126814149869648
1589995329.6742773,-2.1872292257503974,-3.68827707742496,8.748987393649283,0.8133333333333334,-0.07777777777777778,-0.68,-0.011284191221106844,-0.03528246843602888,0.4036810283355494
1589995329.6842773,-2.1778818176492414,-3.631984416801734,8.465496104200435,0.6355555555555555,0.03333333333333333,-0.6666666666666666,-0.0003976572291519817,-0.025472173668719112,0.3844199595831308
1589995329.6942773,-2.2352156847429163,-3.5009355777304774,8.43273389443262,0.6355555555555555,0.03333333333333333,-0.6666666666666666,-0.019160121360754352,-0.03619358174392047,0.3638705941056615
1589995329.7042773,-2.243459767594826,-3.4353080464810346,8.724312650734488,0.6355555555555555,0.03333333333333333,-0.6666666666666666,-0.010006178092104082,-0.02797128334490035,0.33496517044393803
1589995329.7142773,-2.3199694802668978,-3.4201678585320607,8.510442536129977,0.6355555555555555,0.03333333333333333,-0.6666666666666666,-0.014179135579236866,-0.033804102104870726,0.3174034596217787
1589995329.7242773,-2.287753440312366,-3.5075479739060045,8.744890481405648,0.629205487569375,0.04127091831605902,-0.6723363702257564,-0.010863482008798928,-0.024844046351219815,0.2953252545941752
1589995329.7342772,-2.285855001346459,-3.488782502019688,8.611520002393704,0.6044444444444445,0.07222222222222223,-0.6944444444444444,-0.002181661564992912,-0.01991284323493695,0.2733755565340641
1589995329.7442772,-2.3772506615567113,-3.6666821790309334,8.768387626608266,0.6044444444444445,0.07222222222222223,-0.6944444444444444,-0.007268820943752733,-0.0224215046603526,0.23793021064124883
1589995329.7542772,-2.2621094244149273,-3.6026339568085297,8.595530179813862,0.6044444444444445,0.07222222222222223,-0.6944444444444444,-0.005942967733580641,-0.0209844961800158,0.213286642820111
1589995329.7642772,-2.1837499731822962,-3.5170000643624895,8.466000085816653,0.6044444444444445,0.07222222222222223,-0.6944444444444444,0.00809942616596621,-0.013989903030302425,0.19730402656011956
1589995329.7742772,-2.248566421310901,-3.4442832106554504,8.51663745764692,0.5962448235126118,0.07010619101400735,-0.6999990263660084,-0.001402633272200578,-0.015323757347057059,0.17946868277965627
1589995329.7842772,-2.2861452248335823,-3.468458089933433,8.83458089933433,0.57,0.06333333333333334,-0.7177777777777777,-0.0012590270789417048,-0.013957353491992817,0.15526076632719632
1589995329.7942772,-2.1946774276549395,-3.4931452733416815,8.473387138274697,0.57,0.06333333333333334,-0.7177777777777777,-0.004433697498700666,-0.016432836106161683,0.14183438509595325
1589995329.8042772,-2.2090668473506354,-3.68740243923358,8.545334236753177,0.57,0.06333333333333334,-0.7177777777777777,-0.0012944131094354315,-0.013293551716896446,0.128492426441576
1589995329.8142772,-1.9054647746004443,-3.7066523328316494,8.698919945531427,0.57,0.06333333333333334,-0.7177777777777777,0.003029824910460127,-0.00969731600808861,0.10628888467140395
1589995329.8242772,-1.6770072385866839,-3.6705800903031607,8.777076471009819,0.57,0.06333333333333334,-0.7177777777777777,0.0023740130347309095,-0.01232056351100548,0.08989358777817351
1589995329.8342772,-1.5284939742269477,-3.5726015196637815,8.63643908820173,0.5311111111111111,0.012222222222222223,-0.6944444444444444,0.021218873535041694,-0.004931129561955784,0.03408444674605093
1589995329.8442771,-1.8087243876136188,-3.181720844245879,8.794717300878139,0.5311111111111111,0.012222222222222223,-0.6944444444444444,0.006823280146498398,0.00018771498752866113,-0.08231764348356248
1589995329.8542771,-1.8550372244659628,-3.0862965305824535,8.595432176860818,0.5311111111111111,0.012222222222222223,-0.6944444444444444,-0.0020093310730214652,0.0005844374549076759,-0.1990912765132622
1589995329.8642771,-1.7734003211522553,-2.984250401440319,8.561416800480107,0.5311111111111111,0.012222222222222223,-0.6944444444444444,0.01876947992217695,0.01468434491593517,-0.26662241224765704
1589995329.874277,-12.011755444517771,-2.558731215235222,-5.466975582162723,0.5277035500665179,0.025473848506751308,-0.6796783465845406,-0.15376647713869407,0.40565293120335,-0.5910461376438476
1589995329.884277,-2.0865239935891395,-1.5780708965777317,0.8598651833694726,0.5118864481526874,0.08698480039386987,-0.6111375716246085,-0.9586553914605981,2.197458156333677,-1.5978042973583837
1589995329.894277,-2.9926382731809213,-0.5923240106765696,-0.19498061970523387,0.5111111111111111,0.09,-0.6077777777777778,-0.04099351448322494,-1.0732711032770106,-4.074412780536509
1589995329.904277,-0.38837473216411394,-0.7206134433775098,0.010961828426315372,0.5111111111111111,0.09,-0.6077777777777778,-0.01255991964142753,-0.7605423534683441,-3.973181930039437
1589995329.914277,-0.25668979941059034,-0.31663428082517353,0.0034212377602433758,0.5111111111111111,0.09,-0.6077777777777778,0.03712004133041553,-0.5373231047242282,-3.769081514114916
1589995329.924277,0.030721410028692497,-0.5836466730427654,1.153478617297445,0.5095389473364607,0.11148623825355619,-0.6182588696087807,0.21821384960632753,-0.2333114007205953,-3.524834192163214
1589995329.934277,-0.8108874188716924,0.34602637710101525,12.995061158262605,0.5044444444444445,0.1811111111111111,-0.6522222222222223,0.6566801310628665,0.31852258848896514,-3.2114058236695664
1589995329.944277,-2.5338405706105434,2.008547102996208,16.494129391968254,0.5044444444444445,0.1811111111111111,-0.6522222222222223,0.8282885766588655,1.2844645472836114,-3.094667889648254
1589995329.954277,-0.7409752770673488,-0.47959931798806477,2.530339300937767,0.5044444444444445,0.1811111111111111,-0.6522222222222223,0.6442325707986964,1.8420549750828759,-2.4283933527609642
1589995329.964277,-1.07,-0.79,8.31,0.5044444444444445,0.1811111111111111,-0.6522222222222223,-0.2083486794568231,-0.34797501961636945,-1.7126043285194357
1589995329.974277,1.3331826683892862,-1.8860691490387396,14.580060163134654,0.5044444444444445,0.1811111111111111,-0.6522222222222223,0.690227358241652,0.023337392655727762,-1.5076398769452382
1589995329.984277,0.12144762166620815,-0.22724051416002178,3.5148635551278513,0.4995966990498885,0.22086262334646992,-0.6144098081446858,0.48428571557832145,0.28977007212229866,-1.2002237592630152
1589995329.994277,0.2476430877604931,-2.5592955679483413,10.795920164367478,0.4988888888888889,0.22666666666666666,-0.6088888888888889,-0.6996554060204793,-0.13001313374790677,-0.9281349881627923
1589995330.004277,-0.779753066687977,-3.4686067047588605,13.429587245774563,0.4988888888888889,0.22666666666666666,-0.6088888888888889,-0.28328392050937984,0.09947607876536166,-0.7562450820048977
1589995330.014277,-0.19318456067447154,-3.5524022056179327,11.770436328764934,0.4988888888888889,0.22666666666666666,-0.6088888888888889,0.4315165655459724,0.3033130460164404,-0.6529554977027816
1589995330.024277,-0.30000800961153384,-1.6138205847016418,4.788778534241089,0.49468384283362254,0.23195301027900145,-0.6112917723490411,0.19916551811166575,0.1308324179922842,-0.63433404528543
1589995330.034277,-0.6107591109331197,-3.0415959150981173,9.82798558269924,0.46202231566769014,0.2730132158590308,-0.6299555021581453,-0.3551074671446529,-0.191653682520483,-0.6810578837119957
1589995330.044277,-0.8863671733622873,-3.168627397756062,10.441144136807818,0.46,0.27555555555555555,-0.6311111111111111,0.04163436186381785,0.05295099098331625,-0.5499245434119758
1589995330.054277,-0.5293610994544692,-2.5854235732270245,7.311590169953839,0.46,0.27555555555555555,-0.6311111111111111,0.17617990001206338,0.08638471153182567,-0.48762127212968776
1589995330.064277,-0.7508342184819021,-3.288959882343329,9.379176403300923,0.46,0.27555555555555555,-0.6311111111111111,-0.08644747052026881,0.015089632715073124,-0.4686471611053687
1589995330.074277,-0.7660428968114646,-3.3100919217388527,9.51257604289681,0.46177233056362355,0.27976484064416146,-0.6324403590338288,-0.021056923087480653,0.015034079059735635,-0.42066913747180357
1589995330.084277,-0.7368366894450192,-3.2130028766671592,8.7983381277786,0.4688888888888889,0.2966666666666667,-0.6377777777777778,0.09705298177304325,0.0326239631163959,-0.3387363902312836
1589995330.094277,-0.8036028834892949,-3.270231042990824,8.893718404984707,0.4688888888888889,0.2966666666666667,-0.6377777777777778,0.023702143367318476,0.013375870768794363,-0.28047189447638166
1589995330.104277,-0.8453519796585542,-3.279787867780603,8.82055938975663,0.4688888888888889,0.2966666666666667,-0.6377777777777778,-0.018397913146703755,0.0038026527495889895,-0.21792738620160418
1589995330.114277,-0.830116600072648,-3.180757900472212,8.36349800217944,0.4688888888888889,0.2966666666666667,-0.6377777777777778,0.010685723665114433,0.0162670685260825,-0.1456337746979418
1589995330.1242769,-0.8385338493190947,-3.2316300088174783,8.465765406093857,0.4665353842134483,0.3003440177220426,-0.638513247988853,-0.01937718159082614,0.004378846121183787,-0.0358172582842628
1589995330.1342769,-0.9441345373925268,-3.4959611744984587,9.103140107067539,0.4511111111111111,0.3244444444444444,-0.6433333333333333,0.010331423325271955,-0.011163540875084182,0.08506391993933592
1589995330.1442769,-0.8752844349287474,-3.208128784216221,8.356826438289938,0.4511111111111111,0.3244444444444444,-0.6433333333333333,0.006194709405380914,-0.01889439859203757,0.2055367082063114
1589995330.1542768,-0.8558765666540068,-3.41928940372199,8.679668059248007,0.4511111111111111,0.3244444444444444,-0.6433333333333333,-0.000713452218206284,-0.025182178690653517,0.3050294922881804
1589995330.1642768,-0.7125089251804025,-3.6263759969616407,8.552230155715915,0.4511111111111111,0.3244444444444444,-0.6433333333333333,-0.012877106170798078,-0.03473933536768992,0.3858309078303973
1589995330.1742768,-1.9695700009168422,-24.933941505455213,5.652061061703494,0.45186964538573593,0.32330664303250717,-0.6433333333333333,-0.26230274814831095,0.008510120300119732,-0.9940409781189017
1589995330.1842768,-0.3758896826715401,-3.034948704103672,9.41296415517528,0.4577777777777778,0.3144444444444445,-0.6433333333333333,-0.03861745308250991,0.11015381501934764,-4.00460225368964
1589995330.1942768,0.4893508915044867,-2.910202773569514,10.783248039689013,0.4577777777777778,0.3144444444444445,-0.6433333333333333,0.7080604455946135,0.6592922991377543,-3.8982751828782907
1589995330.2042768,0.04944062463582333,-1.5415930544225613,4.701314032663524,0.4577777777777778,0.3144444444444445,-0.6433333333333333,0.7834682208375028,0.4582048984900493,-3.6583413525600066
1589995330.2142768,0.014461310766194835,-2.738407081325187,7.153310880042503,0.4577777777777778,0.3144444444444445,-0.6433333333333333,-0.11993674311484029,0.01715341858011542,-3.2635328684057403
1589995330.2242768,-1.4658236879055824,-3.605885924632841,11.745377784524306,0.4577777777777778,0.3144444444444445,-0.6433333333333333,-0.34044430904408796,0.2567600650229199,-2.9379803596519296
1589995330.2342768,-0.5979587855139618,-2.5020521887574687,6.887980734056823,0.44,0.3466666666666667,-0.6433333333333333,0.2095117357136392,0.20274528616646484,-2.3646321015431147
1589995330.2442768,-0.8463713484418276,-2.8965897887017267,8.422293622728937,0.44,0.3466666666666667,-0.6433333333333333,0.083587561821617,0.17405370224170028,-2.1343024417026433
1589995330.2542768,-2.6126517327206584,-5.798535324526133,9.543538196438828,0.44,0.3466666666666667,-0.6433333333333333,-0.03658094659134631,0.08429429854348307,-1.57412583557042
1589995330.2642767,-11.270928585104345,-19.048765077541642,7.441022400919012,0.44,0.3466666666666667,-0.6433333333333333,-0.08595466705216522,0.08588699920350949,-0.40587990144104347
1589995330.2742767,0.33758856474504595,-1.1738993229717267,11.353183157515913,0.4376750114337554,0.35065236135165734,-0.6441969005150813,0.05699633162552615,-0.2972923505099437,2.5626747548193727
1589995330.2842767,11.725610720966603,-14.702344751448987,3.573356435339937,0.4011111111111111,0.4133333333333333,-0.6577777777777778,0.1967926438131128,-0.11810898459671632,2.2318624278778634
1589995330.2942767,-0.8936981807336714,-1.5270653146436028,10.283864201212843,0.4011111111111111,0.4133333333333333,-0.6577777777777778,-0.126211257867121,-0.04652042473391588,-0.04694183525392592
1589995330.3042767,-1.49,-1.55,7.31,0.4011111111111111,0.4133333333333333,-0.6577777777777778,0.11562806294462433,0.40797071265367457,-0.17453292519943295
1589995330.3142767,-0.957448130348142,-2.7216141132340876,7.775982885945376,0.4011111111111111,0.4133333333333333,-0.6577777777777778,0.048095651119145974,0.12186565610272332,-0.08594201936385922
1589995330.3242767,0.3524126255701374,-6.37742731622688,9.599252035705291,0.4011111111111111,0.4133333333333333,-0.6577777777777778,-0.19832562429307687,-0.19051689121247775,-0.18312251937855256
1589995330.3342767,-0.1,-4.87,9.04,0.4033333333333333,0.4066666666666667,-0.6577777777777778,0.05126904677733343,0.09490227807719166,-0.6326818538479445
1589995330.3442767,-0.26998386629710835,-4.256399702147023,8.729053903115044,0.4033333333333333,0.4066666666666667,-0.6577777777777778,0.08202223483625061,0.08088244234445001,-0.6693143278593017
1589995330.3542767,-2.385385285154549,-8.598731388767957,8.74977187636047,0.4033333333333333,0.4066666666666667,-0.6577777777777778,-0.02567436696840175,0.05184775221553552,-0.5527615215810262
1589995330.3642766,0.35090034389405167,-4.583105290114876,9.285042437989318,0.4033333333333333,0.4066666666666667,-0.6577777777777778,0.05796815412110125,-0.026354573868237342,0.09934330105109057
1589995330.3742766,-0.14328118156174985,-4.099017818035286,8.727896000140161,0.4033333333333333,0.4066666666666667,-0.6577777777777778,0.06306598502950576,0.020160675008686797,0.07943448602142059
1589995330.3842766,-0.35526072254849617,-5.128869905677167,9.243413418757786,0.3932101401989282,0.4085072472365585,-0.6458140040734809,-0.06509419612338879,-0.04325622589327201,-0.06251650416218787
1589995330.3942766,-0.34614460434763816,-4.662409352175979,8.559810277021478,0.3911111111111111,0.4088888888888889,-0.6433333333333333,-0.015080090894045273,-0.0018080099472883096,-0.013568701685918907
1589995330.4042766,-0.333198823985526,-4.429068234685965,8.429471762729388,0.3911111111111111,0.4088888888888889,-0.6433333333333333,-0.0001016398286611455,0.0008435330440376284,0.0019343638265340844
1589995330.4142766,-0.292545877487723,-4.483272163349703,8.605634530886535,0.3911111111111111,0.4088888888888889,-0.6433333333333333,0.005811091563203529,-0.0006346498039285402,0.00045618097856791576
1589995330.4242766,-0.28856716594286386,-4.491432834057136,8.762805991314366,0.3911111111111111,0.4088888888888889,-0.6433333333333333,0.002963151312859586,-0.0038944292812658193,0.0018690656658462421
1589995330.4342766,-0.32051944275555794,-4.569480557244442,8.521185069655555,0.41,0.4088888888888889,-0.6433333333333333,-0.011037578870932775,-0.0041047810380493936,-0.0009615597365282408
1589995330.4442766,-0.2606462198922623,-4.6187075602154755,8.519353780107737,0.41,0.4088888888888889,-0.6433333333333333,-0.010063601211510047,-0.002181661564992912,-0.00019355373959509674
1589995330.4542766,-0.3089533281559235,-4.518429992233885,8.478373374752612,0.41,0.4088888888888889,-0.6433333333333333,-0.0003486985691473503,-0.002181661564992912,-0.0009195695024928162
1589995330.4642766,-0.29075936519653073,-4.493037460786123,8.626962539213878,0.41,0.4088888888888889,-0.6433333333333333,0.012841467710497816,-0.0020988276718396934,0.0019331598855332561
1589995330.4742765,-0.29849935412437717,-4.523997416497509,8.596002583502491,0.41,0.4088888888888889,-0.6433333333333333,0.010308562256894818,-0.0012545258539720268,-0.0005997455680697441
1589995330.4842765,-0.3205689202399893,-4.546586478560064,8.648293239280033,0.4033333333333333,0.4155555555555556,-0.65,0.002838075350093475,0.002838075350093475,0.0010287712114398998
1589995330.4942765,-0.3286087523241772,-4.498347486054937,8.624173743027468,0.4033333333333333,0.4155555555555556,-0.65,-0.003300992076380906,-0.003300992076380906,0.00015176157908641677
1589995330.5042765,-0.31,-4.531127835247224,8.517744329505552,0.4033333333333333,0.4155555555555556,-0.65,-0.0050235568206425,-0.002120147694730086,-0.0009062891717079789
1589995330.5142765,-0.31,-4.547050014235551,8.485899971528898,0.4033333333333333,0.4155555555555556,-0.65,0.001055384217067322,-0.001251727546485826,0.0016989712730248023
1589995330.5242765,-0.31,-4.49688014923053,8.60141680175879,0.4033333333333333,0.4155555555555556,-0.65,0.005492791186761816,-0.002746395593380909,0.002181661564992912
1589995330.5342765,-0.2813432146096839,-4.509328392695158,8.679328392695158,0.3955555555555556,0.4088888888888889,-0.6577777777777778,-0.0024014445415542324,-0.0063618322145109684,0.003162600859208708
1589995330.5442765,-0.31005802112037245,-4.494970989439814,8.664970989439814,0.3955555555555556,0.4088888888888889,-0.6577777777777778,-0.007099893769847541,-0.0024464578575998782,0.0008133762450620538
1589995330.5542765,-0.29039010331359455,-4.53,8.49078020662719,0.3955555555555556,0.4088888888888889,-0.6577777777777778,-0.008343663227431119,-0.002139107894710631,-0.0011333844527787371
1589995330.5642765,-0.2969957162655915,-4.53,8.503991432531183,0.3955555555555556,0.4088888888888889,-0.6577777777777778,-0.0018586178766650903,-0.0014185473001810723,-0.0018539450473082958
1589995330.5742764,-0.2928084410478976,-4.501233764191591,8.610681825329435,0.3955555555555556,0.4088888888888889,-0.6577777777777778,0.007366649885769459,-0.001090830782496456,0.0009562479866435892
1589995330.5842764,-0.3099311739668548,-4.480034413016573,8.68986234793371,0.39112640578514335,0.4155326135445072,-0.6500267656795565,0.008730400137751242,-0.002177907687213318,0.0010945846602760496
1589995330.5942764,-0.3090732221798353,-4.473243722370576,8.6521223885286,0.3911111111111111,0.4155555555555556,-0.65,0.0006864476725882035,-0.005302510246266685,0.000989735005019393
1589995330.6042764,-0.2902490855642573,-4.5391282005250995,8.492117227296188,0.3911111111111111,0.4155555555555556,-0.65,-0.007527131397088228,-0.002222418095138023,-0.001063659762399715
1589995330.6142764,-0.3098976912979693,-4.5097953825959385,8.541125395722338,0.3911111111111111,0.4155555555555556,-0.65,-0.0042963622410903965,-0.0011243112269441699,0.001057350338048742
1589995330.6242764,-0.3018012122616014,-4.493602424523203,8.630186665122384,0.3911111111111111,0.4155555555555556,-0.65,0.0010027708965339782,-0.0037738777957563568,-0.001592216230763445
1589995330.6342764,-0.3,-4.470890099909173,8.697774750227065,0.41659097789887983,0.42192552225249774,-0.6574316278130993,0.0032239449284681815,-0.0054056064934610935,0.003029755252383436
1589995330.6442764,-0.3099728622884492,-4.4999185868653475,8.670081413134652,0.4177777777777778,0.4222222222222222,-0.6577777777777778,-0.0032547307568136976,-0.0011026718429469036,8.88079533783526e-06
1589995330.6542764,-0.30002003960207074,-4.509979960397929,8.520300594031061,0.4177777777777778,0.4222222222222222,-0.6577777777777778,-0.005449781949520727,-0.001090830782496456,-0.0010886448010156797
1589995330.6642764,-0.3,-4.539385735011934,8.529795245003978,0.4177777777777778,0.4222222222222222,-0.6577777777777778,-0.0022486674807521015,-2.2335305253063124e-05,0.0010461601719903297
1589995330.6742764,-0.3,-4.519200810331729,8.566398581919472,0.4177777777777778,0.4222222222222222,-0.6577777777777778,0.0006543879776485452,-0.0005672099085282914,0.0005236208739681646
1589995330.6842763,-0.30177843465984294,-4.5,8.607113738639372,0.4152089277135602,0.42103659911566027,-0.6563945508201222,0.004242477983297013,-0.0007028365281733981,0.0
1589995330.6942763,-0.3040941569958952,-4.476376627983581,8.61637662798358,0.4033333333333333,0.4155555555555556,-0.65,0.00679396365633099,0.001090830782496456,0.0012884550690937717
1589995330.7042763,-0.3092488970192618,-4.506244485096309,8.526008823845904,0.4033333333333333,0.4155555555555556,-0.65,-0.0016081331884430696,-0.0009269655320536436,0.00016386525044281234
1589995330.7142763,-0.3029625247244984,-4.517037475275501,8.555187376377507,0.4033333333333333,0.4155555555555556,-0.65,-0.003717000497307876,-0.001858500248653938,0.0
1589995330.7242763,-0.3,-4.513473875275508,8.576526124724491,0.4033333333333333,0.4155555555555556,-0.65,-0.004363323129985824,-0.0028935513389815237,0.0
1589995330.7342763,-0.3,-4.501497840655249,8.648017274758004,0.4033333333333333,0.4155555555555556,-0.6566127906014727,0.0021287688616748414,-0.0023450506343949875,-0.0009274417130943808
1589995330.7442763,-0.3,-4.471345253189122,8.669551582270293,0.4033333333333333,0.4155555555555556,-0.6577777777777778,0.0011886603550928469,0.00094408642360187,-4.8914786298195337e-05
1589995330.7542763,-0.3090628380815002,-4.497188514244501,8.570308781103499,0.4033333333333333,0.4155555555555556,-0.6577777777777778,-0.0018749760443280007,-0.0028635783199361525,-0.001977204551216304
1589995330.7642763,-0.31,-4.5,8.54220207253886,0.4033333333333333,0.4155555555555556,-0.6577777777777778,-0.005093840635880471,-0.0013310396335643282,0.001701243862857167
1589995330.7742763,-0.31,-4.5148706182790335,8.606917782255652,0.4033333333333333,0.4155555555555556,-0.6577777777777778,-0.0013988218691012048,-0.000279764373820241,0.001370595156316697
1589995330.7842762,-0.28058054075922056,-4.510193513586406,8.620193513586406,0.39570606612276094,0.40901789794649346,-0.6501505105672053,0.004278886899232272,0.0,0.001090830782496456
1589995330.7942762,-0.3038731581579656,-4.478169122456046,8.667746316315931,0.3955555555555556,0.4088888888888889,-0.65,0.006099428182926842,-0.002604157579411527,0.00022277825602594684
1589995330.8042762,-0.31,-4.49650627556057,8.556304047384007,0.3955555555555556,0.4088888888888889,-0.65,0.0036535985638984384,-0.002308696970462602,-0.0009637953770267657
1589995330.8142762,-0.3194238149828042,-4.5,8.596542889896824,0.3955555555555556,0.4088888888888889,-0.65,-0.003923358882766498,-0.002181661564992912,-6.285203531704656e-05
1589995330.8242762,-0.32,-4.513988316891092,8.57901752466336,0.3955555555555556,0.4088888888888889,-0.65,-0.002837434463973892,-0.0006557728989809801,-0.0007629443330059659
1589995330.8342762,-0.3147268262737876,-4.52,8.596365868631061,0.3955555555555556,0.4088888888888889,-0.6464845508491918,-0.0010312335205921069,-0.0017256420666012077,0.0012100253063051542
1589995330.8442762,-0.30442226203680006,-4.5032667861104,8.6088445240736,0.3955555555555556,0.4088888888888889,-0.6433333333333333,0.0018253104800872787,-0.0026640555207936086,0.002055618694097849
1589995330.8542762,-0.3,-4.483469665479019,8.573878661916073,0.3955555555555556,0.4088888888888889,-0.6433333333333333,0.003272492347489368,-0.002181661564992912,0.001090830782496456
1589995330.8642762,-0.2918771092749913,-4.488122890725009,8.56,0.3955555555555556,0.4088888888888889,-0.6433333333333333,-0.0029299971244967646,-0.00040952171585401684,0.001090830782496456
1589995330.8742762,-0.2967908462966152,-4.50358169259323,8.593954231483076,0.3955555555555556,0.4088888888888889,-0.6433333333333333,-0.005104089547940815,-0.0007407664179549914,-0.0011314684713685183
1589995330.8842762,-0.3046650974868411,-4.51,8.619330194973683,0.3934821788947373,0.41199895388011637,-0.6531818724722201,-0.0024008547472863843,-0.001090830782496456,-0.00014612878819564778
1589995330.8942761,-0.3049759450171821,-4.504975945017182,8.645072164948454,0.3911111111111111,0.4155555555555556,-0.6644444444444444,0.00492710646224516,5.2479831460310565e-06,0.0005375434165291813
1589995330.9042761,-0.3056024726765367,-4.5,8.615180218587707,0.3911111111111111,0.4155555555555556,-0.6644444444444444,0.006282106398507029,0.0004796958171303014,0.0007425741136020078
1589995330.9142761,-0.3178373096653367,-4.5,8.595674619330673,0.3911111111111111,0.4155555555555556,-0.6644444444444444,0.001798569539513943,0.0008549178634906269,0.00047182583801165805
1589995330.924276,-0.30846085997794925,-4.5,8.6,0.3911111111111111,0.4155555555555556,-0.6644444444444444,-0.0026853439593804707,-0.0007972565884420075,-0.0006293624569794877
1589995330.934276,-0.3,-4.51065894074833,8.605329470374166,0.4011778884845344,0.41200257530611206,-0.6531933403212066,-0.00487279887862804,-0.0016003065311386722,-0.002253540850204935
1589995330.944276,-0.3,-4.514577819726286,8.58288909863143,0.41,0.4088888888888889,-0.6433333333333333,-0.00022304632441720856,-0.0016822988975776867,-0.0020895561173269062
1589995330.954276,-0.3064196814107914,-4.503580318589209,8.553580318589209,0.41,0.4088888888888889,-0.6433333333333333,0.0025722137378182152,-0.002181661564992912,0.0003097264368458496
1589995330.964276,-0.31,-4.483938711131141,8.57409193330329,0.41,0.4088888888888889,-0.6433333333333333,0.00042964673452091143,-0.0013056541497569116,0.00021482336726045572
1589995330.974276,-0.30355968400362865,-4.499320947989114,8.605761263985485,0.41,0.4088888888888889,-0.6433333333333333,-0.0007025294937846184,-0.0017933602762810743,0.0007025294937846184
1589995330.984276,-0.3050744433220607,-4.525223329966182,8.630148886644122,0.4004149403916631,0.4156548133183032,-0.6574290092279463,-0.0016443666804701945,-0.002181661564992912,0.0016443666804701945
1589995330.994276,-0.31,-4.5181072590598,8.6327024196866,0.3911111111111111,0.4222222222222222,-0.6711111111111111,-0.0005895765162735624,-0.002181661564992912,0.0005895765162735624
1589995331.004276,-0.31705716144245233,-4.502942838557548,8.566485547017928,0.3911111111111111,0.4222222222222222,-0.6711111111111111,0.003079267575389638,-0.000642027777298093,-0.0007698168938474095
1589995331.014276,-0.3056244111797341,-4.485624411179734,8.554375588820266,0.3911111111111111,0.4222222222222222,-0.6711111111111111,0.004363323129985824,0.0,-0.00030676404241355894
1589995331.024276,-0.3,-4.4864039823463004,8.6048278764241,0.3911111111111111,0.4222222222222222,-0.6711111111111111,0.0008704925930319149,0.0,0.0
1589995331.034276,-0.3,-4.505843928386092,8.637921964193048,0.40079351179150086,0.41165960329816065,-0.6658298016490802,-0.003683287502379299,-0.0008641522399609477,0.0
1589995331.044276,-0.30853902345251827,-4.501460976547482,8.631460976547482,0.4033333333333333,0.4088888888888889,-0.6644444444444444,-0.0034318601665392157,-0.00015936781904984747,0.0009314629634466085
1589995331.054276,-0.3043611635220126,-4.5,8.579250471698114,0.4033333333333333,0.4088888888888889,-0.6644444444444444,-0.0008120857844283367,-0.0006151016407652579,0.001090830782496456
1589995331.064276,-0.3051238954012624,-4.494876104598737,8.565619477006312,0.4033333333333333,0.4088888888888889,-0.6644444444444444,0.001090830782496456,-0.001090830782496456,0.0005319004994975505
1589995331.074276,-0.2981207815275311,-4.495939609236235,8.619698046181172,0.4033333333333333,0.4088888888888889,-0.6644444444444444,0.001090830782496456,-0.0030345633597618996,-0.0006479108590884811
1589995331.084276,-0.31113405933158095,-4.4929553135561395,8.63295531355614,0.39785413276588644,0.4049751741978554,-0.6597479868152042,-0.0019829935479028704,-0.0028264109647861604,0.0012145374653030388
1589995331.094276,-0.30088893680413986,-4.50911106319586,8.60451858240552,0.3955555555555556,0.4033333333333333,-0.6577777777777778,-0.001187798745461436,-0.002876559432335556,0.0014867636976502682
1589995331.104276,-0.304488218195312,-4.505511781804688,8.546535345414064,0.3955555555555556,0.4033333333333333,-0.6577777777777778,0.00158041943909716,-0.002482282627940788,0.001090830782496456
1589995331.114276,-0.3020503008423586,-4.5,8.577698194945848,0.3955555555555556,0.4033333333333333,-0.6577777777777778,0.003916016875541188,-0.00304883922026705,0.001958008437770594
1589995331.124276,-0.3062731555338676,-4.487453688932265,8.633912088737073,0.3955555555555556,0.4033333333333333,-0.6577777777777778,0.0029947328980396686,-0.004641082579435523,0.0014973664490198343
1589995331.134276,-0.31,-4.484778657665845,8.645664027002468,0.3955555555555556,0.4123596867021507,-0.664149321332237,0.0006178495007181665,-0.0038903418482075344,4.8289406313292444e-05
1589995331.144276,-0.31,-4.522525566106648,8.63,0.3955555555555556,0.4222222222222222,-0.6711111111111111,-0.0025100263315866226,-0.0007624660159027455,0.00032836476659371043
1589995331.154276,-0.31,-4.503169510807736,8.548972923777018,0.3955555555555556,0.4222222222222222,-0.6711111111111111,-0.003272492347489368,0.0,0.0002873141555899653
1589995331.164276,-0.31,-4.504992717667679,8.602459947172234,0.3955555555555556,0.4222222222222222,-0.6711111111111111,0.0008161371388062553,0.0008177258972591246,0.0008177258972591246
1589995331.1742759,-0.315935126257442,-4.51,8.63,0.3955555555555556,0.4222222222222222,-0.6711111111111111,0.0034765052489170566,-0.0014988565853518334,0.001090830782496456
1589995331.1842759,-0.31337288414133113,-4.51,8.63,0.40512805624029946,0.4133860677439971,-0.652702455948142,0.004363323129985824,-0.000380867556366799,0.001090830782496456
1589995331.1942759,-0.3022877869471019,-4.494575573894204,8.660848852211592,0.41,0.4088888888888889,-0.6433333333333333,0.00015696343034973022,-0.0005917130973579817,0.00024955884256923713
1589995331.2042758,-0.2934915206783457,-4.5160339172866175,8.572372810175185,0.41,0.4088888888888889,-0.6433333333333333,-0.001800795741626669,-0.0032207256598870944,0.0
1589995331.2142758,-0.3039331341584863,-4.5160668658415135,8.54089970123773,0.41,0.4088888888888889,-0.6433333333333333,0.0016180113441895084,-0.002083519384476372,0.0
1589995331.2242758,-0.31,-4.504221269835405,8.578893650822973,0.41,0.4088888888888889,-0.6433333333333333,0.003902854022217429,-0.0004604691077683948,0.0012607233494561223
1589995331.2342758,-0.31,-4.5,8.63500871000275,0.39897873944357853,0.4127787455558612,-0.6556512127787455,0.003090370512436095,-0.0012729526175497287,0.0002722326386683186
1589995331.2442758,-0.31710799819249885,-4.507107998192499,8.617352010845007,0.3911111111111111,0.4155555555555556,-0.6644444444444444,-0.0024705123731912503,-0.004507748534084993,0.0012352561865956251
1589995331.2542758,-0.31250535806666174,-4.51,8.547537506466632,0.3911111111111111,0.4155555555555556,-0.6644444444444444,-0.0027282459050509984,-0.003819076687547455,-0.0002709542724093259
1589995331.2642758,-0.3033818659001437,-4.529854402299569,8.536618134099855,0.3911111111111111,0.4155555555555556,-0.6644444444444444,-0.002181661564992912,-0.0018286394677268275,0.0017968749770286244
1589995331.2742758,-0.3,-4.508894042673336,8.586658935989997,0.3911111111111111,0.4155555555555556,-0.6644444444444444,8.04274864035625e-05,4.021374320178125e-05,0.002706970084640249
1589995331.2842758,-0.30378644643343744,-4.491359339300312,8.641359339300314,0.3911111111111111,0.413031257933264,-0.6564508353071876,0.0017686243324061641,0.0002647563173229602,0.0017686243324061641
1589995331.2942758,-0.29009144984421154,-4.51,8.66,0.3911111111111111,0.4088888888888889,-0.6433333333333333,0.0005479092988762396,0.0005379336683641932,0.0005479092988762396
1589995331.3042758,-0.2948426826395666,-4.514968536527913,8.60037756166504,0.3911111111111111,0.4088888888888889,-0.6433333333333333,0.0,0.0005557117884111399,0.0005419832588605907
1589995331.3142757,-0.3150334158415842,-4.515033415841584,8.559866336633663,0.3911111111111111,0.4088888888888889,-0.6433333333333333,0.0005417702883859254,0.0005344800826613207,7.290205724605177e-06
1589995331.3242757,-0.30476520698394816,-4.51,8.600939172064207,0.3911111111111111,0.4088888888888889,-0.6433333333333333,0.0022328854548778134,0.00046857955642087596,-0.0005198034463057774
1589995331.3342757,-0.30974537112895295,-4.490509257742094,8.639490742257905,0.4003150727329,0.4088888888888889,-0.650371656926466,0.0022094372660579533,-2.7775701065041588e-05,0.0005315275407157072
