time,acc_x,acc_y,acc_z,mag_x,mag_y,mag_z,gyr_x,gyr_y,gyr_z
1589996787.8205068,-3.71,-0.87,9.0,0.33,-0.3088888888888889,-0.6,-0.002181661564992912,-0.006544984694978735,0.01854412330243975
1589996787.8305068,-3.7487946324177503,-0.8912053675822496,8.873616102746748,0.33,-0.3088888888888889,-0.6,0.0001314852062941153,-0.003968867511103478,0.011473197782284554
1589996787.8405068,-3.741249977515155,-0.8987500224848453,8.896250067454536,0.33,-0.3088888888888889,-0.6,0.0009544793874005289,-0.0014998849677842372,0.0081812210578589
1589996787.8505068,-3.74,-0.9,8.9,0.33,-0.3088888888888889,-0.6,0.002945892495662826,0.000764230930669914,0.007635815477475192
1589996787.8605068,-3.7633137868126143,-0.8844574754582574,8.915542524541742,0.33,-0.3088888888888889,-0.6129521037847856,0.0007293527163134369,0.00278625720328041,0.004244962635907284
1589996787.8705068,-3.751088555102828,-0.8796371482990573,8.948185741495285,0.33,-0.3088888888888889,-0.6166666666666667,3.958098048694858e-05,0.0044029041104727724,-3.958098048694858e-05
1589996787.8805068,-3.779559838317068,-0.87,8.902200808414658,0.33,-0.3088888888888889,-0.6166666666666667,0.001090830782496456,0.005406139721180542,-0.0010428165911947182
1589996787.8905067,-3.7701931709060053,-0.87,8.949034145469975,0.33,-0.3088888888888889,-0.6166666666666667,0.001090830782496456,0.004384394807041127,-2.1071677055303425e-05
1589996787.9005067,-3.77,-0.8936647143542967,8.973664714354296,0.33,-0.3088888888888889,-0.6166666666666667,0.001951304078384875,0.005223796425874243,-0.001720946591776838
1589996787.9105067,-3.77,-0.8998965192850423,8.989689557855128,0.33,-0.3033333333333333,-0.6,0.002204237554847025,0.0011134067723505689,2.2575989854112918e-05
1589996787.9205067,-3.77,-0.8898303135953118,8.958812195167184,0.33,-0.3033333333333333,-0.6,0.004307793383904323,0.0032539824321288677,0.0021631516496324115
1589996787.9305067,-3.77,-0.8820520000741798,8.90436400051926,0.33,-0.3033333333333333,-0.6,0.0017623462364765728,0.002405500049652951,0.001314669267156495
1589996787.9405067,-3.7702805631374803,-0.8794388737250395,8.91,0.33,-0.3033333333333333,-0.6,0.0031806782754501967,-3.060469067972387e-05,0.001090830782496456
1589996787.9505067,-3.7763059905186034,-0.8673880189627927,8.91,0.33,-0.3033333333333333,-0.6,0.001208861775942273,-0.0006878768571823652,0.001090830782496456
1589996787.9605067,-3.77373494441013,-0.8662650555898703,8.90373494441013,0.33,-0.3109906234987303,-0.6013922345755267,0.0013668230982964008,0.0016428154140963457,0.001090830782496456
1589996787.9705067,-3.7767394891288455,-0.8834789782576913,8.926957956515382,0.33,-0.31555555555555553,-0.6022222222222222,0.0007113331249839043,0.0018021639074803602,0.00182599500250096
1589996787.9805067,-3.7706074549670054,-0.8806074549670055,8.874252184769038,0.33,-0.31555555555555553,-0.6022222222222222,0.0,-0.0019828723918959125,0.002181661564992912
1589996787.9905066,-3.77,-0.88,8.921553863611406,0.33,-0.31555555555555553,-0.6022222222222222,0.0008033791626277936,-0.0005749032397373247,0.002181661564992912
1589996788.0005066,-3.7631509063331428,-0.8868490936668573,8.974245468334287,0.33,-0.31555555555555553,-0.6022222222222222,0.0018379510028974028,0.0007471202204009468,0.002181661564992912
1589996788.0105066,-3.7779560163175168,-0.8720439836824831,9.007956016317516,0.3240146612274944,-0.29859709570012305,-0.5942417705255482,0.003161010331500711,-0.0008678667505191415,0.00022296403197731443
1589996788.0205066,-3.78,-0.87,8.934292156862744,0.3233333333333333,-0.2966666666666667,-0.5933333333333334,0.00017557563109446648,-5.852521036482216e-05,-0.0020646111442632676
1589996788.0305066,-3.761769655836562,-0.8608848279182812,8.866193795427968,0.3233333333333333,-0.2966666666666667,-0.5933333333333334,0.0,0.0009943110294491117,-0.0001930395060946886
1589996788.0405066,-3.7689945915306677,-0.8869837745920031,8.895978366122671,0.3233333333333333,-0.2966666666666667,-0.5933333333333334,-0.001962315463526843,-0.0018526424127938087,0.0009811577317634214
1589996788.0505066,-3.7775692938057364,-0.8975692938057364,8.937846469028681,0.3233333333333333,-0.2966666666666667,-0.5933333333333334,-0.001355979696487219,-0.0005302978279815261,0.00026514891399076305
1589996788.0605066,-3.78,-0.8822110283159463,8.958894485842027,0.3421105812220566,-0.3075377049180328,-0.57455608544461,-0.00012059288740027879,0.0009702378950961772,0.0009702378950961772
1589996788.0705066,-3.78,-0.8892524744089249,8.969252474408925,0.34444444444444444,-0.3088888888888889,-0.5722222222222222,0.0,-0.0009277459974067215,8.154239254486726e-05
1589996788.0805066,-3.78,-0.8760041064803141,8.893022585641727,0.34444444444444444,-0.3088888888888889,-0.5722222222222222,0.0,0.0004358843654851479,0.0022900727219724057
1589996788.0905066,-3.761206082462728,-0.8793969587686359,8.90698479384318,0.34444444444444444,-0.3088888888888889,-0.5722222222222222,0.003075147566003412,0.003140929159832064,0.00019734478148595615
1589996788.1005065,-3.783064954380345,-0.8627012842147412,8.933064954380345,0.34444444444444444,-0.3088888888888889,-0.5722222222222222,0.006417487626858958,0.007046486682732878,-0.0012579981117478362
1589996788.1105065,-3.8049661890194817,-0.8648985670584447,8.95,0.3372710603051933,-0.31495867546825523,-0.5827063990411278,0.008184919074557009,0.0065671139299802745,-0.0016399343795782736
1589996788.1205065,-3.798333696621421,-0.8974994550678689,8.990832061825026,0.33,-0.3211111111111111,-0.5933333333333334,0.005090622908815869,0.0013635979209948765,0.0014543617861628663
1589996788.1305065,-3.830725523794688,-0.8937097904821248,8.905968533374875,0.33,-0.3211111111111111,-0.5933333333333334,0.0050494785470308725,-0.005330958598624514,0.005937971646801625
1589996788.1405065,-3.8336271232923673,-0.8708813698771019,8.918237260245796,0.33,-0.3211111111111111,-0.5933333333333334,0.003368634886760151,-0.00515463867783065,0.008630503720700865
1589996788.1505065,-3.799526965600164,-0.8660946068799672,8.964378427519868,0.33,-0.3211111111111111,-0.5933333333333334,0.00018720612742805518,-0.0036985046507975383,0.017130480313539243
1589996788.1605065,-3.7858337069492562,-0.8641662930507438,8.962498879152232,0.33453732762719923,-0.3211111111111111,-0.5972224712995041,0.0008182453523971785,-0.0013634162125957337,0.020543898226666697
1589996788.1705065,-3.79,-0.86,8.92499631711572,0.3377777777777778,-0.3211111111111111,-0.6,-0.002364136262665803,0.000909159565531743,0.018725794519404464
1589996788.1805065,-3.739781042762406,-0.8815224102446833,8.862606906014177,0.3377777777777778,-0.3211111111111111,-0.6,-0.002489915427208781,-0.0012568999783453049,0.02089185406328151
1589996788.1905065,-3.7358283712784592,-0.8662574430823117,8.84791418563923,0.3377777777777778,-0.3211111111111111,-0.6,-0.0013183578336266274,-0.0030449652963591965,0.01836340072446398
1589996788.2005064,-3.74,-0.8531392574774739,8.925468167747788,0.3377777777777778,-0.3211111111111111,-0.6,-0.001090830782496456,-0.003272492347489368,0.01371133795276638
1589996788.2105064,-3.7565812782769386,-0.85,8.96829063913847,0.325802410133322,-0.3330864787555669,-0.6018423642529932,-0.0038039360961401453,-0.005081229223251828,0.009286033293817325
1589996788.2205064,-3.7687138194725684,-0.8325723610548633,9.004855277890274,0.3233333333333333,-0.33555555555555555,-0.6022222222222222,-0.00151173237584746,-0.002602563158343916,0.009677176511351103
1589996788.2305064,-3.77,-0.8466959064327485,8.943216374269005,0.3233333333333333,-0.33555555555555555,-0.6022222222222222,-0.001090830782496456,-0.004913522866771316,0.007996236174615834
1589996788.2405064,-3.7783550367071848,-0.86671007341437,8.955065110121556,0.3233333333333333,-0.33555555555555555,-0.6022222222222222,-0.0020022239054049767,-0.003631367666665239,0.006724422354566671
1589996788.2505064,-3.7851784713413372,-0.8803569426826751,8.954821528658663,0.3233333333333333,-0.33555555555555555,-0.6022222222222222,-0.002181661564992912,-0.002142725158408036,0.007674751884060067
1589996788.2605064,-3.7786491127647395,-0.89,8.96135088723526,0.3313209947211092,-0.33009031355339313,-0.5967569802200597,-0.002181661564992912,-0.0006781008756675164,0.0070757266326558895
1589996788.2705064,-3.7836523662096417,-0.8821158779301195,8.932695267580717,0.34444444444444444,-0.3211111111111111,-0.5877777777777777,0.0012584356537212547,-0.0008600243046785417,0.005223347434664365
1589996788.2805064,-3.7975786376021796,-0.8648427247956403,8.8821068119891,0.34444444444444444,-0.3211111111111111,-0.5877777777777777,0.0005282593278243327,-0.001090830782496456,0.006280855031066569
1589996788.2905064,-3.785799157206346,-0.8671004213968269,8.891301264190481,0.34444444444444444,-0.3211111111111111,-0.5877777777777777,0.0,-0.0003162949596609338,0.007319520517814258
1589996788.3005064,-3.78,-0.8568490265922889,8.919726460111567,0.34444444444444444,-0.3211111111111111,-0.5877777777777777,0.0,0.0,0.00907036413876755
1589996788.3105063,-3.7746159439316513,-0.8553840560683484,8.946152168205046,0.34444444444444444,-0.3145305981386852,-0.587179549325739,0.0011746188188082659,0.0005873094094041329,0.010404786451872237
1589996788.3205063,-3.762674137467859,-0.86,8.967325862532142,0.34444444444444444,-0.3088888888888889,-0.5866666666666667,0.00138253392915322,0.0018899584183361476,0.01010918018912487
1589996788.3305063,-3.753648992191756,-0.86,8.893787906301071,0.34444444444444444,-0.3088888888888889,-0.5866666666666667,0.0003980433007856598,0.0014888740832821159,0.007739114597335716
1589996788.3405063,-3.764165856188809,-0.8529170719055955,8.913746352849639,0.34444444444444444,-0.3088888888888889,-0.5866666666666667,0.000772627599558535,0.001863458382054991,0.005772357095420201
1589996788.3505063,-3.77,-0.85,8.963722772277228,0.34444444444444444,-0.3088888888888889,-0.5866666666666667,-0.0021438604982727373,-0.0004060914596224429,0.006101092168636118
1589996788.3605063,-3.7547082081290526,-0.85,8.995291791870947,0.33340037253764915,-0.31823387281002335,-0.5807198587168538,-0.004363323129985824,-0.002181661564992912,0.006544984694978735
1589996788.3705063,-3.757689135776092,-0.85,9.007689135776092,0.33,-0.3211111111111111,-0.5788888888888889,-0.002685813930914573,-0.0013429069654572864,0.0023512116973006076
1589996788.3805063,-3.76,-0.8741831978039053,8.91326720878438,0.33,-0.3211111111111111,-0.5788888888888889,-0.003060987451116266,0.0006678209897502518,0.002849482554743164
1589996788.3905063,-3.767594278283485,-0.8648114434330298,8.905188556566971,0.33,-0.3211111111111111,-0.5788888888888889,-0.001615677842995401,0.0019192380347434394,0.0024440850952423846
1589996788.4005063,-3.775747096630795,-0.8714941932615903,8.927241289892386,0.33,-0.3211111111111111,-0.5788888888888889,-0.0017177417739817592,0.0003009285905370021,0.0009278395820223055
1589996788.4105062,-3.7663825818716594,-0.8663825818716596,8.94680870906417,0.33529566260546567,-0.3173284949643499,-0.588723690870468,-0.0014389466213669668,-0.001090830782496456,0.0007427149436259452
1589996788.4205062,-3.7671856313466265,-0.8743712626932527,8.935628737306747,0.3377777777777778,-0.31555555555555553,-0.5933333333333334,-0.0018746615689536061,-0.001090830782496456,0.001090830782496456
1589996788.4305062,-3.776798734028836,-0.88,8.875610127769312,0.3377777777777778,-0.31555555555555553,-0.5933333333333334,-0.0029232884010589586,-0.003315711290694596,0.001090830782496456
1589996788.4405062,-3.7726125561474984,-0.8652251122949963,8.88693721926251,0.3377777777777778,-0.31555555555555553,-0.5933333333333334,-0.0008549570000074072,-0.001139942666676543,0.00028498566666913577
1589996788.4505062,-3.77,-0.866259603323926,8.968855636563186,0.3377777777777778,-0.31555555555555553,-0.5933333333333334,0.0,-0.001365633598391122,-0.000682816799195561
1589996788.4605062,-3.77,-0.87,9.00520203186331,0.3409764232022371,-0.31555555555555553,-0.5975981938992792,-0.000523377133693751,-0.001658284431299161,-4.407651510895407e-05
1589996788.4705062,-3.776058680224552,-0.857882639550895,8.993941319775448,0.34444444444444444,-0.31555555555555553,-0.6022222222222222,-0.001090830782496456,0.0008918676845768609,-0.00023096819555242193
1589996788.4805062,-3.774535092235854,-0.85,8.929886014594393,0.34444444444444444,-0.31555555555555553,-0.6022222222222222,-0.0004947018212330128,-0.0007989832413243048,0.00010142714003043046
1589996788.4905062,-3.77,-0.8563406147303305,8.892681229460662,0.34444444444444444,-0.31555555555555553,-0.6022222222222222,-0.0013833075455590084,-0.003272492347489368,0.0017824845552759602
1589996788.5005062,-3.7760776975186197,-0.8539223024813802,8.918233092555859,0.34444444444444444,-0.31555555555555553,-0.6022222222222222,-0.0015186876109916413,-0.0026095183934880975,0.0008557136569903707
1589996788.5105062,-3.78,-0.8561807417007865,8.942361483401573,0.33551670643219733,-0.3080013156990387,-0.609776462078739,0.00025759787867902107,-0.00015901857322969627,0.0
1589996788.5205061,-3.78,-0.86,8.923878121337781,0.33,-0.3033333333333333,-0.6144444444444445,-0.0017586241516421724,0.00037846704896179887,0.0
1589996788.5305061,-3.764954378010768,-0.8750456219892321,8.864863134032303,0.33,-0.3033333333333333,-0.6144444444444445,-0.003272492347489368,-0.0016412227607659911,0.0
1589996788.5405061,-3.7455118694362017,-0.8655118694362017,8.907952522255192,0.33,-0.3033333333333333,-0.6144444444444445,-0.002482287407498426,-0.0045522763849657364,0.0007902049399909416
1589996788.550506,-3.7576881996198295,-0.8644220499049573,8.943266149714873,0.33,-0.3033333333333333,-0.6144444444444445,-0.002181661564992912,-0.0040070414650633926,0.0006084599666901603
1589996788.560506,-3.775015048154093,-0.87,8.964984951845908,0.33129239492301293,-0.305364239640925,-0.6133366773675762,-0.0020004036009003195,-0.001637887672715134,0.00018125796409259261
1589996788.570506,-3.7614239656098873,-0.87,8.984288017195057,0.3377777777777778,-0.31555555555555553,-0.6077777777777778,-0.001090830782496456,-0.002024572553864997,0.001090830782496456
1589996788.580506,-3.7772886479464374,-0.8627113520535625,8.914402168482063,0.3377777777777778,-0.31555555555555553,-0.6077777777777778,-0.0002957626282210962,-0.0019781186671597446,-0.0004993055260542635
1589996788.590506,-3.78,-0.8665668300101386,8.903133660020277,0.3377777777777778,-0.31555555555555553,-0.6077777777777778,-0.0014326600636961311,-0.0003745007506483904,-0.0018071608143445214
1589996788.600506,-3.774848187068827,-0.8751518129311728,8.935759064655864,0.3377777777777778,-0.31555555555555553,-0.6077777777777778,-0.002181661564992912,-0.0016859268392959725,-0.001057710338795597
1589996788.610506,-3.77,-0.8759412476871417,8.96,0.3319151355480935,-0.31555555555555553,-0.6055229153817453,-0.001296179172713997,-0.0015015275629315383,0.0008854823922789149
1589996788.620506,-3.7757592077203888,-0.87,8.96,0.3233333333333333,-0.31555555555555553,-0.6022222222222222,-0.0012564642128382933,-0.0007938655367609839,-0.0003312668606836747
1589996788.630506,-3.775286683828692,-0.8652866838286918,8.917580154458227,0.3233333333333333,-0.31555555555555553,-0.6022222222222222,-0.002695804601723046,-0.001667518528262778,-0.0006392324548025101
1589996788.640506,-3.77,-0.86,8.88573828125,0.3233333333333333,-0.31555555555555553,-0.6022222222222222,-0.002929136314467632,-0.0021208988815616643,0.001090830782496456
1589996788.650506,-3.77,-0.8642445379905371,8.93697815196215,0.3233333333333333,-0.31555555555555553,-0.6022222222222222,-0.002181661564992912,-0.0034373085904751076,0.00016481624298573985
1589996788.660506,-3.7765549017430886,-0.8732774508715444,8.973109803486178,0.3215125272935864,-0.3133705883078593,-0.5974881265188804,-0.001109118275352786,-0.002181661564992912,-0.00037580192273637195
1589996788.670506,-3.7762956274494734,-0.88,8.990863751632983,0.31777777777777777,-0.3088888888888889,-0.5877777777777777,0.0005925257347326673,-0.0016833565172291232,0.001090830782496456
1589996788.680506,-3.76975138220082,-0.8751243088995898,8.926367397895488,0.31777777777777777,-0.3088888888888889,-0.5877777777777777,0.0005318553938271467,-0.0016226861763236028,0.001090830782496456
1589996788.690506,-3.7643768176152888,-0.87,8.88562318238471,0.31777777777777777,-0.3088888888888889,-0.5877777777777777,-0.00231761887066343,-0.0010455116806062834,-4.531910189017256e-05
1589996788.700506,-3.761768689762959,-0.87,8.927460276113571,0.31777777777777777,-0.3088888888888889,-0.5877777777777777,-0.005026232277046056,-0.0008558432708724474,0.0001929341238122151
1589996788.710506,-3.7763272120200333,-0.8626544240400668,8.962654424040068,0.32226674086440366,-0.30439992580226305,-0.582064552031163,-0.003161406074146657,-0.000979744509153745,0.0013803835277668005
1589996788.720506,-3.7865743022978453,-0.8555247674326151,8.95,0.33,-0.2966666666666667,-0.5722222222222222,-0.001090830782496456,0.002296148058822547,0.0018079759144891368
1589996788.730506,-3.785579887218045,-0.8527899436090225,8.86347932330827,0.33,-0.2966666666666667,-0.5722222222222222,-0.001090830782496456,0.004058987492970718,0.002485997202008018
1589996788.740506,-3.773154779520568,-0.85,8.884761763835455,0.33,-0.2966666666666667,-0.5722222222222222,-0.000344133061302522,0.00361662540879189,0.002181661564992912
1589996788.750506,-3.764743884865158,-0.85,8.920512230269683,0.33,-0.2966666666666667,-0.5722222222222222,-0.0005733532185430907,0.0021257859104031867,0.0016083083464498212
1589996788.760506,-3.765418244743372,-0.855418244743372,8.962509468460233,0.32638783683775197,-0.3032889657974548,-0.5914870924208785,-0.0004997919671794688,0.001090830782496456,0.0004997919671794688
1589996788.770506,-3.780506503039771,-0.8652532515198855,8.974240245440344,0.3233333333333333,-0.3088888888888889,-0.6077777777777778,-0.0005730408466087464,0.001090830782496456,0.0
1589996788.780506,-3.778592865425278,-0.875703567287361,8.920075028988473,0.3233333333333333,-0.3088888888888889,-0.6077777777777778,-0.00046866810578713425,0.00046866810578713425,-0.0006221626767093217
1589996788.790506,-3.7756847019623794,-0.8856847019623797,8.90705410588714,0.3233333333333333,-0.3088888888888889,-0.6077777777777778,-0.0012402095779763468,-0.0012402095779763468,0.00014937879547989087
1589996788.8005059,-3.78,-0.8865673543477502,8.93029793695675,0.3233333333333333,-0.3088888888888889,-0.6077777777777778,-0.0014327744564175708,-0.0014327744564175708,0.0003419436739211148
1589996788.8105059,-3.778282599180295,-0.88,8.960304404918228,0.3212342878870275,-0.31003382276869207,-0.6077777777777778,0.00018733936800185841,0.00018733936800185841,-0.0012781701504983145
1589996788.8205059,-3.77,-0.8683726817456386,8.99837268174564,0.3111111111111111,-0.31555555555555553,-0.6077777777777778,-0.00017751288447757528,0.001513612004821133,-0.001758880342668235
1589996788.8305058,-3.77,-0.8530290588610059,8.946680352528935,0.3111111111111111,-0.31555555555555553,-0.6077777777777778,-0.0011904043707192415,0.0018512425002350217,-0.0007604117177385659
1589996788.8405058,-3.77,-0.8517054711529499,8.8865890576941,0.3111111111111111,-0.31555555555555553,-0.6077777777777778,0.001090830782496456,0.001090830782496456,0.0009047927392667034
1589996788.8505058,-3.772964607989205,-0.8488938239676158,8.927787647935233,0.3111111111111111,-0.31555555555555553,-0.6077777777777778,0.0017376079130284679,0.0014142193477624618,0.002181661564992912
1589996788.8605058,-3.7726906624033183,-0.8663453312016592,8.959035993604978,0.31354755697667164,-0.31108873813536125,-0.60249881173573,0.003272492347489368,0.0017829990424869696,0.0025803240874988542
1589996788.8705058,-3.7694904891304346,-0.8694904891304348,8.95898097826087,0.31777777777777777,-0.3033333333333333,-0.5933333333333334,0.002754866463268054,0.001090830782496456,0.003790118231710682
1589996788.8805058,-3.78,-0.8736612071305764,8.884918106958647,0.31777777777777777,-0.3033333333333333,-0.5933333333333334,0.003564571642160168,0.001782285821080084,0.0036718680914021957
1589996788.8905058,-3.78,-0.8577332253916853,8.879067098433259,0.31777777777777777,-0.3033333333333333,-0.5933333333333334,0.0030252255955162677,0.004188807866697246,0.00260344358025459
1589996788.9005058,-3.78,-0.8544224218024156,8.923267265407247,0.31777777777777777,-0.3033333333333333,-0.5933333333333334,0.0007344274144153902,0.004971742528956439,0.001216838797941231
1589996788.9105058,-3.78,-0.86766291230893,8.974483105390185,0.322460668633235,-0.30546192008581385,-0.5967390721373023,-0.0019267248455116406,0.002691535003955455,0.0008358940630151845
1589996788.9205058,-3.78,-0.8741234153452008,8.982987322761605,0.33,-0.3088888888888889,-0.6022222222222222,-0.005195600178709764,-0.001282071887480264,0.0008995896775126479
1589996788.9305058,-3.78,-0.8760482341017178,8.907662361287976,0.33,-0.3088888888888889,-0.6022222222222222,-0.005225464707399015,-0.002181661564992912,0.00197927998136958
1589996788.9405057,-3.773810593083013,-0.8861894069169869,8.904757627667948,0.33,-0.3088888888888889,-0.6022222222222222,-0.004363323129985824,-0.0015065020059483324,0.0025973327884447886
1589996788.9505057,-3.760023230319482,-0.8800232303194822,8.923325589893507,0.33,-0.3088888888888889,-0.6022222222222222,-0.005451619877724445,0.000360231547821705,0.0032699583127315324
1589996788.9605057,-3.7436016130716228,-0.8636016130716224,8.92879946230946,0.33,-0.3088888888888889,-0.6022222222222222,-0.007242940436958452,0.002748658960133714,0.0050612788719655395
1589996788.9705057,-3.752105360492457,-0.8557892790150855,8.975789279015085,0.3233333333333333,-0.31555555555555553,-0.6077777777777778,-0.007004303101663592,0.01085104432426919,0.005396688678266593
1589996788.9805057,-3.7660571514664523,-0.8430285757332262,8.938799969867418,0.3233333333333333,-0.31555555555555553,-0.6077777777777778,-0.010378478078434101,0.025550377341965504,0.001090830782496456
1589996788.9905057,-3.7921487320082248,-0.865185915010281,8.908223098012337,0.3233333333333333,-0.31555555555555553,-0.6077777777777778,-0.014180800172453925,0.031634092692397225,0.0004282202403528754
1589996789.0005057,-3.82,-0.8924200631996144,8.957579936800386,0.3233333333333333,-0.31555555555555553,-0.6077777777777778,-0.014180800172453925,0.029153564175025723,-0.0008152165027885115
1589996789.0105057,-3.811482148275513,-0.8728392839081622,8.982839283908163,0.3252261892721081,-0.3120853196678017,-0.6062003978287988,-0.012012775371364783,0.017790283876477853,-0.00030971782872702043
1589996789.0205057,-3.787749036873968,-0.8732471106219042,8.962988442487617,0.33,-0.3033333333333333,-0.6022222222222222,-0.005808358734536715,0.005671479582963137,-0.0008452887956824491
1589996789.0305057,-3.775779256070784,-0.8626622317876476,8.836234048566272,0.33,-0.3033333333333333,-0.6022222222222222,-0.0028120806071869984,-0.002932477743705934,-0.0013812352209071083
1589996789.0405056,-3.765402047658963,-0.88,8.83597952341037,0.33,-0.3033333333333333,-0.6022222222222222,-0.004187896745014833,-0.0004385659624274755,-0.001767815962472927
1589996789.0505056,-3.7681281567266973,-0.8759359216366512,8.898128156726697,0.33,-0.3033333333333333,-0.6022222222222222,-0.0074316290512224745,0.009444053515579108,-0.00044332217812186975
1589996789.0605056,-3.777381404174573,-0.8830929791271347,8.946660341555978,0.3337824161922834,-0.3047881087919038,-0.5984398060299388,-0.011297446699934831,0.0166998534215966,-0.001090830782496456
1589996789.0705056,-3.813917267687906,-0.9024330929248376,9.041216546462419,0.34444444444444444,-0.3088888888888889,-0.5877777777777777,-0.019502249451981847,0.023121100241287905,-0.0006117677077254071
1589996789.0805056,-3.825370052653375,-0.8921718038218068,8.977255516772171,0.34444444444444444,-0.3088888888888889,-0.5877777777777777,-0.014972254276254229,0.020868987464981004,-0.00044257927624449475
1589996789.0905056,-3.7753160919540227,-0.879367816091954,8.87447318007663,0.34444444444444444,-0.3088888888888889,-0.5877777777777777,-0.0037604405998129735,0.003622519466393883,-0.001090830782496456
1589996789.1005056,-3.7784211881078895,-0.8577192079280737,8.877017227748258,0.34444444444444444,-0.3088888888888889,-0.5877777777777777,-0.00024879582005310887,-0.00040194413782219593,-0.001090830782496456
1589996789.1105056,-3.76,-0.8626338698903182,8.91631693494516,0.34055676466433465,-0.3088888888888889,-0.5888008514041224,-0.0005162095118065092,0.009242855771778156,-0.0008899507457085853
1589996789.1205056,-3.761305613305613,-0.8352224532224531,8.909139293139294,0.3233333333333333,-0.3088888888888889,-0.5933333333333334,-0.008063076432615175,0.018498766513146758,-0.0005696812735199787
1589996789.1305056,-3.839765890007229,-0.8823116276483346,8.97,0.3233333333333333,-0.3088888888888889,-0.5933333333333334,-0.01090830782496456,0.033172586888941605,-0.008392293856417151
1589996789.1405056,-3.9083646071700993,-0.9031635392829901,9.004798932112891,0.3233333333333333,-0.3088888888888889,-0.5933333333333334,-0.008147598999746678,0.021737653147061907,-0.013490622966149455
1589996789.1505055,-3.8443783371472158,-0.9095621662852784,9.075183829138062,0.3233333333333333,-0.3088888888888889,-0.5933333333333334,-0.0025637435598993737,-0.0026917144022700484,-0.01209465910618763
1589996789.1605055,-3.177404700709132,-0.8846121450469142,8.935749852909298,0.32664942866875174,-0.3088888888888889,-0.590569920553818,0.025043979024408382,-0.054502051273438955,-0.0021929438082454377
1589996789.1705055,-2.5894883237559605,-0.7294559237070547,8.575174837999755,0.33,-0.3088888888888889,-0.5877777777777777,0.03095797499440654,-0.038172008793235804,-0.022862234103868746
1589996789.1805055,-2.360798015652397,-0.4762926057392122,8.451521190608563,0.33,-0.3088888888888889,-0.5877777777777777,0.011457805142974467,0.04128381420760803,-0.08567600398158998
1589996789.1905055,-1.9346661337924251,-0.4057701057550418,8.568459788489916,0.33,-0.3088888888888889,-0.5877777777777777,-0.055707689814398914,0.18316439875402077,-0.20619723304600596
1589996789.2005055,-1.7102575357603291,-0.6845355761556879,8.846752102645958,0.33,-0.3088888888888889,-0.5877777777777777,-0.13990181025739146,0.32339184977118623,-0.3600471191261283
1589996789.2105055,-1.9098144453312051,-1.1995211492418196,9.329551077414205,0.33,-0.3088888888888889,-0.5877777777777777,-0.18975819802256527,0.4427662993497715,-0.49838104010837125
1589996789.2205055,-1.7482908964073944,-1.2864191434288548,8.847355019918124,0.3111111111111111,-0.3088888888888889,-0.5933333333333334,-0.06604245164103656,0.13192508244468387,-0.7743633365835568
1589996789.2305055,-2.0038161754434975,-1.1637187456348652,8.882075359687107,0.3111111111111111,-0.3088888888888889,-0.5933333333333334,0.07491942073982705,0.008301147592543048,-0.8528929180880505
1589996789.2405055,-2.0257282022770675,-1.0457207087432618,8.804331745993377,0.3111111111111111,-0.3088888888888889,-0.5933333333333334,0.05734559837383143,0.12870250139762685,-0.903835190097488
1589996789.2505054,-2.1352137117455974,-1.08,9.0656505385536,0.3111111111111111,-0.3088888888888889,-0.5933333333333334,0.03272697496037966,0.052643728551616455,-0.9322801414741828
1589996789.2605054,-2.2098765796746767,-1.0743209772358067,9.070123420325324,0.3240466629628848,-0.3054183749774374,-0.5939643358626882,0.01240316876036525,0.06884355294590663,-0.9420199136480143
1589996789.2705054,-2.283801451344278,-1.0695205805377113,8.984297822983583,0.3566666666666667,-0.2966666666666667,-0.5955555555555555,0.03817907738737596,0.08290313946973066,-0.9381144729469519
1589996789.2805054,-2.3705707870990027,-1.1070471913993352,8.834764043003323,0.3566666666666667,-0.2966666666666667,-0.5955555555555555,0.03779471272194901,0.07829076348460726,-0.9392675669432329
1589996789.2905054,-2.39,-1.12,8.763551469992711,0.3566666666666667,-0.2966666666666667,-0.5955555555555555,0.03497797009473855,0.06805460632132239,-0.9431455290528922
1589996789.3005054,-2.4003073753773356,-1.1234357917924451,8.770614750754671,0.3566666666666667,-0.2966666666666667,-0.5955555555555555,0.03166762214473511,0.06698252338190437,-0.9457167589720893
1589996789.3105054,-2.449817915190028,-1.159817915190028,8.842799706709032,0.3566666666666667,-0.2907030836286611,-0.5905859030238841,0.033490491259798624,0.07069377965440003,-0.945194941847392
1589996789.3205054,-2.535223994382586,-1.237611997191293,8.931417995786939,0.3566666666666667,-0.2766666666666667,-0.5788888888888889,0.03189458338963978,0.06763150851478028,-0.9502682908997975
1589996789.3305054,-2.5660139632175167,-1.2590209448262748,8.910909239086143,0.3566666666666667,-0.2766666666666667,-0.5788888888888889,0.03119928353014761,0.06828753013502713,-0.9532793055497762
1589996789.3405054,-2.5998708068439664,-1.2965590057033054,8.84980621026595,0.3566666666666667,-0.2766666666666667,-0.5788888888888889,0.03344744640084168,0.06981317007977318,-0.9577353342447394
1589996789.3505054,-2.6380598144993375,-1.3280598144993376,8.919700927503312,0.3566666666666667,-0.2766666666666667,-0.5788888888888889,0.034694943633098996,0.07023645289334837,-0.9635942400093875
1589996789.3605053,-2.63,-1.3260568044961862,8.957577278201526,0.36083913198626166,-0.2749169231455462,-0.5788888888888889,0.03381575425739013,0.07239124857204625,-0.97106995539695
1589996789.3705053,-2.63,-1.377643262399818,8.932356737600182,0.3911111111111111,-0.26222222222222225,-0.5788888888888889,0.03325992053042886,0.07415565653833292,-0.9848256264165234
1589996789.3805053,-2.63,-1.3980989384357778,8.911901061564222,0.3911111111111111,-0.26222222222222225,-0.5788888888888889,0.031772341790642186,0.07118049905875956,-0.9959824669649235
1589996789.3905053,-2.6108536517633993,-1.4245731741183003,8.74228658705915,0.3911111111111111,-0.26222222222222225,-0.5788888888888889,0.03203982964048824,0.076108726819654,-1.0146921267455855
1589996789.4005053,-2.5801519897583964,-1.440151989758396,8.750075994879198,0.3911111111111111,-0.26222222222222225,-0.5788888888888889,0.03707166709417122,0.07529219325831789,-1.0266292716808938
1589996789.4105053,-2.601680239119163,-1.4667209564766523,8.768401195595816,0.39521836229128754,-0.26222222222222225,-0.5837429130109155,0.03454001372925903,0.07762338806317592,-1.0506799786475596
1589996789.4205053,-2.6395687677999846,-1.5184804798749905,8.835872671824987,0.4155555555555556,-0.26222222222222225,-0.6077777777777778,0.03433764958072936,0.07550475158601606,-1.0771965111725854
1589996789.4305053,-2.716597172351885,-1.5727975763016158,8.868601211849192,0.4155555555555556,-0.26222222222222225,-0.6077777777777778,0.03874613313795378,0.08004511875550986,-1.1029597632598946
1589996789.4405053,-2.7568456080038786,-1.6131543919961215,8.85315439199612,0.4155555555555556,-0.26222222222222225,-0.6077777777777778,0.04145156973486533,0.08106556869368071,-1.1319237420322539
1589996789.4505053,-2.7522496794739237,-1.633498076843542,8.87799743579139,0.4155555555555556,-0.26222222222222225,-0.6077777777777778,0.04145156973486533,0.08230311261141547,-1.1669151806564517
1589996789.4605052,-2.761479860765788,-1.6859194430631526,8.937040278468423,0.42163942759268475,-0.26123564837836344,-0.6069556329078954,0.04161299750257838,0.08512396462621846,-1.1966365949968787
1589996789.4705052,-2.7630189976790165,-1.7269810023209833,8.909528496518526,0.4566666666666666,-0.25555555555555554,-0.6022222222222222,0.04330390973980257,0.0912490311184819,-1.2339146239550833
1589996789.4805052,-2.758471828426027,-1.748471828426027,8.853288743487218,0.4566666666666666,-0.25555555555555554,-0.6022222222222222,0.043491884584869536,0.0914630880703197,-1.2674186145389124
1589996789.4905052,-2.765131191819804,-1.7908163314522743,8.765947523272079,0.4566666666666666,-0.25555555555555554,-0.6022222222222222,0.04036073895236887,0.09316267314821551,-1.3048721380937285
1589996789.5005052,-2.7347014774708636,-1.8423507387354319,8.772947783793704,0.4566666666666666,-0.25555555555555554,-0.6022222222222222,0.0411300164046336,0.09239906318196703,-1.3368375192381738
1589996789.5105052,-2.750081547564303,-1.8503261902572121,8.750570832950121,0.45686600515718506,-0.2552927911816903,-0.6023400131484377,0.043659917677872036,0.0948844871585158,-1.3637964464413703
1589996789.5205052,-2.7633727821056144,-1.9085503015808816,8.828431955264037,0.4811111111111111,-0.22333333333333333,-0.6166666666666667,0.04708968037452051,0.09327248669371745,-1.4014270995368456
1589996789.5305052,-2.778124043821548,-1.9896822410185169,8.86531010955387,0.4811111111111111,-0.22333333333333333,-0.6166666666666667,0.0478942368925406,0.09568615624777772,-1.4287820211495288
1589996789.5405052,-2.7704632747792846,-2.06,8.787629380176572,0.4811111111111111,-0.22333333333333333,-0.6166666666666667,0.05407488554842433,0.10534393232575777,-1.4740333517248112
1589996789.5505052,-2.732288158733048,-2.06,8.818169473013562,0.4811111111111111,-0.22333333333333333,-0.6166666666666667,0.05657344105094088,0.10784248782827434,-1.5015174622524934
1589996789.5605052,-2.6880896445131377,-2.123820710973725,8.869363214837712,0.4811111111111111,-0.22163523956723338,-0.6166666666666667,0.05447207663913678,0.1134464013796314,-1.5463735191456118
1589996789.5705051,-2.6603066902185915,-2.1793866195628175,8.860102230072863,0.4811111111111111,-0.19693928019430337,-0.6166666666666667,0.05346185991336399,0.1134464013796314,-1.5877924049022958
1589996789.5805051,-2.63,-2.2274943146208255,8.815643477482316,0.4811111111111111,-0.19666666666666666,-0.6166666666666667,0.05563236990731925,0.11555911079739159,-1.6430570441700116
1589996789.5905051,-2.63,-2.257536753514191,8.71800555107888,0.4811111111111111,-0.19666666666666666,-0.6166666666666667,0.05563236990731925,0.11965551293816058,-1.6791053830087788
1589996789.600505,-2.61,-2.3193711354836095,8.74937113548361,0.4811111111111111,-0.19666666666666666,-0.6166666666666667,0.0545415391248228,0.12101361837985675,-1.7402126945852956
1589996789.610505,-2.6093744748075696,-2.3618765755772912,8.79,0.4843777426715815,-0.19437307429442147,-0.617570203055733,0.054950944405900926,0.12565024262763153,-1.777511051662255
1589996789.620505,-2.591135431779474,-2.3959097121470174,8.804774280367543,0.5333333333333333,-0.16,-0.6311111111111111,0.06237582300493349,0.12968500672343075,-1.8300186070877795
1589996789.630505,-2.578718160681994,-2.431795401704986,8.816025058124515,0.5333333333333333,-0.16,-0.6311111111111111,0.0656875979007541,0.13294152848593815,-1.8657683549243336
1589996789.640505,-2.6072768002986884,-2.52906239790918,8.746339198207869,0.5333333333333333,-0.16,-0.6311111111111111,0.06594656772006868,0.13665090281816455,-1.9039817743856786
1589996789.650505,-2.5941189439352805,-2.5819603520215733,8.805682816172585,0.5333333333333333,-0.16,-0.6311111111111111,0.064572857400257,0.13787236106048567,-1.9350040604427179
1589996789.660505,-2.5711921724395532,-2.5896026091868154,8.866820873494524,0.5333333333333333,-0.16,-0.6311111111111111,0.06540649833661706,0.13953964293320578,-1.9600132885335193
1589996789.670505,-2.5652764108027664,-2.6694471783944667,8.849371924306224,0.5522222222222222,-0.09222222222222222,-0.6311111111111111,0.07135075208223984,0.1474512750319813,-1.9901988198711527
1589996789.680505,-2.5369044357634483,-2.7261911284731033,8.785534980467759,0.5522222222222222,-0.09222222222222222,-0.6311111111111111,0.06748212411560119,0.14203519587868715,-2.006447057331035
1589996789.690505,-2.448182340169744,-2.77454414957564,8.683635319660512,0.5522222222222222,-0.09222222222222222,-0.6311111111111111,0.06346646131428951,0.13893206123604004,-2.0341013691211005
1589996789.700505,-2.433130394215069,-2.812174014462328,8.713739211569862,0.5522222222222222,-0.09222222222222222,-0.6311111111111111,0.06510837391267277,0.14221588643280655,-2.0496995388057417
1589996789.710505,-2.377490273857655,-2.882091438451954,8.731254863071173,0.5528264155527867,-0.08985192531000755,-0.6313899695713716,0.07090400086226964,0.15153422254928384,-2.065718349116441
1589996789.720505,-2.32,-2.93417509737158,8.764175097371579,0.5666666666666667,-0.03555555555555556,-0.6377777777777778,0.07079014274394865,0.14967153343865644,-2.0841699432781566
1589996789.730505,-2.3081848788699406,-2.9752511649466933,8.786872087633268,0.5666666666666667,-0.03555555555555556,-0.6377777777777778,0.07038598331655509,0.15191188538539835,-2.0924662355195323
1589996789.740505,-2.2173974237827623,-3.0226025762172375,8.706301288108618,0.5666666666666667,-0.03555555555555556,-0.6377777777777778,0.07417649320975901,0.1539789813079568,-2.1099506303733015
1589996789.750505,-2.1485512037369743,-3.0928975925260507,8.747243981315128,0.5666666666666667,-0.03555555555555556,-0.6377777777777778,0.07307021911686717,0.15521404942675154,-2.1188829403868947
1589996789.760505,-2.141015630614445,-3.10796873877111,8.784921846927775,0.5666666666666667,-0.03555555555555556,-0.6377777777777778,0.06731619452880137,0.1568580564519132,-2.127102975512703
1589996789.770505,-2.058753409273223,-3.141246590726777,8.765718182026541,0.5788888888888889,-0.0011111111111111113,-0.6733333333333333,0.06915098621726255,0.160352125026979,-2.148975068483082
1589996789.780505,-2.0022563999463876,-3.1874187999821295,8.691931599874906,0.5788888888888889,-0.0011111111111111113,-0.6733333333333333,0.06847620424536241,0.15978899453992423,-2.1591065441872397
1589996789.790505,-1.9721141515397815,-3.1839429242301094,8.645914386345165,0.5788888888888889,-0.0011111111111111113,-0.6733333333333333,0.07068894770610692,0.15838551661814884,-2.168110359287263
1589996789.800505,-1.9375842558425584,-3.2024157441574417,8.676039360393604,0.5788888888888889,-0.0011111111111111113,-0.6733333333333333,0.06941789486633719,0.15886601903104655,-2.175775372320327
1589996789.810505,-1.9217102847951555,-3.2182897152048446,8.715724288012112,0.5788888888888889,-0.0011111111111111113,-0.6733333333333333,0.06682052242749252,0.1562686465922019,-2.1801043263850675
1589996789.820505,-1.8152857509268543,-3.2636309371138106,8.737452374845525,0.5914933818328787,0.0648200827497584,-0.6791507916151748,0.06749255711774206,0.1617000782097426,-2.177715096054041
1589996789.830505,-1.71,-3.2112642625301184,8.727327704653618,0.5933333333333334,0.07444444444444444,-0.68,0.06717073085315625,0.16360893446909466,-2.168433685954454
1589996789.840505,-1.71,-3.2780804078137753,8.652159541209503,0.5933333333333334,0.07444444444444444,-0.68,0.0644375393015374,0.16998638142287198,-2.1611451751501374
1589996789.8505049,-1.6618483742324814,-3.3569871078007303,8.692329035933577,0.5933333333333334,0.07444444444444444,-0.68,0.0666677069367781,0.16786091129995992,-2.146067401872602
1589996789.8605049,-1.5999355697177675,-3.4100161075705584,8.710144968135024,0.5933100668425272,0.07451782337698717,-0.6800697994724187,0.06761920907112302,0.16688481027830052,-2.1325443097031185
1589996789.8705049,-1.560770362070173,-3.419807409482457,8.798266685342112,0.5791670751920069,0.11912264319785854,-0.7224987744239794,0.06014275160277224,0.15940835280994972,-2.114387198708552
1589996789.8805048,-1.5143414698683602,-3.46273169279619,8.73160977707217,0.5788888888888889,0.12,-0.7233333333333334,0.05844192484096289,0.16019781255569707,-2.0857110300673156
1589996789.8905048,-1.4865958854270027,-3.525159257789244,8.641436627637757,0.5788888888888889,0.12,-0.7233333333333334,0.05617199452193883,0.1594411691160224,-2.0645250137564246
1589996789.9005048,-1.4567639261773297,-3.55,8.65323607382267,0.5788888888888889,0.12,-0.7233333333333334,0.05338010816352234,0.1560594020757972,-2.025383418402772
1589996789.9105048,-1.4213528527767927,-3.55,8.688647147223207,0.5788888888888889,0.12,-0.7233333333333334,0.0526075583853914,0.15683195185392812,-1.998344176168189
1589996789.9205048,-1.343812754104989,-3.536187245895011,8.69,0.6055555555555555,0.12555555555555556,-0.76,0.04650076935047843,0.1562697240857513,-1.9437802329306209
1589996789.9305048,-1.2966679541943107,-3.5780007725165865,8.684002317549758,0.6055555555555555,0.12555555555555556,-0.76,0.04377861922519961,0.15038926005916958,-1.9014647058439726
1589996789.9405048,-1.2493615291770328,-3.5502128236076556,8.600851294430623,0.6055555555555555,0.12555555555555556,-0.76,0.04560595377662561,0.14842263278225987,-1.8565240498791002
1589996789.9505048,-1.217387706855792,-3.562612293144208,8.641306146572104,0.6055555555555555,0.12555555555555556,-0.76,0.03571245884492238,0.15148300027827705,-1.8007686419878028
1589996789.9605048,-1.1678096926713948,-3.6121903073286052,8.666095153664303,0.6055555555555555,0.12555555555555556,-0.76,0.030304336444183753,0.14877893907790773,-1.7557009553149807
1589996789.9705048,-1.0924570165745857,-3.586552044198895,8.716723977900553,0.6111111111111112,0.13777777777777778,-0.7511111111111111,0.01836544401492895,0.14254147393201413,-1.683781710541722
1589996789.9805048,-1.1194812387861768,-3.6597924955144707,8.678962477572354,0.6111111111111112,0.13777777777777778,-0.7511111111111111,0.016305873667366477,0.13841101562287314,-1.629033449822757
1589996789.9905047,-1.0656933821084138,-3.6443066178915866,8.584306617891587,0.6111111111111112,0.13777777777777778,-0.7511111111111111,0.01062644034308902,0.12578472415125413,-1.5597987790721954
1589996790.0005047,-1.0201504682622269,-3.6903009365244537,8.630902809573362,0.6111111111111112,0.13777777777777778,-0.7511111111111111,0.00766864255992035,0.11764558909739146,-1.4998998629944333
1589996790.0105047,-1.0288795005202913,-3.7077590010405825,8.683277003121749,0.6111111111111112,0.13777777777777778,-0.7511111111111111,0.009573021977620616,0.10812369200889013,-1.4370553422103245
1589996790.0205047,-1.0061831971722184,-3.7276336056555635,8.70872773239074,0.6222222222222222,0.14333333333333334,-0.8011111111111111,0.016917593206148655,0.09843290400412476,-1.3433317181948499
1589996790.0305047,-0.9776669615583635,-3.7815553589610906,8.689112487272363,0.6222222222222222,0.14333333333333334,-0.8011111111111111,0.02072578486743266,0.09212679481079235,-1.273691122525908
1589996790.0405047,-0.9566636064698125,-3.7955575956867915,8.591096830192459,0.6222222222222222,0.14333333333333334,-0.8011111111111111,0.02072578486743266,0.08678087001532352,-1.2209955781134298
1589996790.0505047,-0.9479255672998743,-3.81,8.69446817946633,0.6222222222222222,0.14333333333333334,-0.8011111111111111,0.0237719917103706,0.0776752710617998,-1.1235790077745975
1589996790.0605047,-0.9246738487693104,-3.81,8.63246359671816,0.6222222222222222,0.14333333333333334,-0.8011111111111111,0.021235622678462355,0.08021164009370804,-1.0627061510087996
1589996790.0705047,-0.8594400068710814,-3.8005599931289185,8.718880013742163,0.5522222222222222,0.09777777777777777,-0.6788888888888889,0.01181588128455772,0.06399250152148431,-0.9686839680114608
1589996790.0805047,-0.8522351627587391,-3.807764837241261,8.704470325517478,0.5522222222222222,0.09777777777777777,-0.6788888888888889,0.00945810156230836,0.059276942076985584,-0.9128831812515591
1589996790.0905046,-0.85,-3.8199116105382163,8.620707115694268,0.5522222222222222,0.09777777777777777,-0.6788888888888889,0.017376158163333863,0.05673284248439188,-0.8209700322630913
1589996790.1005046,-0.8272664473086222,-3.827577850897126,8.650311403588503,0.5522222222222222,0.09777777777777777,-0.6788888888888889,0.018279907822318628,0.05506997008506504,-0.7640949078758121
1589996790.1105046,-0.8364184498881303,-3.83,8.709255349664392,0.5522222222222222,0.09777777777777777,-0.6788888888888889,0.020335098356324556,0.04290020127457155,-0.6825486408146652
1589996790.1205046,-0.8,-3.7845891802067944,8.623767540620383,0.5133333333333333,0.19111111111111112,-0.5911111111111111,0.02073197819213018,0.0400270043499692,-0.5830413997048921
1589996790.1305046,-0.7992093776256738,-3.840395311187163,8.7824890874439,0.5133333333333333,0.19111111111111112,-0.5911111111111111,0.007980789566773413,0.035652441733084815,-0.5077921352551179
1589996790.1405046,-0.7820185667151669,-3.8489907166424167,8.619176383794086,0.5133333333333333,0.19111111111111112,-0.5911111111111111,0.015481695853676107,0.028151535446182128,-0.4487224982457592
1589996790.1505046,-0.5378893021047635,-3.775882457667352,9.456782323152398,0.5133333333333333,0.19111111111111112,-0.5911111111111111,0.03312876304789616,0.009798617529414182,-0.3686819449707482
1589996790.1605046,-0.42173128659598036,-3.3527354011710715,8.179044152555784,0.5133333333333333,0.19111111111111112,-0.5911111111111111,0.1625526892618063,-0.04269500289301092,-0.3161883245483231
1589996790.1705046,-0.6509017120251006,-3.354776618238865,7.163891276174885,0.52,0.23777777777777775,-0.5777777777777777,-0.03963500650216285,0.05610379094530422,-0.22813072940541088
1589996790.1805046,-0.7473095218364134,-3.58,9.234653020634788,0.52,0.23777777777777775,-0.5777777777777777,-0.2088187663247387,0.020516152267398745,-0.1861988754337999
1589996790.1905046,-0.6986477169138975,-3.58,8.23361017651446,0.52,0.23777777777777775,-0.5777777777777777,0.019432951062928527,0.016724595500161747,-0.12098409903732357
1589996790.2005045,-0.6902198004604758,-3.700219800460476,8.390989102072142,0.52,0.23777777777777775,-0.5777777777777777,-0.0022865587998715043,-0.013134925347762581,-0.043486375171028206
1589996790.2105045,-0.7417231005372218,-3.751723100537222,8.622753952417499,0.52,0.23777777777777775,-0.5777777777777777,-0.026865914791563136,-0.02366893505848757,-0.009075276782659923
1589996790.2205045,-0.7245250034345377,-3.6890500068690755,8.444667880203324,0.511338095892293,0.2724253942086062,-0.5784996031200866,0.014205339743910687,-0.018114025164541026,0.06580085648410558
1589996790.2305045,-0.7311159471434733,-3.7831333568599774,8.771631964866879,0.5066666666666667,0.2911111111111111,-0.5788888888888889,-0.0011705162213777945,-0.014714517245111684,0.13740263308386083
1589996790.2405045,-0.6973927163071213,-3.694642387690404,8.60530232737957,0.5066666666666667,0.2911111111111111,-0.5788888888888889,0.003200504094735889,-0.022101026181018432,0.2218322858422117
1589996790.2505045,-0.7411775136766647,-3.7942882475004716,8.75933220147142,0.5066666666666667,0.2911111111111111,-0.5788888888888889,0.0020532147484612594,-0.030085075941157776,0.27881367288815934
1589996790.2605045,-0.7768148418048217,-3.84,8.688666423756604,0.5066666666666667,0.2911111111111111,-0.5788888888888889,0.005502644113052353,-0.03455913817924446,0.3453126625043318
1589996790.2705045,-0.7651844973758579,-3.869631005248284,8.74148526443278,0.5116051675413807,0.31086511460996724,-0.5854735567218409,0.006544984694978735,-0.03652270567194371,0.39573108042880484
1589996790.2805045,-0.8280315933607186,-3.909156397154594,8.721406004742345,0.5133333333333333,0.31777777777777777,-0.5877777777777777,0.006544984694978735,-0.043449185709464086,0.456799260985621
1589996790.2905045,-0.8071156808522485,-3.8260908297915774,8.58269408511349,0.5133333333333333,0.31777777777777777,-0.5877777777777777,0.00737708202040675,-0.04280113397443022,0.4839439457367799
1589996790.3005044,-0.8,-3.8758934322240655,8.729733580560165,0.5133333333333333,0.31777777777777777,-0.5877777777777777,0.002461634723767741,-0.04978625357255221,0.5199052589759219
1589996790.3105044,-0.8158964261100718,-3.832310721669784,8.644621443339569,0.5133333333333333,0.31777777777777777,-0.5877777777777777,-0.003020431714771127,-0.04671015380832762,0.5430925026989893
1589996790.3205044,-0.8405817675189216,-3.8305817675189218,8.739030387468464,0.5277777777777778,0.3233333333333333,-0.5722222222222222,-0.005602229559991401,-0.049171999868060014,0.5731092340892369
1589996790.3305044,-0.8642721316413752,-3.854272131641375,8.699546447264375,0.5277777777777778,0.3233333333333333,-0.5722222222222222,-0.011632071194433203,-0.0526176236591696,0.5903373530447849
1589996790.3405044,-0.8818644257494077,-3.8837288514988155,8.666271148501185,0.5277777777777778,0.3233333333333333,-0.5722222222222222,-0.011795761307547715,-0.05280360430112146,0.6087390653670758
1589996790.3505044,-0.9060216422660726,-3.9,8.730108211330363,0.5277777777777778,0.3233333333333333,-0.5722222222222222,-0.012655997881962382,-0.05235987755982988,0.6385994893309654
1589996790.3605044,-0.9161408932994233,-3.912281786598846,8.700872853604615,0.5277777777777778,0.3233333333333333,-0.5722222222222222,-0.012420101845653767,-0.054369480192740995,0.6610067178248052
1589996790.3705044,-0.9482767732437432,-3.955345966554679,8.754830319731228,0.5379888347824628,0.31940600371614675,-0.6036408591597147,-0.013541397341658374,-0.05871688737571397,0.6950856430307772
1589996790.3805044,-0.9007865330753906,-4.048951289232813,8.72091762192129,0.5422222222222223,0.31777777777777777,-0.6166666666666667,-0.01525733138011559,-0.06430181786795172,0.7434318089685304
1589996790.3905044,-0.9289955446841967,-3.897773390407967,8.625764479776361,0.5422222222222223,0.31777777777777777,-0.6166666666666667,-0.016062361772369714,-0.06594047780212955,0.7779480188116142
1589996790.4005044,-0.9453339170094066,-3.8453339170094067,8.65400700411288,0.5422222222222223,0.31777777777777777,-0.6166666666666667,-0.019271662170017963,-0.06770435790531226,0.8094712000783858
1589996790.4105043,-0.9070906630581868,-3.862259810554804,8.90615696887686,0.5422222222222223,0.31777777777777777,-0.6166666666666667,-0.015129926279551655,-0.07206568398246546,0.8471563083350251
1589996790.4205043,-0.8438499939611095,-3.701299971818511,8.493774910423125,0.5663222262481492,0.309074998546193,-0.6079638874350819,0.013409041456072373,-0.08797823199088807,0.8705238722333675
1589996790.4305043,-0.8541253795595187,-3.6155940346696394,9.061385248107008,0.5822222222222222,0.3033333333333333,-0.6022222222222222,-0.0794307362496986,-0.047760795445719165,0.8909873295601125
1589996790.4405043,-0.922906437359051,-3.5920415833959773,9.080207916979887,0.5822222222222222,0.3033333333333333,-0.6022222222222222,-0.08826295244968445,-0.07281759977755316,0.88805327810883
1589996790.4505043,-0.8781444205933068,-3.508144420593307,8.023003835732132,0.5822222222222222,0.3033333333333333,-0.6022222222222222,0.05611435151357694,-0.06571133617420816,0.906329943338744
1589996790.4605043,-1.0615226741115218,-3.706255187504716,8.742387006715461,0.5822222222222222,0.3033333333333333,-0.6022222222222222,-0.03085751467739277,-0.06085758351786885,0.8941984306179943
1589996790.4705043,-1.0553864871170962,-3.5281793940201993,8.489725342488583,0.7169410649274655,0.28986144906280903,-0.6219118992329885,-0.031005686025489913,-0.07118691657569934,0.8839401679444324
1589996790.4805043,-1.1351922894537176,-3.6803845789074354,8.828632397572079,0.7266666666666667,0.2888888888888889,-0.6233333333333333,-0.0252639212859924,-0.0740599510173764,0.8773775757042985
1589996790.4905043,-1.1802805123104714,-3.6577755901516227,8.745270667992774,0.7266666666666667,0.2888888888888889,-0.6233333333333333,-0.03387695255001643,-0.07329770875449922,0.8743915957613713
1589996790.5005043,-1.2045930835474998,-3.6864827088687497,8.78566887596375,0.7266666666666667,0.2888888888888889,-0.6233333333333333,-0.02724219421254754,-0.07308566242726255,0.874551386016919
1589996790.5105042,-1.21,-3.6952377090885964,8.709991890860524,0.7266666666666667,0.2888888888888889,-0.6233333333333333,-0.02659570397560315,-0.07100772101871766,0.8764047436185662
1589996790.5205042,-1.2172383709242953,-3.6791424436135567,8.64704941100792,0.9293410525469384,0.2768249373483965,-0.6916957253961233,-0.028268055454502,-0.07109109064308136,0.8796979474735167
1589996790.5305042,-1.2381188303802197,-3.7005941519010994,8.648811696197802,1.2866666666666666,0.25555555555555554,-0.8122222222222222,-0.03326495485720392,-0.06995356193428873,0.8833677300492939
1589996790.5405042,-1.2552349833442957,-3.7252349833442957,8.63,1.2866666666666666,0.25555555555555554,-0.8122222222222222,-0.0290900089589141,-0.0645676420965821,0.8785872971812958
1589996790.5505042,-1.2652568161979907,-3.761540897187944,8.682568161979907,1.2866666666666666,0.25555555555555554,-0.8122222222222222,-0.030711347718427914,-0.06441504477013328,0.8701467928151176
1589996790.5605042,-1.246501865979722,-3.7101063443310545,8.659505597939166,1.2866666666666666,0.25555555555555554,-0.8122222222222222,-0.03125250546533548,-0.0644245474329655,0.85112173577692
1589996790.5705042,-1.2559724537588315,-3.645694609827737,8.657083829483211,1.210724819842467,0.029442989071472053,-0.8259260141303485,-0.02555875321047473,-0.062147046531021204,0.8204106967950695
1589996790.5805042,-1.2976911887865297,-3.6238528672808217,8.753073566359589,1.1388888888888888,-0.18444444444444444,-0.8388888888888889,-0.021229489335957936,-0.061086523819801536,0.7832196752283052
1589996790.5905042,-1.3,-3.597494250523841,8.703724127357285,1.1388888888888888,-0.18444444444444444,-0.8388888888888889,-0.022089950516110964,-0.06381485511715813,0.7548448667586238
1589996790.6005042,-1.2932865508885298,-3.58328655088853,8.64314620355412,1.1388888888888888,-0.18444444444444444,-0.8388888888888889,-0.019245827958668034,-0.0603235810865268,0.7183305738655418
1589996790.6105042,-1.320089769964466,-3.5679640920142135,8.66610772395736,1.1388888888888888,-0.18444444444444444,-0.8388888888888889,-0.01614037862732422,-0.05781403147231216,0.6878210956147269
1589996790.6205041,-1.3240360235003092,-3.5759639764996907,8.753855905998762,0.7912289562289563,0.05590209063423349,-0.7298017161410019,-0.015271630954950384,-0.05346053222808398,0.6491032588999371
1589996790.6305041,-1.32,-3.5557562553640985,8.729593758940165,0.7033333333333334,0.11666666666666667,-0.7022222222222222,-0.014390103523889558,-0.051478350128769064,0.610764343372223
1589996790.6405041,-1.2703749066467513,-3.607895942245457,8.686916604431167,0.7033333333333334,0.11666666666666667,-0.7022222222222222,-0.017789638800052854,-0.047660208149734505,0.5635321978169519
1589996790.650504,-1.2216015360702204,-3.588001280058517,8.654401024046814,0.7033333333333334,0.11666666666666667,-0.7022222222222222,-0.01575170820542752,-0.04271710100182926,0.5217238871265493
1589996790.660504,-1.2053767727283708,-3.6076374090985963,8.720651590925563,0.7033333333333334,0.11666666666666667,-0.7022222222222222,-0.011834740491416152,-0.03860119419159054,0.46064391647218617
1589996790.670504,-1.182637072585483,-3.603516096780644,8.726153169366127,0.6668494301139772,0.15163040725188295,-0.694621409051523,-0.007827588807603343,-0.034103414252582356,0.3805556332240966
1589996790.680504,-1.2004429826229133,-3.5824191033879615,8.739676413551846,0.6233333333333333,0.19333333333333333,-0.6855555555555556,-0.009122471126216131,-0.02626355849387794,0.2629217418865129
1589996790.690504,-1.1713579998995933,-3.4779697775992773,8.596447110798735,0.6233333333333333,0.19333333333333333,-0.6855555555555556,-0.003679493420611194,-0.01791565932031568,0.11760918119290947
1589996790.700504,-1.1920978296080336,-3.4470163049346723,8.670326098693446,0.6233333333333333,0.19333333333333333,-0.6855555555555556,0.0012052496381402373,-0.007178140054900067,-0.0027205633030425586
1589996790.710504,-1.14231454135766,-3.5115322351294,8.68692743540942,0.6233333333333333,0.19333333333333333,-0.6855555555555556,0.004866511812791281,0.0014259955861577788,-0.1240107148546652
1589996790.720504,-1.164898924301462,-3.590561827688414,8.757348386452193,0.6188264635901762,0.21496630810048734,-0.7098926521686038,0.015394202742346496,0.01852207200577424,-0.28269929435507934
1589996790.730504,-1.0513348309292976,-3.4570387010325527,8.915813234019074,0.6177777777777778,0.22,-0.7155555555555555,0.016673559591846444,0.026495013218510215,-0.4097592942446878
1589996790.740504,-0.9912055193609834,-3.435177922556066,8.600631813161307,0.6177777777777778,0.22,-0.7155555555555555,0.037947364680940524,0.043231200150425725,-0.5085525188635416
1589996790.750504,-0.9852410252538598,-3.555994866180967,8.331779472273602,0.6177777777777778,0.22,-0.7155555555555555,0.047155217577782314,0.05388760066810821,-0.6230948467722437
1589996790.760504,-0.9508874135215424,-3.761070438822099,8.77052136292043,0.6177777777777778,0.22,-0.7155555555555555,0.014143893263390456,0.04271906216870095,-0.7987676422719572
1589996790.770504,-0.8278887428821726,-3.824533508541393,8.796333771353481,0.5936234000097338,0.18135299557112958,-0.7100345549228597,0.04928376342154158,0.06933201957693746,-0.9669901923991602
1589996790.780504,-0.7548857404021938,-3.6710191956124314,8.658347806215723,0.5788888888888889,0.15777777777777774,-0.7066666666666667,0.06310715323545882,0.08082692155670208,-1.124704119457401
1589996790.790504,-0.7452683698094367,-3.552902554714155,8.647952067903802,0.5788888888888889,0.15777777777777774,-0.7066666666666667,0.07512635201878314,0.09898365726023284,-1.3348795930279984
1589996790.800504,-3.5981770327178486,-8.833531908001294,4.900473113054746,0.5788888888888889,0.15777777777777774,-0.7066666666666667,0.06335592535346754,0.10170714340028411,-1.4866201980495122
1589996790.810504,-0.9181863696101136,-5.864938982414419,-2.2097396583015203,0.5788888888888889,0.15777777777777774,-0.7066666666666667,-0.7213176746469284,1.4144849655733338,-3.8093708051470383
1589996790.820504,0.9470527630346552,-3.410933499843897,-3.026924758039338,0.5605415062268013,0.215266243452319,-0.6430624067714296,-1.369748687086796,0.35341452921925187,-10.605750939592495
1589996790.830504,-0.08789038151531425,-5.993439011284256,0.08437399247716282,0.5455555555555556,0.26222222222222225,-0.5911111111111111,-1.4267585989571834,-0.2535753091441819,-14.359554806212119
1589996790.840504,-1.04201938555331,-7.190879884919683,5.052446997979244,0.5455555555555556,0.26222222222222225,-0.5911111111111111,-1.4052043695591647,0.5113981301296742,-13.990009863489979
1589996790.850504,-1.3392701044909532,-6.374851585858274,4.265255679191196,0.5455555555555556,0.26222222222222225,-0.5911111111111111,-0.9640335981652413,1.4500618053149683,-13.262480060204734
1589996790.860504,-5.040371208691716,-6.111634223630602,8.796989588048891,0.5455555555555556,0.26222222222222225,-0.5911111111111111,-0.063123992270947,2.811013150485421,-12.354938572563777
1589996790.870504,-1.5125957876232947,-3.68382466877177,2.562891695693221,0.40528109638985654,0.4844752614198234,-0.5911111111111111,1.5854246591250312,3.2307479625381057,-11.328071434317273
1589996790.880504,2.196334805216243,-5.3037495873225495,11.1728957576758,0.3744444444444445,0.5333333333333333,-0.5911111111111111,3.707712694633962,1.416520681124136,-10.517276095583137
1589996790.890504,-0.057583014048530945,-2.4837436143039597,1.5664176245210744,0.3744444444444445,0.5333333333333333,-0.5911111111111111,3.5192717407449186,0.771506614490915,-9.784608799431588
1589996790.9005039,-0.38136854769146955,-1.5522265855540927,-0.6839878331139058,0.3744444444444445,0.5333333333333333,-0.5911111111111111,1.6977550744539354,0.5090735716179332,-9.074218191688889
1589996790.9105039,2.0582545661600453,-5.326717328778122,3.243745930241046,0.3744444444444445,0.5333333333333333,-0.5911111111111111,0.6662424550244888,0.42667594503581197,-8.656511715819196
1589996790.9205039,4.547421672320894,-9.588856515665535,10.459148672919577,0.31625069292002045,0.5546297700614204,-0.5970543027561587,-0.26007621910865136,0.46143652849077343,-8.19015926752165
1589996790.9305038,2.7055722341354937,-6.065242633627195,16.714829640219204,0.11333333333333333,0.6288888888888889,-0.6177777777777778,-1.0526184369794256,0.7058415032093863,-6.993402349160317
1589996790.9405038,1.345329535063656,-0.9246328339312091,10.415137511429979,0.11333333333333333,0.6288888888888889,-0.6177777777777778,-0.07739604378050768,0.5010233278150864,-5.990571925500639
1589996790.9505038,1.2825541093617492,-0.07983813281221194,7.114515320231555,0.11333333333333333,0.6288888888888889,-0.6177777777777778,0.8043807346317486,0.3577581077971055,-5.506424580106061
1589996790.9605038,1.3124906323185013,-1.061786299765808,8.567325526932084,0.11333333333333333,0.6288888888888889,-0.6177777777777778,0.5513364692737566,0.3644970824150258,-5.181257301316326
1589996790.9705038,2.7296185687128225,-2.549074834937961,10.930755912593773,0.03325565707978169,0.6388331754824672,-0.603646423144798,-0.15968805188120705,0.23542608247836638,-4.8137931192073635
1589996790.9805038,5.592166465797451,-3.3152733647419743,8.740957598334612,-0.05666666666666665,0.65,-0.5877777777777777,-0.058367394737674105,0.5090416565342244,-4.491134785959696
1589996790.9905038,4.18899893352293,-2.1311212228937073,8.46919018841095,-0.05666666666666665,0.65,-0.5877777777777777,0.3215675303554133,0.2718531016395901,-4.429219391580762
1589996791.0005038,1.9810763049473934,-0.9655224897000239,8.30645782968436,-0.05666666666666665,0.65,-0.5877777777777777,0.29395778051285204,0.024946073187128937,-4.383342766368909
1589996791.0105038,2.995033908522342,-1.273096413231859,8.181593512169393,-0.05666666666666665,0.65,-0.5877777777777777,0.13134659669246396,0.2623514611131904,-4.186458924900862
1589996791.0205038,4.458780882293478,-1.962236060005661,9.789615058024342,-0.13718387628662182,0.6141259957138814,-0.5877777777777777,-0.017417873931194566,0.5060856728587501,-3.946089155193327
1589996791.0305037,4.580580080753702,-2.0825023553162856,10.514554172274563,-0.1688888888888889,0.6,-0.5877777777777777,-0.049246495287782036,0.530405053171494,-3.901852562878861
1589996791.0405037,2.4717354437535333,-0.9122131147540984,8.394903900508762,-0.1688888888888889,0.6,-0.5877777777777777,0.1412844769453762,0.26635078520197947,-3.9296966199683574
1589996791.0505037,3.6420547041971716,-1.047486244372698,8.506366922832068,-0.1688888888888889,0.6,-0.5877777777777777,0.17843391881697013,0.20330883885936973,-3.785873395325179
1589996791.0605037,4.222333646154533,-1.1823336461545337,9.002694284309783,-0.1688888888888889,0.6,-0.5877777777777777,0.11342305115641939,0.24342987931830784,-3.6667766607301218
1589996791.0705037,3.6272668561095327,-1.0167148884870403,9.212877809351589,-0.21823203402317326,0.5739728465225753,-0.598080192695925,0.10427503469085331,0.2838605785502518,-3.647825751617978
1589996791.0805037,4.256744497087027,-0.73,9.1970342076032,-0.27,0.5466666666666666,-0.6088888888888889,0.11607888098002643,0.2845812896555377,-3.6395312256650514
1589996791.0905037,3.540922998470168,0.373508414074452,9.62180010198878,-0.27,0.5466666666666666,-0.6088888888888889,0.11114736842498692,0.047852482439703026,-3.2570015491053996
1589996791.1005037,3.8508932276928887,1.3179324655725335,6.904592529711374,-0.27,0.5466666666666666,-0.6088888888888889,0.18604869057390316,-0.36913314469772873,-1.581857219231297
1589996791.1105037,5.886103852596316,0.9295443886097152,4.773956448911223,-0.27,0.5466666666666666,-0.6088888888888889,0.22515295506898958,-0.42810521973012594,0.1043100997403705
1589996791.1205037,2.848604332589997,-0.7939009238611022,10.020153552086652,-0.3258827652118509,0.5109637888924285,-0.6306210753601642,-0.1820423864008598,0.5529332274167966,-0.16624094320921176
1589996791.1305037,3.949587238684685,-1.330937952222989,10.240915466304518,-0.35,0.4955555555555556,-0.64,-0.2623011500450064,0.33839248028100266,-0.17194445760470523
1589996791.1405036,4.0117742832583305,-1.1068549324973453,9.608091554162241,-0.35,0.4955555555555556,-0.64,-0.06643516328181528,0.062397318861821455,-0.03872452035689143
1589996791.1505036,3.798476203778065,-0.7346122420475575,8.958068019134746,-0.35,0.4955555555555556,-0.64,0.07119191558990995,-0.05441241742529897,0.03465131258259788
1589996791.1605036,3.914170572617916,-0.6833347536792421,8.868332623160379,-0.35,0.4955555555555556,-0.64,0.0026366004642188754,-0.01854412330243975,-0.005272271314214245
1589996791.1705036,3.901418155632567,-0.6685696926054278,8.874286871596382,-0.3484130198878837,0.49365117942101605,-0.6377782278430373,-0.0024937062318792468,-0.014804889506226597,-0.005610176245925447
1589996791.1805036,3.8629917499757354,-0.7102434242453654,9.037129962146947,-0.34444444444444444,0.4888888888888889,-0.6322222222222222,0.0010775540494939269,0.003930759969259091,-0.0016163310742408905
1589996791.1905036,3.7415813054801044,-0.7022791296799306,9.029814342919549,-0.34444444444444444,0.4888888888888889,-0.6322222222222222,0.0,0.0120820101012,-0.001511938933136207
1589996791.2005036,3.7767758450171622,-0.6788161033218919,8.890528826575135,-0.34444444444444444,0.4888888888888889,-0.6322222222222222,0.0009616876885188955,0.0032148063168133956,-0.003272492347489368
1589996791.2105036,3.769706971462427,-0.69,8.960586057075146,-0.34444444444444444,0.4888888888888889,-0.6322222222222222,0.002534617007527252,-0.0068979401375130756,-0.0036254477900237083
1589996791.2205036,3.808250502008032,-0.6869582496653279,8.93520875167336,-0.34714822251970845,0.49024077792652093,-0.6345880280380782,0.002940688857716454,-0.006308601518383537,-0.0036997161504399964
1589996791.2305036,3.8477668828494958,-0.6822331171505045,8.965533765698991,-0.3533333333333333,0.4933333333333334,-0.64,0.0012072803935165122,-0.0015673252974056683,-0.001938066272123812
1589996791.2405035,3.790707776109501,-0.7146461119452494,9.023938335835748,-0.3533333333333333,0.4933333333333334,-0.64,-0.002181661564992912,0.0025710072914037073,-0.0001946728632053977
1589996791.2505035,3.7577833601286175,-0.7248110932475884,9.04183882636656,-0.3533333333333333,0.4933333333333334,-0.64,-0.0003498725741286864,-0.0018317889908642255,0.0001749362870643432
1589996791.2605035,3.820874877082154,-0.69,8.926524926249293,-0.3533333333333333,0.4933333333333334,-0.64,0.0019444085514513394,-0.005549588197693687,-0.0018025898231211735
1589996791.2705035,3.8747740975205365,-0.6752259024794633,8.911587346446604,-0.3533333333333333,0.4933333333333334,-0.637701807052361,0.0014131515896765735,-0.007561231392207282,-0.0030740399012653538
1589996791.2805035,3.8933844580777097,-0.6466462167689162,8.843261758691208,-0.3533333333333333,0.4933333333333334,-0.6322222222222222,0.002181661564992912,-0.002181661564992912,0.0
1589996791.2905035,3.8056602016715115,-0.6886795966569768,8.946980605014534,-0.3533333333333333,0.4933333333333334,-0.6322222222222222,0.0007614658830303771,0.001605526920240514,-0.00047339856065417823
1589996791.3005035,3.774762003618138,-0.6949524007236276,8.97542839348735,-0.3533333333333333,0.4933333333333334,-0.6322222222222222,0.0005609922180156899,0.001038908026604917,-0.00219204611617122
1589996791.3105035,3.774662941107507,-0.69,8.990404470670992,-0.3533333333333333,0.4933333333333334,-0.6322222222222222,2.9413937235630953e-05,-0.008129756478561066,-0.0021963685336107274
1589996791.3205035,3.8087727758445897,-0.7031591637668849,8.96877277584459,-0.36015660343468103,0.4874848161036067,-0.6292979636073589,-0.0007462194741098998,-0.009606735122655995,-0.003004753570340472
1589996791.3305035,3.831946434537288,-0.7000892757711867,8.932214261850849,-0.3688888888888889,0.48,-0.6255555555555555,0.00022206154687295606,-0.0035042923702964857,-0.0037166154412352796
1589996791.3405035,3.837547009385526,-0.682452990614474,8.875566238268092,-0.3688888888888889,0.48,-0.6255555555555555,-0.001430433419906648,0.001090830782496456,-0.00177003605731684
1589996791.3505034,3.784834006145689,-0.7141943323090518,8.968720652326725,-0.3688888888888889,0.48,-0.6255555555555555,-0.0008090695265729573,-0.0021118839738167713,-0.002357430988542732
1589996791.3605034,3.779231321194726,-0.7112306036415822,9.023691810924747,-0.3688888888888889,0.48,-0.6255555555555555,0.0007719665327739741,-0.007820441693868663,-0.001409695032218938
1589996791.3705034,3.8522251034009813,-0.69,8.948874482995093,-0.36740548662156786,0.4827195708234218,-0.621847049887253,0.0,-0.009937423311353286,-0.0016962193081872757
1589996791.3805034,3.8617774639045823,-0.6882225360954174,8.90289014438167,-0.3622222222222222,0.4922222222222222,-0.6088888888888889,0.0,-0.004993854821462746,-0.00019389123418949873
1589996791.3905034,3.8463176497129825,-0.691841175143509,8.881841175143508,-0.3622222222222222,0.4922222222222222,-0.6088888888888889,0.0004305572782490461,0.0060566770692343265,-0.0006602735042474098
1589996791.4005034,3.7974508144700656,-0.701633876313377,8.954379803963048,-0.3622222222222222,0.4922222222222222,-0.6088888888888889,-0.0002780730046347006,0.009717632295575755,0.0
1589996791.4105034,3.78,-0.6865131699008455,9.03,-0.3622222222222222,0.4922222222222222,-0.6088888888888889,-0.00027989076224648997,0.0023610889289366072,-0.0015214166421971375
1589996791.4205034,3.7957011317859197,-0.686280452714368,8.995457510070976,-0.3576863397062898,0.4866395975872285,-0.6074932327301404,0.0022448556751624746,-0.007166881699693768,-0.0033356864576589303
1589996791.4305034,3.825942525548602,-0.6918850510972036,8.911885051097203,-0.3477777777777778,0.4744444444444445,-0.6044444444444445,0.0008852036061556244,-0.009137900612653311,-0.001090830782496456
1589996791.4405034,3.8258939988644496,-0.68,8.873477005109976,-0.3477777777777778,0.4744444444444445,-0.6044444444444445,0.001860193795325858,-0.0049376458466434655,-0.0007693630128294019
1589996791.4505033,3.818282806409701,-0.6944781290601992,8.864292983975748,-0.3477777777777778,0.4744444444444445,-0.6044444444444445,0.001880490225087546,-0.00030117133990536626,-0.0007896594425910897
1589996791.4605033,3.800672930850166,-0.7131090230499446,8.949663534574917,-0.3477777777777778,0.4744444444444445,-0.6044444444444445,0.002144958880700284,-0.0015400806400114066,-0.0025575060539226066
1589996791.4705033,3.8375773213729087,-0.6927319641187268,8.939690714508364,-0.34643184520717163,0.4787514286703841,-0.6095589882127478,0.0005285464845054348,-0.007073531179484171,-0.0030082191052366505
1589996791.4805033,3.8408465322449863,-0.6772310214966575,8.951922446258356,-0.3422222222222222,0.4922222222222222,-0.6255555555555555,0.0025760526068652903,-0.006754691050609755,-0.0025760526068652903
1589996791.4905033,3.8527383917617755,-0.6875794639205918,8.890953567047102,-0.3422222222222222,0.4922222222222222,-0.6255555555555555,0.0019522947147085164,-0.0011601761350400058,-0.0027444132943770273
1589996791.5005033,3.815287358937022,-0.6996168547506371,8.883371632690208,-0.3422222222222222,0.4922222222222222,-0.6255555555555555,-0.002181661564992912,0.00545415391248228,-0.0016257975079403747
1589996791.5105033,3.7963258017218693,-0.7273483965562615,9.003067784503177,-0.3422222222222222,0.4922222222222222,-0.6255555555555555,-0.001380075848436811,0.0026486039045359264,-0.0017808687067148614
1589996791.5205033,3.79,-0.7319883398827546,9.057329446627586,-0.3493436978819959,0.48895821254482597,-0.6199177206582347,0.0,-0.003638222477457983,-0.001090830782496456
1589996791.5305033,3.824689385550609,-0.7056638268061738,8.993629748480261,-0.3688888888888889,0.48,-0.6044444444444445,-0.0009460062396123024,-0.008581821717087495,-0.001090830782496456
1589996791.5405033,3.86310175725378,-0.69655087862689,8.89585615038823,-0.3688888888888889,0.48,-0.6044444444444445,-0.0014291800117219606,-0.007936273159290727,-0.001090830782496456
1589996791.5505033,3.8414875107665805,-0.6871625035888601,8.852837496411139,-0.3688888888888889,0.48,-0.6044444444444445,0.0006190456860989075,-0.0021966632286396473,-0.0014003536255459098
1589996791.5605032,3.809821535513235,-0.68,8.910892322433824,-0.3688888888888889,0.48,-0.6044444444444445,0.0007012639142315619,0.001792094696728018,-0.001441462739612237
1589996791.5705032,3.7986452937151793,-0.68,8.986945883426188,-0.3669677125077379,0.48128078425410065,-0.6121291499690483,-0.0012386063141688328,-0.002348237783595228,-0.000628703500549386
1589996791.5805032,3.82,-0.6883837456714924,8.93,-0.3622222222222222,0.4844444444444445,-0.6311111111111111,0.001090830782496456,-0.005911416305036543,-0.002181661564992912
1589996791.5905032,3.82740526771881,-0.6888920984217851,8.881865759827736,-0.3622222222222222,0.4844444444444445,-0.6311111111111111,0.0006869360834811983,-0.004929405898917705,-0.0017777668659776542
1589996791.6005032,3.8362407651576986,-0.6737592348423014,8.82631464389611,-0.3622222222222222,0.4844444444444445,-0.6311111111111111,0.0008201378169231009,0.0006888207942379412,-0.0015008996909580065
1589996791.6105032,3.821998812096814,-0.684000593951593,8.896003860685353,-0.3622222222222222,0.4844444444444445,-0.6311111111111111,0.0015270659103929036,0.00545415391248228,-0.001963463013459576
1589996791.6205032,3.7943186880269257,-0.6978406559865371,8.985964263912491,-0.3622222222222222,0.4844444444444445,-0.6311111111111111,-0.0007375089445137398,0.00545415391248228,-0.0012086047284906947
1589996791.6305032,3.7766375140280948,-0.6866812429859526,9.05502186447893,-0.3555555555555556,0.4844444444444445,-0.6088888888888889,-0.0027294620009070216,-0.0030867121426301557,-0.0012718408980239048
1589996791.6405032,3.8090998800356024,-0.6704500599821989,9.030675089973297,-0.3555555555555556,0.4844444444444445,-0.6088888888888889,-7.364089238284365e-05,-0.0075130806568371195,-0.0021571146008652975
1589996791.6505032,3.83,-0.675562284032981,8.853313147901057,-0.3555555555555556,0.4844444444444445,-0.6088888888888889,0.001090830782496456,-0.004728034335362218,-0.0014555419878728498
1589996791.6605031,3.83,-0.661212494440453,8.896362516678641,-0.3555555555555556,0.4844444444444445,-0.6088888888888889,0.001090830782496456,-0.0023800555038807,0.0008924368436086681
1589996791.6705031,3.8045847958046,-0.6827076020977,8.980830408390801,-0.3581127353144945,0.48309064339559454,-0.6100922675989778,0.0018863079935006024,0.0050111235552438155,-0.0016815379254810751
1589996791.6805031,3.770095313741064,-0.6999523431294677,9.049666401906276,-0.3744444444444445,0.4744444444444445,-0.6177777777777778,2.5992790686968766e-06,0.0021660658905807307,-0.005456753191550976
1589996791.6905031,3.8151069676153093,-0.68,8.887018645731109,-0.3744444444444445,0.4744444444444445,-0.6177777777777778,0.001090830782496456,-0.0046418650039854095,-0.005152275324980807
1589996791.700503,3.83,-0.6800797496851987,8.820239249055597,-0.3744444444444445,0.4744444444444445,-0.6177777777777778,0.0010821314413455513,-0.0054280558890295654,-0.0011082294647982653
1589996791.710503,3.8238842436330165,-0.6930578781834918,8.90198392911936,-0.3744444444444445,0.4744444444444445,-0.6177777777777778,0.0,-0.0001802849739865461,-0.0026053668171539127
1589996791.720503,3.8082737791134487,-0.6982737791134485,9.02,-0.3688821771433342,0.4754034560480842,-0.6162433592119543,0.0,0.004175021641941958,-0.001467433758584188
1589996791.730503,3.8,-0.69,9.02,-0.3422222222222222,0.48,-0.6088888888888889,0.0003807287909846683,-0.000534795562357315,-0.0028917635565047
1589996791.740503,3.803158192682671,-0.69,8.978943495125275,-0.3422222222222222,0.48,-0.6088888888888889,0.00143533616202773,-0.007980320857006467,-0.002526166944524186
1589996791.750503,3.817327841758703,-0.69,8.887557386080433,-0.3422222222222222,0.48,-0.6088888888888889,0.0019152137196710383,-0.007660854878684153,-0.002739596656845621
1589996791.760503,3.8422306190031414,-0.6877693809968582,8.888922476012567,-0.3422222222222222,0.48,-0.6088888888888889,0.0013341535697613104,-0.0033900319809264065,-0.0013341535697613104
1589996791.770503,3.84935348560754,-0.6806465143924599,8.91741394243016,-0.3422222222222222,0.48,-0.6088888888888889,0.002111137784930689,-0.0002820951202488929,-0.002111137784930689
1589996791.780503,3.8075139685800905,-0.69,8.992430157099546,-0.3622222222222222,0.4844444444444445,-0.5955555555555555,-0.0008135518797271307,0.0035497712502586933,-0.0013620147424054994
1589996791.790503,3.8048877621948725,-0.6924438810974363,8.988454021343582,-0.3622222222222222,0.4844444444444445,-0.5955555555555555,-0.003005906274504893,2.448649055855406e-05,-0.002181661564992912
1589996791.800503,3.8219191218948585,-0.6990404390525707,8.861919121894857,-0.3622222222222222,0.4844444444444445,-0.5955555555555555,-0.0017629741173380042,-0.00285380489983446,-0.002181661564992912
1589996791.810503,3.8380727902946274,-0.6909636048526863,8.878072790294627,-0.3622222222222222,0.4844444444444445,-0.5955555555555555,0.0017612096308036369,0.0006703788483071807,-0.002181661564992912
1589996791.820503,3.837628471182234,-0.6714229172906594,8.905691669162637,-0.361273610695116,0.4839701386808914,-0.596187963240293,-0.0010390920497765329,-5.1738732719923044e-05,-0.0010390920497765329
1589996791.830503,3.7927619699627746,-0.6983428180223353,9.01337127208934,-0.343327010207332,0.47499683843699936,-0.6081523635654824,-6.025683711449758e-05,-0.0010305739453819584,-6.025683711449758e-05
1589996791.840503,3.792196856156983,-0.7,8.97144086995922,-0.3422222222222222,0.4744444444444445,-0.6088888888888889,0.0008511909504210608,-0.002289029942873432,-0.002181661564992912
1589996791.850503,3.7995062911714474,-0.7,8.876418214771181,-0.3422222222222222,0.4744444444444445,-0.6088888888888889,5.385527877753405e-05,-0.006275708301091065,-0.002181661564992912
1589996791.860503,3.83,-0.6954308590039354,8.88056113448229,-0.3422222222222222,0.4744444444444445,-0.6088888888888889,0.0024308695473966007,-0.005548152765363979,-0.001340038764900145
1589996791.870503,3.83,-0.6812013163251459,8.944594076536843,-0.3422222222222222,0.4744444444444445,-0.6088888888888889,0.003206970706140136,-0.002443748130389842,-0.0021161399236436793
1589996791.880503,3.8,-0.6741162640700747,8.986174396105111,-0.3555555555555556,0.48,-0.5955555555555555,0.00022450737782608122,0.001090830782496456,-0.001090830782496456
1589996791.890503,3.80223267927432,-0.69111633963716,8.99437124507976,-0.3555555555555556,0.48,-0.5955555555555555,0.0009690570185029483,0.0008472832545094405,-0.0012126045464899637
1589996791.900503,3.82,-0.7028895403774864,8.887337242264918,-0.3555555555555556,0.48,-0.5955555555555555,0.0003151999591028695,-0.0026668305780108035,-0.0024968615240957815
1589996791.910503,3.82,-0.7075722766170688,8.922716829851206,-0.3555555555555556,0.48,-0.5955555555555555,0.001090830782496456,-0.0060153376154811885,-0.0030076688077405947
1589996791.920503,3.82,-0.6978031222418358,8.905126048102384,-0.35498599465529085,0.48,-0.5982406283710895,0.0010109500530302135,-0.004043800212120854,-0.0021017808355266693
