time,acc_x,acc_y,acc_z,mag_x,mag_y,mag_z,gyr_x,gyr_y,gyr_z
1589996808.8713264,-3.8,-0.92,8.85,0.32666666666666666,-0.3022222222222222,-0.5955555555555555,0.002181661564992912,0.004363323129985824,0.014180800172453925
1589996808.8813264,-3.80204357017557,-0.9110217850877851,9.00204357017557,0.32666666666666666,-0.3022222222222222,-0.5955555555555555,0.00316103288480419,0.0045862420553561805,0.015494549880320741
1589996808.8913264,-3.81462074755986,-0.9173103737799302,9.01462074755986,0.32666666666666666,-0.3022222222222222,-0.5955555555555555,0.002475054272419092,0.005958199280126376,0.016866507105090935
1589996808.9013264,-3.82,-0.8912870813397129,9.000858054226475,0.3202860180754918,-0.29690501506290984,-0.5998093212830055,-0.0009504319880028933,0.0013248287733190608,0.013277167782615555
1589996808.9113264,-3.8051314329373667,-0.8974342835313165,9.0,0.32,-0.2966666666666667,-0.6,-0.001090830782496456,-0.0037748964105634476,0.011468060325604169
1589996808.9213264,-3.78,-0.9096025315114925,8.831987342442538,0.32,-0.2966666666666667,-0.6,-0.00013007125870091997,-0.011955781521227374,0.01099502199743184
1589996808.9313264,-3.78,-0.9031953195319532,8.884260426042605,0.32,-0.2966666666666667,-0.6,-0.0035048625411804825,-0.010327382340736773,0.0127414140994208
1589996808.9413264,-3.78,-0.9267906165616562,8.915720822082209,0.32,-0.2966666666666667,-0.6,-0.005220760962656962,-0.006037636287045575,0.010167566467206082
1589996808.9513264,-3.78,-0.9220596871028529,8.935880625794294,0.3252935419314314,-0.2966666666666667,-0.6061757989200033,-0.0037218463663099425,-0.0011233850470514358,0.008951323269381936
1589996808.9613264,-3.7924298837690977,-0.91,8.940280464923609,0.32666666666666666,-0.2966666666666667,-0.6077777777777778,-0.0006932419805134157,-0.0001325296006610134,0.0061473958929956956
1589996808.9713264,-3.8085216976633287,-0.91,8.874434907010013,0.32666666666666666,-0.2966666666666667,-0.6077777777777778,0.002020403795525148,-0.0012520885519642201,0.003111234578021604
1589996808.9813263,-3.8040647097726,-0.9045803869698665,8.908129419545201,0.32666666666666666,-0.2966666666666667,-0.6077777777777778,0.001534221836683091,-0.0026250526191795467,0.002181661564992912
1589996808.9913263,-3.8254021468179276,-0.8761304709094301,8.950804293635855,0.32666666666666666,-0.2966666666666667,-0.6077777777777778,0.0038617751515454225,-0.004952605934041879,0.002181661564992912
1589996809.0013263,-3.7782249982520333,-0.89,8.988224998252035,0.31222222222222223,-0.3022222222222222,-0.5811111111111111,0.002885247038355986,-0.007442192822908501,0.00892026891453834
1589996809.0113263,-3.77,-0.8930852001298641,8.95686099902602,0.31222222222222223,-0.3022222222222222,-0.5811111111111111,0.0007542876553146729,-0.006208441567796952,0.010154020169649888
1589996809.0213263,-3.768673179955878,-0.9086731799558777,8.837960920264734,0.31222222222222223,-0.3022222222222222,-0.5811111111111111,-0.0015250316265850233,-0.004218589515289635,0.012288605836853393
1589996809.0313263,-3.762138757391319,-0.9010693786956597,8.8953468934783,0.31222222222222223,-0.3022222222222222,-0.5811111111111111,-0.004479974249922977,-0.002922538987677911,0.013597544572768162
1589996809.0413263,-3.7766848740224384,-0.9083424370112192,8.931712185056096,0.31222222222222223,-0.3022222222222222,-0.5811111111111111,-0.005273341839273387,-0.0005424362196266774,0.00963070662601611
1589996809.0513263,-3.818944520297046,-0.9192963468646975,8.978944520297047,0.32,-0.2966666666666667,-0.6088888888888889,-0.004324944804976416,0.0009756958074682326,0.004516836430023455
1589996809.0613263,-3.79799327316927,-0.9053288487795131,8.957993273169269,0.32,-0.2966666666666667,-0.6088888888888889,-0.003563135961687448,-0.0013097307223986722,0.007564071803179327
1589996809.0713263,-3.7614543874891395,-0.89,8.870484795829713,0.32,-0.2966666666666667,-0.6088888888888889,-0.000985064739641022,-5.2883021427716984e-05,0.006650750737834169
1589996809.0813262,-3.78936643565225,-0.8893664356522503,8.8838013860865,0.32,-0.2966666666666667,-0.6088888888888889,0.0012981642304617882,-0.0011599419318182333,0.008519312812006316
1589996809.0913262,-3.782007369067462,-0.882007369067462,8.927955785595227,0.32,-0.2966666666666667,-0.6088888888888889,0.0037064131388001784,-0.0019626915679310302,0.006111063903667925
1589996809.1013262,-3.8079431097267706,-0.8869857774316927,8.933014222568307,0.32,-0.2966666666666667,-0.5933649390406828,0.0005531725989060881,0.00010442875365492942,0.006216184018698227
1589996809.1113262,-3.808488574886105,-0.9,8.916473341400911,0.32,-0.2966666666666667,-0.5866666666666667,-0.0013656156224423083,-0.0032175353795001974,0.0022366185329820826
1589996809.1213262,-3.7860958855353073,-0.9,8.864223732915717,0.32,-0.2966666666666667,-0.5866666666666667,-0.005436721430230681,-0.0024033142179425227,0.0030508396945397574
1589996809.1313262,-3.78,-0.8996402837616996,8.912158297429803,0.32,-0.2966666666666667,-0.5866666666666667,-0.006505745740408545,-0.002142422610422721,0.0032332533929191774
1589996809.1413262,-3.78,-0.8918511365324617,8.95889318080523,0.32,-0.2966666666666667,-0.5866666666666667,-0.005656081583703581,-0.001292758453717758,0.002383589236214214
1589996809.1513262,-3.771588545708521,-0.9092057271457396,9.00158854570852,0.32,-0.3088888888888889,-0.5955555555555555,-0.0030992088916636466,-0.00025992518373858206,0.0031858506195765073
1589996809.1613262,-3.787863184851777,-0.9010684075741114,9.017863184851777,0.32,-0.3088888888888889,-0.5955555555555555,-0.0013239211565150798,-0.002922856786461432,0.002298206752002224
1589996809.1713262,-3.78,-0.9297161284018176,8.870567743196364,0.32,-0.3088888888888889,-0.5955555555555555,6.193117551477412e-05,-0.001028899606981682,0.003179595584217207
1589996809.1813262,-3.7802930615550756,-0.9194138768898489,8.891172246220304,0.32,-0.3088888888888889,-0.5955555555555555,0.0022455976780814597,0.0010268946694079082,6.393611308854767e-05
1589996809.1913261,-3.7859549136069113,-0.9080901727861771,8.913819654427646,0.32,-0.3088888888888889,-0.5955555555555555,0.003480822178898113,-0.0002083298314087454,0.0012991606139052014
1589996809.2013261,-3.79,-0.8950545049137005,8.9250545049137,0.32,-0.3028443948945229,-0.5977535533716886,0.002744913647539703,-0.001090830782496456,0.002181661564992912
1589996809.2113261,-3.784055795709254,-0.89,8.908111591418509,0.32,-0.2966666666666667,-0.6,-0.0034480539299588785,-0.0023876549860551233,0.0015332494632135784
1589996809.221326,-3.7722285161151543,-0.9055429677696913,8.837828128921235,0.32,-0.2966666666666667,-0.6,-0.0031540351560728204,-0.0007292801933099311,0.0019385681672229348
1589996809.231326,-3.7826333097595475,-0.9036833451202263,8.857899929278643,0.32,-0.2966666666666667,-0.6,-0.002870701723519271,0.0006890401585263594,-0.0005744990691125256
1589996809.241326,-3.7963786070403382,-0.9063786070403385,8.943786070403386,0.32,-0.2966666666666667,-0.6,-0.0011850980747744396,0.0031782250552113847,-0.0014858634740879356
1589996809.251326,-3.793392152105344,-0.91,8.986607847894655,0.31486056274860125,-0.2966666666666667,-0.5955947680702296,0.0021624131668634113,0.0036425187410313534,0.0003507779954124851
1589996809.261326,-3.799888897118732,-0.9398888971187319,9.01944448559366,0.31222222222222223,-0.2966666666666667,-0.5933333333333334,0.00545415391248228,0.004363323129985824,0.0032906715139260543
1589996809.271326,-3.784355603288645,-0.9243556032886453,8.941778016443227,0.31222222222222223,-0.2966666666666667,-0.5933333333333334,0.00545415391248228,0.004363323129985824,0.005832300773439174
1589996809.281326,-3.7994308890748725,-0.8811382218502543,8.910284555462564,0.31222222222222223,-0.2966666666666667,-0.5933333333333334,0.003334572719067741,0.005423113726693093,0.0023058223081496585
1589996809.291326,-3.8073416657726282,-0.8726583342273719,8.91,0.31222222222222223,-0.2966666666666667,-0.5933333333333334,0.0024716408455310304,0.003852450908565605,0.003783364568909587
1589996809.301326,-3.800169909962242,-0.8896601800755155,8.900169909962242,0.33297463452415527,-0.3086812211572595,-0.5867799399748281,-0.0031798208389560508,-0.0031612865372493866,0.004363323129985824
1589996809.311326,-3.790308220778614,-0.8996917792213862,8.890308220778614,0.3333333333333333,-0.3088888888888889,-0.5866666666666667,-0.005386910569858882,-0.0011580741251198527,0.006477741352355338
1589996809.321326,-3.7892293211239454,-0.9003853394380273,8.852312036628163,0.3333333333333333,-0.3088888888888889,-0.5866666666666667,-0.005412119900411275,-0.004237221093772809,0.0031884243233473585
1589996809.331326,-3.770072155876807,-0.9100721558768071,8.910505091137649,0.3333333333333333,-0.3088888888888889,-0.5866666666666667,-0.0043397101745180815,-0.0010987017676523702,0.0011065727528082841
1589996809.341326,-3.775344688874921,-0.9153446888749215,8.94741282212445,0.3333333333333333,-0.3088888888888889,-0.5866666666666667,-0.0026142777856966288,-0.0016738458972595208,0.0022568610120225862
1589996809.351326,-3.782059563758389,-0.9220595637583893,8.992357382550336,0.3319602908277405,-0.306371644295302,-0.5866666666666667,-0.000641503673263436,-0.0010583437919103617,0.002598501683639838
1589996809.361326,-3.772664406779661,-0.9126644067796611,9.01399661016949,0.32666666666666666,-0.2966666666666667,-0.5866666666666667,0.00392736059013385,0.003272492347489368,-0.0009455099358791315
1589996809.371326,-3.7866573417474467,-0.8933426582525535,8.910055949515321,0.32666666666666666,-0.2966666666666667,-0.5866666666666667,0.006180357243253617,0.002363975290855471,-0.001999347839130353
1589996809.381326,-3.8090623608017817,-0.89,8.918593541202673,0.32666666666666666,-0.2966666666666667,-0.5866666666666667,0.0023862227050512677,-0.0009374099274526895,-0.00010228057002917767
1589996809.391326,-3.81,-0.89,8.90565176328029,0.32666666666666666,-0.2966666666666667,-0.5866666666666667,0.0006165117361522819,0.0004743190463441741,0.0
1589996809.401326,-3.7984814095204453,-0.8784814095204451,8.917277885719333,0.31514807618711177,-0.2966666666666667,-0.5866666666666667,-0.0018847249599103634,-0.0020503774840208155,0.0
1589996809.411326,-3.798991536818793,-0.887983073637586,8.912016926362414,0.30666666666666664,-0.2966666666666667,-0.5866666666666667,-0.008176614919434205,-0.005344147644374791,0.0009808245143889671
1589996809.421326,-3.793097907979115,-0.9107062760626555,8.847881171812034,0.30666666666666664,-0.2966666666666667,-0.5866666666666667,-0.007973744815971177,-0.007712858244483693,0.001090830782496456
1589996809.431326,-3.8074020943910485,-0.9112989528044757,8.88090733036867,0.30666666666666664,-0.2966666666666667,-0.5866666666666667,-0.0038392674291422395,-0.0125231943083046,0.001090830782496456
1589996809.441326,-3.7887148914110087,-0.91,8.939665253374313,0.30666666666666664,-0.2966666666666667,-0.5866666666666667,-0.003272492347489368,-0.009994175835603974,0.0018647791710848303
1589996809.451326,-3.78,-0.8839174062789774,9.020859385349052,0.33468130436702437,-0.2966666666666667,-0.5866666666666667,-0.00042732273566533936,-0.0011395272951075707,0.0002848818237768927
1589996809.461326,-3.78,-0.899256106212628,8.991487787574744,0.3388888888888889,-0.2966666666666667,-0.5866666666666667,0.004201030681551163,0.0021005153407755816,0.0021005153407755816
1589996809.4713259,-3.789589414329037,-0.9,8.89410585670963,0.3388888888888889,-0.2966666666666667,-0.5866666666666667,0.0022712374627405596,0.0011356187313702798,0.002181661564992912
1589996809.4813259,-3.7809201761318727,-0.9090798238681269,8.880920176131873,0.3388888888888889,-0.2966666666666667,-0.5866666666666667,0.0002007512899931379,0.004062196194996117,0.001191206427493025
1589996809.4913259,-3.7859148417731405,-0.898170316453719,8.903659367092562,0.3388888888888889,-0.2966666666666667,-0.5866666666666667,-0.0006452091479737557,0.001137277390117045,0.0004456216345227002
1589996809.5013258,-3.7840977907367948,-0.8959022092632052,8.92,0.3231496641870086,-0.2999456718128917,-0.5866666666666667,-0.003022324247208416,-0.003022324247208416,0.0
1589996809.5113258,-3.7884153198424557,-0.9168306396849111,8.92,0.31222222222222223,-0.3022222222222222,-0.5866666666666667,-0.003445354137115453,-0.003445354137115453,-0.0018359379857407416
1589996809.5213258,-3.781638144640252,-0.8865525785610078,8.819657735683023,0.31222222222222223,-0.3022222222222222,-0.5866666666666667,-0.004184629270008983,-0.006921040037567827,0.0014668861250855475
1589996809.5313258,-3.789314047599968,-0.8986280951999359,8.902454523599648,0.31222222222222223,-0.3022222222222222,-0.5866666666666667,-0.0023313131636493695,-0.003571795544802283,0.002181661564992912
1589996809.5413258,-3.783370877317036,-0.9066291226829638,8.923258245365927,0.31222222222222223,-0.3022222222222222,-0.5866666666666667,-0.0007354113482884333,-0.00037999191408041085,0.0029047866733451513
1589996809.5513258,-3.7858624839537867,-0.91,8.959312419768935,0.3167819319640565,-0.2989652866923406,-0.5944833119383826,0.0006394977958682288,0.001090830782496456,0.003911990143357597
1589996809.5613258,-3.781264519535375,-0.9187354804646252,8.96252903907075,0.32,-0.2966666666666667,-0.6,0.003949510079709317,0.0029966169806383636,0.0024575369318439164
1589996809.5713258,-3.7983443506722714,-0.9138852164425761,8.91108173154061,0.32,-0.2966666666666667,-0.6,0.0036963037167117097,0.005940570000585824,0.002848680978267026
1589996809.5813258,-3.7956621780096245,-0.9171689109951878,8.908675643980752,0.32,-0.2966666666666667,-0.6,0.001708478589383729,0.006853808598422372,0.004836506105595007
1589996809.5913258,-3.7837980120695773,-0.9137980120695776,8.938605963791266,0.32,-0.2966666666666667,-0.6,0.00041429884777882784,0.0072215166296963635,0.006807217781917536
1589996809.6013258,-3.772550221190804,-0.8951004423816086,8.935100442381609,0.3340718044173697,-0.2966666666666667,-0.606622025608174,0.0008126448047860499,0.010073749891833341,0.008448460282261242
1589996809.6113257,-3.776424128666593,-0.8771517426668138,8.910727614000221,0.3388888888888889,-0.2966666666666667,-0.6088888888888889,-0.0038145153276698783,0.01441212647508337,0.006624355069900362
1589996809.6213257,-3.7883880463539144,-0.8951641390617431,8.816119536460857,0.3388888888888889,-0.2966666666666667,-0.6088888888888889,-0.006544984694978735,0.01910744348780393,0.004539159995696584
1589996809.6313257,-3.8170431344356577,-0.9270431344356579,8.908172537742631,0.3388888888888889,-0.2966666666666667,-0.6088888888888889,-0.005561668578391887,0.01668500573517566,0.0033800070133989755
1589996809.6413257,-3.8003238613706896,-0.9168825742471264,8.93967613862931,0.3388888888888889,-0.2966666666666667,-0.6088888888888889,-0.003307820142730329,0.010638905018108304,0.0018416031676547337
1589996809.6513257,-3.8154891555145363,-0.9150978311029073,8.965293493308721,0.33265820642978006,-0.2994987950571707,-0.5947282469363688,0.002267035307822353,0.00485537993196565,0.0027590921098021807
1589996809.6613257,-3.8319859831177885,-0.9280140168822117,8.988014016882213,0.32666666666666666,-0.3022222222222222,-0.5811111111111111,0.007419178325635018,-0.00044091932697593516,0.0104826785445798
1589996809.6713257,-3.83,-0.9140704441703987,8.902387442937194,0.32666666666666666,-0.3022222222222222,-0.5811111111111111,0.006766992984953945,-0.00022200828997520953,0.020687363532673482
1589996809.6813257,-3.7807017853986213,-0.9182163691002299,8.90464910730069,0.32666666666666666,-0.3022222222222222,-0.5811111111111111,0.00475245102800206,0.002688800500465014,0.030973847933820617
1589996809.6913257,-3.7570238095238095,-0.8940476190476191,8.935952380952381,0.32666666666666666,-0.3022222222222222,-0.5811111111111111,0.00011687472669604827,0.008934423551875733,0.03272492347489368
1589996809.7013257,-3.7682316205533595,-0.8617683794466403,8.95607720685112,0.33071813790074656,-0.3062736934563021,-0.5898892987849509,-0.004170422856432893,0.015976661190340975,0.028084480461533723
1589996809.7113256,-3.81968435565725,-0.8817474845258001,8.9441262577371,0.3333333333333333,-0.3088888888888889,-0.5955555555555555,-0.007185710581860913,0.015946788298371803,0.014699767981146687
1589996809.7213256,-3.856693684049549,-0.8953387368099098,8.891951368710812,0.3333333333333333,-0.3088888888888889,-0.5955555555555555,-0.005888717941906239,0.00828324081267457,0.010834406917081714
1589996809.7313256,-3.863077320538845,-0.9,8.845769330134711,0.3333333333333333,-0.3088888888888889,-0.5955555555555555,-0.0025173451621309613,-0.004279261322499107,0.011663455010322966
1589996809.7413256,-3.81304035084124,-0.8892161403364961,8.888527368485768,0.3333333333333333,-0.3088888888888889,-0.5955555555555555,0.0023526732150143865,-0.01485447430121826,0.017709809994975505
1589996809.7513256,-3.783673754714527,-0.8926524905709455,8.955304981141891,0.31997792661955754,-0.3046713920319071,-0.5955555555555555,0.006433582058490851,-0.011531857570935108,0.02417621641494104
1589996809.7613256,-3.7661580504550893,-0.8861580504550896,8.976920974772456,0.31222222222222223,-0.3022222222222222,-0.5955555555555555,0.005370931779472522,-0.0004220727006285282,0.0269349000125825
1589996809.7713256,-3.76,-0.8955412823891085,8.917834870443567,0.31222222222222223,-0.3022222222222222,-0.5955555555555555,-0.0007225496388670533,0.009206010577817725,0.023032542255034
1589996809.7813256,-3.7775888430468396,-0.8941370523177201,8.935177686093681,0.31222222222222223,-0.3022222222222222,-0.5955555555555555,-0.0034607583265923517,0.01346650134816344,0.01861887374593052
1589996809.7913256,-3.7947735734467005,-0.8756792796598981,8.955226426553299,0.31222222222222223,-0.3022222222222222,-0.5955555555555555,-0.0038426070441689476,0.01423019878331663,0.012717449136728703
1589996809.8013256,-3.8236776841835205,-0.86,8.954735536836704,0.3159054175396588,-0.3022222222222222,-0.5887153356803162,-0.0027559254121770895,0.008957433907459246,0.009759780130596203
1589996809.8113256,-3.8221021262886596,-0.8809234052835052,8.897229784149484,0.32,-0.3022222222222222,-0.5811111111111111,-0.004464051020782553,0.0013201371889329694,0.012429900795490986
1589996809.8213255,-3.8019254221388366,-0.8819254221388367,8.79732879924953,0.32,-0.3022222222222222,-0.5811111111111111,-0.00545415391248228,-0.002642399425986373,0.020136367859254465
1589996809.8313255,-3.7843698452414047,-0.8956301547585952,8.84252061903438,0.32,-0.3022222222222222,-0.5811111111111111,-0.00545415391248228,0.005252434625440145,0.02437409374180797
1589996809.8413255,-3.78,-0.8936355806123248,8.87272883877535,0.32,-0.3022222222222222,-0.5811111111111111,-0.006842654828640951,0.014578320058268545,0.02717185937165649
1589996809.8513255,-3.7959768936286573,-0.8740231063713426,8.959884468143287,0.3040231063713426,-0.2977841962142619,-0.592649978731808,-0.00850721984641574,0.025515358253964136,0.025747387238086207
1589996809.8613255,-3.807775645310849,-0.893326935932547,9.011102581243396,0.3,-0.2966666666666667,-0.5955555555555555,-0.008726646259971648,0.03066353486595072,0.02339272534564883
1589996809.8713255,-3.842243857681721,-0.8758171067387094,8.947451320216128,0.3,-0.2966666666666667,-0.5955555555555555,-0.011364590697895843,0.030754777879755824,0.024666076057708368
1589996809.8813255,-3.826738330209345,-0.8855077798604367,8.953261669790656,0.3,-0.2966666666666667,-0.5955555555555555,-0.012844956789458165,0.02969744372790362,0.03354728981738998
1589996809.8913255,-3.8156377046721834,-0.89,8.964362295327817,0.3,-0.2966666666666667,-0.5955555555555555,-0.012138264184772967,0.028024873319627556,0.038376678835344305
1589996809.9013255,-3.81,-0.889765968399794,8.969531936799589,0.30015602106680395,-0.2966666666666667,-0.5955555555555555,-0.010959365599680863,0.026205467667273094,0.041400511960149024
1589996809.9113255,-3.8203259538107615,-0.8954889307161423,8.95,0.30666666666666664,-0.2966666666666667,-0.5955555555555555,-0.014216356217499001,0.026707576148640635,0.04095948841118471
1589996809.9213254,-3.8137854684351913,-0.8937854684351915,8.86352249832102,0.30666666666666664,-0.2966666666666667,-0.5955555555555555,-0.015861207960105504,0.02617993877991494,0.04254240051736178
1589996809.9313254,-3.8237648174490277,-0.88,8.813764817449027,0.30666666666666664,-0.2966666666666667,-0.5955555555555555,-0.015930405163883363,0.027476108500605376,0.042974457090925254
1589996809.9413254,-3.853023398448281,-0.8695350976724218,8.856976601551718,0.30666666666666664,-0.2966666666666667,-0.5955555555555555,-0.016793689300915876,0.028310887367930193,0.044394260472840986
1589996809.9513254,-3.8182189360314687,-0.8412875744125875,8.900493489555943,0.3182832341165499,-0.30199092674786315,-0.5945875082680653,-0.01963495408493621,0.0228536150725792,0.04866602747113893
1589996809.9613254,-3.763961061337009,-0.8430194693314955,8.94,0.3333333333333333,-0.3088888888888889,-0.5933333333333334,-0.026025871148289952,0.021384530886152525,0.053069979455758066
1589996809.9713254,-3.7651314612770523,-0.887828653192631,8.909737077445895,0.3333333333333333,-0.3088888888888889,-0.5933333333333334,-0.03688006981272717,0.034461551054038905,0.04767365603151968
1589996809.9813254,-3.8041031385210076,-0.9136412554084031,8.934103138521007,0.3333333333333333,-0.3088888888888889,-0.5933333333333334,-0.042989983497717994,0.041155137649652423,0.034654666881314404
1589996809.9913254,-3.890638588300461,-0.92,9.009771113177313,0.3333333333333333,-0.3088888888888889,-0.5933333333333334,-0.04472406208235469,0.03780056996042413,0.027081515848935485
1589996810.0013254,-4.005406017877376,-0.8804242729447312,9.099575727055269,0.3166235819099976,-0.31328619189502993,-0.5950922545357897,-0.03781679467250428,0.017410994158995427,0.03717682596465669
1589996810.0113254,-4.02,-0.87,9.11,0.31222222222222223,-0.3144444444444445,-0.5955555555555555,-0.035997415822383035,0.01308996938995747,0.04036073895236887
1589996810.0213253,-3.6861957157580987,-0.838948438675172,8.807247277082928,0.31222222222222223,-0.3144444444444445,-0.5955555555555555,0.03682738189366939,-0.04279882885724556,0.015803539722537237
1589996810.0313253,-3.59,-0.8767696429978722,8.786813775711247,0.31222222222222223,-0.3144444444444445,-0.5955555555555555,0.04469517728899676,-0.07566784260015608,-0.05468114895938614
1589996810.0413253,-3.6069206741573034,-0.8379575280898877,8.757957528089888,0.31222222222222223,-0.3144444444444445,-0.5955555555555555,0.04002483661051384,-0.061844859574572544,-0.11140100786677104
1589996810.0513253,-3.6063798676777137,-0.8104301984834295,8.73043019848343,0.3175189403475558,-0.31066107435492046,-0.5857187933227932,0.025851447156099206,-0.014266679904763699,-0.14947126839810582
1589996810.0613253,-3.758997812320092,-0.8416815198618307,8.732772826712724,0.32,-0.3088888888888889,-0.5811111111111111,-0.003530021355713977,0.05045518779006567,-0.16763081117262343
1589996810.0713253,-3.991676267391346,-0.8900577957246474,8.833005760434808,0.32,-0.3088888888888889,-0.5811111111111111,-0.03197457936421544,0.09852786616760767,-0.1712604328519436
1589996810.0813253,-4.140976445396146,-0.9409764453961457,8.986913633119201,0.32,-0.3088888888888889,-0.5811111111111111,-0.04919389888189477,0.10702505974550953,-0.1632518195310285
1589996810.0913253,-4.142274616079494,-0.9700722673893406,9.126028906955737,0.32,-0.3088888888888889,-0.5811111111111111,-0.045220306329929405,0.06882482023799907,-0.13492443576771251
1589996810.1013253,-3.6211377099732207,-1.0823561632719305,9.134056236306094,0.3168815989973582,-0.3062159737437673,-0.5833385403987125,-0.009375010300091365,0.011124429171671132,-0.04791987406261713
1589996810.1113253,-2.9064046511627906,-1.180086046511628,8.996781395348837,0.31222222222222223,-0.3022222222222222,-0.5866666666666667,0.004518322573731253,0.04760791425338253,0.012637908819164751
1589996810.1213253,-2.8033874145522453,-0.9959675512686529,8.682795148109442,0.31222222222222223,-0.3022222222222222,-0.5866666666666667,0.013136877599179253,0.09636261846635467,-0.006398504000205706
1589996810.1313252,-2.751671773546363,-0.9765506675421317,8.704878893995769,0.31222222222222223,-0.3022222222222222,-0.5866666666666667,-0.0117788157781518,0.06658607927612376,-0.07788628877092155
1589996810.1413252,-2.051898383456577,-1.0051081671223325,8.948918328776674,0.31222222222222223,-0.3022222222222222,-0.5866666666666667,-0.044629668460999194,0.02868283088543678,-0.15375079638710723
1589996810.1513252,-1.642958528544161,-1.0305917057088323,9.006118341141766,0.3285377986002661,-0.3022222222222222,-0.5832675882545743,-0.040411087900511164,0.09733435941057654,-0.2008561502716175
1589996810.1613252,-1.7882320361226611,-1.0285635395010395,8.918895042879418,0.3388888888888889,-0.3022222222222222,-0.5811111111111111,-0.010938445285350255,0.07980543021848166,-0.22265001175332397
1589996810.1713252,-1.9015547230398715,-0.9435563286058336,8.926887877976986,0.3388888888888889,-0.3022222222222222,-0.5811111111111111,0.0036846553297973685,0.024919514022403652,-0.248539532534048
1589996810.1813252,-1.9760314045141403,-0.8920628090282806,8.955717359372738,0.3388888888888889,-0.3022222222222222,-0.5811111111111111,0.005055504311290648,0.018769140861085762,-0.29862601284577167
1589996810.1913252,-2.026519655712761,-0.9155065519042537,8.945844253173757,0.3388888888888889,-0.3022222222222222,-0.5811111111111111,0.015455818424981067,0.02865630029695695,-0.3556619666255384
1589996810.2013252,-2.0741760106673133,-0.9383520213346264,8.953295957330747,0.342136897185688,-0.29990221629593716,-0.5834311170373963,0.019814720670644905,0.03891037499845501,-0.4179453449643404
1589996810.2113252,-2.100080222909458,-0.9580320891637834,8.934016044581892,0.3466666666666667,-0.2966666666666667,-0.5866666666666667,0.01679179328091753,0.03969923971334311,-0.49034361731302734
1589996810.2213252,-2.1346255188221446,-0.9746255188221447,8.875242736489975,0.3466666666666667,-0.2966666666666667,-0.5866666666666667,0.01619906349893879,0.043647602415955306,-0.5725129190333627
1589996810.2313251,-2.1552178797657464,-0.98,8.807608939882874,0.3466666666666667,-0.2966666666666667,-0.5866666666666667,0.020619139764040513,0.050854043485013274,-0.6431879610079154
1589996810.2413251,-2.224455067329649,-0.9834196205638192,8.837098102819095,0.3466666666666667,-0.2966666666666667,-0.5866666666666667,0.025117345427563564,0.05353542063276157,-0.7169804996861062
1589996810.2513251,-2.3182768898327186,-1.0024153347490778,8.894830669498155,0.33838977683394805,-0.293447876176165,-0.5843675306020226,0.02952794111562675,0.0627042989011635,-0.8022538784863782
1589996810.2613251,-2.3610679995258606,-1.0303559998419536,8.91446600023707,0.32666666666666666,-0.2888888888888889,-0.5811111111111111,0.03385458781600681,0.06936483858506662,-0.890386262286195
1589996810.271325,-2.387057540315138,-1.048827379054587,8.867632943466514,0.32666666666666666,-0.2888888888888889,-0.5811111111111111,0.034585612479836325,0.07231580420481634,-0.9499952168855563
1589996810.281325,-2.380019297568506,-1.069942107294481,8.79021227325357,0.32666666666666666,-0.2888888888888889,-0.5811111111111111,0.03381785929556554,0.07308355738908714,-1.004505692968782
1589996810.291325,-2.4109402098631905,-1.1482051573973928,8.912735052465798,0.32666666666666666,-0.2888888888888889,-0.5811111111111111,0.03302327141703717,0.08003155605046226,-1.0977301252301122
1589996810.301325,-2.444698624855417,-1.173132416570278,8.926264833140555,0.3318873609504634,-0.28471233346185154,-0.5819812268250772,0.034840835182928506,0.0853607448196116,-1.1609064379682217
1589996810.311325,-2.481846699787083,-1.2097444996451383,8.912613200851668,0.36,-0.26222222222222225,-0.5866666666666667,0.04122225527228516,0.09358213283211506,-1.2401694649786246
1589996810.321325,-2.4969356162777063,-1.2522575348891756,8.821613697666237,0.36,-0.26222222222222225,-0.5866666666666667,0.042876672926727706,0.09690791253338721,-1.29784147682907
1589996810.331325,-2.510349286963541,-1.2962794295708329,8.792209572178125,0.36,-0.26222222222222225,-0.5866666666666667,0.04540904158959298,0.10189121534460409,-1.364363443664759
1589996810.341325,-2.5367437666041095,-1.3265124667917816,8.81,0.36,-0.26222222222222225,-0.5866666666666667,0.04852935437332864,0.10413649338512061,-1.406411831417198
1589996810.351325,-2.5319731966890027,-1.3779597950335043,8.823968729470504,0.3650996948860567,-0.26222222222222225,-0.585779763208222,0.05235744107010417,0.11279092831424326,-1.4643059029300949
1589996810.361325,-2.5923626314467216,-1.4706043857445357,8.884120877148908,0.3855555555555555,-0.26222222222222225,-0.5822222222222222,0.05582416476083287,0.1154362680911107,-1.5321857011996656
1589996810.371325,-2.615899513028226,-1.5235980521129036,8.825105356689514,0.3855555555555555,-0.26222222222222225,-0.5822222222222222,0.055185076166115565,0.1186495048509991,-1.5932105089580924
1589996810.381325,-2.6119694402923104,-1.5801527985384487,8.804091679123069,0.3855555555555555,-0.26222222222222225,-0.5822222222222222,0.05431837264784569,0.12174338242057489,-1.6321726880313794
1589996810.391325,-2.5954388267078348,-1.6369592178052232,8.84912234658433,0.3855555555555555,-0.26222222222222225,-0.5822222222222222,0.05285742438296933,0.12435470920459595,-1.6672101064835583
1589996810.401325,-2.591340879407923,-1.6484545058772313,8.9,0.3950403908479659,-0.24799496928360665,-0.58933584869153,0.057184322452899755,0.1266826380229667,-1.721578869280262
1589996810.411325,-2.63,-1.7104535733925335,8.889546426607467,0.4122222222222222,-0.2222222222222222,-0.6022222222222222,0.058855385072938936,0.13032953991739163,-1.771358426447272
1589996810.421325,-2.634919326971638,-1.7544352888014674,8.835726057255256,0.4122222222222222,-0.2222222222222222,-0.6022222222222222,0.05620418548536377,0.12766240180114707,-1.8083158353866304
1589996810.431325,-2.6356091321741806,-1.8075634713032775,8.78560913217418,0.4122222222222222,-0.2222222222222222,-0.6022222222222222,0.05693638601796132,0.1292772950161141,-1.83802496436476
1589996810.441325,-2.632302039051805,-1.8392081562072196,8.77539592189639,0.4122222222222222,-0.2222222222222222,-0.6022222222222222,0.062255714591501025,0.13618109429523825,-1.858343769581914
1589996810.451325,-2.6398571582967074,-1.869428633186829,8.760285683406586,0.4122222222222222,-0.2222222222222222,-0.6022222222222222,0.06967293556549482,0.14277417960545497,-1.8748264828574563
1589996810.461325,-2.6427961256963917,-1.9439806284819574,8.82,0.4577777777777778,-0.21666666666666667,-0.5822222222222222,0.061391533817936855,0.14010715094577217,-1.8951606968264783
1589996810.471325,-2.648292902066487,-1.9842677448337824,8.815732255166218,0.4577777777777778,-0.21666666666666667,-0.5822222222222222,0.06264289334595101,0.13862861712578053,-1.9058009469723098
1589996810.481325,-2.6206696209692626,-2.0455506317178953,8.779330379030737,0.4577777777777778,-0.21666666666666667,-0.5822222222222222,0.06695298420417443,0.13928707800424345,-1.9211461814983863
1589996810.491325,-2.595886783839306,-2.0923396484820818,8.80548428821426,0.4577777777777778,-0.21666666666666667,-0.5822222222222222,0.06574896846999714,0.13943287393767928,-1.9273045264493707
1589996810.501325,-2.5681561670624387,-2.1792191646878054,8.847375331750245,0.4626946656112741,-0.20355496577734322,-0.5832465738542005,0.06843603240520929,0.14427597018159963,-1.9343600633919706
1589996810.511325,-2.550854457608048,-2.2337183135879277,8.877713614402012,0.4844444444444445,-0.14555555555555555,-0.5877777777777777,0.07099720772838934,0.14146538887932536,-1.94208439793576
1589996810.5213249,-2.52,-2.28,8.816727021489493,0.4844444444444445,-0.14555555555555555,-0.5877777777777777,0.06811577355506805,0.14350539824924438,-1.950522802038188
1589996810.5313249,-2.4928786295711336,-2.325202284048111,8.75,0.4844444444444445,-0.14555555555555555,-0.5877777777777777,0.06970850015485328,0.14339191293582398,-1.9582203252351666
1589996810.5413249,-2.448519695295232,-2.3914803047047677,8.753826768234923,0.4844444444444445,-0.14555555555555555,-0.5877777777777777,0.07215630783870962,0.14524197026597213,-1.9661614986404439
1589996810.5513248,-2.43,-2.4296136865342164,8.771768211920529,0.49490507726269317,-0.13509492273730683,-0.6052121658081923,0.07374858894916382,0.14726215563702155,-1.976501097359544
1589996810.5613248,-2.3961413827544114,-2.5277172344911776,8.784356897125734,0.5111111111111111,-0.11888888888888888,-0.6322222222222222,0.07247009539485831,0.14726215563702155,-1.9923638680646203
1589996810.5713248,-2.3384324451780243,-2.6010450365479842,8.737909926904031,0.5111111111111111,-0.11888888888888888,-0.6322222222222222,0.07256874598689868,0.14783606997915416,-2.0092493681322585
1589996810.5813248,-2.2992041214696943,-2.6523876355909173,8.732387635590916,0.5111111111111111,-0.11888888888888888,-0.6322222222222222,0.07426331008975756,0.14953063408201303,-2.029813424243394
1589996810.5913248,-2.2805829614522546,-2.703542596369364,8.77883407709549,0.5111111111111111,-0.11888888888888888,-0.6322222222222222,0.07475370421586364,0.1515618875372946,-2.0526940576781687
1589996810.6013248,-2.254549078128375,-2.7639920281175754,8.8123607374973,0.524845263885889,-0.10446802847537202,-0.636685821874025,0.07518775368149,0.15372757002123483,-2.075888590252453
1589996810.6113248,-2.214344703394267,-2.84,8.834344703394267,0.5555555555555556,-0.07222222222222223,-0.6466666666666666,0.07744898555724837,0.1564514747686193,-2.099649989020327
1589996810.6213248,-2.179242907300537,-2.840757092699463,8.794321804754027,0.5555555555555556,-0.07222222222222223,-0.6466666666666666,0.07749027855833726,0.15934388024666032,-2.1261358613346744
1589996810.6313248,-2.162767889908257,-2.879375229357798,8.663839449541284,0.5555555555555556,-0.07222222222222223,-0.6466666666666666,0.07763402648539847,0.16144295580947549,-2.165328425587508
1589996810.6413248,-2.16918119266055,-2.9242683486238534,8.695905963302751,0.5555555555555556,-0.07222222222222223,-0.6466666666666666,0.07553527806749714,0.16144295580947549,-2.185616326960554
1589996810.6513247,-2.1217791688177594,-3.024662493546722,8.728772909137842,0.5555555555555556,-0.046189590145127066,-0.6494069437274135,0.07725490834588139,0.16413321652286392,-2.2260442848924886
1589996810.6613247,-2.0665031787197905,-3.0708742053200524,8.791748410640105,0.5555555555555556,-0.008888888888888889,-0.6533333333333333,0.07853981633974483,0.1679879405044542,-2.2510514313415233
1589996810.6713247,-2.0066331977630907,-3.1220602440264362,8.749246314184036,0.5555555555555556,-0.008888888888888889,-0.6533333333333333,0.07904960088311537,0.16900750959119532,-2.265666487918222
1589996810.6813247,-1.9536538310720728,-3.1656089718453453,8.697564112618618,0.5555555555555556,-0.008888888888888889,-0.6533333333333333,0.07963064712224129,0.16921162833386597,-2.2796510370508067
1589996810.6913247,-1.9160597376620379,-3.195462361041659,8.743641574027773,0.5555555555555556,-0.008888888888888889,-0.6533333333333333,0.07920083117730524,0.1705668361740705,-2.289390031727124
1589996810.7013247,-1.8894269943487974,-3.256857668550401,8.773142331449598,0.5601273345891561,0.015493932623647436,-0.660952965056001,0.07741773294710456,0.17453292519943295,-2.2947651911851406
1589996810.7113247,-1.8126425823146857,-3.2650190109752915,8.720152087802331,0.5688888888888889,0.06222222222222223,-0.6755555555555556,0.07608233641556984,0.17507626681497587,-2.2940254306928685
1589996810.7213247,-1.7412356566447615,-3.2554980875526347,8.643984700421079,0.5688888888888889,0.06222222222222223,-0.6755555555555556,0.07764019386765363,0.17611483844969839,-2.2898711441539783
1589996810.7313247,-1.691130352093291,-3.2899134155801906,8.63991341558019,0.5688888888888889,0.06222222222222223,-0.6755555555555556,0.07708852359476331,0.17671458676442586,-2.2797319229218336
1589996810.7413247,-1.6541189274388757,-3.358486480400803,8.697394592160322,0.5688888888888889,0.06222222222222223,-0.6755555555555556,0.07446069911700694,0.17711789920205012,-2.2635658593731365
1589996810.7513247,-1.6014558062470596,-3.386582322498824,8.71854419375294,0.567939534027451,0.07342460958718859,-0.6778340072230064,0.07215363547153042,0.17761901215577588,-2.2488374580322525
1589996810.7613246,-1.5603569078114716,-3.3707138156229433,8.759286184377057,0.5633333333333334,0.12777777777777774,-0.6888888888888889,0.06763150851478028,0.1764809911480658,-2.229736702534359
1589996810.7713246,-1.5650093404597583,-3.3939925276321934,8.733013076643662,0.5633333333333334,0.12777777777777774,-0.6888888888888889,0.06741374991272206,0.17027848137047624,-2.199556488033588
1589996810.7813246,-1.5056446821152702,-3.4286949711013883,8.668694971101388,0.5633333333333334,0.12777777777777774,-0.6888888888888889,0.06587691665818331,0.17083336314354763,-2.1703244787093383
1589996810.7913246,-1.4225727866904336,-3.4211429806082214,8.661142980608222,0.5633333333333334,0.12777777777777774,-0.6888888888888889,0.06834829976790345,0.1683619800338275,-2.148905825091764
1589996810.8013246,-1.380733795758521,-3.4069927981148984,8.763740997643623,0.5680303784585089,0.14837251409585547,-0.7029800242644157,0.062204036169013335,0.1647421297236802,-2.1081066038555667
1589996810.8113246,-1.2552127595786782,-3.315212759578678,8.69976595447005,0.5777777777777777,0.19111111111111112,-0.7322222222222222,0.061409131360596614,0.1630049326997358,-2.0745094881138604
1589996810.8213246,-1.1802816294456133,-3.2882625668584753,8.550329285913458,0.5777777777777777,0.19111111111111112,-0.7322222222222222,0.06700669134929345,0.1482967429200225,-2.0464344674844153
1589996810.8313246,-1.2159768538148803,-3.4399421345372008,8.511751178509964,0.5777777777777777,0.19111111111111112,-0.7322222222222222,0.055441345964887714,0.1520138387946769,-1.9995275411014393
1589996810.8413246,-1.2198205525432482,-3.5172966692486445,8.778648334624322,0.5777777777777777,0.19111111111111112,-0.7322222222222222,0.022553834749641094,0.18199256854820905,-1.9556338504723367
1589996810.8513246,-1.1724410986315517,-3.5579076297443843,8.798953814872192,0.5777777777777777,0.19111111111111112,-0.7322222222222222,0.011478913295765981,0.1354778984419336,-1.9371756480492113
1589996810.8613245,-1.113594802503089,-3.5039870062577223,8.733594802503088,0.6044444444444445,0.18222222222222226,-0.7744444444444445,0.03674959297321364,0.15567153966175556,-1.8749278098583118
1589996810.8713245,-1.0679241871530532,-3.4413176843774784,8.693206978588421,0.6044444444444445,0.18222222222222226,-0.7744444444444445,0.0281765137832719,0.14818824588484822,-1.8311143646613117
1589996810.8813245,-1.1149578377418783,-3.6483192792472927,9.100207926504527,0.6044444444444445,0.18222222222222226,-0.7744444444444445,0.027619049193570618,0.1538071403320003,-1.7730034914547228
1589996810.8913245,-1.0423292820448564,-3.5327527878711944,8.794524495677233,0.6044444444444445,0.18222222222222226,-0.7744444444444445,0.08449366669888882,0.08476046305115459,-1.7281300447299506
1589996810.9013245,-0.8337837260625044,-3.302162027479177,7.6413490425001775,0.6067417321215285,0.18554052664467702,-0.7782732572395846,0.14104161680302882,0.013104413365578216,-1.6738062568865069
1589996810.9113245,-0.8969925934774817,-3.4439851869549636,9.49,0.6144444444444445,0.19666666666666666,-0.7911111111111111,-0.03546196919888789,0.24007838761770162,-1.560929559734094
1589996810.9213245,-0.8900147868761117,-3.5376900327882903,9.013217967125989,0.6144444444444445,0.19666666666666666,-0.7911111111111111,-0.09811766094604403,0.13973183957710217,-1.5124002602021978
1589996810.9313245,-0.8170294266195274,-3.5956912730269277,8.415191525558892,0.6144444444444445,0.19666666666666666,-0.7911111111111111,0.0400046002014552,0.0758160595176007,-1.446723872483754
1589996810.9413245,-0.8510897872510917,-3.711634680876638,8.758664609960336,0.6144444444444445,0.19666666666666666,-0.7911111111111111,0.015001228693188871,0.12934843191816803,-1.3688411071192772
1589996810.9513245,-0.8589464059227797,-3.7502386219508597,8.705785623691119,0.5990744837395576,0.16655409059178636,-0.7870333664343043,0.0052979762108559415,0.06339392548738113,-1.32858424182891
1589996810.9613245,-0.7681017475903072,-3.731728673092514,8.580372038555085,0.56,0.09,-0.7766666666666666,0.029959056729319103,0.0964812362276776,-1.249637359197834
1589996810.9713244,-0.7360711002145265,-3.7637496169169475,8.735353968740423,0.56,0.09,-0.7766666666666666,0.022771217948249264,0.08777293168812657,-1.1994070573546627
1589996810.9813244,-0.6975087342935948,-3.7187601900091938,8.36258443150475,0.56,0.09,-0.7766666666666666,0.03749397347560486,0.08917509888120806,-1.1587442087552997
1589996810.9913244,-0.7362839743802475,-3.8349547008263367,8.889033119835396,0.56,0.09,-0.7766666666666666,0.02072578486743266,0.08237254819839854,-1.0897992481936238
1589996811.0013244,-0.7154050376663459,-3.862793283111539,8.715041980552883,0.56,0.09,-0.7766666666666666,0.02072578486743266,0.07326239344907079,-1.0533586291963128
1589996811.0113244,-0.7065002918306252,-3.899125072957656,8.885002918306252,0.5022222222222222,0.18222222222222226,-0.6166666666666667,0.029070672187313486,0.06971773034475047,-0.9750259290979741
1589996811.0213244,-0.6749125449513302,-3.8912281362378325,8.569125449513301,0.5022222222222222,0.18222222222222226,-0.6166666666666667,0.025624983522749337,0.06885630817860944,-0.9242020212956532
1589996811.0313244,-0.6787149447929086,-3.95,8.732266341817429,0.5022222222222222,0.18222222222222226,-0.6166666666666667,0.02582822204842731,0.05837728715757717,-0.839381535985854
1589996811.0413244,-0.62,-3.958690052379765,8.670415183329176,0.5022222222222222,0.18222222222222226,-0.6166666666666667,0.02399827721492203,0.05397347899578233,-0.7707051296095498
1589996811.0513244,-0.5701122751531923,-3.9357104170784742,8.913523028266455,0.4996137137335003,0.19510173288528698,-0.6114496496892228,0.024958613672538696,0.04831666658238295,-0.7072029538488847
1589996811.0613244,-0.2882261316465705,-3.628951966791856,9.667983000593003,0.48487456897498415,0.2678762601304606,-0.5819713601721904,0.030384909246001696,0.05012543177353728,-0.6475137025407918
1589996811.0713243,-0.41985720046492875,-3.542339350523045,8.291251512204378,0.4844444444444445,0.27,-0.5811111111111111,0.11661948029954407,0.14537645731633433,-0.5391645326415534
1589996811.0813243,-0.4825264351383993,-3.6125264351383994,9.642620837544058,0.4844444444444445,0.27,-0.5811111111111111,-0.00266611077844639,-0.01813259151971586,-0.5312461255808563
1589996811.0913243,-0.47031962407129096,-3.5584988252227845,8.800256757614886,0.4844444444444445,0.27,-0.5811111111111111,-0.08783488696318827,-0.08907203772258457,-0.5052569880947503
1589996811.1013243,-0.4210737432124715,-3.4309055876685934,8.436878028843346,0.48711034558818767,0.2771774261562316,-0.5811111111111111,0.0642602318767758,0.036352555218844784,-0.4045335798219933
1589996811.1113243,-0.45416263507709,-3.6556553782158523,9.009636026585884,0.4988888888888889,0.3088888888888889,-0.5811111111111111,0.011756898910023236,0.010094142741903553,-0.3338432197777044
1589996811.1213243,-0.40752040888762686,-3.5412806133314403,8.629363952580393,0.4988888888888889,0.3088888888888889,-0.5811111111111111,-0.01866693565574702,0.03546535801685077,-0.2744098005030843
1589996811.1313243,-0.3628590189536452,-3.474288528430468,8.19763718321857,0.4988888888888889,0.3088888888888889,-0.5811111111111111,0.051162224809245545,0.006234546659412019,-0.22975161648477505
1589996811.1413243,-0.49647043714180217,-3.8905886885745935,8.984703087123341,0.4988888888888889,0.3088888888888889,-0.5811111111111111,-0.011678058798225772,0.008469922507400683,-0.16182755110647162
1589996811.1513243,-0.4830036441861585,-3.930989067441524,8.735567417443932,0.4988888888888889,0.3088888888888889,-0.5811111111111111,0.010356929648058052,0.00332842520326779,-0.1258370699775414
1589996811.1613243,-0.4566706971005552,-3.93,8.815528685996298,0.4922222222222222,0.3555555555555556,-0.5811111111111111,0.02181661564992912,-0.0003644895651026404,-0.05441432712536373
1589996811.1713243,-0.484609910268311,-3.9392198205366222,8.639255403792601,0.4922222222222222,0.3555555555555556,-0.5811111111111111,0.02181661564992912,-0.005705585513743287,-0.00806910042692987
1589996811.1813242,-0.5,-3.9762118623382965,8.58615084207957,0.4922222222222222,0.3555555555555556,-0.5811111111111111,0.021681093836824237,-0.0069515501342933776,0.03704830893893504
1589996811.1913242,-0.5,-4.012774329648872,8.681213257087066,0.4922222222222222,0.3555555555555556,-0.5811111111111111,0.02088342454029631,-0.00934455802387716,0.07533643517227555
1589996811.2013242,-0.5097607364943646,-3.97263189856199,8.652392635056355,0.4919563738826273,0.3561935915705835,-0.5812440352809086,0.007531417078645129,-0.012181835805413625,0.13104089670855068
1589996811.2113242,-0.5015908885474103,-4.08,8.74946970381753,0.4811111111111111,0.38222222222222224,-0.5866666666666667,0.003272492347489368,-0.01963495408493621,0.22580197197676635
1589996811.2213242,-0.53,-4.087035128805621,8.690754098360657,0.4811111111111111,0.38222222222222224,-0.5866666666666667,0.00224927433948957,-0.020913976594935955,0.2357783475547644
1589996811.2313242,-0.5356185959653046,-4.1043814040346955,8.548728653217681,0.4811111111111111,0.38222222222222224,-0.5866666666666667,-0.001295128696941943,-0.02611059756964592,0.2840753119064307
1589996811.2413242,-0.56,-4.091962998650993,8.628291000192716,0.4811111111111111,0.38222222222222224,-0.5866666666666667,-0.002181661564992912,-0.03147537670843406,0.360168107054035
1589996811.2513242,-0.56,-4.148544420890345,8.620207939872808,0.4811111111111111,0.38222222222222224,-0.5866666666666667,-0.002181661564992912,-0.03588400221529943,0.3972005613117041
1589996811.2613242,-0.5837657198735587,-4.177531439747118,8.765062879494234,0.5133333333333333,0.3888888888888889,-0.6,-0.0017282919204177128,-0.037499022920513166,0.4500323071713013
1589996811.2713242,-0.5582924133954741,-4.143660692836208,8.664877240186422,0.5133333333333333,0.3888888888888889,-0.6,-0.0013038816223969072,-0.036024197859083944,0.4981651174848888
1589996811.2813241,-0.5549791000737645,-4.1934029997541185,8.64,0.5133333333333333,0.3888888888888889,-0.6,-0.007816860665128279,-0.04289993123609003,0.5475605755605975
1589996811.2913241,-0.5813490052142503,-4.11,8.645396020857001,0.5133333333333333,0.3888888888888889,-0.6,-0.009094530363334772,-0.050031062353491716,0.5945412410433473
1589996811.3013241,-0.5935669550525794,-4.11,8.69426782021032,0.5133333333333333,0.3888888888888889,-0.6,-0.012426459308996518,-0.04869829077522702,0.624528601554303
1589996811.3113241,-0.5653314712172129,-4.101332867804303,8.69399860341291,0.549927891492942,0.3917779329541212,-0.596147941246357,-0.01512623763195714,-0.052723741727360114,0.6762442927865419
1589996811.321324,-0.5782455353502405,-4.000994047133655,8.743586805838701,0.5555555555555556,0.3922222222222223,-0.5955555555555555,-0.023107323849719023,-0.05464147783346952,0.7193741692336331
1589996811.331324,-0.6552020304982468,-4.103602707330996,8.683731754056918,0.5555555555555556,0.3922222222222223,-0.5955555555555555,-0.02497280193461867,-0.05557421687591934,0.7445581233797783
1589996811.341324,-0.6504323075051697,-4.0143230750516965,8.593890767546528,0.5555555555555556,0.3922222222222223,-0.5955555555555555,-0.02195808795017212,-0.057719716605483494,0.7607396821147256
1589996811.351324,-0.6216488635828902,-4.057251894028516,8.67505340925133,0.5555555555555556,0.3922222222222223,-0.5955555555555555,-0.02490924488218308,-0.06090666070456613,0.763461639004029
1589996811.361324,-0.6837203877247315,-3.9405242730161283,8.68,0.6449410994471929,0.43470248070537654,-0.640690830193907,-0.022482551982315493,-0.06195537582483586,0.7705323637877938
1589996811.371324,-0.7337152418918254,-4.100092688288466,8.730185376576932,0.6677777777777778,0.4455555555555555,-0.6522222222222223,-0.024683837975416133,-0.0580842114869804,0.7774820571814813
1589996811.381324,-0.7543574979083616,-4.04504667224437,8.620093344488739,0.6677777777777778,0.4455555555555555,-0.6522222222222223,-0.022432117147115096,-0.05958535870584776,0.7819854988380834
1589996811.391324,-0.7989462976306532,-4.011570381045225,8.561580553554021,0.6677777777777778,0.4455555555555555,-0.6522222222222223,-0.027844365403875006,-0.062119884053294334,0.7873510524149995
1589996811.401324,-0.7811685669478236,-3.869348535582588,8.588247149578265,0.6677777777777778,0.4455555555555555,-0.6522222222222223,-0.019117742261581964,-0.06115025925970623,0.8018954243188211
1589996811.411324,-0.8000785934944576,-3.9383202344175903,8.705117890241686,1.3011111111111109,0.6355555555555555,-1.0522222222222222,-0.03235845547395959,-0.06036216103823917,0.8234111532249689
1589996811.421324,-0.8524877694810514,-3.941194962664732,8.770048922075793,1.3011111111111109,0.6355555555555555,-1.0522222222222222,-0.030814635462869385,-0.062177354602297986,0.8339374649332296
1589996811.431324,-0.87107223903177,-4.015711043872919,8.693566565809379,1.3011111111111109,0.6355555555555555,-1.0522222222222222,-0.03202314466966431,-0.062411280870707776,0.8378750040914831
1589996811.441324,-0.8787232025444203,-3.9787232025444204,8.64255359491116,1.3011111111111109,0.6355555555555555,-1.0522222222222222,-0.026319215776670887,-0.0643590161672909,0.8385703177462628
1589996811.451324,-0.8658962047769044,-3.9658962047769046,8.66820759044619,1.3011111111111109,0.6355555555555555,-1.0522222222222222,-0.027718424177852842,-0.0643590161672909,0.8357719009438989
1589996811.461324,-0.9265635883019343,-3.940981831913733,8.7370545042588,1.0221779791791963,-0.08713483172258829,-0.9138122211499461,-0.01695151859855242,-0.06020989553225256,0.8282618676572313
1589996811.471324,-0.9393045772861057,-3.991654927433269,8.729568659291587,1.007777777777778,-0.12444444444444445,-0.9066666666666666,-0.020574067166800047,-0.061162382670117844,0.8160460910357336
1589996811.481324,-0.9307908251294023,-3.8894899015528264,8.601862376941034,1.007777777777778,-0.12444444444444445,-0.9066666666666666,-0.018716654581384485,-0.06209108896282562,0.8039729092305323
1589996811.491324,-0.9897161474414939,-3.897729179531952,8.660851557675517,1.007777777777778,-0.12444444444444445,-0.9066666666666666,-0.01851315979158888,-0.05681609122236831,0.7894518514189255
1589996811.501324,-0.9807846936819914,-3.8262775494559316,8.687645918954026,1.007777777777778,-0.12444444444444445,-0.9066666666666666,-0.01753888932225797,-0.05973890263036105,0.7797091467256163
1589996811.511324,-0.9872191716199641,-3.899410887819606,8.675561656760072,0.7358556467591283,0.11378821901437243,-0.727791636527555,-0.01902827144537964,-0.05763322464915056,0.767040836761697
1589996811.521324,-1.029934039885257,-3.9701978803442297,8.73914251850834,0.6311111111111111,0.20555555555555555,-0.6588888888888889,-0.023976691817848395,-0.059945327110799924,0.7361380950085186
1589996811.531324,-1.0227294432897607,-3.991811670130718,8.645482762766889,0.6311111111111111,0.20555555555555555,-0.6588888888888889,-0.021618993095297478,-0.05444403009151445,0.7172765052281114
1589996811.541324,-0.9288649639447287,-4.00724348386577,8.739837851992105,0.6311111111111111,0.20555555555555555,-0.6588888888888889,-0.020460470809932668,-0.0565640122553157,0.6733021062026431
1589996811.551324,-0.8697260605083995,-3.8636204326632555,8.731389437215485,0.6311111111111111,0.20555555555555555,-0.6588888888888889,-0.006636784457482666,-0.04826980044384571,0.6299878889649665
1589996811.561324,-0.7381767198404785,-3.6427193419740775,8.56909147557328,0.5722222222222222,0.2933333333333333,-0.6666666666666666,-0.00019617009211644843,-0.028161351872497922,0.5505776690777068
1589996811.5713239,-0.8053834923800028,-3.747263210368893,8.561624056402222,0.5722222222222222,0.2933333333333333,-0.6666666666666666,-0.028706087533697234,-0.05341299303504091,0.47645188372959674
1589996811.5813239,-0.8809377019837916,-3.6656262119027496,8.482504847610999,0.5722222222222222,0.2933333333333333,-0.6666666666666666,-0.003954173454494686,-0.027747875831671143,0.36225599203837694
1589996811.5913239,-0.88788892755929,-3.70733356535574,8.64933426142296,0.5722222222222222,0.2933333333333333,-0.6666666666666666,-0.0009211291209625517,-0.023198309331372943,0.2902211891169888
1589996811.6013238,-0.89,-3.7359742923560786,8.763897169424313,0.5722222222222222,0.2933333333333333,-0.6666666666666666,-0.0017425249830607956,-0.014846515717685936,0.17860433586649718
1589996811.6113238,-0.849359039600296,-3.691922881199112,8.786539831606218,0.5844444444444444,0.28444444444444444,-0.7111111111111111,0.013649312857444088,-0.00018189764783070302,0.027355448228817258
1589996811.6213238,-0.8410546291244633,-3.722460801290415,8.594921602580829,0.5844444444444444,0.28444444444444444,-0.7111111111111111,0.021318099487593643,0.012936579801546555,-0.0873130901365445
1589996811.6313238,-0.8690843883887739,-3.7875583690367303,8.731526019352044,0.5844444444444444,0.28444444444444444,-0.7111111111111111,0.008334959608710826,0.009425790391207282,-0.2116779372246118
1589996811.6413238,-0.8317763157894736,-3.7014473684210527,8.78065789473684,0.5844444444444444,0.28444444444444444,-0.7111111111111111,0.030650909684489233,0.03174174046698569,-0.3212353124085945
1589996811.6513238,-0.6246135609293504,-3.4859981033665246,8.797230915125652,0.5844444444444444,0.28444444444444444,-0.7111111111111111,0.033362663804347506,0.034453494586843963,-0.417050624643587
1589996811.6613238,-0.51,-3.6037684440246247,8.768694667926125,0.5644444444444444,0.21777777777777774,-0.6755555555555556,0.04158859422633784,0.042142057341511524,-0.5696311701938771
1589996811.6713238,-0.51,-3.6242610989870037,8.707216703038988,0.5644444444444444,0.21777777777777774,-0.6755555555555556,0.042333728187939235,0.05182879884232966,-0.6597923795476459
1589996811.6813238,-0.4979407360076676,-3.575733312034504,8.937214911842814,0.5644444444444444,0.21777777777777774,-0.6755555555555556,0.04122693887965305,0.06506523222649263,-0.7679158145834244
1589996811.6913238,4.4693376879842015,-11.649187300622817,0.20335029621753087,0.5644444444444444,0.21777777777777774,-0.6755555555555556,-0.3041483700830509,0.7564439633888761,-1.3369655303920926
1589996811.7013237,6.2637302100161545,-4.913126009693054,-3.230059773828756,0.5644444444444444,0.21777777777777774,-0.6755555555555556,-1.3858913454782755,1.0649442578123174,-8.35780306594467
1589996811.7113237,2.74902802287005,-4.933786969718359,-0.9416870191289615,0.5192947224771182,0.2622328886379144,-0.6199866669803847,-2.0844522340943366,0.2322563685150707,-15.489622017978975
1589996811.7213237,0.34105680672268907,-7.398973893557423,-0.49627943977591027,0.4922222222222222,0.2888888888888889,-0.5866666666666667,-1.6103495454133774,1.4038995104055862,-16.54379364896951
1589996811.7313237,-2.318267013956108,-9.879953890287041,5.338143292092712,0.4922222222222222,0.2888888888888889,-0.5866666666666667,-0.9085405205711854,3.0248981792983622,-15.422895037587784
1589996811.7413237,-14.734121363580368,-16.471724362471623,-1.379114411925169,0.4922222222222222,0.2888888888888889,-0.5866666666666667,-0.468897031920935,3.0265085950077033,-11.730211816067548
1589996811.7513237,-3.572916555109325,-4.000410531012939,2.611147106946304,0.4922222222222222,0.2888888888888889,-0.5866666666666667,0.4930077786867305,0.601776669114388,-5.177221620534522
1589996811.7613237,-0.032985692157182445,-0.8673432659383662,4.816505380727214,0.37228221189557403,0.4977640089135279,-0.5605572766635868,0.9044023458352739,0.19613761766701335,-3.817598947184969
1589996811.7713237,-2.423710448491317,-1.7183216596624642,11.98701398616948,0.3288888888888889,0.5733333333333334,-0.5511111111111111,2.4547111866958025,0.9248129736333928,-3.452573730963508
1589996811.7813237,0.32753696662441856,-1.102788339670469,5.001643430502746,0.3288888888888889,0.5733333333333334,-0.5511111111111111,3.925781087032001,0.22895418260299172,-3.19620470268915
1589996811.7913237,1.0769224261225148,0.7733382349978849,-2.0900966903692364,0.3288888888888889,0.5733333333333334,-0.5511111111111111,3.100350205716157,0.0016496609994545333,-2.9167705242142614
1589996811.8013237,0.28272344540015715,0.09742420885119751,-0.24823096911951303,0.3288888888888889,0.5733333333333334,-0.5511111111111111,1.2137638058313924,0.03206360882368376,-2.5527247851060624
1589996811.8113236,-0.4046395154364237,1.0303674908466303,0.6866582289924515,0.17222222222222222,0.6433333333333333,-0.5377777777777778,-0.2736564220665501,0.28290474213562594,-2.0992377934600537
1589996811.8213236,1.8470198471107735,1.3714101894496937,11.214238877546176,0.17222222222222222,0.6433333333333333,-0.5377777777777778,-1.5747146110616472,0.10907440277573324,-1.7977977672050918
1589996811.8313236,0.666528343053749,-1.4423119204464399,8.524906222464649,0.17222222222222222,0.6433333333333333,-0.5377777777777778,-1.2530377272045774,0.36565052433993883,-1.609984993633886
1589996811.8413236,1.3616772961859605,-1.4863086896320228,9.95040154407754,0.17222222222222222,0.6433333333333333,-0.5377777777777778,0.2270673228689284,0.058495131328575756,-1.463126321350328
1589996811.8513236,1.7188702505173248,-1.1967688108131906,11.383901290010126,0.17222222222222222,0.6433333333333333,-0.5377777777777778,0.7830660821604271,0.1994241151034834,-1.383756188367828
1589996811.8613236,1.6877874784606548,-0.7967524411257898,9.173849511774842,0.12904039823856023,0.6381307039377114,-0.554426191843768,0.772243032375452,0.08317193120189087,-1.25937547902235
1589996811.8713236,2.439417500210137,-1.6671043120114315,11.452768765234932,0.08,0.6322222222222222,-0.5733333333333334,-0.13443166772260118,-0.1959018206921014,-1.0335927448860958
1589996811.8813236,2.2938097306689835,-2.427700813521839,7.837043677434642,0.08,0.6322222222222222,-0.5733333333333334,-0.34534478286228665,0.3587724867651093,-0.7368035087154843
1589996811.8913236,17.137687782651568,-14.865983542452993,9.610510728008432,0.08,0.6322222222222222,-0.5733333333333334,-0.23567312075721508,0.004511504604230887,-0.701087318468256
1589996811.9013236,6.3721295498243045,-5.077051979049262,11.541496718159518,0.08,0.6322222222222222,-0.5733333333333334,0.09222412686678086,0.13851102842366697,-0.5821771046048829
1589996811.9113235,-0.2217148981779207,0.7591425509110397,8.654430153626295,0.06865626612679132,0.6343491723234489,-0.5882219840419197,0.43917494241177607,0.34511680133883144,-0.41854853655453866
1589996811.9213235,0.6327948876520304,-0.39029849515563786,5.777773242630386,0.06222222222222223,0.6355555555555555,-0.5966666666666667,-0.0036684834849818326,-0.2504929750850214,-0.1541088671396593
1589996811.9313235,3.08481799105921,-3.3898357814068056,8.969847641638538,0.06222222222222223,0.6355555555555555,-0.5966666666666667,-0.3470667071857659,-0.12070314793542711,0.07630809657900375
1589996811.9413235,10.84758738234546,-10.56126201984228,8.61367463749682,0.06222222222222223,0.6355555555555555,-0.5966666666666667,-0.18511689748163948,0.08534029019815387,0.24760940255956237
1589996811.9513235,1.588486161533357,-3.415148143810751,9.747594956474217,0.06222222222222223,0.6355555555555555,-0.5966666666666667,0.054406553233402516,0.04130074322779571,0.2543927076786877
1589996811.9613235,-0.22,-1.6,6.85,0.054444444444444434,0.6522222222222223,-0.5966666666666667,0.14180800172453928,-0.015271630954950384,0.3937899124812206
1589996811.9713235,-0.22,-1.6,6.85,0.054444444444444434,0.6522222222222223,-0.5966666666666667,0.14180800172453928,-0.015271630954950384,0.3937899124812206
1589996811.9813235,2.1346492119379,-3.7047680710791844,9.271924903707554,0.054444444444444434,0.6522222222222223,-0.5966666666666667,-0.11504438251174903,-0.011078122640888532,0.4881438495476122
1589996811.9913235,1.8903261000457598,-3.440621131475639,8.739177042942126,0.054444444444444434,0.6522222222222223,-0.5966666666666667,0.0015922015262926636,-0.033139912589806954,0.48561279583023237
1589996812.0013235,2.273306312619557,-3.738475539309457,8.689152446069054,0.054444444444444434,0.6522222222222223,-0.5966666666666667,0.007977863516926911,-0.0497992484188728,0.49635577316351626
1589996812.0113235,2.202090194022024,-3.748572417409544,8.805273203985317,0.04678885975645283,0.6431747130455049,-0.605714175843384,-0.015870689823273866,-0.02174509101382878,0.4982339797120854
1589996812.0213234,2.2149462279933085,-3.772084362303832,8.904028120767943,0.042222222222222223,0.6377777777777778,-0.6111111111111112,-0.02110744094938315,-0.02419857713953402,0.5026609595742271
1589996812.0313234,2.177076387423507,-3.70496729267778,8.818436378982907,0.042222222222222223,0.6377777777777778,-0.6111111111111112,-0.01090830782496456,-0.03643533638868385,0.5186713923643865
1589996812.0413234,2.3036596313628115,-3.696585808423264,8.61219463279534,0.042222222222222223,0.6377777777777778,-0.6111111111111112,-0.024370811918217543,-0.04930032171500719,0.527483199950027
1589996812.0513234,2.382288090914416,-3.78,8.664369984183702,0.042222222222222223,0.6377777777777778,-0.6111111111111112,-0.03490658503988659,-0.04412960371614506,0.5297792128377014
1589996812.0613234,2.3792505758794364,-3.800894858079881,8.659854566040682,0.05325006398660403,0.6389386032266601,-0.606467809315582,-0.02180075126596473,-0.03643667825515814,0.5300949533563026
1589996812.0713234,2.2784496182629073,-3.773763700960012,8.748155567314233,0.06333333333333334,0.64,-0.6022222222222222,-0.0026123372908209404,-0.02996358541122739,0.5340965273369342
1589996812.0813234,2.1647867626696207,-3.727180144004431,8.637014677374689,0.06333333333333334,0.64,-0.6022222222222222,-0.004717442870994262,-0.034262916335980664,0.542497018641747
1589996812.0913234,2.0467873108460233,-3.772832588271856,8.826615428749014,0.06333333333333334,0.64,-0.6022222222222222,-0.019717879233470518,-0.03817907738737596,0.5591440668215347
1589996812.1013234,2.194642281318596,-3.7653810291575205,8.571489150915907,0.06333333333333334,0.64,-0.6022222222222222,-0.029369303460593892,-0.05093526472084663,0.5827581064105193
1589996812.1113234,2.0025312355391023,-3.809785593089619,8.65038716643529,0.08041493135893876,0.6475918213447135,-0.5974773338817763,-0.023408357004613134,-0.03561344607910727,0.6252474458124943
1589996812.1213233,1.975227839941821,-3.7632373601309026,8.636930400145447,0.08333333333333333,0.6488888888888888,-0.5966666666666667,-0.015624772163431912,-0.04264181444617003,0.660083444496216
1589996812.1313233,1.9550741321548222,-3.806836909259391,8.872421769192387,0.08333333333333333,0.6488888888888888,-0.5966666666666667,-0.015046995547534867,-0.04908738521234052,0.7177900203862777
1589996812.1413233,1.8792897128481745,-3.771700926954196,8.580205561725176,0.08333333333333333,0.6488888888888888,-0.5966666666666667,-0.02795177549434367,-0.06067669896923734,0.7807493943047059
1589996812.1513233,1.9693678669585875,-3.8302031024362977,8.573950249219731,0.08333333333333333,0.6488888888888888,-0.5966666666666667,-0.04038289399132021,-0.06833574403043771,0.8485037938060838
1589996812.1613233,1.9745219935628595,-3.8304349946357164,8.554956988198576,0.08333333333333333,0.660057890915396,-0.5927246659514288,-0.03976318114753422,-0.0736832202320972,0.9115168629014637
1589996812.1713233,1.8346120018323409,-3.8484626660558865,8.811290884104444,0.08333333333333333,0.6677777777777778,-0.59,-0.030095536586439094,-0.06656836074893535,0.9903359354235243
1589996812.1813233,1.7035735717714835,-3.84584493518963,8.88337974075852,0.08333333333333333,0.6677777777777778,-0.59,-0.023545029955080128,-0.0736023407377669,1.067149660534846
1589996812.1913233,1.5538574938574938,-3.785773955773956,8.806732186732187,0.08333333333333333,0.6677777777777778,-0.59,-0.02664092869291099,-0.08084744607863782,1.1395992270131772
1589996812.2013233,1.5276582676066168,-3.7691484609478607,8.672554617156418,0.08333333333333333,0.6677777777777778,-0.59,-0.04073198840413496,-0.09190814668041124,1.2397401862649295
1589996812.2113233,1.64,-3.8868337970054077,8.754890125347753,0.11843025295308751,0.6393208159239231,-0.6137141348782122,-0.06305616369727098,-0.10751351081664588,1.3856000882743358
1589996812.2213233,1.3675847573791464,-3.8489221420085897,8.772974047336197,0.12444444444444445,0.6344444444444445,-0.6177777777777778,-0.05523500865293502,-0.11077811245719976,1.4992228301597181
1589996812.2313232,1.2363503305004722,-3.809581938363808,8.709163876727615,0.12444444444444445,0.6344444444444445,-0.6177777777777778,-0.04598499279758398,-0.11043521586522267,1.6091614700046453
1589996812.2413232,1.2847333351317813,-3.833214815614125,8.640177776578813,0.12444444444444445,0.6344444444444445,-0.6177777777777778,-0.047256405630541384,-0.12919557426822859,1.7407825101514758
1589996812.2513232,1.1600248635309953,-3.8333345173109996,8.63,0.12444444444444445,0.6344444444444445,-0.6177777777777778,-0.06253838182456145,-0.13526262957377522,1.8438530385119298
1589996812.2613232,1.0722122195985833,-3.83,8.674469451003542,0.1758313656040929,0.6472911747343565,-0.6177777777777778,-0.07757455344543421,-0.15478713330550192,1.999435996797376
1589996812.2713232,1.040726408995926,-3.923675491213037,8.66829056359837,0.18222222222222226,0.6488888888888888,-0.6177777777777778,-0.07406926155434108,-0.15835693404674786,2.094143610625725
1589996812.2813232,0.9147056021690543,-3.9373528010845273,8.675794159674641,0.18222222222222226,0.6488888888888888,-0.6177777777777778,-0.06803254160280904,-0.16213275350394316,2.2263505356808784
1589996812.2913232,0.7442966151438074,-3.8395310767625386,8.677382769190634,0.18222222222222226,0.6488888888888888,-0.6177777777777778,-0.06269719419844366,-0.1715970800353241,2.385542839572225
1589996812.3013232,0.6575881653357928,-3.8584706681876653,8.748764835804957,0.18222222222222226,0.6488888888888888,-0.6177777777777778,-0.07232209941259791,-0.18223291809533906,2.5184075750229913
1589996812.3113232,0.6013943912753171,-3.878557756510127,8.737067660805698,0.19747854687538643,0.6291828028785518,-0.6222275391349507,-0.09273627611279324,-0.19589322737157394,2.6511274077888767
1589996812.3213232,0.490018813743935,-3.8774984321880055,8.682501567811995,0.2088888888888889,0.6144444444444445,-0.6255555555555555,-0.10253809355466686,-0.21189199826059324,2.817321141685877
1589996812.3313231,0.373391224653454,-3.8878735250315044,8.640632374842479,0.2088888888888889,0.6144444444444445,-0.6255555555555555,-0.09566714677776995,-0.2191880058873624,2.965893118047031
1589996812.3413231,0.26917347191289287,-3.801090819104182,8.74315713932195,0.2088888888888889,0.6144444444444445,-0.6255555555555555,-0.08940304405070867,-0.22651958260586527,3.112894005159009
1589996812.3513231,0.21602515698275176,-3.7664100627931005,8.708845282568953,0.2088888888888889,0.6144444444444445,-0.6255555555555555,-0.09206337384158285,-0.240584307103617,3.230930186015922
1589996812.361323,0.1011841265790481,-3.949397090723491,8.729407936710476,0.2674464435087123,0.5943152850438802,-0.623725631973686,-0.12165755806413087,-0.25281558830826517,3.3858658829873303
1589996812.371323,-0.014706175622656234,-3.942646912188672,8.637401643075455,0.28,0.59,-0.6233333333333333,-0.12160087753848567,-0.2627726066268166,3.5227153754812868
1589996812.381323,-0.07855330860356587,-3.9068680148378605,8.58686801483786,0.28,0.59,-0.6233333333333333,-0.11662697521126174,-0.2718007018733356,3.6613381089339434
1589996812.391323,-0.15429876474560114,-3.9900182706438416,8.637868888271042,0.28,0.59,-0.6233333333333333,-0.11492667222601433,-0.27800687071827046,3.780525478640639
1589996812.401323,1.2347427075931159,-5.842735670832106,8.283699499107406,0.28,0.59,-0.6233333333333333,-0.11770897339188281,-0.2853276758912041,3.885907388698149
1589996812.411323,5.159992860967339,-13.659980367660182,9.048086739246832,0.3093128681063716,0.5724937037698059,-0.6261831955103416,-0.17293396156983393,-0.31632418384931676,3.8103807532453815
1589996812.421323,3.401002472963497,-10.553302329014874,7.434192411323959,0.36,0.5422222222222223,-0.6311111111111111,-0.3400156550240623,-0.29579892004741193,1.2945469440271555
1589996812.431323,-3.151337390761548,-1.5205009363295885,4.247958801498127,0.36,0.5422222222222223,-0.6311111111111111,0.08110194088833322,0.23625117077857347,-1.3372564016269382
1589996812.441323,-1.3425840982238646,-0.6159432590296814,6.096795804029085,0.36,0.5422222222222223,-0.6311111111111111,0.6696925759192056,0.25752063688765636,-0.950735160146657
1589996812.451323,-0.42916397228637415,-1.5047575057736722,8.445293302540415,0.36,0.5422222222222223,-0.6311111111111111,0.1391673346894059,0.01877690104909721,-0.25853193393102497
1589996812.461323,-0.8335485159944058,-3.9744207161409193,9.638273802916954,0.3812728927564544,0.5209493294657679,-0.6458839533030932,-0.314512132057373,-0.05507696566669638,0.12205991332620098
1589996812.471323,-0.7312219514510871,-3.3694939392980343,8.84924454853309,0.4,0.5022222222222222,-0.6588888888888889,-0.13728338602197304,-0.05986415949673757,0.5609105601756651
1589996812.481323,-0.2320515720899055,-3.4256524016003684,7.478124803619682,0.4,0.5022222222222222,-0.6588888888888889,0.1233735807323022,-0.04444097482530389,0.9636808693958419
1589996812.491323,4.167642518469512,-11.15776904840666,7.707272852574705,0.4,0.5022222222222222,-0.6588888888888889,-0.017095936884835017,-0.0770297452118529,1.0953070196629473
1589996812.501323,0.5243707713125847,-7.159081067782014,8.647019723623242,0.4,0.5022222222222222,-0.6588888888888889,-0.13668426840459816,-0.10155215464837306,0.30113947735655366
1589996812.511323,-1.1248176506145477,-3.13,7.830877061685041,0.4046513725377316,0.5146258823228398,-0.6542375163511573,0.13507314760318376,0.15176388532091323,-0.21088806921343348
1589996812.521323,0.6835000466548473,-4.8609125688159,8.44949379490529,0.4066666666666667,0.52,-0.6522222222222223,0.07589556699843852,0.01647289855735995,0.09480377555878536
1589996812.531323,0.24826296576899254,-5.623113850816172,8.909041945037536,0.4066666666666667,0.52,-0.6522222222222223,-0.11507945447477178,-0.10900471634413253,0.09490873936566159
1589996812.541323,-0.19919342383858513,-4.924062772449869,8.505235272138497,0.4066666666666667,0.52,-0.6522222222222223,-0.025057343613691052,-0.015193429161650451,-0.014481406996386129
1589996812.551323,-0.150556228974572,-4.638362502213203,8.45289377987824,0.4066666666666667,0.52,-0.6522222222222223,0.024613913268544032,0.021341420921054663,-0.020212408164094947
1589996812.561323,-0.042018441087942476,-4.649787532517059,8.607131688980292,0.4066666666666667,0.52,-0.6522222222222223,0.01651310968338359,0.013240617335894222,0.0028437251167463054
1589996812.571323,-0.03336481426948803,-4.547485171006689,8.746162971688193,0.4188888888888889,0.4866666666666667,-0.6311111111111111,0.0028642396001720607,-0.0018146172667388247,-0.0007340885965081742
1589996812.581323,-0.043893507077061335,-4.743361042462368,8.562129858458773,0.4188888888888889,0.4866666666666667,-0.6311111111111111,-0.004846121746368214,0.0010327479032666961,-0.001332230090687651
1589996812.591323,-0.05,-4.668652405255728,8.491034314257792,0.4188888888888889,0.4866666666666667,-0.6311111111111111,-0.0036999288637928167,0.0038572340303858555,0.0
1589996812.601323,-0.05,-4.5622627096774195,8.59452541935484,0.4188888888888889,0.4866666666666667,-0.6311111111111111,-0.0009441105234417073,0.003272492347489368,-0.00034692641454158254
1589996812.6113229,-0.05336492171574793,-4.572985861126773,8.730379060588975,0.4170194879356956,0.4915271091449692,-0.6284939497766404,0.00799253422232592,0.002905436328666505,-0.0007237747636735928
1589996812.6213229,-0.06415345755390417,-4.566455320862467,8.743544679137534,0.4133333333333333,0.5011111111111111,-0.6233333333333333,0.006998056630337845,0.0017285896296338026,-0.0009061438707182187
1589996812.6313229,-0.052585490143489344,-4.619366143668142,8.603561307049306,0.4133333333333333,0.5011111111111111,-0.6233333333333333,-0.0012291167821907017,0.0017240402296154482,-0.0015484521178739197
1589996812.6413229,-0.04,-4.608316163878277,8.563894612040574,0.4133333333333333,0.5011111111111111,-0.6233333333333333,-0.006969820964952721,0.00018367802742549986,-0.0004248362699739853
1589996812.6513228,-0.04488946894689469,-4.624889468946895,8.613784158415841,0.4133333333333333,0.5011111111111111,-0.6233333333333333,-0.003878193076312107,-0.0005574724587631303,0.0
1589996812.6613228,-0.05406112359550562,-4.609694382022472,8.674061123595505,0.41874816479400745,0.49795245942571786,-0.635065468164794,0.0037821677099537793,0.00044299986295002136,0.00044299986295002136
1589996812.6713228,-0.05563780490209611,-4.5756378049020965,8.710535365685327,0.4266666666666667,0.4933333333333334,-0.6522222222222223,0.009004941148145077,0.0015666724517013264,0.0006149891132915855
1589996812.6813228,-0.041706059570767465,-4.586587880858465,8.671207565922291,0.4266666666666667,0.4933333333333334,-0.6522222222222223,0.004735527589298991,0.002181661564992912,-0.00045236427641993606
1589996812.6913228,-0.03,-4.6436199116976375,8.604826548930184,0.4266666666666667,0.4933333333333334,-0.6522222222222223,-0.0027081563796197976,0.00034797983576314554,0.00013162370365672141
1589996812.7013228,-0.039440183897112735,-4.660559816102888,8.62583972415433,0.4266666666666667,0.4933333333333334,-0.6522222222222223,-0.0029408095793894604,0.00045381569561323346,0.0005759486231265595
1589996812.7113228,-0.05,-4.627723147114498,8.632276852885502,0.42171625491433284,0.4933333333333334,-0.6546974280983892,0.002305844625728991,0.002586666179403757,0.000405004614410845
1589996812.7213228,-0.05,-4.595839235320892,8.667080382339554,0.4133333333333333,0.4933333333333334,-0.6588888888888889,0.005637246656839764,0.0035909732292028532,0.00045386901906948576
1589996812.7313228,-0.048809078146934956,-4.60761815629387,8.654045390734675,0.4133333333333333,0.4933333333333334,-0.6588888888888889,0.007817280308161898,0.004363323129985824,-0.0012207402041835632
1589996812.7413228,-0.04649767496516645,-4.606244187412916,8.603502325034833,0.4133333333333333,0.4933333333333334,-0.6588888888888889,-0.0003267419908355733,0.0036545367433198092,-0.0018272683716599046
1589996812.7513227,-0.05884179464824626,-4.638262691972369,8.59347461605526,0.4133333333333333,0.4933333333333334,-0.6588888888888889,-0.003335662649996624,0.0020553209599784004,-0.0011540010850037117
1589996812.7613227,-0.042833524308397444,-4.618500572925193,8.655667048616795,0.4171113657445299,0.4933333333333334,-0.6529070042378275,-0.0018906066991442915,-0.00030908955385519155,-0.002181661564992912
1589996812.7713227,-0.055539853476920614,-4.620610512830778,8.6838496336923,0.4266666666666667,0.4933333333333334,-0.6377777777777778,0.004967627400300326,-0.0001843743770247021,-0.0018795094298356607
1589996812.7813227,-0.048818208021995074,-4.591181791978006,8.661750072060487,0.4266666666666667,0.4933333333333334,-0.6377777777777778,0.006544984694978735,0.0016040177970418053,-0.001090830782496456
1589996812.7913227,-0.03979234094828604,-4.605103829525857,8.629584681896572,0.4266666666666667,0.4933333333333334,-0.6377777777777778,0.0022722699193423535,0.001090830782496456,-0.0016249201294510037
1589996812.8013227,-0.046576790372801484,-4.620539257763191,8.636307161491207,0.4266666666666667,0.4933333333333334,-0.6377777777777778,-0.0029284900522501844,0.0014642450261250922,-0.002181661564992912
1589996812.8113227,-0.04,-4.656925469168901,8.615124218051832,0.4246169794459339,0.49208074669844115,-0.6392581074371959,-0.0039161507470128355,0.0020698684692496646,-0.0019580753735064177
1589996812.8213227,-0.043496220302375814,-4.6160151187904965,8.666992440604751,0.4066666666666667,0.4811111111111111,-0.6522222222222223,0.0026696493097544205,0.002234966200962636,-0.00038137847282206
1589996812.8313227,-0.046551007822389565,-4.58655100782239,8.655857054756726,0.4066666666666667,0.4811111111111111,-0.6522222222222223,0.006130908743104412,0.003987096446393129,-0.00033837741531106587
1589996812.8413227,-0.04538014587711708,-4.596140437631352,8.604619854122882,0.4066666666666667,0.4811111111111111,-0.6522222222222223,0.00033807797894901863,0.00033807797894901863,-8.293496491968365e-05
1589996812.8513227,-0.045956888309430684,-4.622129335071708,8.59595688830943,0.4066666666666667,0.4811111111111111,-0.6522222222222223,-0.0030637317028217714,-0.0017406264960784822,-0.0006497957135820263
