time,acc_x,acc_y,acc_z,mag_x,mag_y,mag_z,gyr_x,gyr_y,gyr_z
1589996904.9437714,-3.88,-0.86,8.78,0.32,-0.3211111111111111,-0.5911111111111111,-0.009817477042468105,0.009817477042468105,0.001090830782496456
1589996904.9537714,-3.86898121634047,-0.8489812163404702,8.81305635097859,0.32,-0.3211111111111111,-0.5911111111111111,-0.009216495622393904,0.008615514202319704,0.001090830782496456
1589996904.9637713,-3.86,-0.8433340497786184,8.84,0.32222269985241225,-0.3188884112586989,-0.5966678607421418,-0.007635581021303912,0.005817373413028966,0.002181896021164192
1589996904.9737713,-3.852118537952418,-0.8578814620475821,8.87940731023791,0.32666666666666666,-0.3144444444444445,-0.6077777777777778,-0.0028749514887082372,0.002181661564992912,-0.0007950817175622609
1589996904.9837713,-3.869085155886459,-0.8806098960756942,8.833659376454165,0.32666666666666666,-0.3144444444444445,-0.6077777777777778,-0.002148396894318365,-0.002214926235667459,-0.0031726983354657275
1589996904.9937713,-3.8495677059097253,-0.8936215293935164,8.911729176361098,0.32666666666666666,-0.3144444444444445,-0.6077777777777778,-0.0014387223866365153,-0.0029246007433493086,-0.0010436748124201785
1589996905.0037713,-3.8458882493872717,-0.9058882493872717,8.961776498774544,0.32666666666666666,-0.3144444444444445,-0.6077777777777778,0.0008360943234991286,-0.003914800716154563,-0.0012846167373303898
1589996905.0137713,-3.85,-0.8913795955882353,8.982413602941177,0.32252879901960785,-0.3261684027777778,-0.6250188929738562,0.0035357755859852956,-0.00300920910899344,-0.00150460455449672
1589996905.0237713,-3.85,-0.8717055274743193,8.907055274743193,0.32,-0.3333333333333333,-0.6355555555555555,0.007077682916660928,-0.00308644816055128,0.0016235290041786484
1589996905.0337713,-3.85941866133046,-0.84174401600862,8.78639472536494,0.32,-0.3333333333333333,-0.6355555555555555,0.004553565764722756,-0.004299908918406846,-0.0029554212895944796
1589996905.0437713,-3.8699441102756893,-0.8698323308270677,8.78994411027569,0.32,-0.3333333333333333,-0.6355555555555555,0.007617525607964162,-0.0032785889706597117,-0.001103024028837143
1589996905.0537713,-3.8554760661444734,-0.87,8.81178590078329,0.32,-0.3333333333333333,-0.6355555555555555,0.008427973184102731,-0.0040646500541169075,0.0004934846307586228
1589996905.0637712,-3.8326959764993234,-0.8786520117503384,8.880564082252368,0.32576800783355886,-0.31699064447158326,-0.6115221895823936,0.01155801048430867,-0.005307111204764832,0.001090830782496456
1589996905.0737712,-3.8443945097144594,-0.8728027451427702,8.89719725485723,0.32666666666666666,-0.3144444444444445,-0.6077777777777778,0.011999138607461015,-0.007809450056803788,0.0003057320677226199
1589996905.0837712,-3.8594166522416478,-0.8605833477583521,8.85291673879176,0.32666666666666666,-0.3144444444444445,-0.6077777777777778,0.013026336020786395,-0.005645054019995507,0.0010271974133253799
1589996905.0937712,-3.8679657294366727,-0.8520342705633273,8.9376230238034,0.32666666666666666,-0.3144444444444445,-0.6077777777777778,0.01308996938995747,-0.0011095224752019298,0.00022190449504038584
1589996905.1037712,-3.8651564938044976,-0.8451564938044974,8.969687012391006,0.32666666666666666,-0.3144444444444445,-0.6077777777777778,0.011504935693977536,0.0,0.0
1589996905.1137712,-3.8569614788576487,-0.84,8.983038521142351,0.3303804147295403,-0.3144444444444445,-0.6077777777777778,0.009817477042468105,0.0,-0.000662902479068579
1589996905.1237712,-3.8596610914571605,-0.8496610914571602,8.97550836281426,0.3388888888888889,-0.3144444444444445,-0.6077777777777778,0.008763615447069715,-0.002107723190796778,-0.0016547307672937174
1589996905.1337712,-3.852200818685288,-0.86,8.835405730797014,0.3388888888888889,-0.3144444444444445,-0.6077777777777778,0.009577404965607578,-0.00695210911416234,-0.00044363428645232696
1589996905.1437712,-3.830320403637883,-0.8309612109136485,8.75,0.3388888888888889,-0.3144444444444445,-0.6077777777777778,0.011964187992358372,-0.008726646259971648,0.0
1589996905.1537712,-3.83,-0.8439196355724775,8.805678542289911,0.3388888888888889,-0.3144444444444445,-0.6077777777777778,0.008203146866563215,-0.007967447911792087,0.0
1589996905.1637712,-3.846123634413887,-0.855374544804629,8.878370903241661,0.32873697092458964,-0.31145858621965056,-0.6000145463933136,0.005372440912019586,-0.006463271694516042,0.0005862718914795747
1589996905.1737711,-3.868248475668958,-0.8270060973241679,8.887006097324168,0.32,-0.3088888888888889,-0.5933333333333334,-0.0010352915710376484,0.0008442299053784373,0.00019106166565921077
1589996905.1837711,-3.8564544961100053,-0.8335455038899945,8.85290899222001,0.32,-0.3088888888888889,-0.5933333333333334,-0.0014428689346113336,0.0014428689346113336,-0.0014775852607631565
1589996905.1937711,-3.85,-0.8225842574865441,8.88353935628364,0.32,-0.3088888888888889,-0.5933333333333334,-0.002040712184181951,-0.0008089320208745346,-0.0031315429666784076
1589996905.203771,-3.843640116038127,-0.8390796518856195,8.902719767923747,0.32,-0.3088888888888889,-0.5933333333333334,-0.000794150125249554,-0.001090830782496456,-0.0004974694680026522
1589996905.213771,-3.8250514268616524,-0.8649485731383476,8.895051426861652,0.32,-0.3088888888888889,-0.6199085744681736,-0.002445954560056384,0.0005398055908744663,-0.0021704419642453888
1589996905.223771,-3.832992191393919,-0.87,8.902992191393919,0.32,-0.3088888888888889,-0.6288888888888889,-0.004689720577946634,0.003216673128182356,-0.0011466500018034683
1589996905.233771,-3.8553049390121976,-0.8623475304939012,8.871737652469506,0.32,-0.3088888888888889,-0.6288888888888889,-0.00962792856216628,0.008537097779669826,-0.0008347549299368
1589996905.243771,-3.8463914993176056,-0.8463914993176057,8.86,0.32,-0.3088888888888889,-0.6288888888888889,-0.01090830782496456,0.008333019897670138,0.0003936263623015093
1589996905.253771,-3.8531833660096995,-0.8531833660096997,8.906141781033948,0.32,-0.3088888888888889,-0.6288888888888889,-0.009470225678934767,0.006197733331445399,0.0003717897094815595
1589996905.263771,-3.854196461035026,-0.86,8.935803538964974,0.32,-0.319206291493287,-0.6082540836800927,-0.004928238889724929,0.0029218823323178002,0.0006330678950411198
1589996905.273771,-3.85,-0.8514379322897706,8.897189661448854,0.32,-0.32666666666666666,-0.5933333333333334,-0.002181661564992912,0.001090830782496456,0.001090830782496456
1589996905.283771,-3.841808288165251,-0.8663834236694976,8.82446630532201,0.32,-0.32666666666666666,-0.5933333333333334,-0.00039450727885600133,0.001090830782496456,0.00019725363942800066
1589996905.293771,-3.8524979928676784,-0.8762489964338394,8.81624899643384,0.32,-0.32666666666666666,-0.5933333333333334,0.0006816597669742505,-0.0002724887514520451,0.0006816597669742505
1589996905.303771,-3.86,-0.8637286242585193,8.83627137574148,0.32,-0.32666666666666666,-0.5933333333333334,0.001090830782496456,9.245705299509551e-05,-9.245705299509551e-05
1589996905.313771,-3.8645174991831794,-0.8545174991831792,8.886139993465434,0.326023332244239,-0.3156238908855618,-0.599858609931259,0.001090830782496456,0.00010526534871354958,-0.0005980480656050028
1589996905.323771,-3.8590954161248376,-0.8654522919375812,8.924547708062418,0.3333333333333333,-0.3022222222222222,-0.6077777777777778,0.001090830782496456,-0.0022803363586306365,0.0011895055761341798
1589996905.333771,-3.8349439412484703,-0.847415911872705,8.85977576499388,0.3333333333333333,-0.3022222222222222,-0.6077777777777778,0.0027331920174208635,-0.0016301311125649605,0.002181661564992912
1589996905.343771,-3.8479702048417135,-0.84,8.929851024208565,0.3333333333333333,-0.3022222222222222,-0.6077777777777778,0.002292369717033986,0.0028296597393250716,-0.0007587063263732336
1589996905.353771,-3.8635812569728523,-0.8332093715135738,8.926418743027147,0.3333333333333333,-0.3022222222222222,-0.6077777777777778,0.0007001762478947128,0.0017910070303911688,-0.001090830782496456
1589996905.363771,-3.846812252579661,-0.8454584982802258,8.950916996560453,0.3333333333333333,-0.3116690822823603,-0.5966133067976147,-0.0016862605775238874,0.001090830782496456,-0.001090830782496456
1589996905.373771,-3.84628428075602,-0.85,8.94743143848796,0.3333333333333333,-0.3144444444444445,-0.5933333333333334,-0.00012513549663792107,-0.00028018659640687113,-0.0017763394719481195
1589996905.383771,-3.865821716664808,-0.873732574997212,8.821337125013939,0.3333333333333333,-0.3144444444444445,-0.5933333333333334,0.001090830782496456,-0.0036796531179829157,-0.0004557800080019392
1589996905.393771,-3.8547966850134987,-0.8647966850134985,8.820406629973002,0.3333333333333333,-0.3144444444444445,-0.5933333333333334,0.004407679579149556,-0.009338596324965474,-0.0024876365974898255
1589996905.403771,-3.8374000744016867,-0.86,8.842599925598313,0.3333333333333333,-0.3144444444444445,-0.5933333333333334,0.004766934577492004,-0.008159430485003458,0.0008508236624522846
1589996905.413771,-3.8249860259458557,-0.8700279481082885,8.875069870270721,0.3299906839639038,-0.317787093813874,-0.6005757403004306,0.002175564233626186,-0.003263346350439278,0.0021786128993095486
1589996905.423771,-3.8320451434104643,-0.855909713179071,8.918067715115697,0.32666666666666666,-0.3211111111111111,-0.6077777777777778,-0.0006569606605859486,-0.001970881981757846,0.0017477914430824046
1589996905.433771,-3.846561428040814,-0.84,8.870947147632677,0.32666666666666666,-0.3211111111111111,-0.6077777777777778,0.0003406507543145328,-0.00040952927386739063,0.0007501800281819232
1589996905.443771,-3.85,-0.8567588654750103,8.890276596425032,0.32666666666666666,-0.3211111111111111,-0.6077777777777778,-0.0007372778514893868,0.002918939416482299,0.0009140543169929214
1589996905.4537709,-3.8565151327761975,-0.86,8.92606053110479,0.32666666666666666,-0.3211111111111111,-0.6077777777777778,-0.004644284474660347,0.0039831830859221465,0.001090830782496456
1589996905.4637709,-3.8672615857245574,-0.8527384142754428,8.925476828550886,0.316177709508973,-0.3122358396699857,-0.6118119920691983,-0.006544984694978735,0.0027790908823690673,0.001090830782496456
1589996905.4737709,-3.863514578864993,-0.8435145788649933,8.926485421135007,0.31222222222222223,-0.3088888888888889,-0.6133333333333333,-0.005837534993826898,0.0014742118638410744,0.001090830782496456
1589996905.4837708,-3.8443233789803664,-0.8635149315294506,8.828101963372381,0.31222222222222223,-0.3088888888888889,-0.6133333333333333,-0.0037440998351075355,0.0028008848598712007,0.0002358037438090838
1589996905.4937708,-3.8463400390520035,-0.8573199218959927,8.831700195260018,0.31222222222222223,-0.3088888888888889,-0.6133333333333333,-0.003272492347489368,0.0005061284434272739,0.0
1589996905.5037708,-3.85,-0.85,8.83946651976986,0.31222222222222223,-0.3088888888888889,-0.6133333333333333,-0.003272492347489368,5.819366568881809e-05,0.0
1589996905.5137708,-3.8570937784331565,-0.8570937784331566,8.858375113732626,0.31773960544801066,-0.3088888888888889,-0.6093923453149129,-0.0017248699716700306,0.0026384531583157934,-0.0015476223758193373
1589996905.5237708,-3.86,-0.86,8.857655346957277,0.32,-0.3088888888888889,-0.6077777777777778,-0.001090830782496456,0.001925899593665314,-0.000835068811168858
1589996905.5337708,-3.8521097077130273,-0.86,8.826329123139082,0.32,-0.3088888888888889,-0.6077777777777778,0.0006305639594083724,-0.001491261330360787,0.0
1589996905.5437708,-3.85,-0.8466317794337913,8.886841102831044,0.32,-0.3088888888888889,-0.6077777777777778,-0.0003674158675858086,-0.0029107848900340443,0.0014582466500822646
1589996905.5537708,-3.844364276493369,-0.8681786175331534,8.936907170519891,0.32,-0.3088888888888889,-0.6077777777777778,-0.0023203549190307787,-0.0014282061426878843,0.0015668994967257507
1589996905.5637708,-3.8454909108012134,-0.8735272675963596,8.955490910801213,0.312678785598382,-0.3088888888888889,-0.6108282837784519,-0.0026735268948987756,0.0011979309051811844,0.0016897962350870483
1589996905.5737708,-3.85,-0.8526504196255649,8.91590251775339,0.30666666666666664,-0.3088888888888889,-0.6133333333333333,-0.0013799467139063463,0.0013799467139063463,0.0013799467139063463
1589996905.5837708,-3.856101363817241,-0.8377972723655175,8.845087725644829,0.30666666666666664,-0.3088888888888889,-0.6133333333333333,-0.0017563863292021401,-0.00024028031091491236,0.0004252752357907718
1589996905.5937707,-3.8534201439313263,-0.8497395682060218,8.816579856068675,0.30666666666666664,-0.3088888888888889,-0.6133333333333333,-0.002899412519403479,0.0003446711263246781,0.000717750954410567
1589996905.6037707,-3.8561208748291347,-0.8477582503417301,8.826120874829135,0.30666666666666664,-0.3088888888888889,-0.6133333333333333,-0.00394017621543218,-0.00024453695338916845,0.001090830782496456
1589996905.6137707,-3.86,-0.8603259068311545,8.850325906831154,0.32021727122076965,-0.3088888888888889,-0.5997827287792303,-0.003624252301533214,0.00038731087440876445,0.001090830782496456
1589996905.6237707,-3.8480647733313083,-0.8640323866656542,8.877902840003038,0.32666666666666666,-0.3088888888888889,-0.5933333333333334,-0.003923457979803441,0.0023927620471246016,-0.00021110048213168948
1589996905.6337707,-3.84,-0.8664371890547263,8.851376865671641,0.32666666666666666,-0.3088888888888889,-0.5933333333333334,-0.004363323129985824,0.0018681155527604108,0.0003135460122325011
1589996905.6437707,-3.8470306734317345,-0.8629693265682656,8.886245387453874,0.32666666666666666,-0.3088888888888889,-0.5933333333333334,-0.005130250630087403,0.001857758282598035,-0.0004430242177067018
1589996905.6537707,-3.854167753960857,-0.8558322460391425,8.926671015843429,0.32666666666666666,-0.3088888888888889,-0.5933333333333334,-0.006818048206794717,0.0035455558593053492,-0.001090830782496456
1589996905.6637707,-3.86,-0.8495053914674168,8.95,0.3276558837318331,-0.3094934104287128,-0.5947622024274627,-0.008564785996183495,0.005400200491219562,-0.0010368773612337385
1589996905.6737707,-3.85638136132969,-0.84723727734062,8.92828816797814,0.3466666666666667,-0.3211111111111111,-0.6222222222222222,-0.006638350648174147,0.0051527876204470685,0.0003947322452306223
1589996905.6837707,-3.85,-0.8559916761813561,8.837891790357629,0.3466666666666667,-0.3211111111111111,-0.6222222222222222,-0.010038367162248794,0.006982224995737784,0.0015280710832555047
1589996905.6937706,-3.845806451612903,-0.8541935483870967,8.776774193548388,0.3466666666666667,-0.3211111111111111,-0.6222222222222222,-0.015201254775434485,0.008550705811181898,0.001266771231286207
1589996905.7037706,-3.8444587808620447,-0.8622293904310224,8.822293904310225,0.3466666666666667,-0.3211111111111111,-0.6222222222222222,-0.020121331626608677,0.010060665813304339,-0.00024318877083623388
1589996905.7137706,-3.8646726084373144,-0.87,8.914017825311943,0.34303241565986664,-0.3179960388195683,-0.6154728989238794,-0.02028750811453658,0.00886949777777451,-0.001600533294293968
1589996905.7237706,-3.876352635003253,-0.8572947299934938,8.974468445022772,0.3388888888888889,-0.3144444444444445,-0.6077777777777778,-0.015079298396683278,0.000308299864617086,0.0005901983596122659
1589996905.7337706,-3.854643134148555,-0.8246431341485552,8.964500387807977,0.3388888888888889,-0.3144444444444445,-0.6077777777777778,-0.010877165404486336,-0.009357703307534989,0.006054068539567399
1589996905.7437706,-3.8208952467111463,-0.7453714802668778,8.984628519733123,0.3388888888888889,-0.3144444444444445,-0.6077777777777778,-0.00624370997134228,-0.019740916274483246,0.021735571227889064
1589996905.7537706,-3.778066520821637,-0.6959667395891816,9.044677753470273,0.3388888888888889,-0.3144444444444445,-0.6077777777777778,0.0036943120685042985,-0.0268308091014169,0.06154236534769315
1589996905.7637706,-3.7927648170417454,-0.7038907404226078,9.052218519154785,0.3273491763538147,-0.3232689305006777,-0.5989532917215447,0.01581522860722074,-0.03435935190966049,0.10865139335176568
1589996905.7737706,-3.5948282488020116,-0.8961173316885704,8.81303743416995,0.32,-0.3288888888888889,-0.5933333333333334,0.029142990635467783,-0.05798748686765006,0.15367115523540165
1589996905.7837706,-3.8767132679723963,-0.9156721084485339,8.482315474462336,0.32,-0.3288888888888889,-0.5933333333333334,0.03420648688620539,-0.050634212836670245,0.1654562298626207
1589996905.7937706,-3.855249391134924,-0.863137847053093,8.544603994154896,0.32,-0.3288888888888889,-0.5933333333333334,-0.00025589094245021676,-0.00407544581972933,0.1555505567779464
1589996905.8037705,-3.771342270287506,-0.857561513525004,8.701834378487538,0.32,-0.3288888888888889,-0.5933333333333334,-0.020340208620311467,0.02681929535642307,0.14517323236954147
1589996905.8137705,-3.788059733219961,-0.8687064888133071,8.807711643726417,0.32,-0.3288888888888889,-0.5933333333333334,-0.02459525736043664,0.04383949031692379,0.13727099899502326
1589996905.8237705,-3.8239798579625246,-0.9453400473458251,9.022821088953979,0.32666666666666666,-0.3088888888888889,-0.5988888888888889,-0.0003187188443662184,0.01209529698442786,0.12663252914655573
1589996905.8337705,-2.9875905224787362,-0.7660388821385176,8.691246658566222,0.32666666666666666,-0.3088888888888889,-0.5988888888888889,0.01802137280351314,0.0035756628954638795,0.04979852382210411
1589996905.8437705,-2.376338815789474,-1.039345394736842,9.097815789473684,0.32666666666666666,-0.3088888888888889,-0.5988888888888889,-0.024832906293897943,0.0779796890859695,-0.12097528673434876
1589996905.8537705,-2.340821633845284,-1.342759822858758,9.145751436916989,0.32666666666666666,-0.3088888888888889,-0.5988888888888889,0.003287806941533647,0.07276086969451132,-0.2892800392477248
1589996905.8637705,-2.328202304436432,-1.2980670951559805,8.864471704028844,0.31695877096723624,-0.31536081935517585,-0.6073832976258905,0.053958160975506805,0.05684337333950992,-0.3906474254797718
1589996905.8737705,-2.415537079115885,-1.1330675480272672,8.792469531088619,0.3,-0.32666666666666666,-0.6222222222222222,0.059878520550856365,0.09372446925667753,-0.4534811823854638
1589996905.8837705,-2.5384959581008766,-1.1430080837982466,8.799288398041671,0.3,-0.32666666666666666,-0.6222222222222222,0.030736141359430195,0.0816858751523849,-0.49081622426469196
1589996905.8937705,-2.4909465438456517,-1.052510335823602,8.715308624066148,0.3,-0.32666666666666666,-0.6222222222222222,0.021408117838220317,0.05989244112092312,-0.5019011172328757
1589996905.9037704,-2.1181153077728094,-0.7621120730663115,8.685686423746551,0.3,-0.32666666666666666,-0.6222222222222222,0.019600395370201994,0.05577060476625611,-0.5180063868268797
1589996905.9137704,-1.8364559940113359,-0.6038826506968952,8.669367982034007,0.3146275502322984,-0.3199623728101966,-0.6222222222222222,0.009743596228054556,0.03057526396793358,-0.5677343575515301
1589996905.9237704,-2.062385143630912,-0.7815900957539413,8.950703162781702,0.32666666666666666,-0.3144444444444445,-0.6222222222222222,0.0058594567900294445,0.043893410109185654,-0.644882773466289
1589996905.9337704,-2.154306003619482,-0.8425836021716894,9.034498386969865,0.32666666666666666,-0.3144444444444445,-0.6222222222222222,0.011638861464528536,0.054202247749953913,-0.6696706648196882
1589996905.9437704,-2.2160831918870723,-0.8820623939153042,8.882062393915303,0.32666666666666666,-0.3144444444444445,-0.6222222222222222,0.03727918827999711,0.06305455664185876,-0.7550023674283649
1589996905.9537704,-2.2643404779502343,-0.9173860556787387,8.966067011579208,0.32666666666666666,-0.3144444444444445,-0.6222222222222222,0.027555906655347774,0.06170388190641174,-0.8220521201416443
1589996905.9637704,-2.3221471766276602,-0.9540490588758868,9.049509411241132,0.33161551640386167,-0.3144444444444445,-0.6186230587769895,0.026206696245900944,0.06334845778275244,-0.894802331238926
1589996905.9737704,-2.34,-0.9631122523369028,8.961989728967875,0.3388888888888889,-0.3144444444444445,-0.6133333333333333,0.030810407388200362,0.0741041446228596,-0.9537812996637081
1589996905.9837704,-2.34,-0.969907171902085,8.900835452881235,0.3388888888888889,-0.3144444444444445,-0.6133333333333333,0.03377525035871562,0.07632777685074603,-0.9975127334788081
1589996905.9937704,-2.3979123316609456,-1.0097808291523633,8.748350673356217,0.3388888888888889,-0.3144444444444445,-0.6133333333333333,0.03249719418610527,0.0855163517815776,-1.0857490146509425
1589996906.0037704,-2.3876773336977957,-1.0474408887674016,8.7,0.3388888888888889,-0.3144444444444445,-0.6133333333333333,0.034627429309051494,0.08617563181722003,-1.1494026258295174
1589996906.0137703,-2.345706321334504,-1.0728810359964882,8.712881035996487,0.344613793776217,-0.31182052970441915,-0.6102323431860306,0.036465783508230175,0.08617563181722003,-1.2047698773756967
1589996906.0237703,-2.352065948052981,-1.1347106320353209,8.799228352094188,0.3655555555555556,-0.3022222222222222,-0.5988888888888889,0.038981417900081285,0.08751286600506222,-1.2686300822620518
1589996906.0337703,-2.4499319018604804,-1.2024489263953602,8.90877553680232,0.3655555555555556,-0.3022222222222222,-0.5988888888888889,0.043492234730370005,0.09367045072520698,-1.334716746293788
1589996906.0437703,-2.4988782876951947,-1.2433651369144165,8.898973698438445,0.3655555555555556,-0.3022222222222222,-0.5988888888888889,0.04715044330958499,0.09757337896665934,-1.378383115936476
1589996906.0537703,-2.4973258243097387,-1.289535531492636,8.979767765746319,0.3655555555555556,-0.3022222222222222,-0.5988888888888889,0.048821010723533065,0.10224638623859275,-1.4409245114121596
1589996906.0637703,-2.5192312245395354,-1.3479499321054282,9.008974966052714,0.3655555555555556,-0.3022222222222222,-0.5988888888888889,0.04802450789441414,0.10463589472594952,-1.483139161355462
1589996906.0737703,-2.5642048383074236,-1.3884096766148473,8.847951616925762,0.38,-0.2822222222222222,-0.6133333333333333,0.0545415391248228,0.11901227725769983,-1.5564184715646354
1589996906.0837703,-2.5747977551160086,-1.4239887755800424,8.756415714187941,0.38,-0.2822222222222222,-0.6133333333333333,0.04878464626065869,0.11641615477543896,-1.6047322060765175
1589996906.0937703,-2.5623566012951398,-1.4720542483810752,8.72,0.38,-0.2822222222222222,-0.6133333333333333,0.04206125145698379,0.112579654334032,-1.645097958981801
1589996906.1037703,-2.549943602330854,-1.5132581364411384,8.723314534110285,0.38,-0.2822222222222222,-0.6133333333333333,0.045790284739424876,0.11924365878175729,-1.6743698828498508
1589996906.1137702,-2.5659237962983052,-1.5467936728361578,8.735434938268927,0.3860388202988069,-0.27769310699811706,-0.6125784807959824,0.0545415391248228,0.12727744551517797,-1.6977655789449415
1589996906.1237702,-2.5446574017063948,-1.590931480341279,8.767205558976164,0.4244444444444445,-0.2488888888888889,-0.6077777777777778,0.05494797409664574,0.13138087222433678,-1.723566367124434
1589996906.1337702,-2.63371657023099,-1.6777183470773156,8.812860950384984,0.4244444444444445,-0.2488888888888889,-0.6077777777777778,0.056785423120891645,0.12173652150273773,-1.7559264476639145
1589996906.1437702,-2.6709909993720493,-1.7735135009419263,8.89900900062795,0.4244444444444445,-0.2488888888888889,-0.6077777777777778,0.05748972768617239,0.1217406425914167,-1.7740249742874077
1589996906.1537702,-2.6669040393568695,-1.8003560590353043,8.91690403935687,0.4244444444444445,-0.2488888888888889,-0.6077777777777778,0.06183963768520557,0.12728948463499293,-1.7861830679262292
1589996906.1637702,-2.6720649140843005,-1.8305801145542664,8.9220649140843,0.43149785414728875,-0.2435988316117557,-0.6133617271258628,0.06211407392098119,0.12987214379839504,-1.7970766686815667
1589996906.1737702,-2.6396767962308596,-1.9012928150765607,8.82773757361602,0.4511111111111111,-0.2288888888888889,-0.6288888888888889,0.0594679056770767,0.1336443988868357,-1.8137000842415765
1589996906.1837702,-2.6193836386482374,-1.9576939355862708,8.721073341710204,0.4511111111111111,-0.2288888888888889,-0.6288888888888889,0.05883762766124426,0.1341721862470641,-1.8210498323721698
1589996906.1937702,-2.6,-1.9923891183710936,8.652389118371094,0.4511111111111111,-0.2288888888888889,-0.6288888888888889,0.05659289449670486,0.13391157386084243,-1.825693355037626
1589996906.2037702,-2.5850766256087083,-2.042831423660842,8.690892724147808,0.4511111111111111,-0.2288888888888889,-0.6288888888888889,0.05628352495390887,0.13133936963548157,-1.842070896998678
1589996906.2137702,-2.555040103122314,-2.108911773130908,8.73294385562876,0.4511111111111111,-0.2288888888888889,-0.6288888888888889,0.05759411548700107,0.13002877910238936,-1.847968554397593
1589996906.2237701,-2.5410406482582464,-2.1789593517417534,8.794479675870877,0.4844444444444445,-0.16333333333333333,-0.6133333333333333,0.06448982746868422,0.13842199226166527,-1.8617075943752963
1589996906.2337701,-2.512208562670973,-2.2210428133548663,8.79674862397416,0.4844444444444445,-0.16333333333333333,-0.6133333333333333,0.06920417292659077,0.1408443344659112,-1.8762021254277448
1589996906.2437701,-2.502491031711867,-2.308149662792366,8.802526904864399,0.4844444444444445,-0.16333333333333333,-0.6133333333333333,0.06994903478334714,0.13696719555509218,-1.898185339401312
1589996906.25377,-2.4761281378006514,-2.3816155865980466,8.877743724398698,0.4844444444444445,-0.16333333333333333,-0.6133333333333333,0.06829998465001332,0.13931033034290083,-1.9156416553963365
1589996906.26377,-2.457048944240482,-2.4155412669114216,8.871868521936674,0.49653209648666136,-0.1581529110295261,-0.6211039667890441,0.0684791531320789,0.14483730790683078,-1.9350480701457884
1589996906.27377,-2.4029971724787935,-2.470626767200754,8.796621112158341,0.5311111111111111,-0.14333333333333334,-0.6433333333333333,0.06974480038416903,0.14726215563702155,-1.9564332815897867
1589996906.28377,-2.3219362558019596,-2.52806374419804,8.66935657555441,0.5311111111111111,-0.14333333333333334,-0.6433333333333333,0.06397201033341005,0.14627693122610336,-1.99009712017413
1589996906.29377,-2.2876789582052037,-2.5582140278631975,8.636428055726395,0.5311111111111111,-0.14333333333333334,-0.6433333333333333,0.06083333743607906,0.1441844826278827,-2.0146082847757407
1589996906.30377,-2.246287574951356,-2.589760354207203,8.671856212524322,0.5311111111111111,-0.14333333333333334,-0.6433333333333333,0.0614914865718787,0.14462324871841578,-2.0403825834941847
1589996906.31377,-2.2031740086796265,-2.6268259913203735,8.70023898698056,0.5402124328716089,-0.1190631419720059,-0.6482632159536029,0.06731134731311657,0.1494959560730166,-2.064406626604468
1589996906.32377,-2.176797250400427,-2.6840091653319096,8.742004582665954,0.5577777777777778,-0.07222222222222223,-0.6577777777777778,0.0704239353397094,0.1523669437643196,-2.090295678194506
1589996906.33377,-2.156660428446285,-2.74667914310743,8.74996257067771,0.5577777777777778,-0.07222222222222223,-0.6577777777777778,0.07236320529557251,0.15126322947473933,-2.1096789820652226
1589996906.34377,-2.139325369380698,-2.786686576548255,8.739355234203082,0.5577777777777778,-0.07222222222222223,-0.6577777777777778,0.07774009094903121,0.1541718365084181,-2.1271232836148464
1589996906.35377,-2.1019511878862973,-2.868048812113703,8.811951187886297,0.5577777777777778,-0.07222222222222223,-0.6577777777777778,0.07795449020533433,0.1587557895963966,-2.1420457951476024
1589996906.36377,-2.083822559034131,-2.886177440965869,8.79382255903413,0.5577777777777778,-0.07222222222222223,-0.6577777777777778,0.07663613911224125,0.16007414068948966,-2.148637550613068
1589996906.37377,-2.0522953915890203,-2.916067741123143,8.798523042054898,0.5511111111111111,-0.021111111111111112,-0.6644444444444444,0.07149405488412869,0.16110329016793506,-2.164870160352703
1589996906.38377,-2.0059926179295418,-2.959873615861789,8.716119002067753,0.5511111111111111,-0.021111111111111112,-0.6644444444444444,0.06797214149088246,0.1603107659144651,-2.1736989029101728
1589996906.39377,-1.8899438334951837,-2.956089866407706,8.63603369990289,0.5511111111111111,-0.021111111111111112,-0.6644444444444444,0.0637008416086491,0.1549040979297366,-2.179479903427919
1589996906.40377,-1.8448285162044322,-3.022585741897784,8.670342967591136,0.5511111111111111,-0.021111111111111112,-0.6644444444444444,0.06277888793441767,0.1595433549302519,-2.179479903427919
1589996906.41377,-1.83,-3.03,8.703574593796159,0.5558772361726572,-0.01197603807648121,-0.6707992778598391,0.06821640005694603,0.15976723348481325,-2.178895011885753
1589996906.42377,-1.828155657292348,-3.0324591236102028,8.720614780902551,0.5777777777777777,0.03,-0.7,0.07090400086226964,0.15711316377613932,-2.175972693403882
1589996906.43377,-1.7466280599633204,-3.1133388485766686,8.723305757116657,0.5777777777777777,0.03,-0.7,0.07017557710116473,0.15853467534253857,-2.1645652649168774
1589996906.44377,-1.7154492753623187,-3.1277246376811596,8.718323671497584,0.5777777777777777,0.03,-0.7,0.07040759381052487,0.15898041849227454,-2.1520784449601646
1589996906.45377,-1.7328376024890906,-3.1839529968886366,8.793209400622272,0.5777777777777777,0.03,-0.7,0.0760080634755381,0.16372600958660583,-2.1302302906761583
1589996906.46377,-1.6676186589273836,-3.2574288046435695,8.777523731785475,0.5777777777777777,0.04788415932711235,-0.7005502818254495,0.07123624949077353,0.17183173560531345,-2.1099679171421037
1589996906.47377,-1.6263779995752814,-3.2655119983011254,8.784488001698874,0.5777777777777777,0.10222222222222224,-0.7022222222222222,0.05235987755982988,0.1600687267727199,-2.0926430090174275
1589996906.48377,-1.5963211134584319,-3.242959860817696,8.744883062010688,0.5777777777777777,0.10222222222222224,-0.7022222222222222,0.053651360476569064,0.15574436470710906,-2.0693151309677593
1589996906.49377,-1.5199602649006623,-3.2733796909492274,8.633419426048565,0.5777777777777777,0.10222222222222224,-0.7022222222222222,0.05599453535916796,0.15816612903503577,-2.0394718928952478
1589996906.5037699,-1.4758393698572332,-3.32624094521415,8.709598424643083,0.5777777777777777,0.10222222222222224,-0.7022222222222222,0.05340690326624466,0.15289943164513778,-2.0147285519861797
1589996906.5137699,-1.4640402278641254,-3.3439396582038117,8.680100569660313,0.5777777777777777,0.10222222222222224,-0.7022222222222222,0.05018918644296251,0.15032525818651207,-1.9960657944111435
1589996906.5237699,-1.4768878127522196,-3.3971990314769975,8.699377562550444,0.57,0.17222222222222222,-0.7288888888888889,0.05345070834232633,0.1538071403320003,-1.9492511834224011
1589996906.5337698,-1.370332394822662,-3.3317521116490108,8.667915493528328,0.57,0.17222222222222222,-0.7288888888888889,0.05292342227630321,0.15433442639802342,-1.902244185112298
1589996906.5437698,-1.3311931984755205,-3.3801846965699207,8.6355042509528,0.57,0.17222222222222222,-0.7288888888888889,0.050068205502553545,0.15550846538708124,-1.8618583456424669
1589996906.5537698,-1.2651668188522862,-3.247125798974503,8.681291704713072,0.57,0.17222222222222222,-0.7288888888888889,0.039374417068328914,0.15063915688296742,-1.809892612173485
1589996906.5637698,-1.2935794576637825,-3.433668881334982,8.692751661001235,0.5726497476308199,0.1739547495192968,-0.7349017777434419,0.03212460417026501,0.14408971650697025,-1.762043153554915
1589996906.5737698,-1.236873454882571,-3.4660723114956737,8.717054233621756,0.5960522249690977,0.18925636931740147,-0.7880073993956873,0.026822605308601435,0.1449733829839142,-1.7169761632307747
1589996906.5837698,-1.2277575912657797,-3.5122424087342203,8.654303138860458,0.5988888888888889,0.19111111111111112,-0.7944444444444444,0.028963213432559008,0.13900490901008425,-1.640490588503804
1589996906.5937698,-1.2206025247355852,-3.519397475264415,8.604217673149096,0.5988888888888889,0.19111111111111112,-0.7944444444444444,0.027402220068169756,0.13354143223472187,-1.598343767665294
1589996906.6037698,-1.1486717800225459,-3.488183285073274,8.598046020202913,0.5988888888888889,0.19111111111111112,-0.7944444444444444,0.021869902182705077,0.13004534923176903,-1.5169558793051536
1589996906.6137698,-1.143368860055607,-3.484416126042632,9.048072289156627,0.600085984965503,0.1877592420965915,-0.7994722479662238,0.020762179592335228,0.1219678218297358,-1.4558006221954543
1589996906.6237698,-0.9573716099249856,-3.112383150605886,8.780796306982111,0.6044444444444445,0.17555555555555555,-0.8177777777777778,0.11766684015437968,0.029675569911244468,-1.3915331111566518
1589996906.6337698,-0.8192001345442314,-3.0967023208879922,6.826367305751766,0.6044444444444445,0.17555555555555555,-0.8177777777777778,0.2651093786013886,-0.08746870475488366,-1.3443105033507852
1589996906.6437697,-0.6089793134803365,-2.598972493748579,8.262111843600819,0.6044444444444445,0.17555555555555555,-0.8177777777777778,-0.1702772221102754,0.2542885504336038,-1.2210403690835305
1589996906.6537697,-1.2419268268662595,-3.808849221981485,11.24138246011424,0.6044444444444445,0.17555555555555555,-0.8177777777777778,-0.3300049683046689,0.1609009244215411,-1.1849370677941606
1589996906.6637697,-1.0125706357214934,-3.5844643457786747,9.051379078372015,0.6050299921515865,0.1652108793960459,-0.8277320887991928,0.09159713051959728,0.03562637558397082,-1.1040992548045716
1589996906.6737697,-0.8120604591915991,-3.290242023177059,7.298786155901451,0.6077777777777778,0.11666666666666667,-0.8744444444444445,0.2864391766766021,0.20382017444490083,-0.9888678431720606
1589996906.6837697,-1.0309013739835327,-3.8604223915980524,9.717576792678885,0.6077777777777778,0.11666666666666667,-0.8744444444444445,-0.10393007138079013,0.024781787856498483,-0.9998923558568453
1589996906.6937697,-0.9080659545276362,-3.563374656997256,8.532675421403372,0.6077777777777778,0.11666666666666667,-0.8744444444444445,-0.04526284953274495,0.014979787752655665,-0.948050958943616
1589996906.7037697,-0.8103145179670288,-3.4833480209678647,8.187010559902758,0.6077777777777778,0.11666666666666667,-0.8744444444444445,0.06959994303401132,0.08076316201045801,-0.8712085827814493
1589996906.7137697,-0.903881329004628,-3.805228638530082,8.908813290046279,0.5888023915329296,0.11300096705118463,-0.8377874482896241,0.017482980116013177,0.06300661053769653,-0.8331331429801945
1589996906.7237697,-0.868220702814438,-3.8434266179042775,8.766721259341708,0.51,0.09777777777777777,-0.6855555555555556,-0.01838055939277301,0.0477422758597789,-0.7872069061864247
1589996906.7337697,-0.7849889556602242,-3.751618807860971,8.279933733961345,0.51,0.09777777777777777,-0.6855555555555556,0.028724407438686678,0.06090752977407209,-0.7406933773243733
1589996906.7437696,-0.8054256943316551,-3.840178008770505,8.40255416598993,0.51,0.09777777777777777,-0.6855555555555556,0.030210609014462184,0.05570582425885783,-0.7050245395057613
1589996906.7537696,-0.8092286938581177,-3.86,8.629228693858119,0.51,0.09777777777777777,-0.6855555555555556,0.005361322979890841,0.044462958253304506,-0.6498450160412661
1589996906.7637696,-0.7426630693540708,-3.86,8.562663069354072,0.51,0.09777777777777777,-0.6855555555555556,0.0182700931603557,0.042849361980746396,-0.6143458980449876
1589996906.7737696,-0.7539796043740018,-3.803352816246292,8.708666210310147,0.4866666666666667,0.20444444444444448,-0.6077777777777778,0.01773315620182332,0.038941546526290116,-0.5575488996524622
1589996906.7837696,-0.6509128885612483,-3.4205335860846366,8.465723237322942,0.4866666666666667,0.20444444444444448,-0.6077777777777778,0.014520917737270014,0.033320129213321836,-0.5278356938553441
1589996906.7937696,-0.530102791529153,-3.4151541872937297,7.617612761276128,0.4866666666666667,0.20444444444444448,-0.6077777777777778,0.09968985067920659,0.09985369280271893,-0.4439457028432215
1589996906.8037696,-0.6310382288228823,-3.5665573432343236,8.079031903190318,0.4866666666666667,0.20444444444444448,-0.6077777777777778,0.0572213647476637,0.06524974130294325,-0.4219250064342734
1589996906.8137696,-0.7116869278102956,-3.6651465448854013,9.379950043952746,0.4875387177233193,0.21229290395431777,-0.6038535480228411,-0.1012164718765705,-0.0922871000913597,-0.42629340018396794
1589996906.8237696,-0.5967878201445375,-3.519090744156512,8.280545190650418,0.4933333333333334,0.2644444444444444,-0.5777777777777777,-0.0025849631880942446,0.03321414975066361,-0.3500244792589456
1589996906.8337696,-0.7371437151222442,-3.9217161732689374,8.85686469307575,0.4933333333333334,0.2644444444444444,-0.5777777777777777,0.04058034641077041,0.01598870594870428,-0.28910190421974863
1589996906.8437696,-0.7029737008103255,-3.8727107089135813,8.559737008103255,0.4933333333333334,0.2644444444444444,-0.5777777777777777,-0.008841398122577903,0.008697958294320083,-0.24938392964587225
1589996906.8537695,-0.7177012517055229,-3.967969587312887,8.745518775582845,0.4933333333333334,0.2644444444444444,-0.5777777777777777,0.018736336094411946,0.014122258424343441,-0.20369264758628486
1589996906.8637695,-0.7343205609000489,-4.005801402250122,9.017526169900538,0.4933333333333334,0.26917731036107034,-0.5820373571027411,0.008888180992837013,0.006706519427844101,-0.16506512585440297
1589996906.8737695,-0.7060043403944766,-3.9139956596055234,8.664017361577907,0.4933333333333334,0.2977777777777777,-0.6077777777777778,0.00654735201293034,0.0014183167490405533,-0.11223536112451277
1589996906.8837695,-0.7164891361527793,-3.8929782723055584,8.691913089222234,0.4933333333333334,0.2977777777777777,-0.6077777777777778,0.014946751843994374,0.001415709893452463,-0.071379468909739
1589996906.8937695,-0.6897444644593582,-3.8394889289187164,8.477955715674867,0.4933333333333334,0.2977777777777777,-0.6077777777777778,0.020781534074183452,-0.004419072336736612,-0.033453384413510014
1589996906.9037695,-0.7535881865857025,-4.086757176373172,8.832330596191001,0.4933333333333334,0.2977777777777777,-0.6077777777777778,0.018893833474636725,-0.01256540413166201,0.03153861112687163
1589996906.9137695,-0.7138273283480625,-3.9868728755948335,8.508314072059823,0.4933333333333334,0.2977777777777777,-0.6077777777777778,0.014346909006770178,-0.013929412249091383,0.08216677307474834
1589996906.9237695,-0.7484980436703269,-4.066245109175817,8.798735327527453,0.5133333333333333,0.3244444444444444,-0.5988888888888889,0.013361610073267517,-0.01644438074736548,0.1554756722331835
1589996906.9337695,-0.73337282054056,-4.0284320513514,8.6852961540542,0.5133333333333333,0.3244444444444444,-0.5988888888888889,0.005112080582228977,-0.017269333696469335,0.19424846084106462
1589996906.9437695,-0.7364433991205644,-4.079845928349865,8.6634025292293,0.5133333333333333,0.3244444444444444,-0.5988888888888889,0.009356447936827664,-0.0220752589646186,0.26203538680983574
1589996906.9537694,-0.7149979548011044,-3.9583217438729252,8.56332378907182,0.5133333333333333,0.3244444444444444,-0.5988888888888889,-8.923863646561475e-07,-0.023634815685150655,0.29634563466154096
1589996906.9637694,-0.7636312104034678,-4.055139490941425,8.575754140268979,0.5133333333333333,0.3244444444444444,-0.5988888888888889,-0.002181661564992912,-0.02984853473598672,0.34821871972449636
1589996906.9737694,-0.778658611369779,-4.087317222739558,8.753172227395579,0.5075609257534807,0.323482376514469,-0.6065854323286924,-0.005015185509741536,-0.03526580181781513,0.39120949279216677
1589996906.9837694,-0.7801403112497847,-4.073660726249497,8.600140311249785,0.5066666666666667,0.3233333333333333,-0.6077777777777778,-0.004547679190908494,-0.03782567084857018,0.4409718256877283
1589996906.9937694,-0.8283128194330124,-4.186063245343696,8.648312819433013,0.5066666666666667,0.3233333333333333,-0.6077777777777778,-0.005423480104180614,-0.04132887450165867,0.4733764594787967
1589996907.0037694,-0.7458826429980276,-4.187499383629191,8.647058678500986,0.5066666666666667,0.3233333333333333,-0.6077777777777778,-0.010587459421730271,-0.04658487524411332,0.5025362074844704
1589996907.0137694,-0.8148224852071005,-4.041002218934912,8.612588757396448,0.5066666666666667,0.3233333333333333,-0.6077777777777778,-0.006827374320625007,-0.04282479014300805,0.5241566968158257
1589996907.0237694,-0.8172060094396064,-4.094264663520131,8.691323317600656,0.5488888888888889,0.35,-0.6222222222222222,-0.010210503888252242,-0.044812311837210655,0.5400334131144364
1589996907.0337694,-0.7790348086460185,-4.100965191353982,8.762470992794984,0.5488888888888889,0.35,-0.6222222222222222,-0.007143043108223085,-0.0370882466048795,0.5461313924863226
1589996907.0437694,-0.83,-4.05,8.71506959642826,0.5488888888888889,0.35,-0.6222222222222222,-0.007186897022733369,-0.03856726150108059,0.5555169636752647
1589996907.0537694,-0.8303502864796487,-4.050350286479649,8.678248567601756,0.5488888888888889,0.35,-0.6222222222222222,-0.026735824977840904,-0.048667071610177984,0.5496640833958059
1589996907.0637693,-0.838152764342585,-4.0581527643425845,8.639236178287076,0.5488888888888889,0.35,-0.6222222222222222,-0.014820168732147697,-0.039304770274276174,0.5471107284860144
1589996907.0737693,-0.8929981164826236,-4.1009930937696195,8.675003139195628,0.6344444444444445,0.3688888888888889,-0.6133333333333333,-0.015925718504701553,-0.03872415034550194,0.5345077682895079
1589996907.0837693,-0.9162335192229568,-4.186189570484175,8.63627746796174,0.6344444444444445,0.3688888888888889,-0.6133333333333333,-0.02099489701527313,-0.042948465770978245,0.5260591374385553
1589996907.0937693,-0.95,-4.105853790491648,8.589268276188545,0.6344444444444445,0.3688888888888889,-0.6133333333333333,-0.022508353003514652,-0.044644243396572504,0.5105619940756695
1589996907.1037693,-0.95,-4.162583350240076,8.58217708121999,0.6344444444444445,0.3688888888888889,-0.6133333333333333,-0.018640706125323602,-0.043870714020934294,0.5005061121923727
1589996907.1137693,-0.9587892349561535,-4.118475355306925,8.659103114605383,0.6344444444444445,0.3688888888888889,-0.6133333333333333,-0.015535778910990046,-0.04363323129985824,0.48399624155571125
1589996907.1237693,-0.9916059564719358,-4.173211912943872,8.67,0.8899259259259258,0.4619508718340334,-0.7397571592210768,-0.016133549710696152,-0.04018555627687517,0.47611377457321313
1589996907.1337693,-0.9900963421077167,-4.1305780526463,8.699710973676849,0.9577777777777776,0.4866666666666667,-0.7733333333333333,-0.020683747692733477,-0.03710926519222909,0.4701901044306717
1589996907.1437693,-1.014452123181738,-4.097397169091016,8.610342215000294,0.9577777777777776,0.4866666666666667,-0.7733333333333333,-0.016280263423426814,-0.03886645518248184,0.4639243372343643
1589996907.1537693,-0.9807512681626687,-4.153756340813344,8.632253804488007,0.9577777777777776,0.4866666666666667,-0.7733333333333333,-0.01947105279738649,-0.035587662603508735,0.4505385855844595
1589996907.1637692,-0.9879635456968446,-4.189817728484224,8.653890637090534,0.9577777777777776,0.4866666666666667,-0.7733333333333333,-0.017897577928149142,-0.031653975430415385,0.44031099893441683
1589996907.1737692,-1.02,-4.187673520390776,8.665347040781551,1.4788888888888894,-0.03,-1.5266666666666666,-0.019000505191788208,-0.03343508492150133,0.41864977624966965
1589996907.1837692,-1.02,-4.171791434738157,8.633582869476315,1.4788888888888894,-0.03,-1.5266666666666666,-0.01466933821175783,-0.03083638473348311,0.40219134172555415
1589996907.1937692,-0.9991557609413226,-4.068311521882646,8.608944701176652,1.4788888888888894,-0.03,-1.5266666666666666,-0.015041400466702617,-0.030451169714601663,0.36689625918773766
1589996907.2037692,-0.9665799386431595,-4.003159877286319,8.56822492330395,1.4788888888888894,-0.03,-1.5266666666666666,-0.006157723034709907,-0.026897698741804574,0.3393568591485602
1589996907.2137692,-0.9851598596842897,-3.981613380105237,8.643866198947633,1.4788888888888894,-0.03,-1.5266666666666666,-0.005278161444216314,-0.02617993877991494,0.3036045550743093
1589996907.2237692,-0.9971867535727299,-4.044680782154569,8.68874701429092,0.9358897300604115,0.017911690484865656,-0.9684954725179816,-0.00623810711481729,-0.02617993877991494,0.2727103011468121
1589996907.2337692,-1.016501912327155,-4.119505736981465,8.7,0.7233333333333334,0.03666666666666667,-0.75,-0.001144746514023201,-0.01897962120530756,0.23138882919273857
1589996907.2437692,-1.0275922723246298,-4.11481545535074,8.646854093727592,0.7233333333333334,0.03666666666666667,-0.75,-0.0008281884360802173,-0.014968727211702641,0.190755415314981
1589996907.2537692,-1.03,-4.1039806763285025,8.648057971014493,0.7233333333333334,0.03666666666666667,-0.75,0.0021922009928431185,-0.014180800172453925,0.1537228249091986
1589996907.2637691,-0.9708647872009941,-3.9901774619447035,8.67689577508543,0.7233333333333334,0.03666666666666667,-0.75,-0.0011658063372113796,-0.009573192283122924,0.09580689838594417
1589996907.2737691,-1.017777347614746,-4.076111326192627,8.654860842259216,0.5844444444444444,0.2488888888888889,-0.6911111111111111,0.0036209932388560464,-0.008090363496146124,0.036997590388086664
1589996907.2837691,-1.0899466597840581,-4.040026670107971,8.699966662365036,0.5844444444444444,0.2488888888888889,-0.6911111111111111,-0.0032674011469086108,-0.0021860254512049895,-0.0043327759265012825
1589996907.2937691,-1.0078858001175524,-4.049123799986939,8.544895400222043,0.5844444444444444,0.2488888888888889,-0.6911111111111111,-0.00426774453539871,-0.006162670316630281,-0.050144923773815575
1589996907.303769,-1.069572891988388,-3.881388101037739,8.511921986052254,0.5844444444444444,0.2488888888888889,-0.6911111111111111,0.016240162313736067,0.007606696567067865,-0.09409681261668702
1589996907.313769,-1.0135910440788816,-4.063329106743635,8.763840301645033,0.5844444444444444,0.2488888888888889,-0.6911111111111111,0.0002101475365458745,0.0037900263820225804,-0.1315001804301308
1589996907.323769,-0.8394223701846166,-4.1231769639846085,8.700866444723074,0.5722222222222222,0.2877777777777778,-0.7066666666666667,0.011999138607461015,0.015271630954950384,-0.24216443371421326
1589996907.333769,-0.8212879934281637,-4.2229160361451,8.728068009857754,0.5722222222222222,0.2877777777777778,-0.7066666666666667,0.011999138607461015,0.015271630954950384,-0.24216443371421326
1589996907.343769,-0.8011608848059955,-4.267678230388009,8.532189290462952,0.5722222222222222,0.2877777777777778,-0.7066666666666667,0.011999138607461015,0.017326659631812073,-0.30792535137378735
1589996907.353769,-0.7669880925542598,-4.281505953722871,8.570684524419487,0.5722222222222222,0.2877777777777778,-0.7066666666666667,0.015435905022742566,0.03178343275402648,-0.48138427488391855
1589996907.363769,-0.5778736704035415,-4.376063164798229,8.613665074908285,0.5722222222222222,0.2877777777777778,-0.7066666666666667,0.025750496677544227,0.04116033425839162,-0.5704648391753875
1589996907.373769,-0.542012285012285,-4.35804914004914,8.627987714987716,0.566009555009555,0.2815651105651106,-0.7297422877422877,0.030756067718574524,0.05038432136872881,-0.6951240096328238
1589996907.383769,-0.41218496226234835,-3.8726110633419317,8.707815037737653,0.5644444444444444,0.28,-0.7355555555555555,0.03760943173369051,0.05942802749108761,-0.8845322437822783
1589996907.393769,-0.5430143463107557,-3.901004782103585,8.584521519466133,0.5644444444444444,0.28,-0.7355555555555555,0.031908104504470305,0.07663216658682499,-1.0155399549365611
1589996907.403769,-0.57701023964553,-3.91233674654851,8.635515359468295,0.5644444444444444,0.28,-0.7355555555555555,0.03499841841514012,0.07972248049749482,-1.0890894260105028
1589996907.413769,-0.5939379464285715,-3.944248214285714,8.67,0.5644444444444444,0.28,-0.7355555555555555,0.043700921245736365,0.086441180935834,-1.2128892929038968
1589996907.423769,-0.48292388258532776,-3.7414986907988426,8.708230970646333,0.5455555555555556,0.22,-0.6411111111111111,0.059223808367656706,0.1030205214731971,-1.3661891132393957
1589996907.433769,-0.29493308339509133,-3.9735916997253584,8.56804873795719,0.5455555555555556,0.22,-0.6411111111111111,0.03598153293815297,0.12445985009391548,-1.4737450088849928
1589996907.443769,1.8443628754522863,-6.085460787305463,6.300760713195867,0.5455555555555556,0.22,-0.6411111111111111,-0.24824018379799337,0.4306214888237292,-1.9205216022105847
1589996907.453769,9.501626386778991,-7.235773604014179,-10.18437830870506,0.5455555555555556,0.22,-0.6411111111111111,-1.7315433965396556,1.171763567123688,-12.930334743649832
1589996907.463769,-4.993403585580978,-13.501049149942478,-3.793945896714815,0.5455555555555556,0.22,-0.6411111111111111,-2.1708036992024056,1.4908231305008477,-15.907554084254414
1589996907.473769,-1.833794871794872,-3.7874358974358984,1.1313333333333333,0.5051168091168092,0.33873504273504274,-0.6023931623931624,-2.686889631413168,1.1818676038008011,-7.385606865990569
1589996907.483769,0.3546914371129617,0.1760965193252189,0.20485639547298728,0.4933333333333334,0.37333333333333335,-0.5911111111111111,-2.388728815271386,0.31911028143456377,-2.393307951922615
1589996907.493769,-0.3128994403321899,-0.3359613648673046,-0.020606607690918988,0.4933333333333334,0.37333333333333335,-0.5911111111111111,-2.218525501025258,-0.05262613558798212,-1.0661887201528137
1589996907.503769,0.4590283033146663,-0.35828010695726753,1.9641834418041475,0.4933333333333334,0.37333333333333335,-0.5911111111111111,-1.09771015434821,0.059854365483223496,-0.8001079512840112
1589996907.513769,0.7460336936201303,-0.902526806626985,8.005247652405613,0.4933333333333334,0.37333333333333335,-0.5911111111111111,0.7631260836450913,0.1061636168756865,-0.6624962231774788
1589996907.523769,0.8785030582680545,-0.7371155703401653,7.033301856422363,0.3769682011660765,0.5380473584433236,-0.5648879827353913,2.083070548805536,0.08931093630366357,-0.5796926913555359
1589996907.533769,0.8071512634129457,-0.8550473583183864,5.6161581547562855,0.33555555555555555,0.5966666666666667,-0.5555555555555556,3.6338698017278626,0.08786087767446682,-0.5095494765029004
1589996907.543769,1.357946168857469,-0.5836855186126146,11.802846017894622,0.33555555555555555,0.5966666666666667,-0.5555555555555556,4.596854059182568,0.07874742723538622,-0.4781167068167776
1589996907.5537689,3.3438303358370303,1.8084372447590527,2.4614203808395123,0.33555555555555555,0.5966666666666667,-0.5555555555555556,3.3887987796163417,-0.5214126767081709,-0.2523305552358902
1589996907.5637689,0.8987618712064189,0.6665096651238769,-0.11127528386797181,0.33555555555555555,0.5966666666666667,-0.5555555555555556,1.6338980950173445,-0.4056405229851473,0.018048715167880147
1589996907.5737689,0.6166292849757415,0.5190988626421698,-0.4091549351785573,0.33260783689917545,0.5956840937812066,-0.5683290030665359,0.09170526674304613,0.07415814351513583,0.35923027982335926
1589996907.5837688,1.2932395097831733,-0.594028320218558,7.44515593435558,0.3322222222222222,0.5955555555555555,-0.57,-1.0147112056376173,0.49926745889115065,0.5502654611765754
1589996907.5937688,2.6914500392508693,-4.557436357519345,23.384733654816642,0.3322222222222222,0.5955555555555555,-0.57,-1.7291565265520101,0.12865490923446204,0.650439262699085
1589996907.6037688,0.44952530302315674,-1.0793880582936373,4.7157067396123225,0.3322222222222222,0.5955555555555555,-0.57,-0.2319189690624639,-0.05822748530354043,0.6102292503598216
1589996907.6137688,0.26365606565786104,-1.58832841754296,5.638003975378302,0.3322222222222222,0.5955555555555555,-0.57,0.5570669132239239,0.07361436144527295,0.6583934544052641
1589996907.6237688,0.2889921234528211,-1.7963948722070406,5.732284600546536,0.3219552054867921,0.5705297022629444,-0.586683902195074,0.5931496272645348,0.05876949473124529,0.7632644773790174
1589996907.6337688,0.18193957787281004,-1.9985722168574975,6.312495516622982,0.3144444444444445,0.5522222222222222,-0.5988888888888889,-0.17768533436794143,-0.09857294096551227,0.890580946013003
1589996907.6437688,0.4119069390162967,-2.8120322985030604,9.888379912985767,0.3144444444444445,0.5522222222222222,-0.5988888888888889,-0.6026298317867794,-0.13635384781205698,1.0507874551116505
1589996907.6537688,0.4045276833414279,-3.215589606605148,11.005785089849441,0.3144444444444445,0.5522222222222222,-0.5988888888888889,0.09438925914167429,-0.049053266949886515,1.1695077606087059
1589996907.6637688,0.3593372917065696,-2.6481919172572304,7.983369086381919,0.3144444444444445,0.5522222222222222,-0.5988888888888889,0.38403845775770845,-0.06431305126168868,1.2377381726347838
1589996907.6737688,0.2930831124754514,-2.484703605544645,6.871581787328159,0.3355247731572403,0.5536275774697419,-0.608023697997767,0.12164763022340336,-0.09671740369389517,1.2884349232968346
1589996907.6837687,-0.41786220402350005,-10.967486914723162,7.3178622040235,0.3477777777777778,0.5544444444444444,-0.6133333333333333,-0.6400984544799004,-0.18805942110405938,2.3452939115938616
1589996907.6937687,1.0764448333125012,-4.932983233041087,9.514688141706694,0.3477777777777778,0.5544444444444444,-0.6133333333333333,-0.4679808389465165,-0.42171465850064893,3.977247042683057
1589996907.7037687,-0.10035889782695762,-3.467081498198231,11.70376369526444,0.3477777777777778,0.5544444444444444,-0.6133333333333333,0.4916008211765383,-0.16210492686490374,4.748660523376379
1589996907.7137687,1.2133230310723548,-6.4508420258660335,13.478726750924443,0.3477777777777778,0.5544444444444444,-0.6133333333333333,0.23733134113802062,-0.36239936381031784,3.542763519231994
1589996907.7237687,-0.6736383769109873,-0.08969924274896446,7.272675382197457,0.36042775952120143,0.5262252544014224,-0.6327948437078312,-0.32538255661178006,-0.4141709455711304,-0.7926522114793344
1589996907.7337687,-0.8086495316924418,-0.35191727776567694,11.894184515598152,0.3622222222222222,0.5222222222222223,-0.6355555555555555,0.21873732530732892,0.6850673924237861,-1.4584632227868828
1589996907.7437687,-1.176773623577638,0.3051294555563409,4.46402077885363,0.3622222222222222,0.5222222222222223,-0.6355555555555555,0.22672696934254433,0.5919787060246076,-1.358763950821839
1589996907.7537687,-0.6007754903746887,-1.8247703487783649,7.77339102447319,0.3622222222222222,0.5222222222222223,-0.6355555555555555,-0.07884007578753713,-0.1002913809282534,-1.2590455626322654
1589996907.7637687,-3.950587288817377,-7.924652721909359,8.83598820058997,0.3622222222222222,0.5222222222222223,-0.6355555555555555,-0.18558486346532155,-0.143937886124474,-1.0623325723431742
1589996907.7737687,-5.195178926441352,-10.369041137788653,8.48772174644441,0.38647597322050603,0.514411692239724,-0.6437771660634484,-0.17727322257768247,-0.01052516581552906,-0.284544227211352
1589996907.7837687,-0.8594943330427202,-3.175710549258936,9.164777680906713,0.42777777777777776,0.5011111111111111,-0.6577777777777778,0.07442661395587634,-0.06264145697532177,1.0365826359578583
1589996907.7937686,1.76623476041962,-3.738194995747094,9.10737631131273,0.42777777777777776,0.5011111111111111,-0.6577777777777778,0.1841502207210701,-0.05431966933956808,1.3985889557098063
1589996907.8037686,3.5090833139939663,-8.498212655681906,9.161158428096233,0.42777777777777776,0.5011111111111111,-0.6577777777777778,-0.1537350342823644,-0.1412822477839232,0.8464930834161251
1589996907.8137686,0.48293414026343884,-5.172431826272694,10.237615165539337,0.42777777777777776,0.5011111111111111,-0.6577777777777778,-0.11541645963619346,-0.0010117659383112598,-0.4104073932912432
1589996907.8237686,-0.8288261600795046,-2.227697041510588,8.613432077058329,0.4085603377247746,0.49406471642500993,-0.6411226630651752,0.11062938779783242,0.15488175166742119,-0.5356918118788041
1589996907.8337686,1.2791869436201782,-3.365821958456973,8.636272997032641,0.3944444444444444,0.4888888888888889,-0.6288888888888889,0.015427648888826723,-0.10463106442695827,0.3374888018033857
1589996907.8437686,1.6274183492986358,-5.568106754461237,8.757860357599425,0.3944444444444444,0.4888888888888889,-0.6288888888888889,-0.08427942433314835,-0.09247953838188852,0.2821279286317325
1589996907.8537686,-1.096514894847746,-4.9052753790852375,8.955132421600629,0.3944444444444444,0.4888888888888889,-0.6288888888888889,0.024222455718088468,0.05647707306500832,-0.17496857244744396
1589996907.8637686,-0.19891843937804055,-4.712128398359249,8.371906133740342,0.3944444444444444,0.4888888888888889,-0.6288888888888889,0.011139938972712066,0.009979077748870559,-0.022951067176871093
1589996907.8737686,-0.0008270474137931083,-4.533369552203065,8.886677741858238,0.4067932165283099,0.48223955007449976,-0.6345883221583652,0.001865135175938774,-0.007178037473087011,0.019544737207181247
1589996907.8837686,-0.0857625027756532,-4.683050011102613,8.488307468357553,0.4088888888888889,0.4811111111111111,-0.6355555555555555,0.002181661564992912,0.0004436958446679467,-0.0007024959928134643
1589996907.8937685,-0.04701214543479104,-4.7143292848550695,8.515228745489116,0.4088888888888889,0.4811111111111111,-0.6355555555555555,0.0006185790638858876,0.001481601407773212,-0.0014001203144393998
1589996907.9037685,-0.035910230908933666,-4.630149615151777,8.523672057424545,0.4088888888888889,0.4811111111111111,-0.6355555555555555,-0.006375647909146241,-0.0008140429665451808,0.0005991409063076184
1589996907.9137685,-0.0729245588473369,-4.546830176461065,8.532697911607576,0.4088888888888889,0.4811111111111111,-0.6355555555555555,-0.007209778685703669,-0.001037322327405566,0.0007183024458158223
1589996907.9237685,-0.04,-4.56714970397519,8.735189898908535,0.40849168311248946,0.48184877898156725,-0.6355555555555555,-0.0019031216656402385,0.0030496604280072295,0.0
1589996907.9337685,-0.043531604226705094,-4.678810374639769,8.520037271853987,0.4011111111111111,0.4955555555555556,-0.6355555555555555,0.007510113209782324,0.00045012225833734637,0.0
1589996907.9437685,-0.05,-4.5786582653817645,8.604171901213375,0.4011111111111111,0.4955555555555556,-0.6355555555555555,0.011397694238601435,0.002215964152121473,0.0
1589996907.9537685,-0.05,-4.5551625320786995,8.59206501283148,0.4011111111111111,0.4955555555555556,-0.6355555555555555,-0.0036103792819136326,0.0007647635143781113,0.0007647635143781113
1589996907.9637685,-0.04393542168674699,-4.581806265060241,8.579677108433735,0.4011111111111111,0.4955555555555556,-0.6355555555555555,-0.0078680704363701,0.0017523736531921382,0.00042928791180077387
1589996907.9737685,-0.04,-4.608915401301519,8.572971800433839,0.4011111111111111,0.4955555555555556,-0.6389186149272917,-0.004481634494681752,-0.00017667830461258601,-0.0004716679739210995
1589996907.9837685,-0.050118691070438155,-4.5739911259012755,8.630474764281752,0.4011111111111111,0.4955555555555556,-0.6433333333333333,0.0038502757070479456,-0.001616825392758474,1.2947187324139839e-05
1589996907.9937685,-0.0550707966128003,-4.554079644033596,8.6552123898384,0.4011111111111111,0.4955555555555556,-0.6433333333333333,0.0038565213010071223,0.0010753853575886452,0.001090830782496456
1589996908.0037684,-0.040939565798504496,-4.588288480294766,8.626409348697758,0.4011111111111111,0.4955555555555556,-0.6433333333333333,-0.00385086948239104,0.002181661564992912,0.0005966607560077065
1589996908.0137684,-0.035644098136253556,-4.595152785090028,8.604355901863746,0.4011111111111111,0.4955555555555556,-0.6433333333333333,-0.007970450246531228,0.0015659859663472867,0.0
1589996908.0237684,-0.05377859874262752,-4.595553503143432,8.613778598742627,0.41488970985373863,0.4993829440951743,-0.6479261995808758,-0.0027874547829474703,0.00033932480009020286,0.0
1589996908.0337684,-0.03805103148751357,-4.572683677162504,8.649265291349982,0.4211111111111111,0.5011111111111111,-0.65,0.002899604300414485,-0.0031923480663287526,0.0023942610497465645
1589996908.0437684,-0.037263353617308995,-4.511893171061528,8.609156524678838,0.4211111111111111,0.5011111111111111,-0.65,0.005947941071969351,0.002767457608940045,0.0008955654345140784
1589996908.0537684,-0.03309823904759757,-4.54521408761922,8.624508804762012,0.4211111111111111,0.5011111111111111,-0.65,0.0005220620547286368,0.0031955579223884928,0.0007528653300312623
1589996908.0637684,-0.03957688128226026,-4.58436532192339,8.61605779679435,0.4211111111111111,0.5011111111111111,-0.65,-0.005315688635893998,0.0006146480295423692,0.0016131686276466368
1589996908.0737684,-0.04656351194476691,-4.613745952220932,8.617491904441865,0.416910959043604,0.5011111111111111,-0.647709007963178,-0.007602058173672757,-0.0018405561733623834,0.0010570734786940208
1589996908.0837684,-0.0531740614334471,-4.600477815699659,8.630477815699658,0.4088888888888889,0.5011111111111111,-0.6433333333333333,-0.0018614859769564094,-0.00039835799906867177,0.0017833035659242404
1589996908.0937684,-0.04677203570448838,-4.553544071408977,8.596772035704488,0.4088888888888889,0.5011111111111111,-0.6433333333333333,0.001442947064330812,0.001090830782496456,0.0011080717509931504
1589996908.1037683,-0.059032115822738304,-4.559032115822738,8.59,0.4088888888888889,0.5011111111111111,-0.6433333333333333,0.00010557978544483218,-0.00029322373720226365,0.0006920272598493598
1589996908.1137683,-0.04337399976349088,-4.564674799952698,8.611300800189207,0.4088888888888889,0.5011111111111111,-0.6433333333333333,-0.003995276849770663,7.094764441322701e-05,-0.0006518368578680683
1589996908.1237683,-0.03011236578531199,-4.580224731570624,8.619887634214688,0.41225967748399295,0.5084144864005031,-0.6433333333333333,-0.005993440700854622,0.0016423747766205691,-0.002181661564992912
1589996908.1337683,-0.04,-4.583048671944535,8.632601770740619,0.4155555555555556,0.5155555555555555,-0.6433333333333333,-0.0011395801414931118,0.00033255852028326845,0.0002838091612866124
1589996908.1437683,-0.04411453015526529,-4.565885469844734,8.621198288913144,0.4155555555555556,0.5155555555555555,-0.6433333333333333,0.001732835950105582,-0.001539656397383786,0.001732835950105582
1589996908.1537683,-0.05,-4.546199067504561,8.604151631867019,0.4155555555555556,0.5155555555555555,-0.6433333333333333,0.002596278981814492,-0.0014289374653338937,0.001467192832325965
