time,acc_x,acc_y,acc_z,mag_x,mag_y,mag_z,gyr_x,gyr_y,gyr_z
1589997172.633945,-3.98,-0.8,8.96,0.3288888888888889,-0.31222222222222223,-0.5688888888888889,0.0,0.0,-0.002181661564992912
1589997172.643945,-4.01,-0.7940316126450581,8.881778711484595,0.3288888888888889,-0.31222222222222223,-0.5688888888888889,0.000651050064863331,0.002392930912223118,-0.002198903588165625
1589997172.653945,-4.01,-0.8123325851468722,8.864665170293744,0.3288888888888889,-0.31222222222222223,-0.5688888888888889,0.0017937018007955778,0.001987681682894245,-0.005005728462283385
1589997172.663945,-4.006147299509002,-0.8280736497545008,8.909631751227495,0.3288888888888889,-0.31222222222222223,-0.5688888888888889,0.004363323129985824,0.0028522279183573456,-0.004153190915419813
1589997172.673945,-3.9924180032733227,-0.8212090016366612,8.943954991816693,0.3288888888888889,-0.31222222222222223,-0.5688888888888889,0.004363323129985824,0.0013545940227681847,-0.0034043739676252326
1589997172.683945,-4.002332678210985,-0.8176673217890151,9.003001965367046,0.3144444444444445,-0.33,-0.5844444444444444,0.001090830782496456,0.00025445571982009915,-0.0007633671594602974
1589997172.693945,-4.003344363275383,-0.8066721816376919,8.953377453101535,0.3144444444444445,-0.33,-0.5844444444444444,0.001090830782496456,0.001090830782496456,-0.0029094836766731013
1589997172.703945,-3.9927827902204296,-0.794434419559141,8.90278279022043,0.3144444444444445,-0.33,-0.5844444444444444,0.0001801648123940649,0.0007872754591289922,-0.002181661564992912
1589997172.713945,-4.0,-0.7803154218457816,8.912838796612034,0.3144444444444445,-0.33,-0.5844444444444444,-0.0022160687508779474,0.00013762874354014242,-0.002250475936762983
1589997172.723945,-4.001346708313311,-0.791346708313311,8.995959875060068,0.31728749532810085,-0.3292518287148273,-0.5832473703881681,-0.002978686170848684,0.004363323129985824,-0.004363323129985824
1589997172.733945,-4.009744714079769,-0.7997447140797694,8.970765857760693,0.3350166186128464,-0.3245862699556837,-0.5757824763735384,-0.0011465255305215631,0.004363323129985824,-0.004363323129985824
1589997172.743945,-4.000539008554055,-0.8136926723693703,8.938463361846852,0.33555555555555555,-0.3244444444444444,-0.5755555555555556,0.0029284809907503023,0.0029284809907503023,-0.006544984694978735
1589997172.7539449,-3.98,-0.8,8.886654899341666,0.33555555555555555,-0.3244444444444444,-0.5755555555555556,0.0024844561796807303,0.002787250794368548,-0.005636600850915281
1589997172.7639449,-3.9768929968005686,-0.8,8.939321009598293,0.33555555555555555,-0.3244444444444444,-0.5755555555555556,0.003272492347489368,0.006057930495613095,-0.004289256766865731
1589997172.7739449,-3.9701155350159976,-0.8,8.95965339495201,0.33555555555555555,-0.3244444444444444,-0.5755555555555556,0.003272492347489368,0.009754462466515146,-0.00650717594940696
1589997172.7839448,-3.9978876799648315,-0.7821123200351687,8.971056160017584,0.3144444444444445,-0.3244444444444444,-0.5755555555555556,0.00011520918584230066,0.00796102267635991,-0.011558722222733997
1589997172.7939448,-4.042697674418605,-0.7453953488372093,8.940558139534883,0.3144444444444445,-0.3244444444444444,-0.5755555555555556,-0.002181661564992912,0.00813810500057821,-0.01308996938995747
1589997172.8039448,-4.06,-0.7756417430230118,8.901791284884942,0.3144444444444445,-0.3244444444444444,-0.5755555555555556,-0.003607897825551508,0.004363323129985824,-0.010712908955693143
1589997172.8139448,-4.0483901232629345,-0.7839318520844782,8.941609876737065,0.3144444444444445,-0.3244444444444444,-0.5755555555555556,-0.00545415391248228,0.002337017381860979,-0.0051029332923191355
1589997172.8239448,-4.020948417994818,-0.816861898406218,8.969051582005182,0.3144444444444445,-0.3244444444444444,-0.5755555555555556,-0.00545415391248228,-0.002452463711044085,0.0008839180738121951
1589997172.8339448,-4.009941814880535,-0.8100581851194653,8.989709074402674,0.3288888888888889,-0.3244444444444444,-0.5988888888888889,-0.0032788393594289545,-0.0010781367586172829,0.004344282094167064
1589997172.8439448,-4.001287706846036,-0.8187122931539635,8.946438534230182,0.3288888888888889,-0.3244444444444444,-0.5988888888888889,-0.004222856103337031,0.0008098967291988708,0.001512231862442834
1589997172.8539448,-4.015095174856131,-0.815095174856131,8.877166888003542,0.3288888888888889,-0.3244444444444444,-0.5988888888888889,-0.0002882806450422241,0.0040750424849436,0.00273745892251988
1589997172.8639448,-4.006488708577173,-0.8097330628657595,8.946221771442932,0.3288888888888889,-0.3244444444444444,-0.5988888888888889,0.0028894698704558224,0.00619108054224728,0.002506447393422277
1589997172.8739448,-4.018458015813387,-0.8269160316267754,8.98616793674645,0.32768956785485714,-0.3244444444444444,-0.5966615783971156,0.0038587099849219917,0.00545415391248228,0.0046131320040425595
1589997172.8839447,-4.002392867533979,-0.81,8.989571470135916,0.3211111111111111,-0.3244444444444444,-0.5844444444444444,0.0006759260694732601,0.005039249199459084,0.00041490471302319584
1589997172.8939447,-3.993061523314231,-0.8069384766857691,8.915507813486153,0.3211111111111111,-0.3244444444444444,-0.5844444444444444,-0.0006679207744987262,0.0030274815809883714,0.00042291000799772973
1589997172.9039447,-4.00388442629557,-0.8,8.86,0.3211111111111111,-0.3244444444444444,-0.5844444444444444,-0.002605386742547549,0.00042372517755463713,-0.0006671056049418188
1589997172.9139447,-4.015873669703698,-0.8,8.877621009111094,0.3211111111111111,-0.3244444444444444,-0.5844444444444444,-0.0035928513334399005,-0.0005109641472562068,-0.0006407179719010651
1589997172.9239447,-4.028718934231683,-0.8,8.916156802695046,0.3211111111111111,-0.3244444444444444,-0.5844444444444444,-0.004293451831261642,-0.004013966636364916,-0.002041918967544549
1589997172.9339447,-3.991699074875464,-0.803398149750928,8.968300925124536,0.3144444444444445,-0.3244444444444444,-0.5755555555555556,-0.0018109809298084182,-0.0027164713947126274,-0.00018534031759224686
1589997172.9439447,-3.999766122362626,-0.8195322447252514,8.960233877637375,0.3144444444444445,-0.3244444444444444,-0.5755555555555556,-5.1024185237078055e-05,-7.653627785561643e-05,-0.001065318689877917
1589997172.9539447,-4.003354097564922,-0.8300311463473828,8.876614756087696,0.3144444444444445,-0.3244444444444444,-0.5755555555555556,0.002181661564992912,-0.004000845382303259,-0.0007249554953651311
1589997172.9639447,-3.995560699161339,-0.8081464336128872,8.928535663871129,0.3144444444444445,-0.3244444444444444,-0.5755555555555556,0.0011706979287611947,-0.003272492347489368,-0.0025860470194855986
1589997172.9739447,-4.018854111405835,-0.8,9.008281167108754,0.3152720306513411,-0.32406248157972295,-0.5768924255820808,-0.003272492347489368,-0.003334990875080677,-0.004238326074803206
1589997172.9839447,-4.001053368700266,-0.8,8.981580053050399,0.328128122605364,-0.3181289006778662,-0.5976599587385795,-0.003272492347489368,-0.004305870779807442,-0.002296566265349674
1589997172.9939446,-4.0,-0.7980406360862339,8.973918727827533,0.3288888888888889,-0.31777777777777777,-0.5988888888888889,-0.003600480367134039,-0.004691311149630495,0.0
1589997173.0039446,-4.0,-0.8329104919976289,8.900634262003557,0.3288888888888889,-0.31777777777777777,-0.5988888888888889,-0.003976650451898758,-0.004680808556308147,-0.00038667267808706617
1589997173.0139446,-3.9970679901433384,-0.8258640197133238,8.922932009856662,0.3288888888888889,-0.31777777777777777,-0.5988888888888889,-0.002952659686866383,-0.001673329044374444,-0.0014106634431194408
1589997173.0239446,-3.989125923257071,-0.8404370383714646,8.932185191857323,0.3288888888888889,-0.31777777777777777,-0.5988888888888889,-0.0021339880741203412,0.0020863145832477705,-0.002181661564992912
1589997173.0339446,-3.979044691971889,-0.8379404107041482,8.976985102676037,0.3288888888888889,-0.31777777777777777,-0.5988888888888889,-0.0004330822210874581,0.0026309942456359914,-0.001523913003583914
1589997173.0439446,-4.007514763070719,-0.8039881895434251,8.954970473858562,0.3288888888888889,-0.31777777777777777,-0.5988888888888889,0.0015826708753389096,0.0070871792838301355,0.0
1589997173.0539446,-4.0353841982711876,-0.7720879716755447,8.884615801728811,0.3288888888888889,-0.31777777777777777,-0.5988888888888889,0.003907798374652865,-0.002637186320325871,-0.0004555247553329591
1589997173.0639446,-3.982885816761244,-0.7886574502837321,8.94,0.3288888888888889,-0.31777777777777777,-0.5988888888888889,0.0006076926870882979,-0.004992910681147669,-0.0015520740138310664
1589997173.0739446,-3.9899484735716575,-0.8098454207149713,8.94,0.3288888888888889,-0.31777777777777777,-0.5988888888888889,-0.0032443890404151,-0.0065337433721490284,-1.1241322829707353e-05
1589997173.0839446,-4.007280367674236,-0.8127196323257645,8.947280367674235,0.3144444444444445,-0.3244444444444444,-0.5844444444444444,-0.0007941649166948198,-0.0023824947500844596,0.0005933317316032724
1589997173.0939445,-4.00054026257854,-0.8194597374214594,8.94054026257854,0.3144444444444445,-0.3244444444444444,-0.5844444444444444,-5.893350513029431e-05,-0.0001768005153908827,0.0020637945547323233
1589997173.1039445,-4.012642715450738,-0.8120718536477849,8.866427154507383,0.3144444444444445,-0.3244444444444444,-0.5844444444444444,-0.0035607678837938097,0.001090830782496456,0.002407665738576044
1589997173.1139445,-4.02,-0.7895993715632365,8.942403770620581,0.3144444444444445,-0.3244444444444444,-0.5844444444444444,-0.004275919563752801,0.001090830782496456,0.0
1589997173.1239445,-4.02,-0.780694465085667,8.995833209485998,0.3144444444444445,-0.3244444444444444,-0.5844444444444444,-0.002333170343555826,0.001090830782496456,0.0
1589997173.1339445,-4.02,-0.7916208906785264,9.01743133601779,0.3144444444444445,-0.320570814218269,-0.5792796041428772,-0.0002801977741685108,0.001090830782496456,0.0019014637908244011
1589997173.1439445,-4.016546633587973,-0.8103600992360788,8.97474613740758,0.3144444444444445,-0.31777777777777777,-0.5755555555555556,0.0007141269439487005,0.0003374231054009449,0.003272492347489368
1589997173.1539445,-4.002807281621902,-0.83,8.884385436756197,0.3144444444444445,-0.31777777777777777,-0.5755555555555556,0.0011769057924987047,-0.0006985288516635545,0.0020955865549906636
1589997173.1639445,-3.9874438519393447,-0.8223315558180334,8.917668444181967,0.3144444444444445,-0.31777777777777777,-0.5755555555555556,0.002435994850734864,0.0016729949935090076,0.0002788324989181679
1589997173.1739445,-3.980158413089924,-0.8004752392697713,8.939524760730228,0.3144444444444445,-0.31777777777777777,-0.5755555555555556,5.184056245176056e-05,0.006441303570075214,0.0010735505950125357
1589997173.1839445,-4.018013469827586,-0.8,8.980067349137931,0.33555555555555555,-0.31777777777777777,-0.5688888888888889,-0.0013075276087391517,0.005020760259996888,0.002181661564992912
1589997173.1939445,-4.010480603448276,-0.8,8.942403017241379,0.33555555555555555,-0.31777777777777777,-0.5688888888888889,-0.0021292358614375863,0.003377343754600019,0.002181661564992912
1589997173.2039444,-4.0081841328037475,-0.780895203177513,8.863631734392504,0.33555555555555555,-0.31777777777777777,-0.5688888888888889,-0.0023797419484526514,0.00267825119711015,0.0028763315805698892
1589997173.2139444,-4.0,-0.8303551285150269,8.884261542180324,0.33555555555555555,-0.31777777777777777,-0.5688888888888889,-0.0031950153243026284,-7.747702318673965e-05,0.0010520922709030861
1589997173.2239444,-4.0,-0.8388038836515993,8.985646603819193,0.33555555555555555,-0.31777777777777777,-0.5688888888888889,-0.0013517828889529843,-0.0019207094585363832,0.00013047605322826438
1589997173.2339444,-4.002379459725989,-0.84,9.03762054027401,0.3144444444444445,-0.31777777777777777,-0.5844444444444444,0.001480168969719331,0.0017923233777700372,0.0009610513867554977
1589997173.2439444,-4.017151762758426,-0.84,9.022848237241574,0.3144444444444445,-0.31777777777777777,-0.5844444444444444,0.0038972814011416276,-0.0006247890536522599,0.00015534724294806533
1589997173.2539444,-4.01,-0.8088406140247031,8.859275087802375,0.3144444444444445,-0.31777777777777777,-0.5844444444444444,0.0013437695646261738,0.002181661564992912,0.0002529387821297177
1589997173.2639444,-4.01,-0.800564894834458,8.925480841324335,0.3144444444444445,-0.31777777777777777,-0.5844444444444444,0.0031492514126293643,0.002181661564992912,0.0020584206301329086
1589997173.2739444,-4.019379350069601,-0.8,8.9393793500696,0.3144444444444445,-0.31777777777777777,-0.5844444444444444,0.00020310721477001612,0.002181661564992912,-0.0019108519452995568
1589997173.2839444,-4.011000205803663,-0.8,8.96699938258901,0.3144444444444445,-0.32377764057533553,-0.5844444444444444,0.0,0.00021821105589350798,0.0007635141986561942
1589997173.2939444,-3.996840783800011,-0.8168407838000109,8.91262431090006,0.3144444444444445,-0.3244444444444444,-0.5844444444444444,-0.001090830782496456,0.0001723085139754786,0.0009185222685209773
1589997173.3039443,-3.9815785164565254,-0.8015785164565253,8.828681840510889,0.3144444444444445,-0.3244444444444444,-0.5844444444444444,-0.001090830782496456,0.0010047360654237046,8.609471707275132e-05
1589997173.3139443,-4.006034929848362,-0.82,8.9160931462623,0.3144444444444445,-0.3244444444444444,-0.5844444444444444,-0.002833619864235998,0.002181661564992912,0.0006583087248800546
1589997173.3239443,-4.027643523209288,-0.82,8.973716061891432,0.3144444444444445,-0.3244444444444444,-0.5844444444444444,-0.001262198610599658,0.002181661564992912,0.0030154406053345645
1589997173.3339443,-3.996106686152722,-0.81,9.03,0.3144444444444445,-0.31777777777777777,-0.59,-0.001293480067068383,-0.0008687854080153237,0.0015155254415495153
1589997173.3439443,-4.02,-0.8121907063813654,9.01028364256771,0.3144444444444445,-0.31777777777777777,-0.59,0.001464754578131482,0.00023896899562047665,-0.0008518617868759793
1589997173.3539443,-4.015597521248194,-0.8155975212481936,8.93339628187229,0.3144444444444445,-0.31777777777777777,-0.59,-0.0013309487495843059,0.001571066716672156,0.00024011796708784994
1589997173.3639443,-4.0,-0.8,8.91,0.3144444444444445,-0.31777777777777777,-0.59,-0.002181661564992912,0.00249907175373449,0.001090830782496456
1589997173.3739443,-4.0,-0.8,8.91,0.3144444444444445,-0.31777777777777777,-0.59,-0.002181661564992912,-0.0007118141181709685,0.001090830782496456
1589997173.3839443,-3.995433999098964,-0.8218113330329879,8.934566000901036,0.3144444444444445,-0.3244444444444444,-0.5755555555555556,0.0006956592165492741,-0.00030048765060209227,-0.000893244999522865
1589997173.3939443,-4.02,-0.82420829061081,8.900347151018016,0.3144444444444445,-0.3244444444444444,-0.5755555555555556,-0.0008802382863297166,0.0034830848436561072,0.00021059249616673926
1589997173.4039443,-4.018290137092558,-0.8,8.862849771512401,0.3144444444444445,-0.3244444444444444,-0.5755555555555556,-0.0001243447395524011,0.004238978390433423,0.001090830782496456
1589997173.4139442,-3.99707215486569,-0.8,8.89821307522385,0.3144444444444445,-0.3244444444444444,-0.5755555555555556,-0.0016673599499211465,0.0026959631800646776,0.001090830782496456
1589997173.4239442,-4.008237730311429,-0.8273565954671449,8.96471319093429,0.3144444444444445,-0.3244444444444444,-0.5755555555555556,-0.00019223380233526332,0.0041710893276505605,-0.0008985969801611926
1589997173.4339442,-4.0,-0.82,9.028465531263455,0.3088888888888889,-0.33,-0.59,0.0029377232009690233,0.0005021537197805171,0.0020142769917327395
1589997173.4439442,-4.0,-0.8184646029105055,9.004646029105054,0.3088888888888889,-0.33,-0.59,0.0009233449416388463,0.003439978188346978,0.0015932883050692852
1589997173.4539442,-4.001503188660246,-0.81,8.918496811339754,0.3088888888888889,-0.33,-0.59,0.00016397244624962863,0.004527295576235452,0.004035378237486567
1589997173.4639442,-4.01,-0.8083516704070648,8.908351670407065,0.3088888888888889,-0.33,-0.59,0.000911025916529098,0.0052743490465149215,0.0027210761628949855
1589997173.4739442,-4.01,-0.8006988158446914,8.900698815844692,0.3088888888888889,-0.33,-0.59,7.622898346856095e-05,0.004439552113454385,0.005225466962076596
1589997173.4839442,-4.002070971100097,-0.7920709711000974,8.932070971100098,0.3144444444444445,-0.3244444444444444,-0.5911111111111111,-0.0028206765423600282,0.001090830782496456,0.00500233810735294
1589997173.4939442,-4.005301467086914,-0.8046985329130859,8.930602934173828,0.3144444444444445,-0.3244444444444444,-0.5911111111111111,-0.001090830782496456,0.001090830782496456,0.0025891184362671262
1589997173.5039442,-3.98118452559114,-0.83,8.889476204729124,0.3144444444444445,-0.3244444444444444,-0.5911111111111111,-0.0008324073870023091,0.001090830782496456,-0.0007031956892552356
1589997173.5139441,-3.992133574707442,-0.8289332126462792,8.963200362061164,0.3144444444444445,-0.3244444444444444,-0.5911111111111111,0.001090830782496456,0.0016726730244047616,0.002181661564992912
1589997173.5239441,-4.005692441973233,-0.8221537790133833,8.98353866295985,0.3144444444444445,-0.3244444444444444,-0.5911111111111111,0.001090830782496456,0.005370280471732042,0.002181661564992912
1589997173.5339441,-3.9900362748517617,-0.7800725497035229,9.019945587722358,0.3144444444444445,-0.3244444444444444,-0.5689291942797349,-0.002175726106253134,0.009811541583728326,0.004359366157492639
1589997173.5439441,-3.968144251729694,-0.8,8.92443275518908,0.3144444444444445,-0.3244444444444444,-0.5688888888888889,-0.0040822152826151615,0.02333484615328998,0.007433384743693743
1589997173.553944,-3.9534665907905344,-0.8008666476976336,8.871733295395266,0.3144444444444445,-0.3244444444444444,-0.5688888888888889,-0.012755431396387755,0.039786199563845284,0.005265080715250594
1589997173.563944,-3.9926941007533885,-0.8106735251883471,8.892694100753388,0.3144444444444445,-0.3244444444444444,-0.5688888888888889,-0.021093135871550515,0.05745790269805141,0.0031990221466657973
1589997173.573944,-4.025696048153904,-0.8189240120384759,8.925696048153904,0.3144444444444445,-0.3244444444444444,-0.5688888888888889,-0.0255930783849019,0.06645778772475419,0.0022990336439955208
1589997173.583944,-4.07474885284519,-0.8110502294309622,8.965799082276153,0.32737189082194357,-0.3244444444444444,-0.5828107542185034,-0.027156207303213675,0.06372643442158535,0.002181661564992912
1589997173.593944,-4.094970737149231,-0.8708284561915387,9.046686175233846,0.3288888888888889,-0.3244444444444444,-0.5844444444444444,-0.02182938397728967,0.04065738726179401,0.009184883181492
1589997173.603944,-4.138162704882863,-0.8780271174804771,9.017891530078092,0.3288888888888889,-0.3244444444444444,-0.5844444444444444,-0.0029833327931143953,0.005321041291465378,0.0036881182527742093
1589997173.613944,-3.927455266572844,-0.7649105331456875,8.870669310767095,0.3288888888888889,-0.3244444444444444,-0.5844444444444444,0.01789641947280214,-0.0519702424460118,-0.0003701164740786323
1589997173.623944,-3.90445725878676,-0.71891451757352,8.78634328221812,0.3288888888888889,-0.3244444444444444,-0.5844444444444444,0.012042801345999703,-0.038590543870463366,-0.0037150411179657414
1589997173.633944,-3.834193149206182,-0.73,8.767360522366445,0.3144444444444445,-0.3322222222222222,-0.5911111111111111,-0.023947241004698597,0.03526518837182232,-0.00017275340714347127
1589997173.643944,-3.7258045842317427,-0.7286015280772475,8.73118777538202,0.3144444444444445,-0.3322222222222222,-0.5911111111111111,-0.06934718684473608,0.13250045509333194,-0.005408187058002842
1589997173.653944,-3.7208484687790007,-0.7269494895930001,8.837063944496002,0.3144444444444445,-0.3322222222222222,-0.5911111111111111,-0.11723675996497306,0.21310352353848316,-0.02220813660160335
1589997173.663944,-3.881171784737002,-0.7862495185973447,9.134061416844025,0.3144444444444445,-0.3322222222222222,-0.5911111111111111,-0.14506353517448786,0.23579029830384687,-0.051413827561032355
1589997173.673944,-3.9066768014594104,-0.9222762744501874,9.440121617512922,0.3144444444444445,-0.3322222222222222,-0.5911111111111111,-0.1209514321387836,0.1207941145951034,-0.07830809633162558
1589997173.683944,-3.7188739466445444,-0.8285098022093176,9.034039208837271,0.3259474013593561,-0.32602832234496204,-0.5973050109883713,-0.033546559148335875,0.04673950090661877,-0.07920623140801931
1589997173.693944,-3.4549582450758405,-0.666578287439437,8.900900835098483,0.3288888888888889,-0.3244444444444444,-0.5988888888888889,-0.01396445591821839,0.032213781624044535,-0.07683957784086137
1589997173.703944,-3.0,-0.43,8.91,0.3288888888888889,-0.3244444444444444,-0.5988888888888889,-0.03381575425739013,0.04908738521234052,-0.09272061651219876
1589997173.713944,-2.524934507028748,-0.761238325374451,9.032035172506376,0.3288888888888889,-0.3244444444444444,-0.5988888888888889,-0.005290099389414226,0.06335021264632847,-0.12742682993490279
1589997173.723944,-1.7333527431534892,-1.0304476389773451,8.711342916932034,0.3288888888888889,-0.3244444444444444,-0.5988888888888889,0.06644301805709715,0.0880281882166449,-0.22083512396384353
1589997173.733944,-1.7398776688701467,-0.8853157054935036,8.50633386520781,0.31700385820057586,-0.3244444444444444,-0.5988888888888889,0.04245802503399568,0.05592121917994292,-0.3220593965697104
1589997173.743944,-1.9304008090290108,-0.9196147848507774,8.909614784850778,0.3144444444444445,-0.3244444444444444,-0.5988888888888889,-0.017451591491534146,0.00948301443675245,-0.4168268223332613
1589997173.753944,-2.1052469545615957,-0.9131390016829039,8.903139001682904,0.3144444444444445,-0.3244444444444444,-0.5988888888888889,0.0009147659212168646,0.022198184953272377,-0.45567873224484995
1589997173.763944,-2.2770328608247423,-0.9012967139175257,8.978329574742268,0.3144444444444445,-0.3244444444444444,-0.5988888888888889,0.029754483014503445,0.04924798755370678,-0.5248285959344284
1589997173.773944,-2.3410597698118183,-0.9072942528302598,9.070236781132857,0.3144444444444445,-0.3244444444444444,-0.5988888888888889,0.02317676884782259,0.04679012069403841,-0.5776791563368582
1589997173.783944,-2.448867049042985,-0.945546819617194,9.188867049042985,0.32036891438064347,-0.3076584462918806,-0.5781532441121924,0.015757397579107792,0.04666284033526891,-0.6536355131744518
1589997173.793944,-2.4402230101228097,-0.9697769898771903,8.992341606289502,0.3211111111111111,-0.3055555555555556,-0.5755555555555556,0.02713697309368836,0.06092840072040158,-0.7225274998208582
1589997173.8039439,-2.48,-0.9896167774144781,8.80616777414478,0.3211111111111111,-0.3055555555555556,-0.5755555555555556,0.03402476975380773,0.07111301635868723,-0.7867737154726794
1589997173.8139439,-2.48,-0.9822436100270717,8.732436100270718,0.3211111111111111,-0.3055555555555556,-0.5755555555555556,0.03804620872914867,0.07513445533402817,-0.8342266953817024
1589997173.8239439,-2.522259232440261,-0.9940864108134202,8.745216027033551,0.3211111111111111,-0.3055555555555556,-0.5755555555555556,0.03312355195780453,0.071748387615701,-0.8939957258462433
1589997173.8339438,-2.54,-1.019782145236509,8.786376193648678,0.3482199768055864,-0.30995158783033533,-0.5755555555555556,0.031262561008827426,0.06765527278299321,-0.9576219090829862
1589997173.8439438,-2.54,-1.0390970014018532,8.836388005607413,0.3622222222222222,-0.31222222222222223,-0.5755555555555556,0.03659573727117465,0.07249465122681674,-1.0342426349151101
1589997173.8539438,-2.616945817630072,-1.088091136018795,8.811145318388723,0.3622222222222222,-0.31222222222222223,-0.5755555555555556,0.04023580409695104,0.08567589239554871,-1.0951685847457195
1589997173.8639438,-2.6668186982632687,-1.1461824379159227,9.006638532705729,0.3622222222222222,-0.31222222222222223,-0.5755555555555556,0.04138216449760861,0.08004707854578157,-1.1525327466343807
1589997173.8739438,-2.690524827646392,-1.184208046077319,9.07473287372371,0.3622222222222222,-0.31222222222222223,-0.5755555555555556,0.04070526594146139,0.08336216608926098,-1.1921032115296324
1589997173.8839438,-2.6911664691065345,-1.2265005926803971,9.091166469106534,0.34946267759832733,-0.28866613983964706,-0.5834075830164139,0.04421509391905919,0.08990274474308646,-1.2587471215730477
1589997173.8939438,-2.672856132752944,-1.2642877344941115,8.952849062023555,0.3477777777777778,-0.2855555555555556,-0.5844444444444444,0.043789009176148634,0.09614927238444218,-1.3139864588186037
1589997173.9039438,-2.663634390081992,-1.3081936595080468,8.81541902147586,0.3477777777777778,-0.2855555555555556,-0.5844444444444444,0.047105132923822055,0.10333336256531944,-1.3561115443005498
1589997173.9139438,-2.651814441550598,-1.3545566753482052,8.70088664930359,0.3477777777777778,-0.2855555555555556,-0.5844444444444444,0.04819447929948738,0.11225885216177148,-1.4175041946321285
1589997173.9239438,-2.635966291285617,-1.36,8.661932582571234,0.3477777777777778,-0.2855555555555556,-0.5844444444444444,0.05105823472149158,0.11115014116089576,-1.462015986859311
1589997173.9339437,-2.719122421163497,-1.441020382875906,8.771530574313859,0.4071927252201089,-0.28015419669716185,-0.5898458033028382,0.05147608228332302,0.11017390903214204,-1.5149880763899968
1589997173.9439437,-2.7914105263157896,-1.519978947368421,8.842842105263157,0.4211111111111111,-0.2788888888888889,-0.5911111111111111,0.05313838626565366,0.11110857877630216,-1.562212062658114
1589997173.9539437,-2.817816479215181,-1.5567247188227717,8.778734083139275,0.4211111111111111,-0.2788888888888889,-0.5911111111111111,0.057337661135051905,0.11515169260736408,-1.6094276695535221
1589997173.9639437,-2.844922647898546,-1.584922647898546,8.869690591594184,0.4211111111111111,-0.2788888888888889,-0.5911111111111111,0.05600160537170853,0.1192529151458316,-1.652490506207431
1589997173.9739437,-2.8372860055607045,-1.6662839666357738,8.966283966635775,0.4211111111111111,-0.2788888888888889,-0.5911111111111111,0.057019251557606496,0.1241520310254719,-1.6886755247904945
1589997173.9839437,-2.840551755154212,-1.7311035103084242,9.015275877577105,0.4211111111111111,-0.26481988201660606,-0.5981456145472526,0.05838954043889118,0.12365882593669383,-1.723960308939068
1589997173.9939437,-2.84156208021493,-1.7753137593552102,8.97781040107465,0.4211111111111111,-0.25222222222222224,-0.6044444444444445,0.06074573078316668,0.12660482244218077,-1.7713402595822516
1589997174.0039437,-2.7862489355662787,-1.803036170471595,8.801068083208305,0.4211111111111111,-0.25222222222222224,-0.6044444444444445,0.06276176141055165,0.13265291432433565,-1.8037671461387284
1589997174.0139437,-2.754205319451998,-1.825794680548002,8.694718618081993,0.4211111111111111,-0.25222222222222224,-0.6044444444444445,0.06240671919772152,0.1384795171824287,-1.8351295167775823
1589997174.0239437,-2.75,-1.8616609255653735,8.692664370226149,0.4211111111111111,-0.25222222222222224,-0.6044444444444445,0.061486620358117215,0.1389356059153656,-1.8599721854468987
1589997174.0339437,-2.7872765176784524,-1.9172765176784523,8.746595647098065,0.4708131346823809,-0.2221939163145801,-0.592018938551627,0.06210308314349976,0.13751895005335169,-1.8982218937212743
1589997174.0439436,-2.7992809614809016,-2.0220905762899175,8.814966730366312,0.4744444444444445,-0.22,-0.5911111111111111,0.06825172968701682,0.14149426198436602,-1.9224999317527955
1589997174.0539436,-2.8071222823594164,-2.0656114117970827,8.805755435281167,0.4744444444444445,-0.22,-0.5911111111111111,0.06716849832942011,0.14180800172453928,-1.9420946714540992
1589997174.0639436,-2.7717852378295778,-2.1182147621704224,8.838214762170422,0.4744444444444445,-0.22,-0.5911111111111111,0.07001449764239027,0.14389229367060316,-1.9680732358357413
1589997174.0739436,-2.7229199364176355,-2.1941601271647286,8.923186815025517,0.4744444444444445,-0.22,-0.5911111111111111,0.07051784329738588,0.14508049407202864,-1.9940292523714995
1589997174.0839436,-2.6758382978723403,-2.26,8.975217021276595,0.4830988179669031,-0.20190449172576833,-0.6036992907801418,0.06794993826660689,0.14585289510269847,-2.0241688091660084
1589997174.0939436,-2.6237577962577965,-2.3037370062370064,8.921252598752599,0.4988888888888889,-0.1688888888888889,-0.6266666666666667,0.06844906464178645,0.15489570327503208,-2.0691625535496376
1589997174.1039436,-2.597247110970397,-2.3479214817160043,8.791066962165585,0.4988888888888889,-0.1688888888888889,-0.6266666666666667,0.07203161286317226,0.15764343867994096,-2.100707312053378
1589997174.1139436,-2.5351242018233493,-2.37097515963533,8.72804968072934,0.4988888888888889,-0.1688888888888889,-0.6266666666666667,0.07308566242726255,0.16056487185659227,-2.1270261942090403
1589997174.1239436,-2.4737182748991624,-2.417990691901955,8.71,0.4988888888888889,-0.1688888888888889,-0.6266666666666667,0.07071758150297736,0.1613497461298293,-2.1596534532037537
1589997174.1339436,-2.4492969549138404,-2.4553515225430798,8.69929695491384,0.5208895926771054,-0.1427258897893881,-0.6118013262692231,0.07455994482049179,0.16210340668394352,-2.1932131574199003
1589997174.1439435,-2.433077795418462,-2.4946110229076885,8.710766613744614,0.54,-0.12,-0.5988888888888889,0.07736536097015746,0.1636246173744684,-2.2338504822282457
1589997174.1539435,-2.4769784572619873,-2.580467685892981,8.725872307157749,0.54,-0.12,-0.5988888888888889,0.07956100148072505,0.16746803342163616,-2.263506261272351
1589997174.1639435,-2.4805677173957026,-2.696222635859669,8.825654918463966,0.54,-0.12,-0.5988888888888889,0.08020702669403908,0.16294583310006905,-2.2982351499782383
1589997174.1739435,-2.4265933976139893,-2.72,8.874468867462005,0.54,-0.12,-0.5988888888888889,0.07726318421992905,0.16587620513237422,-2.3249559774160065
1589997174.1839435,-2.3933406644966424,-2.79496700976511,8.896659335503358,0.57239315236764,-0.07279854940715326,-0.6220268548657746,0.07817540637305177,0.17253106950020386,-2.3521859805587217
1589997174.1939435,-2.3081413730803977,-2.8263717253839205,8.834513098464319,0.5788888888888889,-0.06333333333333334,-0.6266666666666667,0.08836214644599233,0.18594324182488786,-2.3695885767008646
1589997174.2039435,-2.2101328371567197,-2.822013283715672,8.500531348626879,0.5788888888888889,-0.06333333333333334,-0.6266666666666667,0.08792530815500262,0.18348643178748042,-2.3882388326830113
1589997174.2139435,-2.1274464398604507,-2.835638390034887,8.631118265470977,0.5788888888888889,-0.06333333333333334,-0.6266666666666667,0.06082526487966815,0.16510990343816725,-2.416927220010902
1589997174.2239435,-2.1475288620516135,-2.9150577241032276,8.685308892243548,0.5788888888888889,-0.06333333333333334,-0.6266666666666667,0.0601030745104954,0.16291072739935172,-2.4345721286710904
1589997174.2339435,-2.179746576742285,-3.002050684651543,8.655391784181484,0.580483865840089,-0.050345663873560875,-0.6355529668233532,0.07232910339528217,0.17117495880289207,-2.446509750145241
1589997174.2439435,-2.146821420990387,-3.071392788913485,8.798749734663554,0.5866666666666667,0.0,-0.67,0.07268051655516937,0.17933649052501707,-2.4545718335530724
1589997174.2539434,-2.0839294373699384,-3.1420449034918576,8.747826800817121,0.5866666666666667,0.0,-0.67,0.07877337687403715,0.1793388783424236,-2.4548013944633533
1589997174.2639434,-2.009032305577376,-3.2061289768263945,8.712257953652788,0.5866666666666667,0.0,-0.67,0.09060932767148905,0.1888896571825949,-2.4482465390457997
1589997174.2739434,-1.968152727078948,-3.222229090618422,8.827389091684207,0.5866666666666667,0.0,-0.67,0.08625893151673869,0.18253684629254102,-2.441320941076828
1589997174.2839434,-1.9344475985883074,-3.220220960564677,8.829337118305968,0.5792848618144,0.05053697168090293,-0.6745426491398565,0.0823697756077658,0.17509039211996455,-2.432965493536228
1589997174.2939434,-1.8444011455085914,-3.2777082578119336,8.758255274414559,0.5722222222222222,0.09888888888888887,-0.6788888888888889,0.07509689403965053,0.1814784400544895,-2.4179912047195207
1589997174.3039434,-1.8,-3.324890525060819,8.700218949878362,0.5722222222222222,0.09888888888888887,-0.6788888888888889,0.07197890916029008,0.18273405917375138,-2.4037053385477254
1589997174.3139434,-1.7776136919315404,-3.3325378973105133,8.606572127139364,0.5722222222222222,0.09888888888888887,-0.6788888888888889,0.0762114660387194,0.18080106824349937,-2.3877315016121674
1589997174.3239434,-1.7260946917014373,-3.3663510276618758,8.611242466388502,0.5722222222222222,0.09888888888888887,-0.6788888888888889,0.06850719901197908,0.1786294617327338,-2.366648833050957
1589997174.3339434,-1.6731581228062573,-3.395438748537505,8.69087749707501,0.5763157641326381,0.11321628557534437,-0.7136839951274236,0.06433982488169512,0.17654233788582738,-2.338530802568493
1589997174.3439434,-1.627842067608657,-3.4390878197102484,8.72647379717403,0.5788888888888889,0.12222222222222222,-0.7355555555555555,0.07061885523740494,0.17377699175876357,-2.302571504335988
1589997174.3539433,-1.5680440169786785,-3.46,8.72031086684496,0.5788888888888889,0.12222222222222222,-0.7355555555555555,0.0644268367920387,0.1731609091432189,-2.27053741583546
1589997174.3639433,-1.52738711359672,-3.51087899440738,8.726959664802461,0.5788888888888889,0.12222222222222222,-0.7355555555555555,0.06341069623078766,0.17344209441693648,-2.2383328811421013
1589997174.3739433,-1.5039941533314183,-3.5590087700028725,8.752011693337163,0.5788888888888889,0.12222222222222222,-0.7355555555555555,0.06206603931992592,0.17344209441693648,-2.203789804448733
1589997174.3839433,-1.4881399391568884,-3.5788374619730554,8.778837461973055,0.5787338838186296,0.12317808682215461,-0.7354005504852962,0.056697838044503415,0.17346745706224875,-2.1652486149989087
1589997174.3939433,-1.3879686527471284,-3.5905862049453967,8.702460815933911,0.5722222222222222,0.16333333333333333,-0.7288888888888889,0.050825875554659034,0.17212967802310286,-2.0842579001510817
1589997174.4039433,-1.3285348393254852,-3.5985348393254855,8.617802258988227,0.5722222222222222,0.16333333333333333,-0.7288888888888889,0.043513363122478436,0.16790802838620103,-2.0222524636980013
1589997174.4139433,-1.2831560550759902,-3.5805318347720294,8.556578027537995,0.5722222222222222,0.16333333333333333,-0.7288888888888889,0.04185385611173292,0.16393988249025623,-1.965038914144029
1589997174.4239433,-1.2646785521339816,-3.6120178282009725,8.592571582928148,0.5722222222222222,0.16333333333333333,-0.7288888888888889,0.03920950289963692,0.15686924554315726,-1.897073478682824
1589997174.4339433,-1.2383068109484405,-3.5822045406322935,8.682715892213029,0.5930101138694391,0.15986868472546384,-0.7288888888888889,0.024848629919121474,0.14726215563702155,-1.8057922455514437
1589997174.4439433,-1.2155628739937148,-3.5788742520125703,8.719868268113135,0.6255555555555555,0.15444444444444444,-0.7288888888888889,0.017951677603013375,0.14532609418363296,-1.7136370229848832
1589997174.4539433,-1.1915194065017352,-3.5992402967491324,8.676775400388449,0.6255555555555555,0.15444444444444444,-0.7288888888888889,0.010659695517481844,0.1373550524336902,-1.6238682643186628
1589997174.4639432,-1.17,-3.62224781154901,8.6324781154901,0.6255555555555555,0.15444444444444444,-0.7288888888888889,0.01084072770848499,0.12889565042119333,-1.548105062966734
1589997174.4739432,-1.1207262194610024,-3.571161951137604,8.712904877844009,0.6255555555555555,0.15444444444444444,-0.7288888888888889,0.004347479479127635,0.11306734432239415,-1.4432653777113194
1589997174.4839432,-1.099969650986343,-3.5978907435508347,8.695811836115327,0.618895633114146,0.17042825830382735,-0.7635204855842185,0.012646353836529473,0.10013959005870726,-1.3369844456276896
1589997174.4939432,-1.0928976596588655,-3.648318127727092,8.792897659658866,0.6144444444444445,0.1811111111111111,-0.7866666666666666,0.008584072383401802,0.09512663181012479,-1.2415090861016684
1589997174.5039432,-1.0650366014640587,-3.6697071882875316,8.715402616104644,0.6144444444444445,0.1811111111111111,-0.7866666666666666,0.010836441018341426,0.09054694014794175,-1.1468224864368908
1589997174.5139432,-1.0463156654033765,-3.6963156654033766,8.591578327016881,0.6144444444444445,0.1811111111111111,-0.7866666666666666,0.019730631973034114,0.08098932456232173,-1.0555793456266955
1589997174.5239432,-1.026692497163258,-3.7031525198571944,8.592687570918551,0.6144444444444445,0.1811111111111111,-0.7866666666666666,0.01926570848394226,0.0687392453177621,-0.9732746482941191
1589997174.5339432,-0.9864644239544325,-3.6885181105831264,8.687339585234604,0.5610359344459479,0.1463334766934855,-0.729531981551996,0.015848233046198548,0.06192024025667384,-0.8551375289587846
1589997174.5439432,-0.9727657532054944,-3.7293602724384614,8.706594519232967,0.5188888888888888,0.11888888888888888,-0.6844444444444444,0.011999138607461015,0.055818110069813215,-0.7545773383695549
1589997174.5539432,-0.9862209994759659,-3.7924419989519316,8.650464008384546,0.5188888888888888,0.11888888888888888,-0.6844444444444444,0.013356350152716596,0.04937907370655959,-0.6640362623294229
1589997174.5639431,-0.978588057676739,-3.8171179134848914,8.652765682777936,0.5188888888888888,0.11888888888888888,-0.6844444444444444,0.015425649969882653,0.04503844895120451,-0.5783705198058772
1589997174.5739431,-0.9605386099158488,-3.7874237446213197,8.737845560336604,0.5188888888888888,0.11888888888888888,-0.6844444444444444,0.013266229072747188,0.04105303741260853,-0.4997102126946502
1589997174.5839431,-0.9434936684756736,-3.7269873369513475,8.750721508140531,0.5149127974018005,0.14780591788589503,-0.6584191183471388,0.01017234237786122,0.03427555869805169,-0.4271969401403592
1589997174.593943,-0.9251098261555214,-3.7342312169113505,8.699780347688957,0.5066666666666667,0.20777777777777776,-0.6044444444444445,0.00984143739270129,0.02431291552345422,-0.3492543794452306
1589997174.603943,-0.8610388153466457,-3.846120148081669,9.146170069553511,0.5066666666666667,0.20777777777777776,-0.6044444444444445,0.009215403063347331,0.015206100341979006,-0.23906534356762105
1589997174.613943,-0.5705855209187859,-3.1466985233798197,8.08986853978671,0.5066666666666667,0.20777777777777776,-0.6044444444444445,0.08448240561880312,-0.03281523692585632,-0.17233804212105908
1589997174.623943,-0.5874518815375849,-2.9940193393017998,7.4213923561961135,0.5066666666666667,0.20777777777777776,-0.6044444444444445,0.12487242117973636,-0.08959713906525044,-0.12117008972672992
1589997174.633943,-0.889016263701476,-3.5565027106169125,8.750333188239484,0.504723728120507,0.22876151407630177,-0.5974498656782697,-0.011582593276801723,-0.01443046837893408,-0.04050352982841248
1589997174.643943,-0.8367070798304731,-3.5322761064406305,9.131482317793372,0.5011111111111111,0.2677777777777778,-0.5844444444444444,-0.1610338468979271,0.10015081648818622,0.057761130764594354
1589997174.653943,-0.8461748344370861,-3.5997422894985807,8.127235950804163,0.5011111111111111,0.2677777777777778,-0.5844444444444444,-0.013552432105427961,-0.011192728793418698,0.11103819376603527
1589997174.663943,-0.8943596697505964,-3.6889646234916493,8.957683962992842,0.5011111111111111,0.2677777777777778,-0.5844444444444444,0.0247978777670515,-0.018630309026393666,0.18359839762943939
1589997174.673943,-0.9,-3.6455756078455,8.846214636497846,0.5011111111111111,0.2677777777777778,-0.5844444444444444,-0.047527764387919155,-0.03022239839480592,0.22944002459040347
1589997174.683943,-0.9165564297152405,-3.7731128594304812,8.936955371440508,0.506170020190768,0.2870936124455585,-0.5872038493969846,0.004663087044106377,-0.02328680309597566,0.30690652796177376
1589997174.693943,-0.9494499023243962,-3.824724951162198,8.960677783754708,0.5133333333333333,0.3144444444444445,-0.5911111111111111,-0.013460723998939944,-0.03463119821370611,0.36771605800633317
1589997174.703943,-0.96,-3.8189108769593036,8.571287015674429,0.5133333333333333,0.3144444444444445,-0.5911111111111111,-0.006102145225967259,-0.03187170248014078,0.42427920754699533
1589997174.713943,-0.9439076979963485,-3.724174389313859,8.494635899332117,0.5133333333333333,0.3144444444444445,-0.5911111111111111,0.001546186018664639,-0.0373265499347526,0.4666294314923316
1589997174.723943,-0.9503927013829351,-3.727492265255153,8.681691392999591,0.5133333333333333,0.3144444444444445,-0.5911111111111111,0.001463210411456182,-0.043919936777451055,0.4985656587287552
1589997174.733943,-0.9728911873645957,-3.8080103431406807,8.835595778880425,0.5133333333333333,0.32313299322104977,-0.5887415068993097,0.0076618112351683415,-0.0479242084648857,0.5277654152829816
1589997174.743943,-0.9771427529182879,-3.8071425097276266,8.684285262645915,0.5133333333333333,0.3388888888888889,-0.5844444444444444,0.005298275467006862,-0.04581489286485115,0.5544536352312347
1589997174.753943,-1.0112927090857355,-3.85,8.697414581828529,0.5133333333333333,0.3388888888888889,-0.5844444444444444,0.0004562736939065209,-0.044072887176341474,0.5704173750850465
1589997174.763943,-1.03,-3.8378019958502123,8.66,0.5133333333333333,0.3388888888888889,-0.5844444444444444,-0.005621922630596497,-0.043429464411468964,0.5832589311993756
1589997174.773943,-1.03,-3.8219405172975436,8.679405172975438,0.5133333333333333,0.3388888888888889,-0.5844444444444444,-0.0036309619850496072,-0.04493573968256745,0.594649568497916
1589997174.783943,-1.03,-3.8287720698416834,8.747720698416835,0.5133333333333333,0.3388888888888889,-0.5844444444444444,-0.012573443353917059,-0.045680946463306414,0.6028468430860445
1589997174.793943,-1.0077558091286307,-3.7841609958506224,8.734270124481329,0.5133333333333333,0.32666666666666666,-0.5777777777777777,-0.008567412123340008,-0.04440559380909141,0.6235511702029125
1589997174.803943,-1.1013581833761783,-3.8999178806055412,8.718313339045986,0.5133333333333333,0.32666666666666666,-0.5777777777777777,-0.011684913287795869,-0.051426159437166004,0.6406498103177479
1589997174.813943,-1.0656434454059514,-3.8462573781623806,8.589445092542615,0.5133333333333333,0.32666666666666666,-0.5777777777777777,-0.010500051114192681,-0.05304245163155446,0.6624150409976158
1589997174.823943,-1.097740475177736,-3.8637658747037733,8.718493650118491,0.5133333333333333,0.32666666666666666,-0.5777777777777777,-0.012327773171453081,-0.0545415391248228,0.6796241992372456
1589997174.833943,-1.0836850659003072,-3.8803490238826677,8.69771915568328,0.5260046906484326,0.320584415155419,-0.5825928935575154,-0.014372049584840481,-0.05528794368205018,0.7153175987062804
1589997174.8439429,-1.13,-3.7877088770446607,8.710924094835509,0.5688888888888889,0.3,-0.5988888888888889,-0.009317631553234477,-0.05829455035110053,0.746709577215616
1589997174.8539429,-1.1086199967850827,-3.85,8.769536650056262,0.5688888888888889,0.3,-0.5988888888888889,-0.019409151586919842,-0.062177354602297986,0.777975788487405
1589997174.8639429,-1.0882206558381857,-3.856073551946062,8.645919399325773,0.5688888888888889,0.3,-0.5988888888888889,-0.014746273745421366,-0.06085231111792687,0.7980999401105333
1589997174.8739429,-1.1192800178461881,-3.859280017846188,8.759253434461733,0.5688888888888889,0.3,-0.5988888888888889,-0.023221597910915992,-0.05898340012443123,0.8056556208445519
1589997174.8839428,-1.1051767845230154,-3.847765176784523,8.686237491661107,0.5821184493365947,0.3017255948410051,-0.6026276777110666,-0.028528244940766223,-0.060804174024198715,0.8000279579613633
1589997174.8939428,-1.1418056602193754,-3.8481943397806244,8.720221887297999,0.62,0.30666666666666664,-0.6133333333333333,-0.02296503404092964,-0.05951996732930602,0.7800500053924504
1589997174.9039428,-1.2012238262452855,-3.831708934841982,8.618291065158019,0.62,0.30666666666666664,-0.6133333333333333,-0.026845020677215423,-0.058479113369612645,0.7514741630889403
1589997174.9139428,-1.25,-3.817166094877558,8.618241058401356,0.62,0.30666666666666664,-0.6133333333333333,-0.025781980619724636,-0.05701811515193155,0.7181219631465358
1589997174.9239428,-1.2590897481818324,-3.769089748181832,8.657574790151527,0.62,0.30666666666666664,-0.6133333333333333,-0.024428082855959557,-0.05579762619268398,0.6911576069571617
1589997174.9339428,-1.298280877703892,-3.8082808777038917,8.690234064753243,0.62,0.30666666666666664,-0.6133333333333333,-0.021578023490395025,-0.05651014103407511,0.6704946765568188
1589997174.9439428,-1.381007327063982,-3.7939560376161077,8.802948710552126,0.9111111111111112,0.28444444444444444,-0.6644444444444444,-0.01833235121548997,-0.052030230548999884,0.6462033599987383
1589997174.9539428,-1.3931249818635558,-3.7275000725457765,8.696250253910218,0.9111111111111112,0.28444444444444444,-0.6644444444444444,-0.025157290856461966,-0.048405619930038536,0.6423629651723256
1589997174.9639428,-1.3970610779214505,-3.6970610779214508,8.617633532471297,0.9111111111111112,0.28444444444444444,-0.6644444444444444,-0.02194568643123351,-0.04754689698147565,0.6519920406934226
1589997174.9739428,-1.3903070804012816,-3.690307080401282,8.65815751759231,0.9111111111111112,0.28444444444444444,-0.6644444444444444,-0.01973544591126207,-0.04902039066145661,0.6637799901332704
1589997174.9839427,-1.454732059512697,-3.722113234145505,8.746845293658202,1.0183711267322417,0.23887646395180734,-0.7340232454274326,-0.023021053425508618,-0.04851274204794956,0.6860156510976998
1589997174.9939427,-1.4787026841674127,-3.682162193054312,8.730864877221725,1.5617052855724678,0.008048226536024938,-1.0864802079430698,-0.029122228983616216,-0.05112753157285282,0.6964748091973129
1589997175.0039427,-1.4905467889908257,-3.7123633027522938,8.757460550458715,1.5911111111111111,-0.004444444444444445,-1.1055555555555556,-0.024633160745578683,-0.05075345409922134,0.6916463615290254
1589997175.0139427,-1.4478351088466883,-3.72,8.630137409294425,1.5911111111111111,-0.004444444444444445,-1.1055555555555556,-0.020298445971723773,-0.049308549174603034,0.686323748094901
1589997175.0239427,-1.4,-3.723223317274054,8.682893269096216,1.5911111111111111,-0.004444444444444445,-1.1055555555555556,-0.021501008950709336,-0.05052982536526603,0.6732226061563596
1589997175.0339427,-1.40487072358462,-3.73243536179231,8.714870723584621,1.3979057422545162,0.006379385743600094,-1.0119294244289703,-0.018012809780526245,-0.050206419733506424,0.6568211497562138
1589997175.0439427,-1.4346823386800007,-3.7363294153299997,8.71164707665,0.7977777777777778,0.04,-0.7211111111111111,-0.017163259087006003,-0.04690572364734761,0.63030770245593
1589997175.0539427,-1.4567367123076527,-3.73,8.68,0.7977777777777778,0.04,-0.7211111111111111,-0.01640830650226725,-0.04512587631387053,0.6066394493624907
1589997175.0639427,-1.4570594839781734,-3.733529741989087,8.662351290054566,0.7977777777777778,0.04,-0.7211111111111111,-0.012384173729057623,-0.043376745342848376,0.5818608920301738
1589997175.0739427,-1.4862762924087771,-3.7318618537956114,8.678828877226332,0.7977777777777778,0.04,-0.7211111111111111,-0.014569526121991435,-0.04601798960812723,0.5515137704645677
1589997175.0839427,-1.5328815681533612,-3.694151375156513,8.78550667069643,0.7718436643975265,0.06385298082504592,-0.7129466680099209,-0.01728680200502058,-0.04206157967808428,0.5131978988363547
1589997175.0939426,-1.5550810870648144,-3.5987297282337964,8.649738750207561,0.6177777777777778,0.20555555555555555,-0.6644444444444444,-0.009817477042468105,-0.03272492347489368,0.4319689898685966
1589997175.1039426,-1.647942104389218,-3.5755144739026954,8.827722366746,0.6177777777777778,0.20555555555555555,-0.6644444444444444,-0.009817477042468105,-0.03272492347489368,0.4319689898685966
1589997175.1139426,-1.503328607630828,-3.66220489464637,8.671067004554397,0.6177777777777778,0.20555555555555555,-0.6644444444444444,-0.01745174603741481,-0.033696269151033284,0.38749781634171193
1589997175.1239426,-1.525627248400645,-3.7439665774690316,8.879187651739354,0.6177777777777778,0.20555555555555555,-0.6644444444444444,-0.024748959165278847,-0.02558825456451769,0.3380389273639668
1589997175.1339426,-1.4878796429776402,-3.6127221421341593,8.592407140447198,0.6140082541824713,0.21686412634147503,-0.6675071823656309,0.004266395338773598,-0.023701337571494858,0.2745642124618026
1589997175.1439426,-1.4731846105461788,-3.653184610546179,8.68866149491561,0.6,0.2588888888888889,-0.6788888888888889,-0.007441137804331048,-0.016313792319160803,0.20203610953093395
1589997175.1539426,-1.4647377563220465,-3.6589510252881863,8.605533172415349,0.6,0.2588888888888889,-0.6788888888888889,0.006716622780834786,-0.011482329563855462,0.13801491076136954
1589997175.1639426,-1.4664723696274276,-3.717745394937905,8.71098157975162,0.6,0.2588888888888889,-0.6788888888888889,0.00017065729825903753,-0.0078499629591833,0.052180825292361524
1589997175.1739426,-1.394737566855592,-3.7043861259679094,8.68,0.6,0.2588888888888889,-0.6788888888888889,0.011080570616971713,0.0022772518492976523,-0.053009591072714204
1589997175.1839426,-1.3172660561773504,-3.710010483149878,8.694553078654456,0.598787243445462,0.24655919725108516,-0.6879845630479244,0.009718830395995002,0.012495802442601928,-0.1645307337408618
1589997175.1939425,-1.2548851566648964,-3.807672265002655,8.762557421667552,0.5933333333333334,0.19111111111111112,-0.7288888888888889,0.015575657311848375,0.02298261121948289,-0.321048284642888
1589997175.2039425,-1.2409635554965481,-3.8285546667551777,8.769518222251726,0.5933333333333334,0.19111111111111112,-0.7288888888888889,0.01937218508586664,0.03209427787712671,-0.4288696734250066
1589997175.2139425,-1.1319834594616296,-3.846033081076741,8.594049621615111,0.5933333333333334,0.19111111111111112,-0.7288888888888889,0.0322170719716229,0.048804917036934445,-0.6668973553154286
1589997175.2239425,-1.0850404161460592,-3.8858400693576765,8.669706504832089,0.5933333333333334,0.19111111111111112,-0.7288888888888889,0.03638716314941827,0.06256710192933321,-0.8398635999896727
1589997175.2339425,-1.2509247784662536,-4.4075665711684096,8.091776711750727,0.5788282586003953,0.18889505802691225,-0.703907926848829,-0.05305807515575119,0.35681947763584715,-1.1603400839972688
1589997175.2439425,-3.636128204284445,-5.38553818816019,3.3076537562933956,0.5133333333333333,0.17888888888888888,-0.5911111111111111,-0.6727443723211604,1.3647962951415136,-3.395386860392632
1589997175.2539425,-5.8648585928689165,-0.7575487984731502,-4.250747809490761,0.5133333333333333,0.17888888888888888,-0.5911111111111111,-1.3059862952450452,-0.22527941037522686,-12.275663406446176
1589997175.2639425,-0.9576562294952888,-5.79908926274901,-0.3558347549933072,0.5133333333333333,0.17888888888888888,-0.5911111111111111,-1.1777594686186026,-0.4549094752953529,-13.90605450912318
1589997175.2739425,0.15441110391835802,-5.51180552911161,0.3090721983168958,0.5133333333333333,0.17888888888888888,-0.5911111111111111,-1.1704686987777901,0.5747163331001377,-13.41535753305741
1589997175.2839425,-0.5865125213928957,-5.412771820753729,1.784281024064825,0.5055476775367802,0.21448045824456008,-0.5968947411314077,-0.9196351571315377,1.299418118095976,-12.82298578419268
1589997175.2939425,-2.61,-8.46,10.79,0.4744444444444445,0.3566666666666667,-0.62,-0.3141592653589793,2.2416572580302168,-12.166035717182972
1589997175.3039424,-2.1641045906875793,-6.1260162168802985,7.431850198615831,0.4744444444444445,0.3566666666666667,-0.62,0.3949155422800389,3.1437706521004367,-11.539040308498954
1589997175.3139424,-4.935320671263171,-4.278811630024717,7.078251159967044,0.4744444444444445,0.3566666666666667,-0.62,2.4303731592928277,2.793971192565149,-10.561989320417053
1589997175.3239424,0.23713356678339167,-1.8185314879662053,5.264410168046987,0.4744444444444445,0.3566666666666667,-0.62,4.223774803033259,0.33001805685518343,-9.596435472760591
1589997175.3339424,-0.6021460730365182,-1.7952181646378746,-0.22199192188686911,0.4744444444444445,0.3566666666666667,-0.62,2.1469187268449854,0.5817838750706599,-9.100533103548289
1589997175.3439424,-0.6251728059876723,-1.0690985471088934,1.2220468887584386,0.25,0.6222222222222222,-0.5488888888888889,0.210799646875038,0.46498615161667,-8.366877973245659
1589997175.3539424,1.906241744936895,-1.5846145802759026,8.416188545641328,0.25,0.6222222222222222,-0.5488888888888889,-0.8928990047241921,0.40959139039572007,-7.876718267896646
1589997175.3639424,3.1646106665388856,-12.189221333077771,16.956307441659877,0.25,0.6222222222222222,-0.5488888888888889,-0.8715327890932025,0.7474240904822057,-6.324678458010214
1589997175.3739424,-1.394895342069879,-0.8906110899275522,10.979380079873167,0.25,0.6222222222222222,-0.5488888888888889,0.21288369749995428,0.4139977229332596,-5.182922184527945
1589997175.3839424,1.3996642566651605,-1.0644577496610936,16.545685946678717,0.21676673193754079,0.6215922076617965,-0.5542440126525079,1.0988912480955402,0.40495108799322566,-4.592321438252286
1589997175.3939424,1.0155018223842118,-0.29957240643612765,4.51181171659703,0.015555555555555557,0.6177777777777778,-0.5866666666666667,1.1177850375532166,0.14836113201341344,-4.251091197867459
1589997175.4039423,4.13621207513626,-3.2646677115254157,6.98086434770404,0.015555555555555557,0.6177777777777778,-0.5866666666666667,-0.021377849004977745,-0.1761061058446521,-3.8993097833877544
1589997175.4139423,2.7800687285223367,-1.385822578592338,9.924925035000637,0.015555555555555557,0.6177777777777778,-0.5866666666666667,-0.25785904100389107,0.32515684443163956,-3.658195756586006
1589997175.4239423,1.8992710061481408,-0.78460134673563,9.455535278618132,0.015555555555555557,0.6177777777777778,-0.5866666666666667,-0.10193428832403156,0.7354361548115359,-3.4694208898636636
1589997175.4339423,2.3055729455971243,-1.0409531122365627,9.251250776016992,-0.0015549383724518511,0.6150400987492965,-0.5841000925774655,-0.0655925941245594,0.5398645042939652,-3.314007930688875
1589997175.4439423,3.38,-2.09,7.61,-0.09555555555555556,0.6,-0.57,0.07744898555724837,-0.011999138607461015,-3.200497515844602
1589997175.4539423,2.9351557035803495,-1.3198218151540384,8.632477935054123,-0.09555555555555556,0.6,-0.57,0.2150571525288621,0.13067880293679107,-3.1208296297031413
1589997175.4639423,3.134835155148096,-1.2541634344146684,7.7751075458392105,-0.09555555555555556,0.6,-0.57,0.07023002052424798,0.22222946270038169,-2.908051879555152
1589997175.4739423,3.6910206376349883,-1.715510318817494,9.206836655812973,-0.09555555555555556,0.6,-0.57,-0.019646095180327724,0.25273324476538955,-2.79760811370236
1589997175.4839423,3.146145052667933,-1.4234826454843723,9.40738801588672,-0.10377846850476793,0.5978717166484391,-0.5720315431992171,0.014902733872505028,0.253536613044095,-2.6783096058240785
1589997175.4939423,3.63,-1.46,9.38,-0.19,0.5755555555555556,-0.5933333333333334,0.10253809355466686,0.16689710972195776,-2.5787239698216218
1589997175.5039423,3.3887092170980084,-1.313763161877581,8.422148710298156,-0.19,0.5755555555555556,-0.5933333333333334,0.11849005801055543,0.1429691630381249,-2.506142531547329
1589997175.5139422,3.4341259839349347,-1.0674267710828822,8.789804722887686,-0.19,0.5755555555555556,-0.5933333333333334,0.08657829469701095,0.2000033946481194,-2.348283820406216
1589997175.5239422,3.476345096933948,-1.1434211744811065,8.99245646528295,-0.19,0.5755555555555556,-0.5933333333333334,0.04605085559627313,0.1815818314205113,-2.256176004268176
1589997175.5339422,3.2678952719877987,-1.0259650906625997,9.188418912048805,-0.19706973708159947,0.5729044041499558,-0.5947693736780333,0.059664001114908966,0.17150271645567042,-2.136777726363135
1589997175.5439422,3.4196705080010683,-1.0531433208027774,8.558593085598076,-0.2611111111111111,0.5488888888888889,-0.6077777777777778,0.06879422330028094,0.13574966814466208,-2.027919474305775
1589997175.5539422,3.405132515523247,-0.95,8.634188752587209,-0.2611111111111111,0.5488888888888889,-0.6077777777777778,0.07616960388377973,0.14180800172453928,-1.9491827493525824
1589997175.5639422,3.652018618999091,-0.9468909576665656,8.776380312336464,-0.2611111111111111,0.5488888888888889,-0.6077777777777778,0.06065120701567034,0.14299500540302745,-1.8530380583178403
1589997175.5739422,3.508919252300977,-0.9139453458582408,9.289296897238827,-0.2611111111111111,0.5488888888888889,-0.6077777777777778,0.05119235016381887,0.14516288341664077,-1.7758895920975228
1589997175.5839422,3.5420841635828824,-0.8542485055508112,9.24949900370054,-0.2611111111111111,0.5488888888888889,-0.6077777777777778,0.046851073428810924,0.12924486872161162,-1.7151117178074118
1589997175.5939422,3.559550471063257,-0.8208990578734858,8.886632570659488,-0.29294601465530135,0.5255432929564827,-0.6003496336174667,0.05935822503493635,0.10773502868775024,-1.6203869916737776
1589997175.6039422,3.6503228426395937,-0.795366497461929,8.755043654822336,-0.29444444444444445,0.5244444444444445,-0.6,0.05462149646745856,0.10242291954311393,-1.5503294619649741
1589997175.6139421,3.8913370862201693,-0.7695135681293302,8.984194572748269,-0.29444444444444445,0.5244444444444445,-0.6,0.054640996608119115,0.1192055932303291,-1.4752773073529475
1589997175.6239421,3.523982278885594,-0.6317477848606993,9.045243354582096,-0.29444444444444445,0.5244444444444445,-0.6,0.04087960847669572,0.12275546841483766,-1.418767827339795
1589997175.6339421,3.7027261750448353,-0.6540907718806045,9.112272315641814,-0.29444444444444445,0.5244444444444445,-0.6,0.03356788307242632,0.11625615694437595,-1.3578367823042168
1589997175.643942,3.813364321567488,-0.6973238754660339,8.993959553898545,-0.33555555555555555,0.4777777777777778,-0.6222222222222222,0.036074264647664236,0.06449065389160419,-1.1819713589917737
1589997175.653942,4.090912861731145,-0.7582491647702513,8.777336303039107,-0.33555555555555555,0.4777777777777778,-0.6222222222222222,0.009490592245447307,-0.10682634603379382,-0.5336251265154831
1589997175.663942,3.0458870270358465,-0.9228735988513437,7.739180113886667,-0.33555555555555555,0.4777777777777778,-0.6222222222222222,0.09938883559406593,0.134494920091294,0.1968293077663125
1589997175.673942,3.1759131328623407,-0.7654735760087454,9.046284651405635,-0.33555555555555555,0.4777777777777778,-0.6222222222222222,-0.04244764316961566,0.09343699202812301,0.014681408722426653
1589997175.683942,3.390027400835073,-0.9499621607515657,9.40995106993737,-0.33555809266991415,0.47777821271166787,-0.6222226571561122,-0.014177028380212777,0.001088909303430211,-0.0981755532494858
1589997175.693942,3.7731184759916494,-0.4209316283924843,8.725859864300627,-0.37102948851774536,0.48385902342843895,-0.6283034678728834,0.038556398943273416,-0.025775289521741997,-0.10912022684492632
1589997175.703942,3.632619203574008,-0.7294937941922373,9.130088174535194,-0.3744444444444445,0.4844444444444445,-0.6288888888888889,-0.004707458522713749,0.0008603384818198144,-0.00545415391248228
1589997175.713942,3.688974320216322,-0.6379167296484776,8.72855796845871,-0.3744444444444445,0.4844444444444445,-0.6288888888888889,-0.006244305922329102,0.004702456980858196,-0.00545415391248228
1589997175.723942,3.504323978883023,-0.6528380105584884,8.975542095026396,-0.3744444444444445,0.4844444444444445,-0.6288888888888889,-0.0031692993715477288,0.009448997091563122,0.001090830782496456
1589997175.733942,3.4577076965823843,-0.6761461517088081,9.185315365379273,-0.3744444444444445,0.4844444444444445,-0.6288888888888889,-0.0023217914432296987,0.015381552589789332,0.001090830782496456
1589997175.743942,3.5845830690068374,-0.5906938276826202,9.009306172317379,-0.3622222222222222,0.4655555555555556,-0.5933333333333334,-0.001090830782496456,-0.00040897504279260215,0.000424250415701319
1589997175.753942,3.6212309127926705,-0.6425127248048863,8.915059382422802,-0.3622222222222222,0.4655555555555556,-0.5933333333333334,-0.0009547082781655868,-0.00831827874697904,-0.0030002473388276297
1589997175.763942,3.697916495184789,-0.5904167009630422,8.674028109309408,-0.3622222222222222,0.4655555555555556,-0.5933333333333334,-3.0303349172158524e-05,-0.005317788841207567,-0.0010453757587382182
1589997175.773942,3.5684521359782697,-0.6163095728043461,8.924325870442013,-0.3622222222222222,0.4655555555555556,-0.5933333333333334,-0.0019132861259541511,0.0031556336543114008,0.0017790984064347708
1589997175.783942,3.5840693797127807,-0.6268138759425562,8.953186124057444,-0.3622222222222222,0.4655555555555556,-0.5933333333333334,4.817412288278663e-05,0.0065931588178615224,0.0006951044397424462
1589997175.793942,3.5692638918621364,-0.6530520811033976,9.072944432551454,-0.3622222222222222,0.4706782402451995,-0.6206543183447677,0.001090830782496456,0.005121223510656089,0.0008381973222730344
1589997175.803942,3.5907689265089786,-0.6496155367455106,8.928590301400206,-0.3622222222222222,0.4722222222222222,-0.6288888888888889,1.3979478424525422e-05,-0.0065030462597051595,0.002181661564992912
1589997175.813942,3.6405391187406058,-0.624730440629697,8.837344948975556,-0.3622222222222222,0.4722222222222222,-0.6288888888888889,0.0009188271073749418,-0.0037885033728539104,0.002181661564992912
1589997175.823942,3.6484235457115575,-0.6203941135721106,8.79709404429799,-0.3622222222222222,0.4722222222222222,-0.6288888888888889,-0.0011338219041222453,0.0015637331203801398,0.0010478396608706666
1589997175.833942,3.6170120387186158,-0.628246990320346,8.938445825766228,-0.3622222222222222,0.4722222222222222,-0.6288888888888889,-0.001990437872934828,0.010986508777318549,0.00019122369205808382
1589997175.843942,3.5231246333528876,-0.6473750733294225,9.10900058663538,-0.3564305311124148,0.4722222222222222,-0.6037915607463898,-0.0002863350814061947,0.011194642906370754,0.0018953264835867172
1589997175.853942,3.5398725086742515,-0.6300849942171656,9.120042497108582,-0.3555555555555556,0.4722222222222222,-0.6,-0.0010861950670755344,0.0011325522212847494,-0.0010769236362336916
1589997175.863942,3.5974640720621607,-0.62281699099223,8.890143711751358,-0.3555555555555556,0.4722222222222222,-0.6,-0.001090830782496456,-0.004393982353140979,0.0004762586848285257
1589997175.873942,3.674735489398158,-0.6291225815663597,8.836490326265439,-0.3555555555555556,0.4722222222222222,-0.6,-9.571150365446867e-05,-0.0055498654161367485,-0.0008994077751875186
1589997175.883942,3.626870614920324,-0.6375899121542394,8.915899121542394,-0.3555555555555556,0.4722222222222222,-0.6,-0.0016558619628576807,0.0019972249203772845,-0.0002628998010676156
1589997175.8939419,3.5502438611346316,-0.64,9.059512277730738,-0.3555555555555556,0.4722222222222222,-0.6221319032834698,0.0010775302208809196,0.007622514915859656,0.0
1589997175.9039419,3.5742635029297443,-0.6319121656900852,9.019560828450427,-0.3555555555555556,0.4722222222222222,-0.6222222222222222,0.001090830782496456,0.0058713237516780006,0.0017644917257971912
1589997175.9139419,3.6096943029180175,-0.63,8.831834182491894,-0.3555555555555556,0.4722222222222222,-0.6222222222222222,0.0021705461054213875,-0.0010241380250673076,0.002181661564992912
1589997175.9239419,3.6296132750766943,-0.6003867249233057,8.842126987078181,-0.3555555555555556,0.4722222222222222,-0.6222222222222222,0.002160568992457887,-0.0031881220573492684,-0.001048645637426406
1589997175.9339418,3.6140167332899504,-0.6159832667100492,8.92790796690527,-0.3555555555555556,0.4722222222222222,-0.6222222222222222,0.001309909598384282,0.0002145155189451518,0.000652673150720804
1589997175.9439418,3.5819847963475246,-0.6340076018262375,8.999026606391832,-0.3462171543380639,0.4675530216134764,-0.6222222222222222,-0.0004371615436048928,0.006438803923851177,0.0018548269455471304
1589997175.9539418,3.5408405216328194,-0.6302801738776065,9.068599130611968,-0.3422222222222222,0.4655555555555556,-0.6222222222222222,-0.001090830782496456,0.006606109153007641,0.002181661564992912
1589997175.9639418,3.5647514898569335,-0.6547514898569337,8.929741557477376,-0.3422222222222222,0.4655555555555556,-0.6222222222222222,-0.00019084121421005667,-0.0024549109878852565,-0.0014182967081526852
1589997175.9739418,3.620641422663972,-0.63,8.840641422663971,-0.3422222222222222,0.4655555555555556,-0.6222222222222222,-0.001090830782496456,-0.008586709542681413,-0.002181661564992912
1589997175.9839418,3.6439746323733937,-0.63,8.863974632373393,-0.3422222222222222,0.4655555555555556,-0.6222222222222222,-0.001090830782496456,-0.0034961928615848724,-0.002181661564992912
1589997175.9939418,3.5919149730623565,-0.6548935829732757,8.977872192884195,-0.34683214499505105,0.4655555555555556,-0.6222222222222222,-0.001090830782496456,0.004154431973578811,0.0014389633141909295
1589997176.0039418,3.5898542411394683,-0.640291517721063,9.029562723418405,-0.3477777777777778,0.4655555555555556,-0.6222222222222222,0.002133962089426104,0.00437922295517476,0.004331523479607952
1589997176.0139418,3.576298011711384,-0.6537019882886161,8.95463906441261,-0.3477777777777778,0.4655555555555556,-0.6222222222222222,-6.032102600135071e-05,0.0021213405389915612,0.0013740130086601402
1589997176.0239418,3.6078862057558716,-0.6315853456830962,8.901056897122064,-0.3477777777777778,0.4655555555555556,-0.6222222222222222,-5.7644795733975815e-05,-0.002008727177790985,0.0010331859867624802
1589997176.0339417,3.6276873559218825,-0.63,8.9,-0.3477777777777778,0.4655555555555556,-0.6222222222222222,0.0019293912300560386,-0.00025227033493687334,0.001090830782496456
1589997176.0439417,3.61924341604506,-0.63,8.925945729943674,-0.3552732108726172,0.46267269667292504,-0.6072313560325434,0.0010083002757373242,0.003921070872186511,0.001656878800434467
1589997176.0539417,3.573251582278481,-0.6478322784810127,9.02132911392405,-0.3622222222222222,0.46,-0.5933333333333334,-0.001090830782496456,0.0094627844383494,0.00023646173607913675
1589997176.0639417,3.5503763069765064,-0.65,8.961317074417773,-0.3622222222222222,0.46,-0.5933333333333334,-0.002161137203310845,0.001255025675952988,0.002140612841628779
1589997176.0739417,3.5712937731461545,-0.621608302471794,8.91741245370769,-0.3622222222222222,0.46,-0.5933333333333334,0.0009153921981166538,-0.004329013302945284,0.000633134683438129
1589997176.0839417,3.6077415432235242,-0.616935385805881,8.927741543223524,-0.3622222222222222,0.46,-0.5933333333333334,0.0006685950998841035,-0.0057884514624243315,-0.0007565332325544042
1589997176.0939417,3.6262814796718175,-0.6388444390154523,8.927437040656365,-0.35314897380737487,0.4711670749721199,-0.6024065817481807,0.0006852031385644181,-0.0006577319425313533,-0.001090830782496456
1589997176.1039417,3.5923291703126243,-0.6405822925781561,9.01417707421844,-0.3477777777777778,0.4777777777777778,-0.6077777777777778,-0.0009637942487620824,0.007318224143139259,0.0019911067643913517
1589997176.1139417,3.5620352331606218,-0.6306784110535406,8.926784110535406,-0.3477777777777778,0.4777777777777778,-0.6077777777777778,-7.400316603879231e-05,0.006618987861017528,0.0011648339485352483
1589997176.1239417,3.5949795936673095,-0.6212551015831727,8.963724492084138,-0.3477777777777778,0.4777777777777778,-0.6077777777777778,0.0009539204382879825,-0.001086378811325125,0.00013691034420847343
1589997176.1339417,3.6,-0.6347433323192374,8.940513335361524,-0.3477777777777778,0.4777777777777778,-0.6077777777777778,-0.0005174172905434463,-0.002181661564992912,0.0008041240365199512
1589997176.1439416,3.6091440830362496,-0.6491440830362495,8.939144083036249,-0.36098589771902706,0.46660167628902843,-0.6138738331352774,0.0019015633935969233,-0.0011841968396284523,9.336605713199629e-05
1589997176.1539416,3.5532627874463674,-0.6310875958154558,8.949456202092271,-0.3622222222222222,0.4655555555555556,-0.6144444444444445,-0.001944384966110204,0.00303521574860666,0.0
1589997176.1639416,3.5632528551392504,-0.63,8.93674714486075,-0.3622222222222222,0.4655555555555556,-0.6144444444444445,-0.0029044926820859605,0.003995323464582416,0.0014456622341860966
1589997176.1739416,3.5613218092538625,-0.63,8.956034572238414,-0.3622222222222222,0.4655555555555556,-0.6144444444444445,-0.0004325610668105429,0.0015233918493069987,-0.0006582697156859133
1589997176.1839416,3.5811537303216974,-0.63,8.944134702258728,-0.3622222222222222,0.4655555555555556,-0.6144444444444445,-0.0005768785049884064,-0.0006398047324687635,-0.001090830782496456
1589997176.1939416,3.6032010379445296,-0.6267989620554705,8.939603113833588,-0.36435624751857526,0.46946793526553615,-0.6169341406235229,-0.001090830782496456,-0.002181661564992912,-0.0007416517099132574
1589997176.2039416,3.615473790747691,-0.6254737907476912,8.943578627756926,-0.3688888888888889,0.4777777777777778,-0.6222222222222222,-0.0004937328380438773,0.0002067302128174026,0.0017912938333577361
1589997176.2139416,3.577805481145683,-0.6384389037708634,8.913122192458273,-0.3688888888888889,0.4777777777777778,-0.6222222222222222,0.0,0.00586382796650619,0.0014314091467327282
1589997176.2239416,3.563655531352367,-0.627311062704734,8.91,-0.3688888888888889,0.4777777777777778,-0.6222222222222222,0.0,0.005852910525036564,0.001090830782496456
1589997176.2339416,3.571558039204332,-0.6315580392043316,8.93889509801083,-0.3688888888888889,0.4777777777777778,-0.6222222222222222,0.0,0.002932580922605132,0.001090830782496456
1589997176.2439415,3.5916110828241683,-0.64,8.948388917175832,-0.36114816700611,0.47455247699328656,-0.6093210190842574,0.0006332863281359368,0.0004575444543605192,0.0004575444543605192
1589997176.2539415,3.6,-0.6316161234213113,8.948383876578689,-0.3555555555555556,0.4722222222222222,-0.6,0.0020053698473649208,0.0,0.0009145390648684649
1589997176.2639415,3.583004804980938,-0.655492792528593,8.907512012452345,-0.3555555555555556,0.4722222222222222,-0.6,0.002181661564992912,0.0037077763762646573,0.00016388668843029164
1589997176.2739415,3.5624160873140465,-0.6512080436570232,8.970335650743815,-0.3555555555555556,0.4722222222222222,-0.6,0.00026355424153611017,0.005322376791714225,0.0
1589997176.2839415,3.5882343538903583,-0.6358828230548208,8.99411717694518,-0.3555555555555556,0.4722222222222222,-0.6,0.0,-0.000705626557018002,-0.0015399451173750704
1589997176.2939415,3.591701134298427,-0.638298865701573,8.991701134298427,-0.3444904012867916,0.4666896450878403,-0.6,0.000905265816707985,-0.003272492347489368,-0.001276395748284927
1589997176.3039415,3.6070989721136058,-0.631450513943197,8.938703083659181,-0.3422222222222222,0.4655555555555556,-0.6,0.001090830782496456,-0.002339888090960871,0.0007743777305605386
1589997176.3139415,3.61,-0.63,8.877911991840303,-0.3422222222222222,0.4655555555555556,-0.6,0.0018010708162405058,0.0013695386037273372,0.001090830782496456
1589997176.3239415,3.5886944461759023,-0.6371018512746992,8.928120364021693,-0.3422222222222222,0.4655555555555556,-0.6,0.0006322779683621857,0.004047184145804731,0.001865522580811819
1589997176.3339415,3.58,-0.6250055120039196,8.984990813326801,-0.3422222222222222,0.4655555555555556,-0.6,0.000545214969129935,0.003272893191725954,0.000546016657603107
1589997176.3439415,3.5765506340882887,-0.6168987318234223,9.003101268176577,-0.34682137677117036,0.46747186995095064,-0.6076652575815802,0.001090830782496456,0.0010528592100163827,-0.000714563330837613
1589997176.3539414,3.5936402798471208,-0.6221199067176265,8.958479626870506,-0.3555555555555556,0.4711111111111111,-0.6222222222222222,0.001090830782496456,-0.0028100004467677703,0.0
1589997176.3639414,3.6,-0.6335277257614553,8.895889096954178,-0.3555555555555556,0.4711111111111111,-0.6222222222222222,0.001090830782496456,-0.002534669363601082,-0.0007378229838882858
1589997176.3739414,3.6,-0.6350241757367133,8.919758242632867,-0.3555555555555556,0.4711111111111111,-0.6222222222222222,0.001633609009965045,-1.0548655118556172e-05,-5.274327559278086e-06
1589997176.3839414,3.590782949588648,-0.6392170504113522,8.979217050411354,-0.3555555555555556,0.4711111111111111,-0.6222222222222222,0.0006735252181142189,0.003187085796245374,8.540655124399392e-05
1589997176.3939414,3.5846665695071933,-0.631333721971227,8.994666569507194,-0.3493334628792979,0.47162961883413257,-0.6222222222222222,-0.001090830782496456,0.0013090605297223818,-0.001090830782496456
1589997176.4039414,3.5965974298876584,-0.6231948597753172,8.920830841348097,-0.3422222222222222,0.4722222222222222,-0.6222222222222222,0.0017878410602316039,-0.002901329525674927,-0.000371162821814441
1589997176.4139414,3.588540516519391,-0.6242702582596954,8.862810774779087,-0.3422222222222222,0.4722222222222222,-0.6222222222222222,0.0013974387476656531,-0.0007724208810577483,-0.000625017866607905
1589997176.4239414,3.58,-0.62,8.902551419607235,-0.3422222222222222,0.4722222222222222,-0.6222222222222222,-0.0014331176542865087,0.0039570660910694735,-0.0018073896096397102
1589997176.4339414,3.573721296542301,-0.6451148138307967,8.967672220746195,-0.3422222222222222,0.4722222222222222,-0.6222222222222222,-0.002181661564992912,0.006139054213064798,-0.002181661564992912
1589997176.4439414,3.576859968670332,-0.6394200939890039,9.010579906010996,-0.3605154720097743,0.4722222222222222,-0.6024045349523741,6.325793277492777e-05,0.0035517586979549507,6.325793277492777e-05
1589997176.4539413,3.5874376289626713,-0.6374376289626712,8.982811855186645,-0.3688888888888889,0.4722222222222222,-0.5933333333333334,-0.0013431276038842128,-0.0002522968213877568,-0.000531808141757323
1589997176.4639413,3.613541988209397,-0.6321526705968676,8.883679376565544,-0.3688888888888889,0.4722222222222222,-0.5933333333333334,0.0003863709770049817,-0.0028028524771617188,-0.001090830782496456
1589997176.4739413,3.605399563318777,-0.63,8.881900655021834,-0.3688888888888889,0.4722222222222222,-0.5933333333333334,-0.0005018297944803564,0.0015054893834410693,-0.001090830782496456
1589997176.4839413,3.5957840873457054,-0.6384318253085892,8.932159126542947,-0.3688888888888889,0.4722222222222222,-0.5933333333333334,-0.001090830782496456,0.00281260761752728,-0.000630946052534368
1589997176.4939413,3.59,-0.6488788813489615,8.992242237302078,-0.3688888888888889,0.47153709415769873,-0.5940184613978569,-0.0011519783192656383,0.002365104175300459,0.0
1589997176.5039413,3.583143053148469,-0.6437138937030619,9.009429159445407,-0.3688888888888889,0.46,-0.6055555555555555,-0.0006857078250744981,0.0047061770425230725,0.0
1589997176.5139413,3.6014001502307114,-0.6357332331795257,8.90013263225668,-0.3688888888888889,0.46,-0.6055555555555555,-0.0007781314207236228,0.00047266602636771016,0.0015562628414472455
1589997176.5239413,3.597797058760752,-0.636101470619624,8.89050735309812,-0.3688888888888889,0.46,-0.6055555555555555,-0.001090830782496456,0.0009058708086185912,0.002181661564992912
1589997176.5339413,3.5847845814977974,-0.6452154185022027,8.946507929515418,-0.3688888888888889,0.46,-0.6055555555555555,4.699702666438469e-05,0.0038884032787341732,0.0010438337558320713
1589997176.5439413,3.58,-0.6457192455067002,8.997123017973198,-0.3688888888888889,0.46237819694072213,-0.6126901463777218,0.001090830782496456,0.00545415391248228,0.00046695787736013793
1589997176.5539412,3.5906739604562197,-0.64,8.987978118631341,-0.3688888888888889,0.4655555555555556,-0.6222222222222222,0.001090830782496456,0.0042898054488028775,0.001090830782496456
1589997176.5639412,3.595348975683548,-0.64,8.913489756835482,-0.3688888888888889,0.4655555555555556,-0.6222222222222222,0.001090830782496456,0.00225779624858433,-0.0009385614153136197
1589997176.5739412,3.593387818641759,-0.64,8.863387818641758,-0.3688888888888889,0.4655555555555556,-0.6222222222222222,0.0007212770965018404,0.0007212770965018404,-0.0017942776035109055
1589997176.5839412,3.5914937787625703,-0.64,8.921037327424578,-0.3688888888888889,0.4655555555555556,-0.6222222222222222,0.0004639423984256701,0.0004639423984256701,0.001090830782496456
1589997176.5939412,3.5829415340604327,-0.64,8.995883068120865,-0.37281093430279916,0.4655555555555556,-0.6222222222222222,0.0014117023725846321,0.0023743171428491604,0.0014117023725846321
1589997176.6039412,3.585068955561971,-0.64,9.01,-0.38222222222222224,0.4655555555555556,-0.6222222222222222,0.00271955507127889,0.003302579887338367,0.0016437680587069337
1589997176.6139412,3.5930431519699813,-0.64,8.925219512195122,-0.38222222222222224,0.4655555555555556,-0.6222222222222222,0.0018497051805258854,0.0003794371990147147,0.001090830782496456
1589997176.6239412,3.6,-0.6507143218751582,8.912142965625474,-0.38222222222222224,0.4655555555555556,-0.6222222222222222,-7.792042900331593e-05,-0.001753126817249658,0.00050645517674657
1589997176.6339412,3.5925570599613152,-0.648835589941973,8.947442940038684,-0.38222222222222224,0.4655555555555556,-0.6222222222222222,-0.0019027295931437218,-0.0028665429421657353,0.00040594940532363274
1589997176.6439412,3.5838529579191665,-0.6338529579191663,8.99082366335333,-0.3689509227228718,0.4681241941683331,-0.6136600935129638,-0.0015913223067333467,-0.0017613690548039067,0.001931415802874467
1589997176.6539412,3.5951049182741865,-0.64,8.99916065380651,-0.3477777777777778,0.4722222222222222,-0.6,0.0005339705829353326,-0.001090830782496456,0.0010450515492448748
1589997176.6639411,3.585884845647836,-0.6470575771760823,8.89648180541526,-0.3477777777777778,0.4722222222222222,-0.6,0.0015397244867029728,-0.001090830782496456,-0.0003209685391449696
1589997176.6739411,3.5908875138362157,-0.6445562430818923,8.880887513836216,-0.3477777777777778,0.4722222222222222,-0.6,0.0015878398031229147,-0.004059939591846442,0.0
1589997176.6839411,3.608356208582562,-0.644178104291281,8.915068625747686,-0.3477777777777778,0.4722222222222222,-0.6,0.0015465912598374338,-0.00563346374029678,-0.0009115209546819558
1589997176.693941,3.602786641008132,-0.6385244273387547,8.978688931653112,-0.35989088225353666,0.47540988129479034,-0.6082879135886772,0.0015557661697098565,-0.0012338461535705463,-0.0009298707744268009
1589997176.703941,3.583411569630304,-0.6431768607393914,8.98682313926061,-0.3688888888888889,0.4777777777777778,-0.6144444444444445,0.001809517048056313,0.001090830782496456,0.000718686265559857
