time,acc_x,acc_y,acc_z,mag_x,mag_y,mag_z,gyr_x,gyr_y,gyr_z
1589997328.6046612,-3.9,-1.05,8.85,0.33555555555555555,-0.30666666666666664,-0.6222222222222222,0.002181661564992912,-0.002181661564992912,0.006544984694978735
1589997328.6146612,-3.9182277655852764,-1.05,8.868227765585276,0.33555555555555555,-0.30666666666666664,-0.6222222222222222,0.002181661564992912,0.0008008496044894235,0.007539155084806181
1589997328.6246612,-3.9162821020563596,-1.04,8.918589489718203,0.3233333333333333,-0.30666666666666664,-0.6288888888888889,0.0,0.001090830782496456,0.00545415391248228
1589997328.6346612,-3.904648495344226,-1.045351504655774,8.869727430163392,0.3233333333333333,-0.30666666666666664,-0.6288888888888889,-0.0023350344044765136,0.0005070721813773276,0.004286636710244023
1589997328.6446612,-3.917163689658331,-1.0542909224145829,8.821454612072914,0.3233333333333333,-0.30666666666666664,-0.6288888888888889,-0.003427189078959645,-0.0004680670255130895,0.0037405593730024576
1589997328.6546612,-3.9325490738180813,-1.0624836420606396,8.852483642060639,0.3233333333333333,-0.30666666666666664,-0.6288888888888889,-0.002723508207482627,-0.0008199074612515985,0.004092399808740967
1589997328.6646612,-3.912159775655882,-1.07,8.857840224344118,0.32453320869771224,-0.30834649217679716,-0.6226495369941185,-0.0034209432224967654,0.0,0.0023301124400003097
1589997328.6746612,-3.9145105202624992,-1.0672552601312497,8.847255260131249,0.3288888888888889,-0.3144444444444445,-0.6,0.0011976186955112975,-0.0002994046738778244,-0.0007914261086186316
1589997328.6846611,-3.9044977725108083,-1.0555022274891919,8.808515592424342,0.3288888888888889,-0.3144444444444445,-0.6,0.004363323129985824,-0.001090830782496456,0.0009812617414912048
1589997328.6946611,-3.9054447024516685,-1.05,8.77455529754833,0.3288888888888889,-0.3144444444444445,-0.6,0.0033695113721557285,-0.001090830782496456,0.0011878498071628163
1589997328.7046611,-3.907543993349037,-1.0386840099764445,8.82903595676874,0.3288888888888889,-0.3144444444444445,-0.6,0.0030045835818007204,-0.0019137527993042646,0.0
1589997328.7146611,-3.9159248289245223,-1.028150342150955,8.918150342150955,0.3316056696058739,-0.315802834802937,-0.6015847887515745,0.004363323129985824,-0.0026056940395288645,0.00022226610265350114
1589997328.724661,-3.9036073955984136,-1.0527852088031728,8.946392604401586,0.3422222222222222,-0.3211111111111111,-0.6077777777777778,0.005543840579003345,0.0011805174490175214,0.0014843365988356297
1589997328.734661,-3.9063846721589437,-1.0454229917615847,8.91830803295366,0.3422222222222222,-0.3211111111111111,-0.6077777777777778,0.007438629932583152,0.003272492347489368,0.0015901049303167904
1589997328.744661,-3.888589184826473,-1.0703527037933818,8.820705407586765,0.3422222222222222,-0.3211111111111111,-0.6077777777777778,0.006621932725963554,0.003234018331996959,-0.0009754087360192281
1589997328.754661,-3.8205838543082358,-1.0898053818972548,8.859610763794509,0.3422222222222222,-0.3211111111111111,-0.6077777777777778,0.010152781247659504,0.0011120603242270202,-0.0017402096511486913
1589997328.764661,-3.7551531385828363,-1.1148468614171638,8.898384379527613,0.3400680615923717,-0.3211111111111111,-0.608854858092703,0.013266206244368688,-0.001090830782496456,-0.01122737187775784
1589997328.774661,-3.777106564578888,-1.1143055102296975,8.851458265344547,0.3288888888888889,-0.3211111111111111,-0.6144444444444445,0.014180800172453925,-0.003426525814328644,-0.019945540321539064
1589997328.784661,-3.872248675023134,-1.0719378312442165,8.779844578110541,0.3288888888888889,-0.3211111111111111,-0.6144444444444445,0.011982184709331442,-0.004786092324480748,-0.018298830908933146
1589997328.794661,-3.9379135626353885,-1.0456691498916892,8.771496275162466,0.3288888888888889,-0.3211111111111111,-0.6144444444444445,0.008335832949034443,-0.0025724748759301166,-0.010745089524334245
1589997328.804661,-3.9878581545932823,-1.011070922703359,8.815952718197762,0.3288888888888889,-0.3211111111111111,-0.6144444444444445,0.006661804240028564,-0.0029478219350071587,-0.004596962220085479
1589997328.814661,-4.0300894399210465,-0.9900894399210461,8.830536639526278,0.32882926227485815,-0.3210465156125778,-0.6144146311374291,0.004358444939032765,-0.002210930710711266,2.9269145718354203e-05
1589997328.824661,-4.043025228226005,-1.0030252282260055,8.908151369356032,0.32020540340488524,-0.3117040018367738,-0.6101027017024426,0.0036529071350874026,-0.006444157534383441,0.004262495969390528
1589997328.834661,-4.006997633543011,-1.025637224166178,8.895269715418378,0.31555555555555553,-0.30666666666666664,-0.6077777777777778,0.004125370621152582,-0.009153085396803255,0.005692106421315521
1589997328.844661,-3.926361147139357,-1.0431805735696786,8.80659028678484,0.31555555555555553,-0.30666666666666664,-0.6077777777777778,0.005082211899024056,-0.007585824961718762,0.0032474970896111525
1589997328.854661,-3.903519406729634,-1.033519406729634,8.821116440377804,0.31555555555555553,-0.30666666666666664,-0.6077777777777778,0.003979415410304828,-0.0025046769081273775,-6.089237654652974e-05
1589997328.864661,-3.91,-1.0379098662412567,8.862090133758743,0.3183424005672134,-0.30968574876262933,-0.6077777777777778,0.003272492347489368,-0.0006348343337819908,-0.0019536633406356794
1589997328.874661,-3.9139524531624517,-1.0339524531624518,8.87,0.3288888888888889,-0.3211111111111111,-0.6077777777777778,0.0019790550746960358,0.00022853926730090107,-0.001090830782496456
1589997328.884661,-3.9168774710725813,-1.0431225289274184,8.838774710725815,0.3288888888888889,-0.3211111111111111,-0.6077777777777778,0.0,-0.0007502157151700842,-6.898558051734094e-05
1589997328.894661,-3.9132098108589823,-1.051069936952994,8.77534968476497,0.3288888888888889,-0.3211111111111111,-0.6077777777777778,0.00011671201636563928,-0.0007002720981938355,0.002181661564992912
1589997328.904661,-3.93585356594649,-1.0558535659464903,8.826910723422516,0.3288888888888889,-0.3211111111111111,-0.6077777777777778,0.0013923679760404612,-0.006394216098206733,0.002030892968220909
1589997328.914661,-3.9150852493109083,-1.0350852493109084,8.861524584481819,0.3288888888888889,-0.3211111111111111,-0.6077777777777778,0.002902682581822192,-0.005639058795315868,0.0012757356653300442
1589997328.924661,-3.91,-1.0588636363636363,8.906590909090909,0.3233333333333333,-0.3211111111111111,-0.5866666666666667,0.005206237825551267,-0.007511857434009685,0.0030245762605583554
1589997328.934661,-3.91,-1.0510756461675579,8.883226938502675,0.3233333333333333,-0.3211111111111111,-0.5866666666666667,0.0035071619376186745,-0.0066623194900433886,0.0013255003726257626
1589997328.944661,-3.911816540457159,-1.0318165404571589,8.797266161828635,0.3233333333333333,-0.3211111111111111,-0.5866666666666667,-0.000396307649663819,-0.0004963693080007274,0.001090830782496456
1589997328.954661,-3.919168770158463,-1.039168770158463,8.826675080633851,0.3233333333333333,-0.3211111111111111,-0.5866666666666667,-0.0020003153452972803,0.0019096422354494649,0.001090830782496456
1589997328.964661,-3.9182074294490303,-1.0391037147245152,8.907311144173546,0.3244287931144813,-0.3205135875941213,-0.5878617137006463,-0.0017905833376340846,-9.776955683970682e-05,0.000993061225656749
1589997328.9746609,-3.9041550269672243,-1.0341550269672244,8.88277001797815,0.33555555555555555,-0.3144444444444445,-0.6,0.0024838236528563337,-0.0009397497385647452,0.0001510810439317108
1589997328.9846609,-3.918367127312482,-1.0570917818281205,8.862193163765566,0.33555555555555555,-0.3144444444444445,-0.6,0.00372884834916547,0.0006344747808203538,0.0004563560016761022
1589997328.9946609,-3.89,-1.0498338844582766,8.771162808792063,0.33555555555555555,-0.3144444444444445,-0.6,0.002163541170356616,0.002127300381084024,-0.001108951177132752
1589997329.0046608,-3.8991243407004545,-1.0430414469001514,8.852165787600606,0.33555555555555555,-0.3144444444444445,-0.6,0.0014226011726978219,-9.551961189235825e-05,-0.0028452023453956437
1589997329.0146608,-3.922600190839695,-1.0486999045801526,8.88520038167939,0.3339665500424088,-0.3144444444444445,-0.6018779156064461,0.001898024744162488,0.0020398431545777,-0.0040796863091554
1589997329.0246608,-3.9283323855558714,-1.04,8.908332385555871,0.3233333333333333,-0.3144444444444445,-0.6144444444444445,0.0008484928662637109,-0.0001819085168991107,-0.0009089222655973453
1589997329.0346608,-3.91,-1.0473371034044197,8.856983034680113,0.3233333333333333,-0.3144444444444445,-0.6144444444444445,0.000981130827807843,-0.001781484652597889,0.001891184607286502
1589997329.0446608,-3.9064684761593895,-1.0494054284781682,8.807063047681222,0.3233333333333333,-0.3144444444444445,-0.6144444444444445,-0.0014760602739422755,6.485769184100265e-05,0.004042951330381007
1589997329.0546608,-3.9,-1.0344831407752195,8.82896628155044,0.3233333333333333,-0.3144444444444445,-0.6144444444444445,-0.0029152137589740917,0.0031597311569678183,0.005209636514488553
1589997329.0646608,-3.9,-1.046103953675228,8.852207907350456,0.3233333333333333,-0.3144444444444445,-0.6144444444444445,-0.004816664823318238,0.005694999242760013,0.004575819493040504
1589997329.0746608,-3.900649166873032,-1.0219475006190966,8.858701666253936,0.3288888888888889,-0.3211111111111111,-0.6077777777777778,-0.01090830782496456,0.005737406395714458,0.005383340791674235
1589997329.0846608,-3.91,-1.05,8.814823381419036,0.3288888888888889,-0.3211111111111111,-0.6077777777777778,-0.01022172206128235,0.009130891278785896,0.0036767373663036144
1589997329.0946608,-3.91,-1.05,8.776748760207315,0.3288888888888889,-0.3211111111111111,-0.6077777777777778,-0.008560554776309905,0.007635815477475192,0.0023477530486546547
1589997329.1046607,-3.91,-1.05,8.862764830903464,0.3288888888888889,-0.3211111111111111,-0.6077777777777778,-0.007707564069903089,0.007635815477475192,0.003200743755061472
1589997329.1146607,-3.9203369686800893,-1.0496630313199105,8.891684843400448,0.328701684066617,-0.32129831593338304,-0.6080024235645041,-0.004363323129985824,0.005490911493380161,0.004436838291781586
1589997329.1246607,-3.930290428641013,-1.0402904286410133,8.940290428641013,0.3233333333333333,-0.32666666666666666,-0.6144444444444445,-0.004379163555072612,0.00651330384480516,0.006655867670586251
1589997329.1346607,-3.9483264856548423,-1.058326485654842,8.93657079916779,0.3233333333333333,-0.32666666666666666,-0.6144444444444445,-0.00563670600874705,0.0034505626486619717,0.015458664846307318
1589997329.1446607,-3.940993408745214,-1.050993408745214,8.833907722432995,0.3233333333333333,-0.32666666666666666,-0.6144444444444445,-0.006436620611090684,-0.0005490103630561996,0.02105806706271276
1589997329.1546607,-3.9261676450213296,-1.04,8.83,0.3233333333333333,-0.32666666666666666,-0.6144444444444445,-0.00633596215596936,-0.0036905374255081177,0.025507153075437234
1589997329.1646607,-3.9108750501330807,-1.04,8.83,0.3233333333333333,-0.32666666666666666,-0.6144444444444445,-0.005501880493551874,-0.0053587007503430924,0.027175316400272213
1589997329.1746607,-3.89514252103882,-1.04,8.83242873948059,0.33555555555555555,-0.32666666666666666,-0.6077777777777778,-0.0035374267262985697,-0.002477689211061763,0.01860630983695905
1589997329.1846607,-3.8863219534027897,-1.04,8.82946341099535,0.33555555555555555,-0.32666666666666666,-0.6077777777777778,-0.004363323129985824,0.0009194908503028534,0.009930284194279595
1589997329.1946607,-3.912033205772144,-1.0420332057721438,8.794066411544287,0.33555555555555555,-0.32666666666666666,-0.6077777777777778,-0.003919746441305032,0.002589016375262656,0.00173808487631212
1589997329.2046607,-3.9193335586346736,-1.0496667793173369,8.812998986143969,0.33555555555555555,-0.32666666666666666,-0.6077777777777778,-0.0020726153515889067,-0.004326974392184489,3.63487378013351e-05
1589997329.2146606,-3.9051588374450827,-1.0425794187225415,8.876785231497127,0.33555555555555555,-0.32666666666666666,-0.6077777777777778,0.0002467179794477031,-0.0035538632818389523,0.0008094598481468716
1589997329.2246606,-3.909590882945068,-1.0495908829450675,8.93836353178027,0.33555555555555555,-0.32666666666666666,-0.6216312753650977,0.001090830782496456,-0.0011800862779293695,-0.0020477783218435415
1589997329.2346606,-3.92,-1.0576428069250374,8.906999296950522,0.33555555555555555,-0.32666666666666666,-0.6222222222222222,-0.001090830782496456,-0.0018622204124334766,-0.0002571298766456735
1589997329.2446606,-3.918502082766416,-1.05,8.804493751700752,0.33555555555555555,-0.32666666666666666,-0.6222222222222222,-0.0009274333596939391,-0.004526720552788341,-0.0007640359368914222
1589997329.2546606,-3.9096933324082426,-1.0503066675917574,8.830920002775272,0.33555555555555555,-0.32666666666666666,-0.6222222222222222,0.0,-0.005286892687940743,0.0010573785375881486
1589997329.2646606,-3.900006425633996,-1.0599935743660043,8.860006425633996,0.3355427042875638,-0.326658813114005,-0.6222129407508948,2.102783807930968e-06,2.8037117439079574e-06,2.102783807930968e-06
1589997329.2746606,-3.9089901045236464,-1.0510098954763538,8.868990104523645,0.31757534650826286,-0.31567876113776566,-0.6092365156880664,0.0029420048256762173,0.003922673100901624,0.0029420048256762173
1589997329.2846606,-3.907992212460064,-1.04,8.795945487220449,0.31555555555555553,-0.3144444444444445,-0.6077777777777778,0.005016122621827253,-0.00021901564532751327,-0.00021901564532751327
1589997329.2946606,-3.901012879392971,-1.04,8.747090155750799,0.31555555555555553,-0.3144444444444445,-0.6077777777777778,0.0034934683516512403,-0.00098034278041552,-0.00098034278041552
1589997329.3046606,-3.926897714628092,-1.0331022853719078,8.83551142685954,0.31555555555555553,-0.3144444444444445,-0.6077777777777778,0.004363323129985824,-0.001090830782496456,0.0007524239445198956
1589997329.3146605,-3.912537361978944,-1.0474626380210563,8.907313190105281,0.31555555555555553,-0.3144444444444445,-0.6077777777777778,0.004363323129985824,-0.001090830782496456,-0.0008140475271996577
1589997329.3246605,-3.9217331902718167,-1.0351995708154507,8.898266809728183,0.31555555555555553,-0.3144444444444445,-0.6077777777777778,0.006544984694978735,-0.005788737774810234,0.0016580159726228322
1589997329.3346605,-3.9338138193260788,-1.0580930903369608,8.874744722695686,0.31555555555555553,-0.3144444444444445,-0.6077777777777778,0.005088903663060561,-0.002181661564992912,0.0070674736178338625
1589997329.3446605,-3.9325602050682438,-1.0450172014480696,8.817474197827895,0.31555555555555553,-0.3144444444444445,-0.6077777777777778,-0.00027552227598279147,-0.0024534310671641335,0.02207712683066563
1589997329.3546605,-3.88,-1.03,8.841304009638995,0.31555555555555553,-0.3144444444444445,-0.6077777777777778,0.002181661564992912,-0.0027035108055341347,0.0331516596313601
1589997329.3646605,-3.88,-1.03,8.847700977625939,0.31555555555555553,-0.3144444444444445,-0.6077777777777778,0.002181661564992912,8.769303238731051e-05,0.03524506250980118
1589997329.3746605,-3.860848895224519,-1.0395755523877406,8.85,0.3410903619228637,-0.30061309099548583,-0.6279928328185634,-0.0009519306261935394,4.630005210097218e-05,0.028685700709614653
1589997329.3846605,-3.9056931118254767,-1.0314232779563692,8.858613776349046,0.3422222222222222,-0.3,-0.6288888888888889,-0.0031172368068037542,0.006079218072921894,0.012783500306283401
1589997329.3946605,-3.9364574150073466,-1.04,8.79531387748898,0.3422222222222222,-0.3,-0.6288888888888889,-0.0014087894130736518,0.0021131841196104775,0.004363323129985824
1589997329.4046605,-3.9182788167661182,-1.0382788167661186,8.826884732935527,0.3422222222222222,-0.3,-0.6288888888888889,0.002557165495759866,-0.004023500209023276,0.00586533885305364
1589997329.4146605,-3.9106483772376657,-1.0306483772376656,8.857406491049337,0.3422222222222222,-0.3,-0.6288888888888889,0.004221869160082704,-0.007352907537668951,0.012524153510344988
1589997329.4246604,-3.91,-1.0377149921601738,8.898574960800868,0.3370788941154398,-0.31114387756469536,-0.6126016832174112,-0.0023692776180432003,-0.0017447898229497952,0.015614694670468355
1589997329.4346604,-3.918575174682802,-1.031424825317198,8.875013111389809,0.33555555555555555,-0.3144444444444445,-0.6077777777777778,-0.008024376306395131,0.0035056288448413317,0.0211143456963526
1589997329.4446604,-3.904912292131537,-1.0450877078684626,8.827193022460381,0.33555555555555555,-0.3144444444444445,-0.6077777777777778,-0.011750349522533447,0.005741212774524321,0.024840318912490916
1589997329.4546604,-3.92,-1.04,8.830012183771892,0.33555555555555555,-0.3144444444444445,-0.6077777777777778,-0.007632714376342112,0.006544098666083569,0.02399783420047445
1589997329.4646604,-3.92,-1.04,8.8513048481259,0.33555555555555555,-0.3144444444444445,-0.6077777777777778,-0.0022131525086419345,0.004995652418169233,0.02322361107651728
1589997329.4746604,-3.92,-1.0303345280764635,8.889832735961768,0.3422222222222222,-0.30666666666666664,-0.6288888888888889,0.0,0.002199907241163701,0.026289412836939675
1589997329.4846604,-3.9237119951595827,-1.0462880048404175,8.871338677960974,0.3422222222222222,-0.30666666666666664,-0.6288888888888889,-0.0005398878112733934,0.00313752039467102,0.03366972714462212
1589997329.4946604,-3.946340718105424,-1.02,8.814879042526101,0.3422222222222222,-0.30666666666666664,-0.6288888888888889,-0.004097212641156793,0.0017824958317493654,0.04169129139651403
1589997329.5046604,-3.924979373567609,-1.02,8.843360835243187,0.3422222222222222,-0.30666666666666664,-0.6288888888888889,-0.0025437718293327086,-0.0005476653859867618,0.04945849545563445
1589997329.5146604,-3.9111099441711348,-1.0288900558288652,8.92112044663092,0.3422222222222222,-0.30666666666666664,-0.6288888888888889,-0.0031514162206167304,-0.005939604060615548,0.06581536661169071
1589997329.5246603,-3.890777476495781,-1.03,8.939611261752109,0.33581471438748245,-0.3322966980056258,-0.6011230216050165,-0.0043209183652725735,-0.00025442858827950075,0.07811576869261233
1589997329.5346603,-3.787477014335146,-1.02,8.857161641127039,0.33555555555555555,-0.3333333333333333,-0.6,0.0,-0.003341296108164874,0.08873571406592821
1589997329.5446603,-3.7054786374809785,-1.02,8.770645908931288,0.33555555555555555,-0.3333333333333333,-0.6,-0.0004932041414574285,-0.005313238443494443,0.10127238253809487
1589997329.5546603,-3.6380619550162887,-1.0196123910032577,8.782713262977195,0.33555555555555555,-0.3333333333333333,-0.6,-0.007804941807562815,-0.0031879291824455564,0.11449495057960596
1589997329.5646603,-3.5971523320913716,-1.0114304664182745,8.83998673507208,0.33555555555555555,-0.3333333333333333,-0.6,-0.011374979886508554,-0.0014029101429726865,0.11360244105986951
1589997329.5746603,-3.507078707802674,-1.004935185815796,8.905064814184204,0.3233333333333333,-0.3144444444444445,-0.6144444444444445,-0.002705866564059519,0.0,0.09941458161507549
1589997329.5846603,-3.381888369478387,-0.9886613509275423,8.903936211130507,0.3233333333333333,-0.3144444444444445,-0.6144444444444445,0.0027657574110718152,0.001168191692157807,0.06374882674780308
1589997329.5946603,-3.251588212669014,-0.9824565815556673,8.829478978668009,0.3233333333333333,-0.3144444444444445,-0.6144444444444445,0.005473098782724754,0.006582874435463686,0.030583894945054556
1589997329.6046603,-2.825143318470677,-0.950747181773742,8.907011272905033,0.3233333333333333,-0.3144444444444445,-0.6144444444444445,0.004363323129985824,0.027678294001870427,-0.04703746618322824
1589997329.6146603,-2.663601848697172,-0.9755997155850504,8.807601137659798,0.3233333333333333,-0.3144444444444445,-0.6144444444444445,0.004363323129985824,0.04123324845407504,-0.08770232953984208
1589997329.6246603,-2.0551305334846766,-1.154472190692395,8.842962542565267,0.3320734014377601,-0.31921175431958637,-0.6144444444444445,0.002803224621534593,0.05376768073769421,-0.16040784283085227
1589997329.6346602,-1.7768029350104821,-1.128503668763103,8.86170073375262,0.33555555555555555,-0.3211111111111111,-0.6144444444444445,0.010166222732888879,0.060622720637254233,-0.23687707743317404
1589997329.6446602,-1.8170355484720393,-0.9719187859469198,8.74511676252512,0.33555555555555555,-0.3211111111111111,-0.6144444444444445,0.01573454050467031,0.022025922727521293,-0.33023048109788417
1589997329.6546602,-1.8969629616797172,-0.9937171713671956,8.803245790312522,0.33555555555555555,-0.3211111111111111,-0.6144444444444445,0.008601035557122678,0.02440375771003717,-0.3888837439999425
1589997329.6646602,-1.9368229460160036,-1.0084114730080018,8.870468838048012,0.33555555555555555,-0.3211111111111111,-0.6144444444444445,0.009297632799958665,0.03701724978566485,-0.46726485876656665
1589997329.6746602,-1.9630595782520326,-1.0253730521680218,8.941492208672088,0.3304312048328817,-0.3305057541026799,-0.6255472043435713,0.017363706379078973,0.040108378096162516,-0.5358906685036707
1589997329.6846602,-2.0105269546099938,-1.060526954609994,8.95473045390006,0.3288888888888889,-0.3333333333333333,-0.6288888888888889,0.022046542973753087,0.04937479436712048,-0.6277490084310682
1589997329.6946602,-2.020899211023447,-1.0705138348705412,8.860128458717634,0.3288888888888889,-0.3333333333333333,-0.6288888888888889,0.02616592610756728,0.054709691192994715,-0.6969449389694228
1589997329.7046602,-2.0861511279031,-1.1078006445160575,8.869450161129013,0.3288888888888889,-0.3333333333333333,-0.6288888888888889,0.02514908611400691,0.06691177111571917,-0.7691405785122091
1589997329.7146602,-2.104890309923981,-1.1397806198479619,8.825329070228058,0.3288888888888889,-0.3333333333333333,-0.6288888888888889,0.03158623136781482,0.07169221062127798,-0.828624573438356
1589997329.7246602,-2.121036161205498,-1.1896546129315007,8.798963838794503,0.33555555555555555,-0.3211111111111111,-0.6355555555555555,0.03799069796427835,0.07218321106786368,-0.9255931815692268
1589997329.7346601,-2.1445025269950206,-1.1818324910016598,8.775497473004979,0.33555555555555555,-0.3211111111111111,-0.6355555555555555,0.03372439227152282,0.07644951676061923,-0.9878812446834575
1589997329.7446601,-2.177140362243317,-1.234280724486634,8.751906425171121,0.33555555555555555,-0.3211111111111111,-0.6355555555555555,0.03371177489433084,0.07744898555724837,-1.0725399398942814
1589997329.7546601,-2.2364718804920916,-1.2642022344966106,8.79840446899322,0.33555555555555555,-0.3211111111111111,-0.6355555555555555,0.030295681938176743,0.08360911211587183,-1.1415237402577256
1589997329.7646601,-2.2548662401428357,-1.274866240142836,8.844063680999852,0.33555555555555555,-0.3211111111111111,-0.6355555555555555,0.03476067567022965,0.08614644994328864,-1.192907516791738
1589997329.77466,-2.26,-1.2853446851313002,8.88,0.3444633641077223,-0.31220330255894435,-0.6236784774859998,0.041235261011964855,0.08872399936570978,-1.2496214093368159
1589997329.78466,-2.301071125984919,-1.3319442090993816,8.893690375328307,0.3688888888888889,-0.2877777777777778,-0.5911111111111111,0.04164204692225203,0.09520959698420653,-1.3325318002781832
1589997329.79466,-2.355754897107701,-1.393019588430804,8.85245102892299,0.3688888888888889,-0.2877777777777778,-0.5911111111111111,0.03926990816987242,0.09880253231619904,-1.406164266522514
1589997329.80466,-2.3713926362857958,-1.4327852725715915,8.849874227000287,0.3688888888888889,-0.2877777777777778,-0.5911111111111111,0.042998139676172074,0.10237246079576053,-1.4628599544388972
1589997329.81466,-2.4463139834143552,-1.4776308264226479,8.819212181870174,0.3688888888888889,-0.2877777777777778,-0.5911111111111111,0.04943175958576805,0.11014505520103512,-1.5121204235890875
1589997329.82466,-2.4878314786109246,-1.5243370427781506,8.77,0.3844375551082628,-0.2918339515741362,-0.5911111111111111,0.05368725733069687,0.11719199170386183,-1.5624832942520275
1589997329.83466,-2.454029757785467,-1.5832837370242214,8.752686505190312,0.3944444444444444,-0.29444444444444445,-0.5911111111111111,0.052652929815722706,0.12551068787396402,-1.6223097347655133
1589997329.84466,-2.432694039012413,-1.6159589414813806,8.680776156049651,0.3944444444444444,-0.29444444444444445,-0.5911111111111111,0.0466965150700471,0.11992911453150895,-1.6673100019473914
1589997329.85466,-2.410882672965155,-1.7060279716568032,8.81337995276134,0.3944444444444444,-0.29444444444444445,-0.5911111111111111,0.046857581305284196,0.12411399749427886,-1.7150419579668847
1589997329.86466,-2.445938615274804,-1.738750892219843,8.877501784439687,0.3944444444444444,-0.29444444444444445,-0.5911111111111111,0.051610077385993984,0.1235706502481549,-1.744409715124859
1589997329.87466,-2.480110951953191,-1.7803328558595741,8.869889048046808,0.4088888888888889,-0.2611111111111111,-0.6288888888888889,0.06323187644301867,0.12771192241622883,-1.7925738590982507
1589997329.88466,-2.4897509306678187,-1.8129888319861789,8.858256514674729,0.4088888888888889,-0.2611111111111111,-0.6288888888888889,0.05994135453840118,0.13523584778010858,-1.823593315035136
1589997329.89466,-2.481124411262623,-1.9165070648485223,8.797870878838362,0.4088888888888889,-0.2611111111111111,-0.6288888888888889,0.058059339955803174,0.1342948404888096,-1.8518235337741065
1589997329.90466,-2.466268892695138,-1.9368655536524308,8.79,0.4088888888888889,-0.2611111111111111,-0.6288888888888889,0.06006077865119794,0.13492110197335933,-1.8757238856364438
1589997329.91466,-2.443047893554982,-1.956952106445018,8.777285920166236,0.4088888888888889,-0.2611111111111111,-0.6288888888888889,0.06386030575055886,0.1375745019718583,-1.8969753138538243
1589997329.92466,-2.4081779793556457,-2.0065995464497965,8.76,0.42465158308136103,-0.247318753692698,-0.6269185521148299,0.06698671731327177,0.1426515445465683,-1.9220218737191486
1589997329.93466,-2.4019276593144743,-2.113855318628948,8.752690780228509,0.4622222222222222,-0.21444444444444444,-0.6222222222222222,0.062260598180677536,0.14487021906018915,-1.965891677202234
1589997329.94466,-2.3915619609370653,-2.1668760781258696,8.667028824216795,0.4622222222222222,-0.21444444444444444,-0.6222222222222222,0.06410344090660973,0.14700658037634037,-1.9995446920419868
1589997329.95466,-2.38386188616509,-2.17,8.684552455339638,0.4622222222222222,-0.21444444444444444,-0.6222222222222222,0.06770683792608427,0.14726215563702155,-2.017744030323205
1589997329.96466,-2.3549239901549153,-2.238959027073983,8.762690024612711,0.4622222222222222,-0.21444444444444444,-0.6222222222222222,0.07049701216580324,0.14794599772305161,-2.0483696872418133
1589997329.97466,-2.349782181789035,-2.33087127284386,8.86,0.5066666666666667,-0.17777777777777778,-0.6288888888888889,0.06433525588634,0.15055840826546182,-2.0895824760663873
1589997329.98466,-2.341377444693812,-2.364490221224752,8.86,0.5066666666666667,-0.17777777777777778,-0.6288888888888889,0.06341844129211412,0.15147522285968773,-2.1143364701104868
1589997329.99466,-2.2964900744416874,-2.4396158808933004,8.720768238213399,0.5066666666666667,-0.17777777777777778,-0.6288888888888889,0.06326818538479445,0.15637167538132105,-2.137378166065372
1589997330.00466,-2.2808291074417326,-2.477512677674802,8.800879818140942,0.5066666666666667,-0.17777777777777778,-0.6288888888888889,0.07327207729032015,0.16308196782280507,-2.162218557450203
1589997330.01466,-2.20676905045073,-2.4467132047503317,8.703482255201061,0.5066666666666667,-0.17777777777777778,-0.6288888888888889,0.07708131408247859,0.17233907999262715,-2.1816371977092865
1589997330.0246599,-2.227074158440901,-2.534635957141652,8.69756179870075,0.5193498129868669,-0.12704519249697688,-0.6627106124094228,0.0754269038941241,0.1653005744638165,-2.219442060745344
1589997330.0346599,-2.1519278890493676,-2.5683898585275027,8.76387718168688,0.52,-0.12444444444444445,-0.6644444444444444,0.06520255122468663,0.16394123486715187,-2.240286805408109
1589997330.0446599,-1.9583624388407979,-2.4849190816710576,8.485741061347385,0.52,-0.12444444444444445,-0.6644444444444444,0.08182996232804991,0.17295916470318015,-2.2689456812334443
1589997330.0546598,-1.8694497304154774,-2.5041650808753566,8.550550269584523,0.52,-0.12444444444444445,-0.6644444444444444,0.07850980378967139,0.17344209441693648,-2.287592201095362
1589997330.0646598,-2.059698156306086,-2.7065920215369554,8.832122695382608,0.52,-0.12444444444444445,-0.6644444444444444,0.06100792402467671,0.16629380679407924,-2.3147099944181972
1589997330.0746598,-2.108576015698167,-2.8490879900102573,8.875072024260804,0.5497813257221008,-0.08845867586357262,-0.6774737744478636,0.07063347015801674,0.16314290634524484,-2.3383153343771257
1589997330.0846598,-2.024413903958208,-2.915586096041792,8.853379144062687,0.5733333333333334,-0.06,-0.6877777777777778,0.07635065901168957,0.16556553782403152,-2.3610542870793156
1589997330.0946598,-1.8759728091126218,-2.8839932022781554,8.778984705125849,0.5733333333333334,-0.06,-0.6877777777777778,0.07428539090890268,0.17464367668963637,-2.3745226718875565
1589997330.1046598,-1.8719705798070494,-2.951823478842296,8.811897029324673,0.5733333333333334,-0.06,-0.6877777777777778,0.076135174750438,0.1762766498288224,-2.3823583827462107
1589997330.1146598,-1.8558195684389345,-3.0302255394513318,8.719097842194673,0.5733333333333334,-0.06,-0.6877777777777778,0.07613014760320543,0.17407691085633997,-2.398607293688632
1589997330.1246598,-1.84,-3.1043893096289366,8.68532442469078,0.5803837993963437,-0.0025890620583447904,-0.7008715004662255,0.08317792841651878,0.18026186805870337,-2.4142833106114456
1589997330.1346598,-1.8163932328689225,-3.1257378447540516,8.737213534262155,0.5811111111111111,0.0033333333333333327,-0.7022222222222222,0.0736935749475051,0.17850281106823118,-2.4253997477518756
1589997330.1446598,-1.7846309591030087,-3.1976507757253096,8.673892877309026,0.5811111111111111,0.0033333333333333327,-0.7022222222222222,0.07459377829331625,0.18241763933573057,-2.430956654910396
1589997330.1546597,-1.7392365724580565,-3.216793904590324,8.619236572458057,0.5811111111111111,0.0033333333333333327,-0.7022222222222222,0.07674952404434932,0.17881297130312301,-2.4307207141585536
1589997330.1646597,-1.7142957778797614,-3.22,8.731197108765489,0.5811111111111111,0.0033333333333333327,-0.7022222222222222,0.07807121966514373,0.17920352319600727,-2.4253931105389412
1589997330.1746597,-1.662280293170765,-3.339299267073087,8.837953284471538,0.5643208438934174,0.05989002290872283,-0.730500567009917,0.08461279760619901,0.18454818490381406,-2.417306493380379
1589997330.1846597,-1.6324710832412763,-3.393371889011632,8.758198388459288,0.56,0.07444444444444444,-0.7377777777777778,0.07279087442825631,0.1835291248259741,-2.409816489234905
1589997330.1946597,-1.5960310713762276,-3.4279766964678293,8.652062142752454,0.56,0.07444444444444444,-0.7377777777777778,0.06915104554720554,0.1834760429352217,-2.3869796437882953
1589997330.2046597,-1.5567978747287285,-3.4632021252712715,8.643202125271271,0.56,0.07444444444444444,-0.7377777777777778,0.07055470318073837,0.18350674915972634,-2.350272674111718
1589997330.2146597,-1.4959155625051437,-3.483521109373714,8.677042218747427,0.56,0.07444444444444444,-0.7377777777777778,0.06907570796385575,0.18178464722756973,-2.3143434982816076
1589997330.2246597,-1.4465602702037712,-3.466560270203771,8.678280135101886,0.5639066216327048,0.1056974175060828,-0.7377777777777778,0.06808311982739859,0.18043869042453353,-2.2781894388392905
1589997330.2346597,-1.3837532480347334,-3.4885389599710557,8.67,0.5666666666666667,0.12777777777777774,-0.7377777777777778,0.06342756012859767,0.17746471008020567,-2.2228659280675327
1589997330.2446597,-1.3294118466251974,-3.532470522699842,8.613176585275276,0.5666666666666667,0.12777777777777774,-0.7377777777777778,0.062177354602297986,0.16785962534324142,-2.1703811735828684
1589997330.2546597,-1.2873898795180723,-3.54,8.608152530120481,0.5666666666666667,0.12777777777777774,-0.7377777777777778,0.052395020710581636,0.16669558202052642,-2.1200278383964832
1589997330.2646596,-1.2867255317479005,-3.587078722235303,8.643627658739502,0.5666666666666667,0.12777777777777774,-0.7377777777777778,0.04944457428891027,0.16689710972195776,-2.0726081954224536
1589997330.2746596,-1.2608540103866128,-3.573567512983266,8.674572994806693,0.5715243316022313,0.13668349682631276,-0.7750198756171058,0.04511321738026493,0.16530744258912752,-2.0071391830223346
1589997330.2846596,-1.1932135585332273,-3.5789288138222575,8.654761581570323,0.5733333333333334,0.14,-0.7888888888888889,0.04088014692739651,0.16127409269138768,-1.9490673527797253
1589997330.2946596,-1.1199836991325611,-3.5299755486988413,8.559967398265123,0.5733333333333334,0.14,-0.7888888888888889,0.03490480689108821,0.1607163280040773,-1.8773002170396182
1589997330.3046596,-1.0878615063177794,-3.536415481046662,8.53213849368222,0.5733333333333334,0.14,-0.7888888888888889,0.03073876709063792,0.1607809036813902,-1.809626059007852
1589997330.3146596,-1.09037378152832,-3.59630823534912,8.63336403375488,0.5733333333333334,0.14,-0.7888888888888889,0.017570588894320532,0.15186509486049057,-1.7445495370952628
1589997330.3246596,-1.073643152502623,-3.6234107881256556,8.660697093130903,0.5982259115253006,0.14805348117975412,-0.7691212532658561,0.008701299238456502,0.1418333487460544,-1.6536397173095285
1589997330.3346596,-1.0445100792297664,-3.666469762310701,8.668724801925585,0.6111111111111112,0.15222222222222226,-0.7588888888888888,0.0030587240846272606,0.12888935326582135,-1.561728570277195
1589997330.3446596,-1.0246459609962955,-3.649291921992591,8.595552785479624,0.6111111111111112,0.15222222222222226,-0.7588888888888888,0.001090830782496456,0.11372147912046786,-1.47904322246605
1589997330.3546596,-0.9792467019310432,-3.64,8.585282486775858,0.6111111111111112,0.15222222222222226,-0.7588888888888888,0.006092012884956985,0.10406135312913473,-1.412853887357293
1589997330.3646595,-0.9507530614212708,-3.6794278918779932,8.621506122842542,0.6111111111111112,0.15222222222222226,-0.7588888888888888,0.014818231293097004,0.09739278573105455,-1.3342764594246166
1589997330.3746595,-0.9564136716214963,-3.7567931641892516,8.687172656757006,0.5771452901648519,0.11221803310773923,-0.7694560331832806,0.01811151934583488,0.09006495477313733,-1.2073986204821643
1589997330.3846595,-0.9347100992976508,-3.775289900702349,8.692355049648825,0.5611111111111111,0.09333333333333334,-0.7744444444444445,0.019698200606934183,0.08059498486074178,-1.1041971978372016
1589997330.3946595,-0.8975264070311241,-3.754021125624899,8.605568658280923,0.5611111111111111,0.09333333333333334,-0.7744444444444445,0.020017320970858458,0.07358056906372537,-1.0176339216482315
1589997330.4046595,-0.8866202917307018,-3.7731014586535094,8.606342042114914,0.5611111111111111,0.09333333333333334,-0.7744444444444445,0.016746306881353694,0.06873751545958276,-0.9192882965504915
1589997330.4146595,-0.89,-3.7957591602530205,8.63,0.5611111111111111,0.09333333333333334,-0.7744444444444445,0.014015177097885355,0.06134923922945513,-0.833446137244355
1589997330.4246595,-0.8659919531388676,-3.7819939648541507,8.64800603514585,0.5217645898664773,0.12867851343444506,-0.699752743098699,0.015708841044331543,0.05279489320825459,-0.741092658656345
1589997330.4346595,-0.8211304506773361,-3.7815478197290657,8.648452180270935,0.4955555555555556,0.15222222222222226,-0.65,0.017453292519943295,0.045769364963922365,-0.6516016321811133
1589997330.4446595,-0.8063303082037919,-3.8216515410189595,8.589357534369665,0.4955555555555556,0.15222222222222226,-0.65,0.015381704004527479,0.038399223486530146,-0.5587852970848393
1589997330.4546595,-0.8038096032358276,-3.8028576194149655,8.578571190292518,0.4955555555555556,0.15222222222222226,-0.65,0.012154997568586219,0.031270543080025054,-0.477317033631592
1589997330.4646595,-0.820910777385159,-3.7852276943462897,8.621366166077738,0.4955555555555556,0.15222222222222226,-0.65,0.01090830782496456,0.024369829404816967,-0.4062320806401416
1589997330.4746594,-0.8350098164327083,-3.8049705507018747,8.669960734269166,0.4855751884209723,0.1960249446462267,-0.6206133634370603,0.00981961865586262,0.018548406529228782,-0.33223185893228163
1589997330.4846594,-0.83,-3.8077672661155146,8.696116366942242,0.4755555555555556,0.24,-0.5911111111111111,0.008726646259971648,0.014360885336154228,-0.24715366977678466
1589997330.4946594,-0.8123950268789306,-3.79413167562631,8.735209946242138,0.4755555555555556,0.24,-0.5911111111111111,0.004245702052025113,0.009889294955709947,-0.1709856138636304
1589997330.5046594,-0.7922250251380387,-3.7744500502760774,8.674475276518425,0.4755555555555556,0.24,-0.5911111111111111,0.001090830782496456,0.004667401808077961,-0.10885137268307761
1589997330.5146594,-0.744920634920635,-3.689863945578231,8.560045351473923,0.4755555555555556,0.24,-0.5911111111111111,0.005737374149661066,-0.0013666304021072379,-0.04249787681195376
1589997330.5246594,-0.7150819235380312,-3.6548008525376314,8.657540961769016,0.4684048961709812,0.26145197815372323,-0.6113713127007386,0.012029798697391316,-0.010719261488474898,0.05380322672228324
1589997330.5346594,-0.8049161018455055,-3.736396821770365,8.646396821770365,0.4622222222222222,0.28,-0.6288888888888889,0.002056747553370504,-0.018669037314062158,0.13305983957296252
1589997330.5446594,-0.8080361283483868,-3.7458916149548394,8.608036128348386,0.4622222222222222,0.28,-0.6288888888888889,-0.002610111895083276,-0.0220308408149743,0.21168760978982853
1589997330.5546594,-0.8184546043258645,-3.7884546043258642,8.643060743427018,0.4622222222222222,0.28,-0.6288888888888889,-0.005034351479234,-0.026933616527914633,0.29106685381057856
1589997330.5646594,-0.8346202920305676,-3.8046202920305676,8.656139123908297,0.4622222222222222,0.28,-0.6288888888888889,-0.0009181928185226203,-0.03046042248161757,0.3528771339604991
1589997330.5746593,-0.8315929382297095,-3.814203530885145,8.661017654425727,0.476233991839373,0.2893411797447672,-0.6130088833227847,0.004363323129985824,-0.034385297223211826,0.41499348942815173
1589997330.5846593,-0.8340446864820846,-3.805955313517915,8.718089372964169,0.4955555555555556,0.3022222222222222,-0.5911111111111111,0.007427398399019792,-0.039711115021892944,0.4840095240519545
1589997330.5946593,-0.8598005237887385,-3.8132003491924924,8.650797904845046,0.4955555555555556,0.3022222222222222,-0.5911111111111111,0.003686874726366132,-0.04756041257180532,0.5262392907752916
1589997330.6046593,-0.8755785954592582,-3.8088428090814834,8.637892977296291,0.4955555555555556,0.3022222222222222,-0.5911111111111111,0.0023078915125072075,-0.04883492531731193,0.5594342090159177
1589997330.6146593,-0.8737701278711816,-3.803114936064409,8.653770127871182,0.4955555555555556,0.3022222222222222,-0.5911111111111111,0.000554197831836644,-0.04792508409071738,0.5840420663659602
1589997330.6246593,-0.8613550793274923,-3.809322460336254,8.641355079327493,0.4955555555555556,0.3022222222222222,-0.5911111111111111,-0.004862889015220998,-0.04995649165836399,0.6023247344747799
1589997330.6346593,-0.8880335811380711,-3.808033581138071,8.684100743414213,0.4955555555555556,0.3211111111111111,-0.5866666666666667,-0.014180800172453925,-0.0545415391248228,0.6610434541928523
1589997330.6446593,-0.9189962564342536,-3.8317992512868506,8.72660973327094,0.4955555555555556,0.3211111111111111,-0.5866666666666667,-0.013788264434625299,-0.05513034273156574,0.6667352223913674
1589997330.6546593,-0.9748970675531283,-3.84,8.654759824290633,0.4955555555555556,0.3211111111111111,-0.5866666666666667,-0.012540811269323732,-0.05781403147231216,0.7268029245826008
1589997330.6646593,-0.99,-3.8536048189609935,8.653720482770684,0.4955555555555556,0.3211111111111111,-0.5866666666666667,-0.015563395275448002,-0.0607821425349008,0.7792085525580581
1589997330.6746593,-0.9835835841520435,-3.882832831695913,8.661331326783651,0.5069625170630339,0.31647703299869806,-0.598073628174145,-0.018194162106427294,-0.06470897736330335,0.8150182033889093
1589997330.6846592,-0.9752418204607338,-3.9047581795392663,8.70971906470156,0.5311111111111111,0.30666666666666664,-0.6222222222222222,-0.01716739556419888,-0.06659343477276501,0.8568297346645298
1589997330.6946592,-1.016637105584474,-3.8527080521817365,8.603929053402737,0.5311111111111111,0.30666666666666664,-0.6222222222222222,-0.02333603967220344,-0.07213769605802539,0.9111100845280075
1589997330.7046592,-1.0199511976495195,-3.8400488023504806,8.63995119764952,0.5311111111111111,0.30666666666666664,-0.6222222222222222,-0.023438222169479155,-0.07417649320975901,0.9512550156877638
1589997330.7146592,-1.003529421239993,-3.8741176849599714,8.658823633639921,0.5311111111111111,0.30666666666666664,-0.6222222222222222,-0.02438329491930924,-0.0737914930764609,0.9800152300036026
1589997330.7246592,-1.0086223776223777,-3.900688811188811,8.727244755244756,0.5352439782439782,0.3062074592074592,-0.6212272727272727,-0.03633687015679628,-0.07338621300649584,0.9960398759537009
1589997330.7346592,-0.99,-3.9060454065469905,8.705818373812038,0.5911111111111111,0.3,-0.6077777777777778,-0.026611318006995115,-0.07572346864892769,1.011428207702551
1589997330.7446592,-1.0395506195397706,-3.8752246902301146,8.701095471935135,0.5911111111111111,0.3,-0.6077777777777778,-0.032225475828605334,-0.07758994085107522,1.0006503199017116
1589997330.7546592,-1.1152354482454638,-3.8190582070181454,8.67570634473639,0.5911111111111111,0.3,-0.6077777777777778,-0.03812771054860865,-0.0771407845246445,0.9763509807572868
1589997330.7646592,-1.1465191154791154,-3.7955801474201474,8.663480884520885,0.5911111111111111,0.3,-0.6077777777777778,-0.03419545985595976,-0.07331465648636942,0.9563513196706409
1589997330.7746592,-1.1919721762172903,-3.7929930440543225,8.665916528651872,0.6602836848110117,0.292018549188473,-0.6227429980493909,-0.03086975236868308,-0.07668464523353423,0.939977231812829
1589997330.7846591,-1.2405659047427249,-3.786289396838183,8.712295841305005,0.8222222222222222,0.2733333333333333,-0.6577777777777778,-0.03126019399300966,-0.07557949206031052,0.929326096055648
1589997330.7946591,-1.2979643316195373,-3.7689821658097684,8.631017834190231,0.8222222222222222,0.2733333333333333,-0.6577777777777778,-0.03397256994547476,-0.07150493049682694,0.929923515036386
1589997330.8046591,-1.3320493164332763,-3.7599178059445397,8.611967122377814,0.8222222222222222,0.2733333333333333,-0.6577777777777778,-0.03555032433268436,-0.07397087942607651,0.9425046940186882
1589997330.814659,-1.358418915839841,-3.721581084160159,8.616837831679682,0.8222222222222222,0.2733333333333333,-0.6577777777777778,-0.03576671834140269,-0.07624391320140846,0.9651523306940897
1589997330.824659,-1.3620459456385763,-3.71,8.658559460176656,1.0193060136219467,0.24328468352350985,-0.781212917682837,-0.040873134578659244,-0.07221800969295342,0.9894905393256769
1589997330.834659,-1.3468885415309801,-3.715510833224784,8.70311145846902,1.5655555555555556,0.16,-1.1233333333333333,-0.03911962350690246,-0.07086516272056294,1.010482482297215
1589997330.844659,-1.39,-3.7388245116891006,8.630198697837601,1.5655555555555556,0.16,-1.1233333333333333,-0.03817907738737596,-0.07663628111331779,1.0272844707730957
1589997330.854659,-1.3937397476340694,-3.72,8.596828864353313,1.5655555555555556,0.16,-1.1233333333333333,-0.036547304652171486,-0.07547129558415602,1.0266137119751524
1589997330.864659,-1.41,-3.70820476418747,8.677863490541686,1.5655555555555556,0.16,-1.1233333333333333,-0.029023544250367236,-0.07635815477475191,1.0087384956514147
1589997330.874659,-1.3949444796425357,-3.69,8.699033312214478,1.35310543495578,0.08907177076038993,-1.0182792579501372,-0.027704679342810883,-0.07537277327160646,0.9866261611105557
1589997330.884659,-1.3674353341364893,-3.6825646658635107,8.71256466586351,0.86,-0.07555555555555556,-0.7744444444444445,-0.02617993877991494,-0.07268012785955108,0.952156590501321
1589997330.894659,-1.3866986980781153,-3.6677671006406283,8.668739408968795,0.86,-0.07555555555555556,-0.7744444444444445,-0.02544922417328914,-0.07150768857368221,0.9163724729178138
1589997330.904659,-1.427989869566024,-3.6528040521735905,8.588783791305639,0.86,-0.07555555555555556,-0.7744444444444445,-0.02251496836251127,-0.06745830166028735,0.8671754583129749
1589997330.914659,-1.4658496303675352,-3.64,8.651699260735072,0.86,-0.07555555555555556,-0.7744444444444445,-0.022667409899413588,-0.06326818538479445,0.830793664340313
1589997330.924659,-1.5313484132151856,-3.5922902924440168,8.687277411318403,0.7864917098396701,-0.0006336444306039163,-0.7557139666632066,-0.025139074427395533,-0.060839501895582494,0.7770740588029592
1589997330.934659,-1.641192878338279,-3.5027157270029674,8.698147181008903,0.6288888888888889,0.16,-0.7155555555555555,-0.024756873957313335,-0.05563236990731925,0.7262109151560966
1589997330.944659,-1.626560318552748,-3.52,8.676152541539672,0.6288888888888889,0.16,-0.7155555555555555,-0.02111067514082605,-0.05421080965618417,0.6950564932034036
1589997330.954659,-1.5655979259190365,-3.5288041481619272,8.562391703676145,0.6288888888888889,0.16,-0.7155555555555555,-0.020292846261474748,-0.05235987755982988,0.6700253386736779
1589997330.964659,-1.56,-3.54,8.588004463916674,0.6288888888888889,0.16,-0.7155555555555555,-0.024215956433649523,-0.051151460322809546,0.6430522757823914
1589997330.974659,-1.5525493265499137,-3.52882398982487,8.662549326549914,0.6168850261081942,0.1682785260556516,-0.7238340816112071,-0.016490744547402885,-0.04827464281737218,0.6162556776033897
1589997330.984659,-1.555625272431118,-3.525625272431118,8.722917938011884,0.5966666666666667,0.18222222222222226,-0.7377777777777778,-0.01854412330243975,-0.044064968955221495,0.5767536840863247
1589997330.994659,-1.5601075824485577,-3.5152689561213943,8.725699285915624,0.5966666666666667,0.18222222222222226,-0.7377777777777778,-0.016385932586755463,-0.041991117413786395,0.5309766935885566
1589997331.004659,-1.5228519535749092,-3.5035740232125456,8.691672720829272,0.5966666666666667,0.18222222222222226,-0.7377777777777778,-0.012206538524111799,-0.039581008044848584,0.4728692005519741
1589997331.014659,-1.47754231403524,-3.502559239649336,8.700101553684576,0.5966666666666667,0.18222222222222226,-0.7377777777777778,-0.006827847030080565,-0.03436670854289892,0.41186801121014693
1589997331.024659,-1.447204235743425,-3.4600859300407953,8.62729016578422,0.5966666666666667,0.18222222222222226,-0.7377777777777778,0.0004527691000692693,-0.030395463380999025,0.3549468305562483
1589997331.034659,-1.4462893408396866,-3.5450524544529154,8.718144670419845,0.5755555555555556,0.14666666666666667,-0.7511111111111111,-0.007714720951116106,-0.018071891491640495,0.21988823107091496
1589997331.044659,-1.394009805347238,-3.475346407129651,8.692004902673618,0.5755555555555556,0.14666666666666667,-0.7511111111111111,0.0065423107013286436,-0.01141861005383295,0.10583197785135696
1589997331.054659,-1.294557472378368,-3.5051475092072106,8.61970498158558,0.5755555555555556,0.14666666666666667,-0.7511111111111111,0.017269083995479072,0.009352515443183416,-0.08630769867256938
1589997331.0646589,-1.2369860517905678,-3.523253487052358,8.60626743526179,0.5755555555555556,0.14666666666666667,-0.7511111111111111,0.026534839162631524,0.018872894050809625,-0.23026033269202573
1589997331.0746589,-5.29020183154597,-5.206309193878781,4.339366188697433,0.5642220615602951,0.13560301776653144,-0.7179201644107054,-0.2722912240812365,0.7635763558188642,-0.8046336675790218
1589997331.0846589,-16.326624610150272,-9.0530195633683,-7.905162319251489,0.5288888888888889,0.10111111111111112,-0.6144444444444445,-1.0978788112140405,2.196750102150517,-2.8352381479427486
1589997331.0946589,-3.737218036927365,-1.5200141525866573,-0.00819195262149447,0.5288888888888889,0.10111111111111112,-0.6144444444444445,-0.4037090908259585,-1.5909723973603591,-7.282658987891075
1589997331.1046588,-0.696709886547812,-1.3346709886547812,-0.5464581307401404,0.5288888888888889,0.10111111111111112,-0.6144444444444445,-0.2758162392283886,0.021912321170770514,-7.2955347338514915
1589997331.1146588,0.07227628865979382,-1.3602432989690723,-0.22460756013745706,0.5288888888888889,0.10111111111111112,-0.6144444444444445,-0.12528030348918026,0.14528681478085548,-7.008511606812925
1589997331.1246588,0.056250631814571454,-1.4941670878763809,-0.03700050545165716,0.5245093107404466,0.16401777906146456,-0.6196203095289672,-0.033097683723154525,0.3889621454412781,-6.7167007893280255
1589997331.1346588,-0.04,-1.43,0.04,0.5166666666666667,0.2766666666666667,-0.6288888888888889,-0.02399827721492203,0.5170537909033202,-6.541712202631247
1589997331.1446588,-0.08899758939333066,-1.204611088790679,-0.038396143029329054,0.5166666666666667,0.2766666666666667,-0.6288888888888889,0.010208493203232805,0.6506739878492374,-6.235989192018988
1589997331.1546588,-0.21745259686727136,-5.640413378871746,10.027004828642092,0.5166666666666667,0.2766666666666667,-0.6288888888888889,0.3685752902128683,0.8915897628356695,-5.886352682110336
1589997331.1646588,-7.159920173657308,-1.96492332469715,7.841090960016806,0.5166666666666667,0.2766666666666667,-0.6288888888888889,2.547469196901361,2.0154510653055357,-5.231172548887646
1589997331.1746588,2.5467960927105935,4.5992251943141245,0.6895466003781241,0.5166666666666667,0.2766666666666667,-0.6288888888888889,2.1165651820474665,-0.7822212839224463,-4.463875065188704
1589997331.1846588,0.29109979056998925,-0.6893946340635082,2.441649685854984,0.4244444444444445,0.43,-0.6,-0.1961322946780702,-0.6742887096765426,-3.3207187747331157
1589997331.1946588,1.5118346379647751,-1.0476924331376387,6.594877690802349,0.4244444444444445,0.43,-0.6,0.10609325552273463,0.6374947088414934,-2.846251108686463
1589997331.2046587,2.1402181578947372,-1.070615,13.954606842105264,0.4244444444444445,0.43,-0.6,-0.08273334304661312,1.7297367158468129,-2.5096960543748805
1589997331.2146587,0.5597297297297297,-0.4235135135135134,15.35054054054054,0.4244444444444445,0.43,-0.6,-0.29785576744761333,1.3269514240373783,-2.2429249802909563
1589997331.2246587,1.6370248061715744,-3.007878811314553,14.724419674793605,0.4079811123356299,0.43658533284352585,-0.6032926664217629,-0.3379562320845657,-0.20631083520212665,-2.020426394509883
1589997331.2346587,1.2902295888020936,-2.3688889329473812,10.55538126016099,0.3411111111111111,0.4633333333333333,-0.6166666666666667,0.3857293828020192,-0.07874017036585702,-1.8040297808252708
1589997331.2446587,0.8468544411353962,-1.5409947335655276,6.488885804182861,0.3411111111111111,0.4633333333333333,-0.6166666666666667,0.2591131025144392,0.2921112430072899,-1.4957636214470418
1589997331.2546587,1.1079704877761514,-2.423143539784295,8.196725893022396,0.3411111111111111,0.4633333333333333,-0.6166666666666667,-0.14196314773104146,0.024983682862987133,-1.3710527720424968
1589997331.2646587,0.7450642730496454,-2.892575354609929,9.765924202127659,0.3411111111111111,0.4633333333333333,-0.6166666666666667,-0.1298504462054181,0.06391441558905264,-1.1703910768355177
1589997331.2746587,0.672694207154298,-2.857157634810464,9.524863187399895,0.33572269680251526,0.4762056564038678,-0.6166666666666667,0.2635176792406379,0.099042251711669,-1.045915693987695
1589997331.2846587,0.5663148941532259,-2.6294764364919354,8.254754284274194,0.3211111111111111,0.5111111111111111,-0.6166666666666667,0.07446212153209109,0.02049719973748161,-0.8501008132537816
1589997331.2946587,0.4627988667068916,-3.087371914268475,10.323220965922506,0.3211111111111111,0.5111111111111111,-0.6166666666666667,-0.13283917437607456,0.15597741254650044,-0.642288713755672
1589997331.3046587,0.5288041832622924,-3.0245650199147507,8.676086693219668,0.3211111111111111,0.5111111111111111,-0.6166666666666667,0.006723372483484265,0.05181429701822911,-0.4758507089296831
1589997331.3146586,0.5,-2.99,8.63,0.3211111111111111,0.5111111111111111,-0.6166666666666667,0.10035643198967394,0.022907446432425576,-0.38724492778624187
1589997331.3246586,0.4304704736538729,-2.892658663115422,8.122434457673272,0.3211111111111111,0.5111111111111111,-0.6166666666666667,-0.002034247311843651,0.003187760048429595,-0.24769022414565495
1589997331.3346586,0.3313364785669529,-3.212935756146106,9.58716081235487,0.28296471031497383,0.5394484374168131,-0.6166666666666667,-0.04690572364734761,0.02022594305223986,0.05528884927757288
1589997331.3446586,0.32221058768133815,-2.8326352608802887,7.621698692795802,0.2822222222222222,0.54,-0.6166666666666667,0.046055394649292224,-0.03166835924380595,0.33110870994243463
1589997331.3546586,0.31808830825202583,-3.2863866380023152,9.34428642301968,0.2822222222222222,0.54,-0.6166666666666667,-0.03307326054137303,-0.01745094742317259,0.540114570586138
1589997331.3646586,0.2683695518723143,-3.236739103744629,8.816826028238182,0.2822222222222222,0.54,-0.6166666666666667,-0.02835685934924176,-0.06036088363002593,0.7402780272873275
1589997331.3746586,0.3019695505880001,-3.2236346070560016,8.681458839990672,0.278950557646963,0.5462459050982221,-0.6276713566016294,-0.02903934942354859,-0.06655728531024299,0.9644937026623773
1589997331.3846586,0.28,-3.2231431139518625,8.651260561270348,0.27,0.5633333333333334,-0.6577777777777778,-0.03798640353119667,-0.08375880922884782,1.1796103111674734
1589997331.3946586,0.18208086017320232,-5.733901430378515,8.777610035354027,0.27,0.5633333333333334,-0.6577777777777778,-0.02848375315463083,-0.09477135078613307,1.3190148492509828
1589997331.4046586,-0.1648253381336966,-13.222994064415687,4.730371055106874,0.27,0.5633333333333334,-0.6577777777777778,-0.036645666012026595,-0.10590123195530912,1.4317976450986332
1589997331.4146585,1.5725225697696197,-12.251982768308672,8.977928076418806,0.27,0.5633333333333334,-0.6577777777777778,-0.5650650967814683,-0.38562341262943256,3.443153160528525
1589997331.4246585,0.9126214646937629,-1.2693429481176253,6.903953174751826,0.27,0.5633333333333334,-0.6577777777777778,-0.4185261503073618,-0.524449782973323,5.5975327595688995
1589997331.4346585,-0.8380645161290322,-2.2361290322580647,4.042580645161291,0.2977777777777777,0.5488888888888889,-0.68,0.4940759682913786,-0.2350916276728652,5.7802771283589625
1589997331.4446585,0.3897694619094514,-4.356966643941115,7.71126808575108,0.2977777777777777,0.5488888888888889,-0.68,-0.05259111065881378,-0.39716638397685344,5.668061661500666
1589997331.4546585,4.690605220967517,-11.196562630698454,11.259432245922207,0.2977777777777777,0.5488888888888889,-0.68,-0.7235789443720051,-0.5530642661281077,4.732551519119309
1589997331.4646585,8.19170256517496,-20.296492053534088,12.443519447929738,0.2977777777777777,0.5488888888888889,-0.68,-0.8192558902319985,-0.48369848037961244,2.396439424371137
1589997331.4746585,-2.617064060967328,-1.3699821424080083,14.626530093815237,0.31181099457565153,0.5378627899762737,-0.6786635031621073,0.06431731333800958,0.24418693862613988,-1.3613859262278583
1589997331.4846585,-2.2070450656018252,0.7785225328009128,7.20621220764404,0.3911111111111111,0.4755555555555556,-0.6711111111111111,1.047995295100283,0.29156481828970016,-1.125443658392396
1589997331.4946585,-0.8314569684892267,-1.037446257317225,5.140159172997883,0.3911111111111111,0.4755555555555556,-0.6711111111111111,0.38917587081517563,-0.019725383399773623,-0.9207516097418463
1589997331.5046585,-2.20765969193397,-3.0185410110601962,13.427310219179596,0.3911111111111111,0.4755555555555556,-0.6711111111111111,-0.4770967109320594,0.09046849328897577,-0.797974224396896
1589997331.5146585,-0.9329082442871369,-3.2460697655640187,11.323641428686782,0.3911111111111111,0.4755555555555556,-0.6711111111111111,-0.6157028508997839,0.1438086264256215,-0.6963891842819624
1589997331.5246584,-0.6255269789143405,-2.6587563200078033,8.546391214579506,0.39359565317133877,0.47327805866701356,-0.6718357692120108,0.17053566552171245,0.01781935597220861,-0.44627809490865733
1589997331.5346584,-0.37323210482677893,-2.2837233990668335,6.909883923200728,0.41177906751999194,0.4566099288474148,-0.6771392650637014,0.22111498718282865,0.06839867763332487,-0.33544987538650545
1589997331.5446584,0.45270052449788917,-12.952733785339644,8.392167071766663,0.4177777777777778,0.4511111111111111,-0.6788888888888889,-0.1472539224252821,-0.01308996938995747,-0.22425482589955797
1589997331.5546584,-4.158978364414305,-16.999858722854608,8.209429845806087,0.4177777777777778,0.4511111111111111,-0.6788888888888889,-0.19558683112084008,-0.02251116496627283,-0.3370376071192797
1589997331.5646584,0.6526765862835643,1.6603495809817002,12.70807456815461,0.4177777777777778,0.4511111111111111,-0.6788888888888889,0.04314413911935666,-0.04501036085417256,-0.2002469428580538
1589997331.5746584,0.5809423636052677,0.0965435265948349,10.240417308021208,0.4177777777777778,0.4511111111111111,-0.6788888888888889,0.5298585062713113,0.0269795455412934,-0.04609464329384949
1589997331.5846584,-0.04440495543472167,-3.0066737672141564,7.504020778444233,0.3977777777777778,0.4833333333333333,-0.6877777777777778,0.06587083502799954,0.032847302308126276,0.06652873336248463
1589997331.5946584,0.049642917203879144,-9.198158715922045,10.90541883887363,0.3977777777777778,0.4833333333333333,-0.6877777777777778,-0.47101847753504167,-0.012463419930474333,0.08619187697546225
1589997331.6046584,-0.1997208984511879,-7.440476382367369,7.939822342140303,0.3977777777777778,0.4833333333333333,-0.6877777777777778,-0.18098871465890273,-0.05598634140011161,-0.05415773395672949
1589997331.6146584,-0.5745006657789614,-3.6412383488681757,5.8087217043941415,0.3977777777777778,0.4833333333333333,-0.6877777777777778,0.3023823599202559,0.07467615471332596,-0.05255451314552166
1589997331.6246583,-0.20325703209728407,-4.974699217758498,8.895474998269378,0.40065086800347666,0.48388585068442924,-0.68612022572449,0.06036776910687294,0.01402348212112128,0.020834271395631654
1589997331.6346583,0.18260496236409257,-5.395209924728185,9.641311402286032,0.4266666666666667,0.4888888888888889,-0.6711111111111111,-0.17915467821482872,-0.0801455606100927,0.02004306529489167
1589997331.6446583,-0.21469550530167963,-4.5879567420474805,8.31265224734916,0.4266666666666667,0.4888888888888889,-0.6711111111111111,-0.015605958255628721,-0.009008822084279342,0.00023002434793705176
1589997331.6546583,-0.12221357359918963,-4.670233512821881,8.437475075971637,0.4266666666666667,0.4888888888888889,-0.6711111111111111,0.009808986276660965,0.0016987347207294066,0.001090830782496456
1589997331.6646583,-0.13,-4.518070842201277,8.70784922806662,0.4266666666666667,0.4888888888888889,-0.6711111111111111,0.01604561558130669,0.0002346128231061007,0.0013254436056025568
1589997331.6746583,-0.13,-4.709358467619338,8.700764501199282,0.4266666666666667,0.4888888888888889,-0.6711111111111111,0.011408672689825101,0.0010074366383530326,0.0020982674208494885
1589997331.6846583,-0.1376288324256298,-4.5926810163386635,8.695978475492003,0.38333333333333336,0.4833333333333333,-0.6933333333333334,0.0017205667991410784,-0.0003148680083223111,0.002181661564992912
1589997331.6946583,-0.1270117170293366,-4.718046868117347,8.49747070742666,0.38333333333333336,0.4833333333333333,-0.6933333333333334,-0.0034354779000498464,0.0020186760124324336,0.0018556904598719553
1589997331.7046583,-0.11207139443555593,-4.649309535188149,8.54,0.38333333333333336,0.4833333333333333,-0.6933333333333334,-0.003836096940286693,0.0012414668366962076,0.00015063605419975162
1589997331.7146583,-0.1382165935961103,-4.640594468801297,8.54,0.38333333333333336,0.4833333333333333,-0.6933333333333334,0.0028185669401077215,0.003142799373951755,0.0020519685914552987
1589997331.7246583,-0.13366272093400358,-4.620988162802011,8.654071023187935,0.38333333333333336,0.4833333333333333,-0.6933333333333334,0.004655072163981228,0.0005073327145056492,0.0014903716567469822
1589997331.7346582,-0.13,-4.646101992091323,8.633355218980824,0.38333333333333336,0.4833333333333333,-0.6772880035149677,-0.0008468323727430895,-0.0026660773538027985,-0.0012720390744630574
1589997331.7446582,-0.14531208381425909,-4.644687916185741,8.645936251442777,0.38333333333333336,0.4833333333333333,-0.6711111111111111,-0.004942781584365323,6.808612626254141e-05,0.0011589169087589976
1589997331.7546582,-0.12216661257537195,-4.627583144013802,8.48624959431529,0.38333333333333336,0.4833333333333333,-0.6711111111111111,-0.004154279682454475,-0.0029179811938454215,0.0019453207958969475
1589997331.7646582,-0.1364955673607434,-4.677734485762602,8.593716755205575,0.38333333333333336,0.4833333333333333,-0.6711111111111111,0.004442476046031208,-0.000573411449712962,0.0003822742998086414
1589997331.7746582,-0.14,-4.609170918367346,8.62,0.38333333333333336,0.4833333333333333,-0.6711111111111111,0.011443365270857448,0.001959352230351486,0.0029390283455272286
1589997331.7846582,-0.12552629615814995,-4.581052592316301,8.676184259604625,0.3977777777777778,0.4755555555555556,-0.6711111111111111,0.006767463722158543,0.0018802488668678188,0.0028203733003017285
1589997331.7946582,-0.15651599942602956,-4.653484000573971,8.576063997704118,0.3977777777777778,0.4755555555555556,-0.6711111111111111,-0.005644176666098393,0.0,0.0005700682608483416
1589997331.8046582,-0.13839843581212463,-4.674804692563626,8.505195307436374,0.3977777777777778,0.4755555555555556,-0.6711111111111111,-0.0060208740400952135,-0.0006988142065113622,0.002923085244233687
1589997331.8146582,-0.13119746465138957,-4.696407606045831,8.487184787908339,0.3977777777777778,0.4755555555555556,-0.6711111111111111,-0.002815311391548874,-0.003971453739179686,0.0010255192173620996
1589997331.8246582,-0.1475574841540712,-4.647327547537786,8.585344904924426,0.3977777777777778,0.4755555555555556,-0.6711111111111111,0.003430793114969741,0.0013823501235505553,0.00013321857357372622
1589997331.8346581,-0.15662345273818454,-4.638874484246061,8.652251031507877,0.4044444444444445,0.4755555555555556,-0.6788888888888889,0.0031497176244312877,0.0029041681783151265,0.001090830782496456
1589997331.8446581,-0.13197016795585437,-4.6368955878454905,8.650298320441456,0.4044444444444445,0.4755555555555556,-0.6788888888888889,0.0015369256091126962,-0.00010745599264670262,0.001090830782496456
1589997331.8546581,-0.1490038027828457,-4.697011408348537,8.479961972171543,0.4044444444444445,0.4755555555555556,-0.6788888888888889,-0.003819981835031222,-0.0009821625235055355,0.0009821625235055355
1589997331.864658,-0.13986313207336792,-4.669726264146735,8.570273735853265,0.4044444444444445,0.4755555555555556,-0.6788888888888889,0.001090830782496456,2.9859949501352506e-05,2.9859949501352506e-05
1589997331.874658,-0.13401725483637175,-4.658034509672744,8.581965490327256,0.4044444444444445,0.4755555555555556,-0.6788888888888889,0.001090830782496456,0.0013052325176634992,0.0013052325176634992
1589997331.884658,-0.13,-4.61404775885692,8.65676844783715,0.4044444444444445,0.4755555555555556,-0.6714701724625388,0.005012611916357271,0.0010611526696041077,0.0005008982219097053
1589997331.894658,-0.14735536218250234,-4.614710724365005,8.667933913452494,0.4044444444444445,0.4755555555555556,-0.6644444444444444,0.0030471172669571155,-0.001893176331004844,0.003642110045015655
1589997331.904658,-0.14083315715005937,-4.660833157150059,8.52916684284994,0.4044444444444445,0.4755555555555556,-0.6644444444444444,-0.0055450372590764565,-0.0009090640893081022,0.002090778218398735
1589997331.914658,-0.14765437720567906,-4.667654377205679,8.52234562279432,0.4044444444444445,0.4755555555555556,-0.6644444444444444,-0.0062891169401616724,0.0005790952728623301,0.0013466985373135189
1589997331.924658,-0.13378362452491088,-4.6781081877375446,8.584865501900357,0.4044444444444445,0.4755555555555556,-0.6644444444444444,-0.001238188230354393,0.001090830782496456,0.0002063647050590656
1589997331.934658,-0.13,-4.646172745452814,8.654123607275498,0.4134650456570274,0.4845761567681385,-0.6742167624247426,0.0014759924218965474,0.00035283457154818227,0.0
1589997331.944658,-0.13,-4.620027568021095,8.650082704063287,0.4177777777777778,0.4888888888888889,-0.6788888888888889,0.002181661564992912,-0.0010878235778941044,0.0
