time,acc_x,acc_y,acc_z,mag_x,mag_y,mag_z,gyr_x,gyr_y,gyr_z
1589997441.4556675,-3.97,-0.89,8.97,0.30666666666666664,-0.32666666666666666,-0.6088888888888889,-0.001090830782496456,0.001090830782496456,0.001090830782496456
1589997441.4656675,-3.97,-0.9,8.973334722984092,0.3144444444444445,-0.32666666666666666,-0.6166666666666667,0.00347443067578169,-0.0017372153378908454,0.0015352770095985228
1589997441.4756675,-3.97,-0.9,8.88897500828324,0.3144444444444445,-0.32666666666666666,-0.6166666666666667,0.006035324513503726,-0.0025080020752768543,0.00025483009073750453
1589997441.4856675,-3.97,-0.8954281341909567,8.815428134190958,0.3144444444444445,-0.32666666666666666,-0.6166666666666667,0.003864609934191074,-0.0004987131957947499,0.0013401873803938309
1589997441.4956675,-3.971893271280236,-0.8762134574395276,8.81514617024189,0.3144444444444445,-0.32666666666666666,-0.6166666666666667,0.0017686138465732837,-0.00259470928341254,0.0017686138465732837
1589997441.5056674,-3.9798916677811955,-0.86,8.88,0.3146009243160508,-0.32666666666666666,-0.6166666666666667,-2.3634423801581632e-05,-0.0043396887061842426,4.7268847603163264e-05
1589997441.5156674,-3.9705423298114217,-0.86,8.88,0.32810552360572426,-0.32666666666666666,-0.6166666666666667,-0.0020633435544800557,-0.002299979575505768,0.004126687108960111
1589997441.5256674,-3.9692573716781943,-0.86,8.851485256643612,0.3288888888888889,-0.32666666666666666,-0.6166666666666667,-0.0068815922280315795,-0.0023436779316687597,0.0
1589997441.5356674,-3.980762205589508,-0.8784755888209846,8.828475588820984,0.3288888888888889,-0.32666666666666666,-0.6166666666666667,-0.007635815477475192,0.0015098701979703285,0.0003358956835112917
1589997441.5456674,-3.9645214738143055,-0.9154785261856945,8.88582515835007,0.3288888888888889,-0.32666666666666666,-0.6166666666666667,-0.007389207336530383,0.0,0.0008442226415516466
1589997441.5556674,-3.9791359711064294,-0.9,8.941728057787142,0.3288888888888889,-0.3263786570354764,-0.6160426457990879,-0.006215106435053083,-4.7125465703664644e-05,-4.7125465703664644e-05
1589997441.5656674,-3.96,-0.9001450060026835,8.978984957981215,0.3288888888888889,-0.32,-0.6022222222222222,0.0011382838859086508,-0.0011066484836338543,-0.001090830782496456
1589997441.5756674,-3.96,-0.9099242277054596,8.909797940547891,0.3288888888888889,-0.32,-0.6022222222222222,0.0043578128132294785,-0.002176151248236567,-0.0010880756241182835
1589997441.5856674,-3.96,-0.8746133758885826,8.843466560278543,0.3288888888888889,-0.32,-0.6022222222222222,0.0018878667952693272,0.0002937947697235849,0.0008813843091707547
1589997441.5956674,-3.961639307586901,-0.8616393075869012,8.875082077239297,0.3288888888888889,-0.32,-0.6022222222222222,0.00037554791138773096,0.0007331893469420935,0.0025572094763806432
1589997441.6056674,-3.9675039850107665,-0.8675039850107665,8.8574880449677,0.3288888888888889,-0.32,-0.6022222222222222,-0.0021834003539579917,-0.000546284785730768,-1.738788965079726e-06
1589997441.6156673,-3.97,-0.8895536076617158,8.879330411492575,0.3332341350359368,-0.32,-0.6228621414207,-0.005405460062115178,-2.434692518355039e-05,-2.434692518355039e-05
1589997441.6256673,-3.97,-0.9081216441182678,8.865635067645197,0.3333333333333333,-0.32,-0.6233333333333333,-0.003772700502739976,-0.002181661564992912,-0.0005906226272458478
1589997441.6356673,-3.971844980767267,-0.9244650576981993,8.811069884603603,0.3333333333333333,-0.32,-0.6233333333333333,-0.0007728682951588395,-0.002181661564992912,-0.0015778930207783095
1589997441.6456673,-3.9789837287674032,-0.9030488136977908,8.853902372604418,0.3333333333333333,-0.32,-0.6233333333333333,0.004678147951764638,-0.002181661564992912,0.0007582567993317524
1589997441.6556673,-3.960825670957597,-0.9095871645212015,8.907935822606007,0.3333333333333333,-0.32,-0.6233333333333333,0.004408356494823835,-0.001135864147334467,0.001090830782496456
1589997441.6656673,-3.96,-0.8837582017800298,8.918747266073323,0.31681071963927815,-0.30833697856890213,-0.610698393449644,0.0024549657108922165,0.0008175266365971514,0.00204500949204326
1589997441.6756673,-3.9683395281350005,-0.89,8.940074337620004,0.3144444444444445,-0.30666666666666664,-0.6088888888888889,0.005091895147720085,0.0009097014001153586,0.001090830782496456
1589997441.6856673,-3.960002782691658,-0.89,8.840033392299894,0.3144444444444445,-0.30666666666666664,-0.6088888888888889,0.003273099436633092,3.035445718621056e-07,0.001090830782496456
1589997441.6956673,-3.97,-0.89,8.86,0.3144444444444445,-0.30666666666666664,-0.6088888888888889,0.0027069068333048464,0.0027069068333048464,0.00018852850472817398
1589997441.7056673,-3.97,-0.89,8.86,0.3144444444444445,-0.30666666666666664,-0.6088888888888889,0.0002440379357299496,0.0002440379357299496,0.001009484803919806
1589997441.7156672,-3.953669685312179,-0.89,8.89183484265609,0.3288888888888889,-0.32666666666666666,-0.5955555555555555,-0.00020015028502999414,-0.0006905302124364677,0.0008906804974664618
1589997441.7256672,-3.9682630755476085,-0.8882630755476084,8.877419982118909,0.3288888888888889,-0.32666666666666666,-0.5955555555555555,-0.001090830782496456,0.00052242358463459,0.0
1589997441.7356672,-3.96,-0.8780840860504978,8.774789784873755,0.3288888888888889,-0.32666666666666666,-0.5955555555555555,-0.001090830782496456,-0.002181661564992912,0.0
1589997441.7456672,-3.96,-0.8619282398936887,8.815179400265778,0.3288888888888889,-0.32666666666666666,-0.5955555555555555,-0.001090830782496456,-0.002181661564992912,0.0
1589997441.7556672,-3.96,-0.8794657977022802,8.884885992340934,0.3288888888888889,-0.32666666666666666,-0.5955555555555555,0.0010325583514531418,-0.002889457942976111,-0.0007077963779831991
1589997441.7656672,-3.969165066377223,-0.9083301327544461,8.92,0.3288888888888889,-0.32666666666666666,-0.6077756440585196,0.004181168870572538,-0.0022727386946995542,0.0019084301758729848
1589997441.7756672,-3.9512983940915185,-0.8912983940915185,8.937016059084815,0.3288888888888889,-0.32666666666666666,-0.6088888888888889,0.003938424657133891,-0.001090830782496456,0.001090830782496456
1589997441.7856672,-3.9644176318640114,-0.8941098241813182,8.85294508790934,0.3288888888888889,-0.32666666666666666,-0.6088888888888889,0.0007695715276297387,-0.0012514604099298145,0.001090830782496456
1589997441.7956672,-3.9853873843846346,-0.8661501541538205,8.866924922923088,0.3288888888888889,-0.32666666666666666,-0.6088888888888889,-0.0007553919090921629,-0.0020139421282907655,0.001090830782496456
1589997441.8056672,-3.972940348315779,-0.8685298258421107,8.878529825842111,0.3288888888888889,-0.32666666666666666,-0.6088888888888889,-0.002021290442287272,-0.00032074224541127935,0.0029517501020780886
1589997441.8156672,-3.97,-0.8533456430488336,8.913308713902333,0.3224121945189909,-0.3322181189837221,-0.6088888888888889,-0.003090015826243717,-0.0027250627837524144,-0.0003609246975138508
1589997441.8256671,-3.967338530838531,-0.8713307345807346,8.850684857934857,0.3211111111111111,-0.3333333333333333,-0.6088888888888889,-0.004363323129985824,-0.003272492347489368,0.0008005095336968968
1589997441.8356671,-3.952805266805267,-0.8785973665973666,8.799818433818434,0.3211111111111111,-0.3333333333333333,-0.6088888888888889,-0.004363323129985824,-0.003272492347489368,-0.0007848236440664038
1589997441.8456671,-3.97,-0.8809407814977152,8.840940781497714,0.3211111111111111,-0.3333333333333333,-0.6088888888888889,-0.002079038223261827,-0.0019764148815307418,-0.0012960774659586261
1589997441.855667,-3.97,-0.8887637787932482,8.848763778793248,0.3211111111111111,-0.3333333333333333,-0.6088888888888889,-0.0012256815971264383,-0.0002697016292599649,-0.003002790718229403
1589997441.865667,-3.96,-0.8953803210048848,8.916920214003257,0.3022222222222222,-0.32,-0.6233333333333333,0.0009228545140589928,-0.002013685296555449,-0.0007548782456215297
1589997441.875667,-3.96230866422254,-0.8711543321112699,8.89191967522111,0.3022222222222222,-0.32,-0.6233333333333333,0.0,-0.0007130764824372532,0.0007130764824372532
1589997441.885667,-3.9796839205451646,-0.8798419602725823,8.831106278091925,0.3022222222222222,-0.32,-0.6233333333333333,0.0,0.0021299431851355332,-0.0021299431851355332
1589997441.895667,-3.961971017030778,-0.88,8.902115931876889,0.3022222222222222,-0.32,-0.6233333333333333,0.0,0.00021500460499973909,0.0007683238749968471
1589997441.905667,-3.965631580530654,-0.885631580530654,8.91,0.3022222222222222,-0.32,-0.6233333333333333,-0.0018429304190835303,-0.0018429304190835303,0.001090830782496456
1589997441.915667,-3.9601421366345715,-0.89,8.91,0.3175566763462224,-0.32,-0.6162137653471904,-0.004347818428354742,-0.0016595032261913073,1.5504701631081962e-05
1589997441.925667,-3.9506584354010275,-0.8906584354010273,8.9027572105887,0.3333333333333333,-0.32,-0.6088888888888889,-0.009961125363213292,0.002325309885738099,-0.0009471824617512688
1589997441.935667,-3.9589442907941526,-0.8989442907941525,8.811612801264323,0.3333333333333333,-0.32,-0.6088888888888889,-0.01176881858764035,0.004133003110165158,0.0008605107626757898
1589997441.945667,-3.9732420355663294,-0.8867579644336704,8.82648407113266,0.3333333333333333,-0.32,-0.6088888888888889,-0.011999138607461015,0.002918841128119305,-0.0003536512193700631
1589997441.955667,-3.9646991121341664,-0.88,8.878252219664585,0.3333333333333333,-0.32,-0.6088888888888889,-0.008661002710745455,0.004685263487529582,-0.0002562968083175659
1589997441.965667,-3.9666885787875295,-0.8733114212124707,8.923442893937647,0.33036063164998697,-0.32891810505003904,-0.6088888888888889,-0.009095037003993152,0.00545415391248228,0.0
1589997441.975667,-3.961221184243242,-0.87,8.913663552729727,0.3288888888888889,-0.3333333333333333,-0.6088888888888889,-0.014605578273136223,0.006411774158615903,0.0
1589997441.985667,-3.937074898785425,-0.8470748987854251,8.856508097165992,0.3288888888888889,-0.3333333333333333,-0.6088888888888889,-0.016938791361397396,0.006544984694978735,0.008335802032235063
1589997441.995667,-3.900687593160894,-0.8111459886014907,8.890687593160894,0.3288888888888889,-0.3333333333333333,-0.6088888888888889,-0.014180800172453925,-0.0010658291896385363,0.030252482098857742
1589997442.005667,-3.922753178430513,-0.8479219640508548,8.912753178430513,0.3288888888888889,-0.3333333333333333,-0.6088888888888889,-0.014180800172453925,-0.0002635018681085257,0.055926956387818076
1589997442.015667,-3.933152274942758,-1.0184917594250866,8.928491759425086,0.3288888888888889,-0.3333333333333333,-0.6088888888888889,-0.00865179090011545,-0.008547309930378931,0.1072749021487783
1589997442.025667,-4.075566937973618,-0.8906820095425204,8.800682009542522,0.3288888888888889,-0.3333333333333333,-0.6088888888888889,0.003991344628517063,-0.0063961932943912315,0.0980008743021837
1589997442.035667,-3.9496624538817806,-0.9091561347044509,8.821518957531989,0.3288888888888889,-0.3333333333333333,-0.6088888888888889,-0.00636088184684565,-0.002144840995366295,0.06188279004528505
1589997442.045667,-3.929172738800462,-0.8608272611995382,8.917445350795845,0.3288888888888889,-0.3333333333333333,-0.6088888888888889,0.004814524120796431,-0.0002707205944863643,0.045085022875003176
1589997442.055667,-3.9212345515453184,-0.8687654484546814,8.988889036092132,0.3288888888888889,-0.3333333333333333,-0.6088888888888889,0.009144133628362045,-0.002868486299025732,0.04854871048105567
1589997442.065667,-3.8825312063639825,-0.8774937587272035,9.0,0.32306040987884177,-0.3191784557375046,-0.6088888888888889,0.01226980385133861,-0.003272492347489368,0.06707111514405759
1589997442.075667,-3.5630865202710793,-0.9041480878373525,8.858617304054215,0.3211111111111111,-0.3144444444444445,-0.6088888888888889,0.010003335444667923,-0.0027445917923163304,0.12793956905363216
1589997442.085667,-3.469393094998123,-0.9545378549831031,8.835751664986859,0.3211111111111111,-0.3144444444444445,-0.6088888888888889,-0.0017844431701335276,0.0031716679454076714,0.19400693102994498
1589997442.095667,-3.4611041283769097,-0.879937155392186,8.777728898638367,0.3211111111111111,-0.3144444444444445,-0.6088888888888889,0.0036406727971693546,-0.013103679956500976,0.23650367277381756
1589997442.1056669,-3.46,-0.8348683384065323,8.77,0.3211111111111111,-0.3144444444444445,-0.6088888888888889,0.0005310533393455231,-0.015271630954950384,0.27569679438231587
1589997442.1156669,-3.214317106014853,-0.803342650779401,8.879972047661798,0.3211111111111111,-0.30666666666666664,-0.5866666666666667,-0.007632766350379745,-0.017568736477929284,0.31283144840632
1589997442.1256669,-2.863451399657227,-0.8290157512445931,8.802952746266222,0.3211111111111111,-0.30666666666666664,-0.5866666666666667,0.0007687361304869744,-0.001699231791847701,0.32776745281674974
1589997442.1356668,-1.8047398809874506,-0.9641554233193896,8.747077711659696,0.3211111111111111,-0.30666666666666664,-0.5866666666666667,0.0033929959542283567,0.016171198412830715,0.3053331313212839
1589997442.1456668,-1.7306050786543334,-0.8817834207270371,8.705891710363518,0.3211111111111111,-0.30666666666666664,-0.5866666666666667,0.020465240002515407,0.013475580931522235,0.24243539009075277
1589997442.1556668,-1.8385566864574499,-0.87,8.894771699180096,0.3211111111111111,-0.30666666666666664,-0.5866666666666667,0.015517430257650318,-0.005385071046980666,0.15953762570648905
1589997442.1656668,-1.9712242218144476,-0.8593878890927762,9.148571741216479,0.3211111111111111,-0.3411111111111111,-0.5811111111111111,-0.012822885621996856,-0.008481819472674419,0.05285000859440557
1589997442.1756668,-2.0135901752495746,-0.8382049123752126,9.099144795542163,0.3211111111111111,-0.3411111111111111,-0.5811111111111111,-0.0035800683946271804,-9.237014252214473e-06,-0.005687833845602376
1589997442.1856668,-2.03,-0.8117090184354758,8.851362730443448,0.3211111111111111,-0.3411111111111111,-0.5811111111111111,0.004988091433164536,0.012251056927185533,-0.09919249869584428
1589997442.1956668,-2.070070936359951,-0.8233569787866505,8.936855830293204,0.3211111111111111,-0.3411111111111111,-0.5811111111111111,0.006911174274645327,0.013818479571038994,-0.16481991056975964
1589997442.2056668,-2.0567626521842923,-0.8366474695631415,8.956762652184292,0.3211111111111111,-0.3411111111111111,-0.5811111111111111,0.021413217885323046,0.011280294402380694,-0.25362824757087044
1589997442.2156668,-2.1806301520424984,-0.8118739695915004,8.836871221835501,0.3148608821314446,-0.33381917730150007,-0.607153731859722,0.03449774829671243,0.030271303548483355,-0.3705447660996434
1589997442.2256668,-2.2876496896068352,-0.8543862225485616,8.83,0.3144444444444445,-0.3333333333333333,-0.6088888888888889,0.013602727575014548,0.06552659320469366,-0.46445712129324795
1589997442.2356668,-2.3404972011853804,-0.8842983207112282,8.797602239051695,0.3144444444444445,-0.3333333333333333,-0.6088888888888889,0.01709289093707963,0.05744400385554303,-0.5507007303869949
1589997442.2456667,-2.4004288212943043,-0.8998570595685652,8.821286463882913,0.3144444444444445,-0.3333333333333333,-0.6088888888888889,0.04034514657010163,0.051534117275876576,-0.6503228909313052
1589997442.2556667,-2.42572565891317,-0.8914247803622766,8.89717697673951,0.3144444444444445,-0.3333333333333333,-0.6088888888888889,0.03942532759761919,0.06717103980807798,-0.725748046674865
1589997442.2656667,-2.500359748785594,-0.9499280502428812,9.079784150728644,0.3211111111111111,-0.32666666666666666,-0.6022222222222222,0.020765027372361803,0.05788466798118462,-0.8274933102131515
1589997442.2756667,-2.5429838824414137,-0.9414032235117172,9.054209670535153,0.3211111111111111,-0.32666666666666666,-0.6022222222222222,0.02541459907926297,0.06625389705360674,-0.9037462862063308
1589997442.2856667,-2.377881616111998,-0.9572118383888002,8.938123050472798,0.3211111111111111,-0.32666666666666666,-0.6022222222222222,0.03556754034884367,0.08734547180953059,-0.9876436292208812
1589997442.2956667,-2.4654977010807904,-0.96,8.753972054696364,0.3211111111111111,-0.32666666666666666,-0.6022222222222222,0.04181281339162327,0.10943722209418091,-1.0614077927922132
1589997442.3056667,-2.4897593761872887,-0.9802406238127115,8.745661715484957,0.3211111111111111,-0.32666666666666666,-0.6022222222222222,0.039217412197490954,0.08967200172512116,-1.127878887444259
1589997442.3156667,-2.507948746435581,-1.0271062474539867,8.903003740325149,0.32532763849284235,-0.32666666666666666,-0.6136670822583499,0.02485335313882317,0.06445091854962544,-1.216088558847025
1589997442.3256667,-2.585858914728682,-1.05,8.823761434108526,0.3288888888888889,-0.32666666666666666,-0.6233333333333333,0.034496276228695236,0.08733548512888026,-1.2955656833237623
1589997442.3356667,-2.651585873399659,-1.089482341749574,8.660517658250427,0.3288888888888889,-0.32666666666666666,-0.6233333333333333,0.06177849162839772,0.11482674831098817,-1.3770416652277702
1589997442.3456666,-2.6849738407266655,-1.1437042212716644,8.737408442543328,0.3288888888888889,-0.32666666666666666,-0.6233333333333333,0.05319084154997272,0.11168022180970995,-1.435077878293423
1589997442.3556666,-2.716993054764887,-1.181328703176591,8.846643515882956,0.3288888888888889,-0.32666666666666666,-0.6233333333333333,0.04581489286485115,0.10428493802191184,-1.498786342997624
1589997442.3656666,-2.7357237448303944,-1.2357899586431524,8.924342468982363,0.34669609502789267,-0.31521917700587854,-0.6233333333333333,0.05268289362221484,0.11018835464517872,-1.5583812807557822
1589997442.3756666,-2.770049200492005,-1.33009840098401,8.957512300123001,0.36,-0.30666666666666664,-0.6233333333333333,0.06109189076092082,0.12081621783788161,-1.6292335943046867
1589997442.3856666,-2.78,-1.3747150259067358,8.852901554404145,0.36,-0.30666666666666664,-0.6233333333333333,0.056785372392445035,0.12576770244617172,-1.6899060050867634
1589997442.3956666,-2.844546941445862,-1.4606836768073275,8.821931632319268,0.36,-0.30666666666666664,-0.6233333333333333,0.05475224752425497,0.12741649315265316,-1.7364794992181782
1589997442.4056666,-2.853623539658796,-1.4927529206824077,8.807247079317593,0.36,-0.30666666666666664,-0.6233333333333333,0.058019358736599316,0.13249614900857246,-1.7801074481120949
1589997442.4156666,-2.6795110265384485,-1.5077494987937068,8.738004009650346,0.3909979951748276,-0.28083500402097705,-0.6181670008041954,0.06422238895385239,0.13695369539617946,-1.8353750368181498
1589997442.4256666,-2.477315884618408,-1.530820561188399,8.713059812937201,0.4,-0.2733333333333333,-0.6166666666666667,0.06242161907603315,0.13441645072079925,-1.8842955893743698
1589997442.4356666,-2.4515815200252287,-1.65642825607064,8.843060864080732,0.4,-0.2733333333333333,-0.6166666666666667,0.03750015476601519,0.14215303586987002,-1.957562472404198
1589997442.4456666,-2.48166002603653,-1.7088800347153734,8.927760069430747,0.4,-0.2733333333333333,-0.6166666666666667,0.03351250424657107,0.1502903094629513,-2.0122665048483594
1589997442.4556665,-2.4773096377306905,-1.72,8.930964456596035,0.4,-0.2733333333333333,-0.6166666666666667,0.06496258931727783,0.1513320057690644,-2.0621685461739547
1589997442.4656665,-2.4776903892402244,-1.7584519462011223,8.835405718357531,0.43076155696089785,-0.2528256286927348,-0.6217935928268162,0.09380872677613193,0.1748624965910984,-2.11821635157875
1589997442.4756665,-2.434902730797789,-1.8150972692022111,8.922743173005527,0.44,-0.2466666666666667,-0.6233333333333333,0.07617670662495657,0.15757199595075755,-2.163122211431539
1589997442.4856665,-2.3766113458056726,-1.879235817742909,8.957375528062764,0.44,-0.2466666666666667,-0.6233333333333333,0.05297960044931244,0.141724642371592,-2.222464363613625
1589997442.4956665,-2.36,-1.9258097622027535,8.842570713391739,0.44,-0.2466666666666667,-0.6233333333333333,0.06488900428965025,0.15806670483937066,-2.264039194343996
1589997442.5056665,-2.301988801791713,-1.9596685330347143,8.784502799552072,0.44,-0.2466666666666667,-0.6233333333333333,0.08124881457753026,0.17653379957986878,-2.29991128642062
1589997442.5156665,-2.2745625973600063,-1.998802164466672,8.725114372386653,0.4739225492607472,-0.21722445410073518,-0.6278136700281489,0.0836974059434005,0.18593893518924073,-2.340933144187791
1589997442.5256665,-2.293116277563708,-2.0750697794903346,8.71130233461775,0.4988888888888889,-0.1955555555555556,-0.6311111111111111,0.0843339034015567,0.16693769401004793,-2.385479497885853
1589997442.5356665,-2.3083342473006447,-2.161114157668816,8.815559820736341,0.4988888888888889,-0.1955555555555556,-0.6311111111111111,0.06799432118867037,0.1637461531226383,-2.4240696683936718
1589997442.5456665,-2.2302785090229293,-2.2489389950784022,8.80474800656213,0.4988888888888889,-0.1955555555555556,-0.6311111111111111,0.08361637658202795,0.17688530088711482,-2.456203709133361
1589997442.5556664,-2.2774268698899767,-2.3049512465933177,8.79749187443222,0.4988888888888889,-0.1955555555555556,-0.6311111111111111,0.09026536088963572,0.18952032575346112,-2.4786198592028135
1589997442.5656664,-2.3187851597301767,-2.4327109583810613,8.828177739595265,0.5176740486190657,-0.15172351618514274,-0.63737283102117,0.08848981189842686,0.17975761868480933,-2.5136005252098332
1589997442.5756664,-2.3011055559467644,-2.4618012815998873,8.809652137173439,0.5188888888888888,-0.14888888888888888,-0.6377777777777778,0.08851583677599313,0.1793718785107594,-2.5211633466129153
1589997442.5856664,-2.205116012956834,-2.5725584465882685,8.706278783184283,0.5188888888888888,-0.14888888888888888,-0.6377777777777778,0.08932128560900224,0.18178822500978667,-2.5501595046012424
1589997442.5956664,-2.152592623957319,-2.6124444256256085,8.727407376042681,0.5188888888888888,-0.14888888888888888,-0.6377777777777778,0.08210320305434952,0.18624925240488585,-2.571047739518611
1589997442.6056664,-2.12674358069355,-2.6663974675725757,8.75325641930645,0.5188888888888888,-0.14888888888888888,-0.6377777777777778,0.0803536726344991,0.18689986907713263,-2.594617946063074
1589997442.6156664,-2.075484678968022,-2.734515321031978,8.804515321031978,0.5337273292328816,-0.1093197146382418,-0.6625085116844321,0.08314941202845742,0.19138793205433335,-2.6165597319685685
1589997442.6256664,-2.0277814080736905,-2.798510047828055,8.766688448442144,0.5455555555555556,-0.07777777777777778,-0.6822222222222222,0.08552908157445627,0.19570299060659835,-2.635161854506387
1589997442.6356664,-2.028610029498525,-2.872567551622419,8.673957522123894,0.5455555555555556,-0.07777777777777778,-0.6822222222222222,0.0887131809472398,0.19736456050136997,-2.6581040154649815
1589997442.6456664,-1.9321559226206972,-2.9257125436505738,8.721425087301148,0.5455555555555556,-0.07777777777777778,-0.6822222222222222,0.09334375835823881,0.20110216135715972,-2.683208550265348
1589997442.6556664,-1.8719198013503253,-2.9440400993248375,8.744040099324838,0.5455555555555556,-0.07777777777777778,-0.6822222222222222,0.09764029042790529,0.2033352320151284,-2.7012658211949696
1589997442.6656663,-1.86,-3.0132977686586306,8.785165427032572,0.5588402724345274,-0.023076002393776184,-0.6869109458265652,0.09466245757276592,0.20628692814404306,-2.717415480030762
1589997442.6756663,-1.8394671022983327,-3.0673771969355568,8.834221496169446,0.5644444444444444,0.0,-0.6888888888888889,0.09048082482551581,0.20352486252985505,-2.732075163533178
1589997442.6856663,-1.768180007744648,-3.1006066640851175,8.726360015489295,0.5644444444444444,0.0,-0.6888888888888889,0.0905720433401399,0.20461349270042062,-2.740828150397615
1589997442.6956663,-1.716418932775522,-3.132837865551044,8.648513596653132,0.5644444444444444,0.0,-0.6888888888888889,0.09092958878347082,0.20725784867432664,-2.7480312334922408
1589997442.7056663,-1.6829619716739155,-3.150582293807453,8.712329175229812,0.5644444444444444,0.0,-0.6888888888888889,0.08303568525472164,0.20610349949086754,-2.7476757043066473
1589997442.7156663,-1.6405432334414964,-3.202555449513266,8.745271616720748,0.5644444444444444,0.03940319399376471,-0.7025486628067273,0.07842130118773166,0.20713933352231348,-2.7399474269078854
1589997442.7256663,-1.6430603718404009,-3.2304094422393983,8.700818884478796,0.5644444444444444,0.08333333333333333,-0.7177777777777777,0.08143381068645571,0.20943951023931956,-2.7165259541748874
1589997442.7356663,-1.548094647431576,-3.2272789537548876,8.607210462451127,0.5644444444444444,0.08333333333333333,-0.7177777777777777,0.08737038346137375,0.20785148887527968,-2.6875917351057055
1589997442.7456663,-1.4735943857724134,-3.273686737073104,8.616405614227586,0.5644444444444444,0.08333333333333333,-0.7177777777777777,0.08309414581988663,0.20725784867432664,-2.6547553192145013
1589997442.7556663,-1.4210781054358619,-3.309460947282069,8.688382841846208,0.5644444444444444,0.08333333333333333,-0.7177777777777777,0.07930623788128296,0.20513498863914448,-2.621913187166902
1589997442.7656662,-1.372244447808317,-3.30334666868499,8.692244447808317,0.5767802454185258,0.11972394620687335,-0.729496788703155,0.08096194519701481,0.20095769525524979,-2.583229346515871
1589997442.7756662,-1.3377676016027475,-3.3328133943903833,8.700580995993132,0.5866666666666667,0.14888888888888888,-0.7388888888888889,0.076231401111989,0.1998655500859033,-2.5316715116385637
1589997442.7856662,-1.3000517204982056,-3.354010344099641,8.708020688199282,0.5866666666666667,0.14888888888888888,-0.7388888888888889,0.056313949166350914,0.2026729742891498,-2.4808215271325076
1589997442.7956662,-1.2397155898876404,-3.3701422050561796,8.65300152153558,0.5866666666666667,0.14888888888888888,-0.7388888888888889,0.05313880529906336,0.19592905264920382,-2.419541896141341
1589997442.8056662,-1.1960923208656054,-3.3680461604328027,8.63,0.5866666666666667,0.14888888888888888,-0.7388888888888889,0.0567232006898157,0.1906822561024839,-2.363316796219219
1589997442.8156662,-1.1468267881094232,-3.36,8.656538569512461,0.604359046341641,0.14741452391597437,-0.7676390058607221,0.04803847412553125,0.18618592008593146,-2.294593837637289
1589997442.8256662,-1.0922375757575757,-3.410349898989899,8.644825050505052,0.6133333333333333,0.14666666666666667,-0.7822222222222223,0.03814090932848133,0.18503694248832317,-2.2289484844155245
1589997442.8356662,-1.0611165907465272,-3.4266748861197907,8.59446636298611,0.6133333333333333,0.14666666666666667,-0.7822222222222223,0.033937555413166384,0.18059608489079645,-2.1724692325877943
1589997442.8456662,-1.0285869527719322,-3.4142826094456136,8.571413047228068,0.6133333333333333,0.14666666666666667,-0.7822222222222223,0.03225776325362515,0.1740657649781644,-2.103766756401882
1589997442.8556662,-0.9889724419716596,-3.447568895070851,8.644110232113361,0.6133333333333333,0.14666666666666667,-0.7822222222222223,0.02381511285289544,0.16381873461447274,-2.021749641347516
1589997442.8656662,-0.9339124656136989,-3.489751800451272,8.70633573393503,0.6235750076414003,0.16788156344766242,-0.8114841488166992,0.015298705325745815,0.15383421470279574,-1.935065397316404
1589997442.8756661,-0.9045866993779024,-3.516239901866293,8.725413300622098,0.6288888888888889,0.17888888888888888,-0.8266666666666667,0.02067629462129434,0.14090631964252126,-1.863575576435117
1589997442.8856661,-0.8952744980521427,-3.5678040155828588,8.692195984417141,0.6288888888888889,0.17888888888888888,-0.8266666666666667,0.027210883377408894,0.13038422160082774,-1.7868748351942974
1589997442.8956661,-0.8548617827499098,-3.604143630458318,8.644143630458318,0.6288888888888889,0.17888888888888888,-0.8266666666666667,0.03411107769767481,0.12278172413036309,-1.6894858018035117
1589997442.905666,-0.8145138656866021,-3.6,8.634837955228868,0.6288888888888889,0.17888888888888888,-0.8266666666666667,0.0387421691210736,0.1155573575748267,-1.6019657321342424
1589997442.915666,-0.7891849078341014,-3.5945924539170506,8.662445276497696,0.5886327124935996,0.12781762032770097,-0.7641794674859191,0.035140805762337954,0.10990717074460186,-1.503026108087008
1589997442.925666,-0.7742852746576396,-3.6071441760270813,8.69571472534236,0.5544444444444444,0.08444444444444445,-0.7111111111111111,0.029763953197309435,0.10191437803108526,-1.3985962923549526
1589997442.935666,-0.760264128030533,-3.639471743938934,8.665924448106866,0.5544444444444444,0.08444444444444445,-0.7111111111111111,0.0299546286707187,0.0955197232149963,-1.302744094652155
1589997442.945666,-0.7446021854695806,-3.719375959834613,8.786536621382162,0.5544444444444444,0.08444444444444445,-0.7111111111111111,0.031634092692397225,0.0885989449386071,-1.1918866541529574
1589997442.955666,-0.6988430461766658,-3.6413845193020804,8.637045942464576,0.5544444444444444,0.08444444444444445,-0.7111111111111111,0.037246001710432,0.09013551915095486,-1.0814596608579032
1589997442.965666,-0.6703574896819617,-3.576966193250789,8.75840586307356,0.5130144857165979,0.1471647986296566,-0.6581728305144183,0.04310731394608544,0.07456539464313994,-0.9689675848242045
1589997442.975666,-0.654313880126183,-3.6351372239747635,8.822041009463721,0.4744444444444445,0.20555555555555555,-0.6088888888888889,0.011691331624829125,0.05227006467836882,-0.8680449404277595
1589997442.985666,-0.63,-3.6723412390705636,8.54924035402016,0.4744444444444445,0.20555555555555555,-0.6088888888888889,0.01219884764694745,0.046567469560751404,-0.7683944860145991
1589997442.995666,-0.709495480727637,-3.665283792090704,8.828297247455774,0.4744444444444445,0.20555555555555555,-0.6088888888888889,0.02523357359999076,0.04309125556581411,-0.6570034588400521
1589997443.005666,-0.7143913389218383,-3.6068506676385805,9.050690003644677,0.4744444444444445,0.20555555555555555,-0.6088888888888889,-0.004273001864107997,0.06441653769375931,-0.5688346581872945
1589997443.015666,-0.561651269761509,-3.577247883730818,8.89715936763171,0.4747502351410202,0.21038704856145232,-0.608521940052998,-0.01439115751364193,0.1027786826484369,-0.4904837908359066
1589997443.025666,-0.599474539251611,-3.608954493763425,8.296343435802092,0.48,0.2933333333333333,-0.6022222222222222,0.058160307580923915,-0.02819141585686445,-0.40038985319912296
1589997443.035666,-0.6134843964196436,-3.7474219820982175,8.919277477622773,0.48,0.2933333333333333,-0.6022222222222222,0.07301757896418276,-0.05239532670145927,-0.32206231282719916
1589997443.045666,-0.5757660016791268,-3.5927019949626193,8.388216127613642,0.48,0.2933333333333333,-0.6022222222222222,-0.027823620553084558,0.036638403742310005,-0.19066130728929453
1589997443.055666,-0.6266820191029643,-3.7598024790578344,8.565404778832185,0.48,0.2933333333333333,-0.6022222222222222,0.018358131444498715,-0.009945304296538891,-0.10972221451999953
1589997443.065666,-0.6624907204720663,-3.8979385171790235,9.09856381459979,0.47424129945115956,0.31300889354187156,-0.6022222222222222,-0.005776720890803065,-0.002207097326077106,-0.015908666995818208
1589997443.075666,-0.6407782480056926,-3.903272911126924,8.800298490693232,0.4666666666666667,0.3388888888888889,-0.6022222222222222,0.0037318497243063464,-0.010993201513067163,0.07691752165516619
1589997443.085666,-0.6475765935070085,-3.988149169841899,8.718895019051395,0.4666666666666667,0.3388888888888889,-0.6022222222222222,0.007683754783083431,-0.018933392720831013,0.169276283482909
1589997443.095666,-0.6440531042561499,-3.9872690355329947,8.64312924638813,0.4666666666666667,0.3388888888888889,-0.6022222222222222,0.007299493733680111,-0.022777705293671797,0.2544280806840055
1589997443.105666,-0.6672361630183307,-3.999932965533606,8.738810583140534,0.4666666666666667,0.3388888888888889,-0.6022222222222222,0.011790834384357492,-0.02876358413922879,0.34256473965954554
1589997443.115666,-0.6338074426796256,-3.9128446560777537,8.523807442679624,0.47561147168498524,0.35540237507655403,-0.598093850675306,0.008416342418448733,-0.03610243954861277,0.4164514852781538
1589997443.125666,-0.6570663715825007,-3.9847323005387523,8.743297565555629,0.4811111111111111,0.3655555555555556,-0.5955555555555555,0.002788979219477839,-0.03817907738737596,0.4757400228976455
1589997443.135666,-0.664783986940511,-3.97783986940511,8.641359477620439,0.4811111111111111,0.3655555555555556,-0.5955555555555555,-0.003935724586093521,-0.04102397119097302,0.5141548545739587
1589997443.145666,-0.6815150502531938,-3.9601210703544716,8.55327224121533,0.4811111111111111,0.3655555555555556,-0.5955555555555555,-0.011708226097669978,-0.04363323129985824,0.5495274220492743
1589997443.1556659,-0.7069596827495043,-3.97871777924653,8.650475875743556,0.4811111111111111,0.3655555555555556,-0.5955555555555555,-0.015227651657044048,-0.04363323129985824,0.5780364947411788
1589997443.1656659,-0.7005127653360795,-3.933589357352557,8.566665949369035,0.4811111111111111,0.3655555555555556,-0.5955555555555555,-0.008195155690267915,-0.04363323129985824,0.5963209842547967
1589997443.1756659,-0.745,-4.035,8.845,0.5011111111111111,0.37333333333333335,-0.5955555555555555,-0.008726646259971648,-0.05235987755982988,0.6555893002803701
1589997443.1856658,-0.7327159196540436,-3.927827264276765,8.498913632138382,0.5011111111111111,0.37333333333333335,-0.5955555555555555,-0.00908215931134179,-0.05265613843597167,0.6573668655372208
1589997443.1956658,-0.7755903264927592,-3.9429160820868905,8.546145102608614,0.5011111111111111,0.37333333333333335,-0.5955555555555555,-0.01623367247544187,-0.05973811451329514,0.7287199676159062
1589997443.2056658,-0.7390548934027195,-4.0293406916233,8.63773627664932,0.5011111111111111,0.37333333333333335,-0.5955555555555555,-0.01829718939104199,-0.06386514834449537,0.7976658437780386
1589997443.2156658,-0.7197950579693172,-4.045102471015341,8.692209665456533,0.5077322351042927,0.3727815730005682,-0.6007972787168243,-0.020718332964909464,-0.0662698330122905,0.8374052253095297
1589997443.2256658,-0.8008811241929359,-3.9986973034561335,8.78482719331561,0.5277777777777778,0.3711111111111111,-0.6166666666666667,-0.024282481512982252,-0.06616035769493792,0.876785588319038
1589997443.2356658,-0.7634639418422489,-4.023519916917499,8.600279875376248,0.5277777777777778,0.3711111111111111,-0.6166666666666667,-0.029836394499948037,-0.07126964643427294,0.9123429212736348
1589997443.2456658,-0.8031764321320586,-4.081470540165073,8.672705728528234,0.5277777777777778,0.3711111111111111,-0.6166666666666667,-0.03559957502951864,-0.0727391674324465,0.9312743390552056
1589997443.2556658,-0.8030745721271394,-4.025300190165716,8.525300190165716,0.5277777777777778,0.3711111111111111,-0.6166666666666667,-0.03156860135772411,-0.07475465426834378,0.9441467879180191
1589997443.2656658,-0.8679431062947127,-4.009928882868391,8.569502180078736,0.5527103058695151,0.3750826642584675,-0.6195350106064241,-0.0370882466048795,-0.07242806088751177,0.9396540483234587
1589997443.2756658,-0.9053339051018753,-4.055333905101875,8.775325328573746,0.6533333333333333,0.3911111111111111,-0.6311111111111111,-0.03185169751644313,-0.07475833199736305,0.9239327372204093
1589997443.2856658,-0.929862954447151,-3.9954453980467592,8.625582443599608,0.6533333333333333,0.3911111111111111,-0.6311111111111111,-0.028354125669525256,-0.07310061177802775,0.9076310084401122
1589997443.2956657,-0.9737165354330708,-3.910236220472441,8.543952755905512,0.6533333333333333,0.3911111111111111,-0.6311111111111111,-0.031177146254375086,-0.07004164329878425,0.8949639557413954
1589997443.3056657,-1.0182712178436542,-3.88,8.60514145229103,0.6533333333333333,0.3911111111111111,-0.6311111111111111,-0.0341165042251432,-0.06962458920053592,0.8878240878635993
1589997443.3156657,-1.0509750487204883,-3.876341650426504,8.731708252132519,0.8512906935880643,0.43582427256495176,-0.7400486317441046,-0.03490658503988659,-0.07119670357918562,0.8894525329981084
1589997443.3256657,-1.0798335336270977,-3.8831113781694633,8.7,1.1944444444444444,0.5133333333333333,-0.9288888888888888,-0.03562169978529672,-0.06909805533436306,0.9049048814486845
1589997443.3356657,-1.0985022477411315,-3.9080029969881753,8.7,1.1944444444444444,0.5133333333333333,-0.9288888888888888,-0.03697932698697767,-0.0677404281326821,0.9184811534654942
1589997443.3456657,-1.1512966106053593,-3.8984724579540195,8.62282415265134,1.1944444444444444,0.5133333333333333,-0.9288888888888888,-0.0413101314587416,-0.07012123734442822,0.9386802260514471
1589997443.3556657,-1.164657501311418,-3.9261369994754327,8.642273998950866,1.1944444444444444,0.5133333333333333,-0.9288888888888888,-0.036170749005385965,-0.07090400086226964,0.9542169349098946
1589997443.3656657,-1.1325348134198918,-3.924791119480648,8.685208880519351,1.1721944155365038,0.3392761451674183,-0.9339585157286727,-0.031634092692397225,-0.07173351661416062,0.9585333721237048
1589997443.3756657,-1.14,-3.893475136861314,8.73336878421533,1.106666666666667,-0.17333333333333334,-0.9488888888888888,-0.030899137988063534,-0.07233910644892477,0.9449573273500732
1589997443.3856657,-1.1336889744499046,-3.9136889744499044,8.692667308374284,1.106666666666667,-0.17333333333333334,-0.9488888888888888,-0.029452431127404314,-0.069066552344235,0.9223339276257212
1589997443.3956656,-1.1228025882259538,-3.8949553411932833,8.593363105871145,1.106666666666667,-0.17333333333333334,-0.9488888888888888,-0.029452431127404314,-0.06962974110932124,0.8975508189437008
1589997443.4056656,-1.1729965191282972,-3.8159930382565945,8.658989557384892,1.106666666666667,-0.17333333333333334,-0.9488888888888888,-0.027818083474661217,-0.06556006914063796,0.843991344289721
1589997443.4156656,-1.1799158651863337,-3.8298317303726677,8.679747595559002,1.106666666666667,-0.17333333333333334,-0.9488888888888888,-0.02404416563723534,-0.06329571843818244,0.8130452180228289
1589997443.4256656,-1.2137467581998473,-3.817915586066616,8.681451309433003,0.6433333333333333,0.17888888888888888,-0.6966666666666667,-0.02483871337996672,-0.06022306732550508,0.7411086585665595
1589997443.4356656,-1.2369927017744704,-3.7736350410227057,8.647270082045411,0.6433333333333333,0.17888888888888888,-0.6966666666666667,-0.02519580273694859,-0.05275639902415035,0.6874288213227623
1589997443.4456656,-1.2454313337216074,-3.746624111822947,8.627156668608038,0.6433333333333333,0.17888888888888888,-0.6966666666666667,-0.022871436945674326,-0.04564877147113701,0.6365026459033696
1589997443.4556656,-1.282922439554469,-3.789542923118718,8.741551208910623,0.6433333333333333,0.17888888888888888,-0.6966666666666667,-0.022807727726011542,-0.04594935753954764,0.5951599864491264
1589997443.4656656,-1.290070214438691,-3.739789356683927,8.600772358825601,0.6429666579312796,0.17957543006720222,-0.6967134762924607,-0.012091049092781019,-0.04363323129985824,0.5647056810132142
1589997443.4756656,-1.3,-3.704076674467848,8.694204465247596,0.5911111111111111,0.2766666666666667,-0.7033333333333334,-0.022719947861504993,-0.04298709671733637,0.5082093451305613
1589997443.4856656,-1.3214221014492755,-3.6885688405797104,8.63856884057971,0.5911111111111111,0.2766666666666667,-0.7033333333333334,-0.015894115912353252,-0.03942602344490361,0.457998741801646
1589997443.4956656,-1.3426719445818902,-3.6926719445818903,8.65732805541811,0.5911111111111111,0.2766666666666667,-0.7033333333333334,-0.015238436450683422,-0.035780976859601715,0.419470584327039
1589997443.5056655,-1.3005847157465031,-3.6832683649170552,8.650389810497668,0.5911111111111111,0.2766666666666667,-0.7033333333333334,-0.006922768865484132,-0.029494952856424044,0.37850193205243254
1589997443.5156655,-1.2255577673843299,-3.7124656951799313,8.656536082872714,0.5911111111111111,0.27131769162382596,-0.7079691117037954,-0.00737964670088916,-0.026139376791094966,0.3323682673650145
1589997443.5256655,-1.1526021413938385,-3.825952224498473,8.89161532217541,0.5911111111111111,0.2442970894051254,-0.7313869669600024,-0.01710636523926683,-0.03144485963021006,0.2810819332535686
1589997443.5356655,-0.9931363950276243,-3.9142304903314917,8.617899343922652,0.5911111111111111,0.2433333333333333,-0.7322222222222222,0.009585148165864575,-0.009184938322493553,0.16928882024615616
1589997443.5456655,-0.8917548342541437,-4.008370511049724,8.639623964088399,0.5911111111111111,0.2433333333333333,-0.7322222222222222,-0.003053723522049469,-0.004445361439525785,0.07686707102828472
1589997443.5556655,-0.8882591951682953,-3.9681779315960912,8.671052185124864,0.5911111111111111,0.2433333333333333,-0.7322222222222222,0.015594027858144444,0.011610489427507026,-0.11984535347239994
1589997443.5656655,-0.8526805103148751,-4.053566775244299,8.85606134636265,0.5911111111111111,0.2433333333333333,-0.7322222222222222,0.013265408379813375,0.017043934876946186,-0.24170977283839262
1589997443.5756655,-0.9282735288086938,-3.815515685872463,8.63343038753332,0.5311111111111111,0.14222222222222222,-0.6966666666666667,0.02493992117520706,0.03776573818580667,-0.4852557492743697
1589997443.5856655,-1.5512649631675874,-5.2044893339472065,7.439741789441376,0.5311111111111111,0.14222222222222222,-0.6966666666666667,-0.0641406742323506,0.24390380324001718,-0.720307657803497
1589997443.5956655,-1.6390711613023372,-11.080824881905762,-2.583280734131351,0.5311111111111111,0.14222222222222222,-0.6966666666666667,-0.9180702287654934,1.1711810901891182,-4.836861816905623
1589997443.6056654,7.378745263899903,-2.0795303550973654,-2.317951655065057,0.5311111111111111,0.14222222222222222,-0.6966666666666667,-1.494773235559468,-0.19924826658280018,-11.96061008103717
1589997443.6156654,2.276163200654029,-5.134576158602013,-0.6783577742578305,0.5297278285899204,0.17625097224351222,-0.6731508638064256,-1.2334624113464845,-0.40164265675157695,-14.330149905431279
1589997443.6256654,-0.36841310678239236,-5.254900907523113,-0.2280045800231828,0.5255555555555556,0.2788888888888889,-0.6022222222222222,-1.2030539891310659,0.7507511560538743,-13.81124282633565
1589997443.6356654,-1.0398351992211947,-6.127537028023086,3.4139559140532647,0.5255555555555556,0.2788888888888889,-0.6022222222222222,-0.8056871153272274,1.5871269305997484,-13.137987183009045
1589997443.6456654,-2.4725027782375335,-6.996337455370865,8.31831508760315,0.5255555555555556,0.2788888888888889,-0.6022222222222222,0.08733274863076218,2.7706938352671915,-12.348480408928426
1589997443.6556654,-2.9886342537491073,-5.1913038562247085,6.7999071649607234,0.5255555555555556,0.2788888888888889,-0.6022222222222222,1.3479134501899046,3.341600151746563,-11.574918731292087
1589997443.6656654,-1.549243127454481,-4.204134237772224,6.496895156491729,0.4741155936371931,0.35258941912280006,-0.6004173112777182,3.12004981660466,2.346053255923702,-10.853517950806188
1589997443.6756654,1.558771776841871,-4.3641859774763905,8.94969461400026,0.33555555555555555,0.5511111111111111,-0.5955555555555555,3.9574896555577923,0.6065891224344329,-10.081715726962047
1589997443.6856654,0.49941262673086706,-2.383491341926608,1.2614618536351945,0.33555555555555555,0.5511111111111111,-0.5955555555555555,2.2243858087013986,0.7467734494849984,-9.451775802427782
1589997443.6956654,1.7985364133645911,-9.71751024453466,2.0208220405207085,0.33555555555555555,0.5511111111111111,-0.5955555555555555,0.5243245615549225,0.3940519596953282,-8.515926431619668
1589997443.7056653,2.2616921817146114,-8.384766270293364,4.735234263742524,0.33555555555555555,0.5511111111111111,-0.5955555555555555,-0.35391612104260606,0.49911380330482913,-7.499226301796196
1589997443.7156653,1.9182398177157505,-0.3136357163201371,14.262304186841359,0.33555555555555555,0.5511111111111111,-0.5955555555555555,-1.0877383347056333,0.4535044315344302,-6.4640564532216045
1589997443.7256653,-3.9677056461426137,-2.7037722073497203,14.750322462886347,0.07222222222222223,0.6266666666666667,-0.6111111111111112,-0.44158573572941096,0.5830162340777736,-5.445291874716085
1589997443.7356653,1.2614697830054755,-0.26978655445142974,9.097652098965726,0.07222222222222223,0.6266666666666667,-0.6111111111111112,0.8699270964441942,0.3552729784090814,-4.8282361054226755
1589997443.7456653,0.546090481786134,-0.05222528118180289,4.5602338425381905,0.07222222222222223,0.6266666666666667,-0.6111111111111112,0.5016466163953726,0.3491857190962341,-4.533122285408807
1589997443.7556653,1.4825381903642771,-0.6718297800906496,5.890975323149236,0.07222222222222223,0.6266666666666667,-0.6111111111111112,-0.17116484553140265,0.07883225494300933,-4.264304920483725
1589997443.7656653,3.0015069878085043,-2.2975587273267917,7.689314302705918,0.050141209898569405,0.6246194204909638,-0.6073090824990914,-0.2100848616888749,0.3598073062004834,-4.006160091018485
1589997443.7756653,0.9893737734165922,-0.26048171275646714,10.591109723461196,-0.0893593022103281,0.6116855981762316,-0.5832891267717316,0.20621995383702896,0.5103663462381742,-3.9481132322087733
1589997443.7856653,2.4204323218030677,-0.9368620663516689,8.209765520377998,-0.09555555555555556,0.6111111111111112,-0.5822222222222222,0.23703019472434855,0.08875474088666246,-3.5698541362729856
1589997443.7956653,3.6,-1.47,7.57,-0.09555555555555556,0.6111111111111112,-0.5822222222222222,0.11780972450961726,0.1810779098944117,-3.375030441044035
1589997443.8056653,2.2126457640080197,-0.6175784883120103,7.584188454622491,-0.09555555555555556,0.6111111111111112,-0.5822222222222222,0.07050582045903565,0.3327082810880938,-3.2490575786260925
1589997443.8156652,2.7761277721513755,-0.920991877312279,10.24555732385342,-0.09555555555555556,0.6111111111111112,-0.5822222222222222,0.007148196103648988,0.3516210047762689,-3.1081577871491874
1589997443.8256652,3.4902807622931538,-1.253042114343973,9.275382322955062,-0.19,0.59,-0.5966666666666667,0.07472614325897395,0.18558589578443213,-2.872622065008466
1589997443.8356652,3.5694666666666666,-1.1833333333333333,8.707933333333335,-0.19,0.59,-0.5966666666666667,0.14009176129341153,0.14612769162322525,-2.728931368571384
1589997443.8456652,3.3730572364801836,-0.9039206869334354,8.275017579946901,-0.19,0.59,-0.5966666666666667,0.09287131704556954,0.17942753554566349,-2.6086916423155437
1589997443.8556652,3.943018701836208,-1.1973326332370702,9.075162849597703,-0.19,0.59,-0.5966666666666667,0.04478113642163006,0.19283756538288255,-2.5121589495804093
1589997443.8656652,3.515511404876994,-0.8669860855867682,8.81606751810727,-0.19,0.59,-0.5966666666666667,0.062445459121060545,0.226753064965789,-2.464111991837958
1589997443.8756652,3.608450445288064,-0.8983062340329012,9.05915311701645,-0.27,0.5577777777777778,-0.6177777777777778,0.07076643267963835,0.1696625114757646,-2.337125539845565
1589997443.8856652,3.610141112978855,-0.8002822259577104,8.952191895956826,-0.27,0.5577777777777778,-0.6177777777777778,0.09096687175598134,0.16152402259327597,-2.247446970522787
1589997443.8956652,3.6868011186827903,-0.9148304250206799,8.697786465513845,-0.27,0.5577777777777778,-0.6177777777777778,0.07452893892975063,0.1326284288770112,-2.1878840956914654
1589997443.9056652,3.901579942490251,-0.8487446330799228,9.052997597195414,-0.27,0.5577777777777778,-0.6177777777777778,0.07903446493816525,0.16867263694432819,-2.1419277304056363
1589997443.9156651,3.7127524104056757,-0.7468073494633436,8.804275059123158,-0.27354738948517376,0.5536391567117418,-0.6163588219837083,0.06350036148367036,0.1476804694972185,-2.0944411407307504
1589997443.9256651,3.4160238918197803,-0.7213734764416955,9.236650900491178,-0.3018072483981161,0.5206693213133089,-0.6050548784185313,0.06534996492434501,0.15970289186160377,-2.0861179252477147
1589997443.9356651,7.017381051113315,-0.47808113224556026,9.466487514648877,-0.3033333333333333,0.5188888888888888,-0.6044444444444445,0.07207344068898566,-0.18184645736251584,-1.0586807847632862
1589997443.9456651,4.204292436671775,-1.1889153520237987,7.772584693049671,-0.3033333333333333,0.5188888888888888,-0.6044444444444445,0.23210277105927823,-0.3270277055335029,0.2891951215514459
1589997443.955665,3.4007533602291016,-0.21779155082673132,7.408369531135684,-0.3033333333333333,0.5188888888888888,-0.6044444444444445,0.06556691305144785,0.2530389715943863,-0.03341274952798855
1589997443.965665,3.543057995915324,-0.7548403410380263,10.252611599183064,-0.31329079363021073,0.5153220374392611,-0.6053361573068514,-0.2704705854687572,0.287430710870579,-0.23242355210970952
1589997443.975665,2.98,-1.11,10.14,-0.37777777777777777,0.4922222222222222,-0.6111111111111112,-0.15707963267948966,0.05781403147231216,-0.0916297857297023
1589997443.985665,3.1391610407145825,-1.0213533444121314,9.847868975903614,-0.37777777777777777,0.4922222222222222,-0.6111111111111112,-0.12653169723720648,0.04616625752669339,-0.07294939355276654
1589997443.995665,3.7022819588003197,-0.6781261649439617,8.838979690639297,-0.37777777777777777,0.4922222222222222,-0.6111111111111112,-0.004272251130546684,-0.0014773784774194938,0.00020440369604475962
1589997444.005665,3.529779744793498,-0.7024449361983744,9.274229106777243,-0.37777777777777777,0.4922222222222222,-0.6111111111111112,-0.0008241296158537843,-0.005987556245767623,-0.0013815580650648968
1589997444.015665,3.5918041136141037,-0.6993986287952987,9.304730264446622,-0.37495074545652407,0.49139767112852323,-0.6126424202851236,-0.0004625720818703874,-0.006479385272799223,0.001090830782496456
1589997444.025665,3.8382859941234084,-0.6172380019588638,8.721389813907933,-0.3530412449668081,0.48500740015235616,-0.6245100663837196,-0.00404750571636589,0.002482948813439535,0.001090830782496456
1589997444.035665,3.5769805294246333,-0.7370914460730693,9.232548676438416,-0.3511111111111111,0.4844444444444445,-0.6255555555555555,-0.00417295872062301,-0.002752754793081354,0.000900466373133642
1589997444.045665,3.6870912273025596,-0.6912119886239334,8.9572719317436,-0.3511111111111111,0.4844444444444445,-0.6255555555555555,-0.0011701552524377864,-0.011761165197637024,-0.0021023370950515813
1589997444.055665,3.6517370364123614,-0.7053051854350555,9.110704447068084,-0.3511111111111111,0.4844444444444445,-0.6255555555555555,0.0005787059579410465,-0.009494833496804762,-0.0013468931947741608
1589997444.065665,3.8395145819203567,-0.6244937506055614,8.637461809256209,-0.3511111111111111,0.4844444444444445,-0.6255555555555555,-0.0020182641820126277,-0.00043572635461409416,-0.00212719577066615
1589997444.075665,3.6785521924494087,-0.6901377394525146,9.007447190230916,-0.3511111111111111,0.4792490563368508,-0.6194942694300296,-0.004731941738643547,0.010201120694602541,0.0003686186086577234
1589997444.085665,3.64,-0.688462007647735,9.013848030590939,-0.3511111111111111,0.4777777777777778,-0.6177777777777778,-0.003608030227708326,0.009818142386037787,0.0
1589997444.095665,3.6626210483230204,-0.6729309223990562,8.944654611995281,-0.3511111111111111,0.4777777777777778,-0.6177777777777778,-0.004683037167385707,-0.0029527783100894846,-0.00015422334901931452
1589997444.105665,3.784231079554623,-0.6367581087623043,8.759285137969986,-0.3511111111111111,0.4777777777777778,-0.6177777777777778,-0.0002457317689793533,-0.007267217824006162,-0.0008450990135171027
1589997444.115665,3.6789468022161262,-0.6818799419073744,8.954813081598623,-0.3511111111111111,0.4777777777777778,-0.6177777777777778,-0.0018864079208897346,-0.004806203596140589,0.0007955771383932786
1589997444.125665,3.693095562210727,-0.6734522188946366,8.99035665668391,-0.3855555555555555,0.4922222222222222,-0.6255555555555555,-0.002181661564992912,0.0027465295607207252,-0.0007142521186779136
1589997444.135665,3.6645473727198477,-0.6877263136400762,9.033178940920228,-0.3855555555555555,0.4922222222222222,-0.6255555555555555,-0.002181661564992912,0.005082122851810205,0.0008428100753817395
1589997444.145665,3.6811449687587428,-0.67,8.928855031241257,-0.3855555555555555,0.4922222222222222,-0.6255555555555555,-0.0018343108509358244,-0.00029857207373189384,0.001090830782496456
1589997444.155665,3.742341106053166,-0.6676588939468341,8.873121474737554,-0.3855555555555555,0.4922222222222222,-0.6255555555555555,-0.0002553750547882186,-0.0075506904592124524,0.0009205807459709769
1589997444.165665,3.759040597751795,-0.650959402248205,8.89538746366906,-0.3855555555555555,0.4922222222222222,-0.6255555555555555,-0.002077007014479078,-0.006943479805982165,-0.000293840560489596
1589997444.175665,3.7521129032258065,-0.64,8.904037634408603,-0.372968339307049,0.48493488649940264,-0.6255555555555555,-0.002622099155129922,-4.105277138427479e-05,-0.0023916171672153483
1589997444.185665,3.632618093161732,-0.6726180931617319,9.059527627353072,-0.3644444444444445,0.48,-0.6255555555555555,-0.004363323129985824,0.011427959285008877,-0.0012336256131094904
1589997444.195665,3.650828879735848,-0.6883422405283044,8.987513360792457,-0.3644444444444445,0.48,-0.6255555555555555,-0.004272906376900796,0.006369980934284799,-0.0020912448119078837
1589997444.2056649,3.657967627735984,-0.6740647445280321,8.96609711679205,-0.3644444444444445,0.48,-0.6255555555555555,-0.0034941897701974423,-0.004532051559562156,-0.0013125282052045299
1589997444.2156649,3.7165892433714163,-0.653831644751024,8.887242401379607,-0.3644444444444445,0.48,-0.6255555555555555,-0.0015087983866972428,-0.010281356418663378,-0.001090830782496456
1589997444.2256649,3.73,-0.65,8.920877621283255,-0.3587913754129717,0.4896909754825248,-0.6199024865240828,-0.00029798970483972047,-0.007736943514337617,-0.00029798970483972047
1589997444.2356648,3.7175592830182294,-0.6712203584908855,8.956338924527344,-0.3566666666666667,0.4933333333333334,-0.6177777777777778,-0.005121352760597602,0.0001996806911308064,0.0010242705521195205
1589997444.2456648,3.689162336453344,-0.6854188317733281,8.913743504680015,-0.3566666666666667,0.4933333333333334,-0.6177777777777778,-0.0012493198303620912,0.0025229004492721137,0.00024986396607241826
1589997444.2556648,3.681562336248942,-0.66,8.948177274376233,-0.3566666666666667,0.4933333333333334,-0.6177777777777778,-0.002210065639542177,0.0019260248940495286,-0.002181661564992912
1589997444.2656648,3.732281430126164,-0.66,8.889004998186143,-0.3566666666666667,0.4933333333333334,-0.6177777777777778,-0.0031321647872355313,-0.00637286743519066,-0.002181661564992912
1589997444.2756648,3.7096891093868023,-0.6603108906131978,8.95,-0.3644444444444445,0.4933333333333334,-0.6177777777777778,-0.0011586565926695344,0.0002034774305192352,-0.001090830782496456
1589997444.2856648,3.7024888415848385,-0.6675111584151617,8.95,-0.3644444444444445,0.4933333333333334,-0.6177777777777778,-0.002729511344789594,0.004916041686879413,-0.001090830782496456
1589997444.2956648,3.671668478668366,-0.6511123191122442,8.969443840443878,-0.3644444444444445,0.4933333333333334,-0.6177777777777778,-0.0009694955897369529,0.008544643470832393,0.0
1589997444.3056648,3.695254929894279,-0.6668366199295194,8.96158169003524,-0.3644444444444445,0.4933333333333334,-0.6177777777777778,0.0007457595467348494,0.005971760766124689,0.0
1589997444.3156648,3.677041410657591,-0.6470414106575912,8.998264315570681,-0.3644444444444445,0.4933333333333334,-0.6177777777777778,-0.0014135628152430037,-0.0028938247466492517,-0.0008347978659131531
1589997444.3256648,3.6913974890873953,-0.6528384934524373,8.950087030555292,-0.36111594614196074,0.4852498374558729,-0.6211062760802615,-0.004048944746165946,-0.002653229140722727,-0.001090830782496456
1589997444.3356647,3.7197385029122803,-0.6698431017473682,8.870732191845615,-0.3567073439914231,0.47454323223313866,-0.6255148782307991,-0.006522164769153302,0.0010566008937583074,-0.001090830782496456
1589997444.3456647,3.69,-0.6798576964614701,8.871423035385298,-0.3566666666666667,0.4744444444444445,-0.6255555555555555,-0.0021661386569642475,6.209163211465755e-05,0.0
1589997444.3556647,3.69,-0.6709757956927769,8.960242043072233,-0.3566666666666667,0.4744444444444445,-0.6255555555555555,-0.0011972735804072975,0.003937551938342458,0.0
1589997444.3656647,3.697976030250593,-0.6540479394988143,8.954047939498814,-0.3566666666666667,0.4744444444444445,-0.6255555555555555,-0.0037009805783373316,-0.0025970763255898453,-0.0008700499319469586
1589997444.3756647,3.7399627104599045,-0.6500372895400957,8.949962710459904,-0.3644444444444445,0.48,-0.6111111111111112,-0.0021857292228130614,-0.002173526249352613,0.0010826954668561569
1589997444.3856647,3.732063542882971,-0.657936457117029,8.94206354288297,-0.3644444444444445,0.48,-0.6111111111111112,-0.0030473947377147315,-0.00045019521954927375,-0.0006406355629471822
1589997444.3956647,3.710614970752917,-0.6793850292470831,8.901229941505834,-0.3644444444444445,0.48,-0.6111111111111112,-0.004329781678604986,0.0052864466555780885,0.0010237478797347794
1589997444.4056647,3.678595579919879,-0.6642977899599395,8.939255525100151,-0.3644444444444445,0.48,-0.6111111111111112,-0.004363323129985824,0.004597731209236131,-0.0006220146239958419
1589997444.4156647,3.6907760951865876,-0.6738507301243916,8.98462682531098,-0.3644444444444445,0.48,-0.6111111111111112,-0.0036078829909989597,0.0005861224350515032,0.0004200494954772723
1589997444.4256647,3.7201423253777097,-0.6501423253777097,8.979146047733742,-0.3644444444444445,0.4744444444444445,-0.6255555555555555,-0.002166136274679299,-0.0054386286221686665,-0.00322591647654853
1589997444.4356647,3.727795598861397,-0.657795598861397,8.933226406831619,-0.3644444444444445,0.4744444444444445,-0.6255555555555555,-0.0013312936443922972,-0.004603785991881665,-0.0007213885856875235
1589997444.4456646,3.7395720742379077,-0.6791441484758151,8.862567554572555,-0.3644444444444445,0.4744444444444445,-0.6255555555555555,-0.004223284751811695,0.0029457361317497344,-0.0010441513231050795
1589997444.4556646,3.698242986169429,-0.6660809953898096,8.922635520745857,-0.3644444444444445,0.4744444444444445,-0.6255555555555555,-0.002085831326409957,0.005549984151065234,-0.001090830782496456
1589997444.4656646,3.673262624575469,-0.6667373754245309,8.983686877122654,-0.3644444444444445,0.4744444444444445,-0.6255555555555555,-0.0018257644331278024,0.004340183743084697,-0.0003558971318651094
1589997444.4756646,3.696181833932516,-0.67,8.973818166067485,-0.35571716646693907,0.47808081026840504,-0.6161010044132581,-0.001467662805097941,0.0018444948276994258,-0.0014279975197899419
1589997444.4856646,3.71,-0.6697159718793351,8.909289929698337,-0.3511111111111111,0.48,-0.6111111111111112,-3.098266171159199e-05,-0.001090830782496456,-0.0021661702341371158
1589997444.4956646,3.709988014382741,-0.6500079904115063,8.860031961646024,-0.3511111111111111,0.48,-0.6111111111111112,-0.002180789946309335,-0.0010903949731546675,-0.001089959163812879
1589997444.5056646,3.6803498462214415,-0.67,8.941399384885765,-0.3511111111111111,0.48,-0.6111111111111112,-7.632460549761011e-05,7.632460549761011e-05,0.001052668479747651
1589997444.5156646,3.6880283391915643,-0.67,8.972113356766258,-0.3511111111111111,0.48,-0.6111111111111112,-0.0017515119044961766,0.0017515119044961766,0.00021507483024836766
1589997444.5256646,3.69,-0.6604100781394204,8.98958992186058,-0.36389767359188396,0.4863932812403864,-0.6249632204652816,-0.003227759761718502,0.002181661564992912,-0.0010460981967255899
1589997444.5356646,3.7369773037503182,-0.6693954607500636,8.924231774749554,-0.3644444444444445,0.4866666666666667,-0.6255555555555555,-0.0022476065672987038,-0.003967653116151073,-6.594500230579182e-05
1589997444.5456645,3.74,-0.6604229673460443,8.824229673460444,-0.3644444444444445,0.4866666666666667,-0.6255555555555555,-0.002181661564992912,-0.0022739387252040956,0.0
1589997444.5556645,3.7004878336412594,-0.6679024332717481,8.891121899445734,-0.3644444444444445,0.4866666666666667,-0.6255555555555555,-0.002181661564992912,0.001266425422785893,0.0017240434938894024
1589997444.5656645,3.679526584610232,-0.67,8.951893661559073,-0.3644444444444445,0.4866666666666667,-0.6255555555555555,-0.002181661564992912,0.0050378425412506925,0.002181661564992912
1589997444.5756645,3.6804623135051346,-0.67,9.000462313505135,-0.3644444444444445,0.4901541045017116,-0.6179994402462916,-0.0027522922463693762,0.005353292751969335,0.0010404002022399836
1589997444.5856645,3.7015873636470267,-0.6642063181764867,8.946269499941353,-0.3644444444444445,0.4933333333333334,-0.6111111111111112,-0.002640499699781516,-0.0011514561864655968,-0.0018959779431235561
1589997444.5956645,3.6934123761572195,-0.6517061880786097,8.841943316550267,-0.3644444444444445,0.4933333333333334,-0.6111111111111112,-0.0030863760998017724,-0.0025538940603681034,-0.0005583487430627873
1589997444.6056645,3.7097669302885876,-0.6565889767628625,8.876122837340038,-0.3644444444444445,0.4933333333333334,-0.6111111111111112,-0.0011162547440640947,-0.0014629156971844876,-0.0007187458678084244
1589997444.6156645,3.7076051117503876,-0.66,8.943382108873646,-0.3644444444444445,0.4933333333333334,-0.6111111111111112,0.0,0.000261241782331664,-0.00041479450008239597
1589997444.6256645,3.7,-0.6657836762322824,8.981567352464566,-0.3683002285992994,0.4894775491784784,-0.6111111111111112,-0.001261802414033356,0.00045992957547977796,-0.001261802414033356
1589997444.6356645,3.706015130635318,-0.6820302612706358,8.977969738729364,-0.3711111111111111,0.4866666666666667,-0.6111111111111112,-0.002837810530767139,-0.0013122979315484545,-0.0008693636334444574
1589997444.6456645,3.728880177648872,-0.6648264298015045,8.869305719206018,-0.3711111111111111,0.4866666666666667,-0.6111111111111112,-0.003272492347489368,-0.0028681641969392677,-0.0006865026319463557
1589997444.6556644,3.7217367406667146,-0.6591316296666428,8.837394888999928,-0.3711111111111111,0.4866666666666667,-0.6111111111111112,-0.0012802798005429883,-0.00028417352706979924,0.000901381764449923
1589997444.6656644,3.7133721398376167,-0.6666278601623834,8.906278601623834,-0.3711111111111111,0.4866666666666667,-0.6111111111111112,-0.001090830782496456,0.002168962166162936,0.001090830782496456
1589997444.6756644,3.701388976502129,-0.67,8.991666140987226,-0.3481483817834551,0.4866666666666667,-0.6168517934430251,-0.0029694646825520546,0.003272492347489368,-0.0007878031175591422
1589997444.6856644,3.6903138787344005,-0.67,9.019372242531198,-0.34444444444444444,0.4866666666666667,-0.6177777777777778,-0.00010271657563656238,0.0011593084995874976,-3.423885854552094e-05
1589997444.6956644,3.7077666215567295,-0.643350067664906,8.886750338324529,-0.34444444444444444,0.4866666666666667,-0.6177777777777778,-0.0009690188847522759,-0.0027852447565126478,0.0
1589997444.7056644,3.7187110890339676,-0.6574221780679346,8.896133267101902,-0.34444444444444444,0.4866666666666667,-0.6177777777777778,-0.001090830782496456,-0.003272492347489368,0.0
1589997444.7156644,3.7101718194549176,-0.66,8.909828180545082,-0.34444444444444444,0.4866666666666667,-0.6177777777777778,-0.0016268748762218906,-0.0022004041600384994,-0.0005360440937254345
1589997444.7256644,3.7,-0.66,8.92910658170391,-0.3456586553382992,0.4866666666666667,-0.616563566883923,-0.0019829867720740175,0.00010121797501691098,-0.0008921559895775614
1589997444.7356644,3.710169833234721,-0.66,8.96491508338264,-0.3511111111111111,0.4866666666666667,-0.6111111111111112,-0.001090830782496456,0.0037901188406889875,-0.0005546783572644307
1589997444.7456644,3.7123930924258373,-0.6523930924258372,8.88393092425837,-0.3511111111111111,0.4866666666666667,-0.6111111111111112,-0.001090830782496456,-0.0027970477999084667,-0.001090830782496456
1589997444.7556643,3.719183338463117,-0.65,8.869183338463117,-0.3511111111111111,0.4866666666666667,-0.6111111111111112,-0.0020925776106616124,-0.004363323129985824,-0.003094324438826769
1589997444.7656643,3.6983875764391,-0.6572041411869668,8.934837270682701,-0.3511111111111111,0.4866666666666667,-0.6111111111111112,-0.003753361358631697,-0.0012199235427082537,-0.0017007925538505828
1589997444.7756643,3.69,-0.6686554054054055,8.985966216216216,-0.3684219219219219,0.4866666666666667,-0.5861066066066066,-0.0034191648648655808,0.003776633060480973,-0.0020349890476166993
1589997444.7856643,3.6821201877934273,-0.6778798122065728,9.02151924882629,-0.3711111111111111,0.4866666666666667,-0.5822222222222222,-0.0015533840044451876,0.002644214786941644,-0.00046255322194873206
1589997444.7956643,3.691628128201376,-0.6741859358993122,8.966045294892433,-0.3711111111111111,0.4866666666666667,-0.5822222222222222,-0.00235926280098403,0.0009132295465053384,0.0006342160092437868
1589997444.8056643,3.707706084495654,-0.6545878310086921,8.904587831008692,-0.3711111111111111,0.4866666666666667,-0.5822222222222222,-0.0024318889294515696,-0.0025218102541133955,0.0002502273644586574
1589997444.8156643,3.7170552648472,-0.6711657945415994,8.928221059388799,-0.3711111111111111,0.4866666666666667,-0.5822222222222222,-0.0006424415501947731,-0.0048117123622875065,0.0007696100073990694
1589997444.8256643,3.72,-0.6383553428828885,8.97331572569369,-0.36555849016216296,0.4866666666666667,-0.6118362006166126,-0.0009085454781971073,-2.8810432996370303e-06,-0.0007262601738977587
1589997444.8356643,3.6926999533364446,-0.6709500699953336,8.945874941670555,-0.3644444444444445,0.4866666666666667,-0.6177777777777778,-0.0025798173457062708,0.0018353240641013633,0.0018871423439231732
1589997444.8456643,3.702406314591259,-0.667593685408741,8.885187370817482,-0.3644444444444445,0.4866666666666667,-0.6177777777777778,-0.0008283425796448839,-0.0002624882028515723,1.362599036338957e-05
1589997444.8556643,3.718284194904774,-0.66,8.911420974523867,-0.3644444444444445,0.4866666666666667,-0.6177777777777778,-0.0009036654810327429,-0.001090830782496456,0.0025238311416345156
1589997444.8656642,3.7131792763478364,-0.6531792763478362,8.913179276347837,-0.3644444444444445,0.4866666666666667,-0.6177777777777778,-0.0025788818462328294,-0.0003468052506282695,0.0010404157518848082
1589997444.8756642,3.6937738238460076,-0.6608174507693282,8.953269803077314,-0.36805026136755387,0.49327733102570054,-0.6177777777777778,-0.00268249193312321,0.0005900004143661575,-0.0005900004143661575
1589997444.8856642,3.687145132179637,-0.6557097356407262,8.99,-0.3711111111111111,0.4988888888888889,-0.6177777777777778,-0.0014022485523375186,0.003429069820462636,-0.001090830782496456
1589997444.8956642,3.6767158150660757,-0.6765683698678483,8.92357907533038,-0.3711111111111111,0.4988888888888889,-0.6177777777777778,-0.0025399105671264684,0.0029142433453558116,-0.001090830782496456
1589997444.9056642,3.683331721729788,-0.6811121855134747,8.89,-0.3711111111111111,0.4988888888888889,-0.6177777777777778,-0.0023029821843874054,0.00024264123878898688,-0.0015755858640474373
1589997444.9156642,3.703454004620107,-0.67,8.907270023100535,-0.3711111111111111,0.4988888888888889,-0.6177777777777778,-0.001090830782496456,-0.004065528846241736,-0.002558435021242677
1589997444.9256642,3.71,-0.6624609873740956,8.94,-0.3711111111111111,0.48464853170662503,-0.6236414542645923,-0.00191320948669305,-0.002701543252295628,-0.0016277349390961798
1589997444.9356642,3.7172313349584765,-0.6672313349584763,8.96169400487543,-0.3711111111111111,0.48,-0.6255555555555555,-0.0006040290107431931,0.0004868017717532629,-0.001090830782496456
1589997444.9456642,3.7149276675908154,-0.6598553351816308,8.929421340726524,-0.3711111111111111,0.48,-0.6255555555555555,0.0005533056330992989,0.000537525149397157,-0.001644136415595755
1589997444.9556642,3.7201680852585652,-0.6652521278878478,8.895084042629284,-0.3711111111111111,0.48,-0.6255555555555555,-0.0011275012973218145,-0.0011091660399091352,-0.0016270785450383444
1589997444.9656641,3.7242875954701082,-0.668575190940216,8.922849618119567,-0.3711111111111111,0.48,-0.6255555555555555,-0.0014031123365058444,-0.0015585348946650706,-0.001090830782496456
1589997444.9756641,3.72,-0.66,8.946549517745696,-0.3711111111111111,0.4843663451637984,-0.6299219007193539,0.0,0.0003380523310062772,-0.0018052723392478227
1589997444.9856641,3.72,-0.6658302610789256,8.944169738921074,-0.3711111111111111,0.4866666666666667,-0.6322222222222222,-0.0019079484764649094,0.001090830782496456,-0.0015456787395046088
1589997444.9956641,3.6918485301444943,-0.6559242650722472,8.904810662680617,-0.3711111111111111,0.4866666666666667,-0.6322222222222222,-0.0002016433583986975,0.0018585430297691236,-0.0003231185352237883
1589997445.005664,3.69460025187823,-0.6719003778173449,8.926500629695575,-0.3711111111111111,0.4866666666666667,-0.6322222222222222,0.00029451057344771206,-0.0017999394802508078,-0.0007963202090487439
1589997445.015664,3.7118841747044966,-0.6740579126477518,8.94,-0.3711111111111111,0.4866666666666667,-0.6322222222222222,-0.001296362359223049,-0.003272492347489368,-0.00044264960288493147
1589997445.025664,3.724677886782732,-0.67,8.949355773565465,-0.36435416353605393,0.48978525785515464,-0.6291036310337342,-0.0006508266951017324,-0.0037827706374530946,-0.0005102782899637265
1589997445.035664,3.73,-0.6639723764672806,8.95397237646728,-0.3566666666666667,0.4933333333333334,-0.6255555555555555,0.0017483425119755,-0.001733276212069648,0.00022419267646163195
1589997445.045664,3.709099590723056,-0.66,8.901232378353798,-0.3566666666666667,0.4933333333333334,-0.6255555555555555,-0.0008581797424824325,0.0015199206537376722,-0.0004290898712412162
1589997445.055664,3.707076447303315,-0.6670764473033153,8.915382236516576,-0.3566666666666667,0.4933333333333334,-0.6255555555555555,-0.002181661564992912,0.002181661564992912,0.0004530105273375931
1589997445.065664,3.6978560919076893,-0.6578560919076892,8.936071954046154,-0.3566666666666667,0.4933333333333334,-0.6255555555555555,-0.0008569666883028694,0.0008569666883028694,-0.0002338640941935866
1589997445.075664,3.69,-0.6758582368860482,8.959393677664536,-0.3566666666666667,0.4969247551230623,-0.6162178589022603,0.0,0.001410348038819337,-0.0017960048019061243
1589997445.085664,3.708141028254577,-0.6718589717454234,8.927670934072655,-0.3566666666666667,0.4988888888888889,-0.6111111111111112,0.0,0.0008624087619109053,-0.0015220351634519086
1589997445.095664,3.710187316436419,-0.66,8.89018731643642,-0.3566666666666667,0.4988888888888889,-0.6111111111111112,-0.0016055965935076737,0.0,-0.000555631917993898
1589997445.105664,3.693630551354324,-0.6663694486456758,8.899108345937028,-0.3566666666666667,0.4988888888888889,-0.6111111111111112,-0.0011880951524193147,-0.0006947990650233511,-0.0006947990650233511
1589997445.115664,3.699139653414883,-0.6608603465851173,8.923709480122325,-0.3566666666666667,0.4988888888888889,-0.6111111111111112,0.000498490764315149,-0.003084793839757052,-0.001589321546811605
1589997445.125664,3.71,-0.65,8.941824311081493,-0.3580855752856067,0.4978753827325032,-0.613746227117714,0.001090830782496456,-0.005255152444027946,-0.002181661564992912
1589997445.135664,3.7143940151704595,-0.6543940151704593,8.95,-0.3644444444444445,0.4933333333333334,-0.6255555555555555,0.0020494561838351353,-0.0034046977286471443,-0.002181661564992912
1589997445.145664,3.725442341788183,-0.6545576582118176,8.906461265694539,-0.3644444444444445,0.4933333333333334,-0.6255555555555555,0.0014914901620644817,0.00019300801557360333,-0.002775328960134541
1589997445.155664,3.716326383226558,-0.6773472335468841,8.883673616773443,-0.3644444444444445,0.4933333333333334,-0.6255555555555555,-0.0014915602084530457,0.002181661564992912,-0.00028937193058327674
1589997445.165664,3.71,-0.6786417330717175,8.941112201177273,-0.3644444444444445,0.4933333333333334,-0.6255555555555555,-0.0009426668448747053,0.0034206562851111185,0.001090830782496456
1589997445.175664,3.71,-0.6654310460889468,8.98,-0.3644444444444445,0.4958716410616963,-0.6255555555555555,0.0,0.002369740901992032,9.403966849955993e-05
1589997445.185664,3.71,-0.66,8.97441748489426,-0.3644444444444445,0.4988888888888889,-0.6255555555555555,0.0,0.0,-0.001090830782496456
1589997445.195664,3.71,-0.6420092835346198,8.9100309451154,-0.3644444444444445,0.4988888888888889,-0.6255555555555555,0.0,-0.0006541609106534169,-0.001090830782496456
1589997445.205664,3.71,-0.6553389485124304,8.914343159896752,-0.3644444444444445,0.4988888888888889,-0.6255555555555555,0.0006910126258362959,0.0002911944691761359,-0.00039981815666016
1589997445.215664,3.6988563819371008,-0.6755718090314495,8.945571809031449,-0.3644444444444445,0.4988888888888889,-0.6255555555555555,0.0016986208630661434,0.00048304070192676846,0.0006077900805696875
1589997445.225664,3.7079369007114136,-0.6560841323847819,8.955978966903805,-0.3644444444444445,0.49158126267312785,-0.616919270027838,0.0015294574503731625,-0.001956612343859248,0.00043862666787670664
1589997445.235664,3.7331825738425453,-0.6663651476850904,8.927043565393637,-0.3644444444444445,0.4866666666666667,-0.6111111111111112,0.0003718329154974142,-0.0025534944804903262,-0.0007189978669990418
1589997445.245664,3.7155262202866997,-0.6738815550716749,8.867170885501723,-0.3644444444444445,0.4866666666666667,-0.6111111111111112,0.0006674188068826416,-0.0015142427581102704,-0.001090830782496456
1589997445.2556639,3.7122212925136586,-0.67,8.870553231284147,-0.3644444444444445,0.4866666666666667,-0.6111111111111112,-0.00024230542508276343,0.00024230542508276343,0.00024230542508276343
1589997445.2656639,3.708383355060441,-0.666127785020147,8.928722149798531,-0.3644444444444445,0.4866666666666667,-0.6111111111111112,-0.0006684376528496964,0.00024604452320293676,0.0006684376528496964
1589997445.2756639,3.6902255345715624,-0.66,8.989548930856875,-0.36459480082548607,0.48694232003190957,-0.6112614674921527,0.0,-0.0010662287771787194,0.0
1589997445.2856638,3.7049024899878114,-0.6550975100121887,8.974902489987812,-0.3711111111111111,0.4988888888888889,-0.6177777777777778,-0.0005347786989585185,0.001069557397917037,-0.0005347786989585185
1589997445.2956638,3.719890658281773,-0.6598906582817731,8.930546708591136,-0.3711111111111111,0.4988888888888889,-0.6177777777777778,-0.0016302825081420307,2.3854662410613143e-05,-0.0016302825081420307
1589997445.3056638,3.719485796624125,-0.6664952655413751,8.90102840675175,-0.3711111111111111,0.4988888888888889,-0.6177777777777778,-0.0017993543417984975,-0.0002701254490208389,-0.001034739895409668
1589997445.3156638,3.7028346521145976,-0.6628346521145976,8.945669304229195,-0.3711111111111111,0.4988888888888889,-0.6177777777777778,0.00045523210963938033,0.002035642033780699,0.00016319304721495401
1589997445.3256638,3.7169495468746536,-0.6630504531253463,8.973899093749308,-0.36416156423645735,0.49695845920148507,-0.6285881840272391,0.003605245164458385,-0.0014698697652601755,-0.002181661564992912
1589997445.3356638,3.717817466766341,-0.6540608444112198,8.959391555887802,-0.3511111111111111,0.4933333333333334,-0.6488888888888888,0.002624630973661639,-0.0012957227476554582,-0.002181661564992912
1589997445.3456638,3.7126134607527934,-0.6515910261648046,8.878977565412011,-0.3511111111111111,0.4933333333333334,-0.6488888888888888,0.0023552155966255167,0.0004586383754319255,-0.001264384814129061
1589997445.3556638,3.7237071061875167,-0.6431464469062416,8.862585787624965,-0.3511111111111111,0.4933333333333334,-0.6488888888888888,0.001090830782496456,0.0007476066684145529,-0.000343224114081903
1589997445.3656638,3.71,-0.6457335408989694,8.915598754606183,-0.3511111111111111,0.4933333333333334,-0.6488888888888888,0.0001600337985631883,0.0018615939678665353,-0.0006254322905298222
1589997445.3756638,3.7058165358689634,-0.6525503923931095,8.983467713048292,-0.35343525785057583,0.4956574800727981,-0.6419164486704947,-0.0015471759276568966,0.002081597404183621,-0.0009126902903208811
1589997445.3856637,3.7,-0.67,8.996345383397,-0.3566666666666667,0.4988888888888889,-0.6322222222222222,-0.0015698033689317652,0.00013288560962583778,-0.0015698033689317652
1589997445.3956637,3.7,-0.6649690631808279,8.91969063180828,-0.3566666666666667,0.4988888888888889,-0.6322222222222222,0.0005555394416478683,-6.749366933093623e-06,-0.0005420407077816812
1589997445.4056637,3.7107397429421343,-0.66,8.891479485884268,-0.3566666666666667,0.4988888888888889,-0.6322222222222222,0.0004243752353861024,-0.0022623550022343292,0.0
1589997445.4156637,3.7117958308478567,-0.66,8.926408338304286,-0.3566666666666667,0.4988888888888889,-0.6322222222222222,-0.0006433627696981613,-0.0023775563218927783,0.0004474680127982947
1589997445.4256637,3.7,-0.6660860679005337,8.962172135801067,-0.3582445361223606,0.497761839277679,-0.6265869741661726,0.0002212956736755234,-0.0002056480877943624,0.0002056480877943624
1589997445.4356637,3.7,-0.6744774270280985,9.004825809009366,-0.3644444444444445,0.4933333333333334,-0.6044444444444445,0.0005264141017865349,-0.00011400773677015851,-0.0015792423053596048
1589997445.4456637,3.704711939766364,-0.6552880602336361,8.943456722803633,-0.3644444444444445,0.4933333333333334,-0.6044444444444445,0.0,-0.0012165207705217814,0.0010279857884837934
1589997445.4556637,3.719916419679905,-0.65,8.909749259039716,-0.3644444444444445,0.4933333333333334,-0.6044444444444445,0.0,0.0005499739905467461,0.002181661564992912
1589997445.4656637,3.7254115979903197,-0.6454115979903197,8.94458840200968,-0.3644444444444445,0.4933333333333334,-0.6044444444444445,0.0,0.0005005170154627904,0.0011806275340673312
1589997445.4756637,3.7147090348989327,-0.64,8.955290965101067,-0.3679717545118229,0.49156967829964415,-0.6079717545118228,0.0,0.001090830782496456,0.0008657321402038591
1589997445.4856637,3.7,-0.6509735609491736,8.967256609762707,-0.37777777777777777,0.4866666666666667,-0.6177777777777778,-0.0005985149038479761,0.0004923158786484798,0.002075462539793416
1589997445.4956636,3.711857992400361,-0.6681420075996388,8.928378686932371,-0.37777777777777777,0.4866666666666667,-0.6177777777777778,-0.0008881552521006041,-0.0019531683244246615,-0.0006596620115323533
1589997445.5056636,3.73,-0.6577142857142857,8.887714285714287,-0.37777777777777777,0.4866666666666667,-0.6177777777777778,0.0002493327502849041,-0.002150494971207299,0.0008414980322115519
1589997445.5156636,3.7224369502418124,-0.6762184751209063,8.92890762439547,-0.37777777777777777,0.4866666666666667,-0.6177777777777778,-0.001356660816414577,0.0006783304082072885,0.0016224908503326982
1589997445.5256636,3.708664309131764,-0.671335690868236,8.962671381736472,-0.37688731719895385,0.4882991777278439,-0.6177777777777778,0.00029140254299422767,-0.00014570127149711383,-0.0007994282395022283
1589997445.5356636,3.7,-0.68,8.97605988664314,-0.3711111111111111,0.4988888888888889,-0.6177777777777778,0.0017518618713740538,0.0006283679919789765,0.001090830782496456
1589997445.5456636,3.7038706558216257,-0.6722586883567488,8.939034753426995,-0.3711111111111111,0.4988888888888889,-0.6177777777777778,0.0019352768862321234,0.002428046243753701,0.0006686077306286224
1589997445.5556636,3.705356711829671,-0.664643288170329,8.894643288170329,-0.3711111111111111,0.4988888888888889,-0.6177777777777778,0.0012464756802107405,-0.00042868171796251494,0.0
