time,acc_x,acc_y,acc_z,mag_x,mag_y,mag_z,gyr_x,gyr_y,gyr_z
1589997473.6354802,-3.95,-0.83,8.94,0.33,-0.3377777777777778,-0.5955555555555555,0.001090830782496456,0.002181661564992912,0.002181661564992912
1589997473.6454802,-3.9328415389965024,-0.8471584610034977,8.991475383010494,0.33,-0.3377777777777778,-0.5955555555555555,-0.00358841357822363,0.0012458126928488948,0.003117510437136929
1589997473.6554801,-3.9482417283905904,-0.8682417283905902,8.996483456781181,0.31555555555555553,-0.3233333333333333,-0.6088888888888889,-0.007060422438815052,0.003272492347489368,0.002565256924099672
1589997473.6654801,-3.9406459733062893,-0.8606459733062894,8.98129194661258,0.31555555555555553,-0.3233333333333333,-0.6088888888888889,-0.004574717400137304,0.003272492347489368,0.004222393616551504
1589997473.6754801,-3.94,-0.869443842897923,8.857230042327,0.31555555555555553,-0.3233333333333333,-0.6088888888888889,-0.003333159676174327,0.005332819255112362,0.003333159676174327
1589997473.68548,-3.95,-0.87,8.86768622851478,0.31555555555555553,-0.3233333333333333,-0.6088888888888889,-0.0009710540015646903,-0.0041237695681222925,0.0050948235696869825
1589997473.69548,-3.95,-0.87,8.908681076250716,0.31555555555555553,-0.3233333333333333,-0.6088888888888889,-0.00033221911822020275,-0.0028460998014333177,0.00317831891965352
1589997473.70548,-3.942665500783328,-0.8773344992166722,8.959337996866688,0.31066588941110745,-0.3143689454018452,-0.614593499390745,0.0,-0.005381940572889753,-0.002618756946852351
1589997473.71548,-3.948232669451994,-0.88,8.925581673629983,0.3088888888888889,-0.3111111111111111,-0.6166666666666667,0.006128904410096351,-0.009594182614046882,-0.004652501914677569
1589997473.72548,-3.931219324220176,-0.88,8.883048310550441,0.3088888888888889,-0.3111111111111111,-0.6166666666666667,0.01262444265233344,-0.01794558892549457,-0.007436304018493465
1589997473.73548,-3.93,-0.88,8.919196480702249,0.3088888888888889,-0.3111111111111111,-0.6166666666666667,0.021641314933065748,-0.026240334291237198,-0.011056353694718503
1589997473.74548,-3.939053489586355,-0.8437860416545803,8.957160468759065,0.3088888888888889,-0.3111111111111111,-0.6166666666666667,0.029923772292806274,-0.03527467793577279,-0.01594946865938384
1589997473.75548,-3.94,-0.84,8.96,0.3259275488320872,-0.3326336289340984,-0.6166666666666667,0.03142366534583114,-0.03687781925831341,-0.015482058301516471
1589997473.76548,-3.92,-0.87,8.918561564153563,0.33,-0.3377777777777778,-0.6166666666666667,0.02431021216304463,-0.04176350468298793,-0.02072672640336532
1589997473.77548,-3.92,-0.87,8.855600630464968,0.33,-0.3377777777777778,-0.6166666666666667,0.02602720527710058,-0.043480497797043875,-0.026736202302561136
1589997473.78548,-3.8808725732164717,-0.867382280350584,8.897382280350584,0.33,-0.3377777777777778,-0.6166666666666667,0.03073362785480269,-0.05117386380488247,-0.03547768287459235
1589997473.79548,-3.889023650815244,-0.8429290475542686,8.872929047554267,0.33,-0.3377777777777778,-0.6166666666666667,0.0325119171258542,-0.05028471916935671,-0.0408125506877469
1589997473.80548,-3.8609551124465082,-0.723598971137212,8.817261221888373,0.33,-0.3377777777777778,-0.6166666666666667,0.029952655950862696,-0.04006543597284983,-0.0451235516676134
1589997473.81548,-3.759434728695429,-0.8453572497541368,8.861517937315602,0.33,-0.3377777777777778,-0.6166666666666667,0.012706846969492005,-0.025858477893398263,-0.03429621981049639
1589997473.82548,-3.957719744664049,-0.947719744664049,8.94,0.33,-0.3377777777777778,-0.6166666666666667,-0.019026929644125563,0.028223412971996337,-0.015769105497431823
1589997473.83548,-3.8749139008927984,-0.8649139008927984,8.94,0.33,-0.3377777777777778,-0.6166666666666667,0.003053043620741061,0.023205237229981204,-0.03383453816868633
1589997473.84548,-3.87,-0.8194004150445058,8.865567427581594,0.33,-0.3377777777777778,-0.6166666666666667,0.011744535967658003,-0.011784253904633658,-0.05114525328276539
1589997473.85548,-3.87,-0.8414348777949252,8.91286975558985,0.33,-0.32120382665980773,-0.6046965908592439,0.010751786938182059,-0.014802068294602878,-0.0516731118279793
1589997473.86548,-3.86747967802054,-0.8505753598477338,8.96539712121813,0.33,-0.31777777777777777,-0.6022222222222222,-0.005830726052234615,0.022318711836265565,-0.041702617828033556
1589997473.87548,-3.975584479955589,-0.8588911138427376,8.8988710892581,0.33,-0.31777777777777777,-0.6022222222222222,-0.011273374314685409,0.029575576186199957,-0.04533105000300075
1589997473.88548,-4.0294808801955995,-0.830519119804401,8.921297799511002,0.33,-0.31777777777777777,-0.6022222222222222,-0.0063751031362454975,0.022454428942470274,-0.04091361146554341
1589997473.89548,-4.013072860635696,-0.8469271393643032,8.962317848410759,0.33,-0.31777777777777777,-0.6022222222222222,-0.001005591291521916,0.008135730689874058,-0.023910157290585397
1589997473.90548,-3.987899377593361,-0.872100622406639,8.97,0.32508875057630243,-0.31777777777777777,-0.6071334716459198,0.004018006538915455,-0.004992663088697904,-0.0014393534806384743
1589997473.91548,-3.886983016304348,-0.8392457540760869,8.901703294836956,0.3233333333333333,-0.31777777777777777,-0.6088888888888889,0.009735201575330423,-0.021383988604534124,0.02021088235489999
1589997473.92548,-3.8584891304347826,-0.8321222826086956,8.823345108695653,0.3233333333333333,-0.31777777777777777,-0.6088888888888889,0.008958151379843859,-0.027600390168426636,0.02565023372330593
1589997473.9354799,-3.821959531221388,-0.849346822926204,8.827184947811757,0.3233333333333333,-0.31777777777777777,-0.6088888888888889,0.0030587406499340748,-0.01761786594636681,0.019799527511359723
1589997473.9454799,-3.8450009155832268,-0.8416663614722578,8.911670023805163,0.3233333333333333,-0.31777777777777777,-0.6088888888888889,0.000545315516611486,-0.006726357035302262,0.008908018600295173
1589997473.9554799,-3.8837648889945737,-0.87,8.999058777751356,0.33,-0.31777777777777777,-0.6022222222222222,-0.004465994550184911,0.013333867070049146,-0.006378196694274064
1589997473.9654799,-3.9200494263936942,-0.8699703441637835,8.989861606097657,0.33,-0.31777777777777777,-0.6022222222222222,-0.005456310545750658,0.02617993877991494,-0.015281335804658087
1589997473.9754798,-3.9723006932409013,-0.84,8.853834488734835,0.33,-0.31777777777777777,-0.6022222222222222,-0.007384848776649534,0.025259727543554197,-0.024670830162709056
1589997473.9854798,-3.999560008665511,-0.84,8.899266681109186,0.33,-0.31777777777777777,-0.6022222222222222,-0.0044113187391550245,0.014356784072740993,-0.01971494676688488
1589997473.9954798,-3.9605670680099383,-0.84,8.91126655199716,0.33,-0.31777777777777777,-0.6022222222222222,-0.001290847697210907,0.006192364047239142,-0.009188537613501493
1589997474.0054798,-3.9455552951287163,-0.843888823782179,8.935555295128717,0.31962980324752266,-0.3255554253421358,-0.5961729407832771,0.0006666259135659423,-0.00466625355823565,0.003999627644669708
1589997474.0154798,-3.931970934856482,-0.8595072662858795,8.893449135998845,0.3033333333333333,-0.3377777777777778,-0.5866666666666667,0.0031112456166084482,-0.022369957329489175,0.01925871171288073
1589997474.0254798,-3.8804356322775018,-0.8434785440925006,8.848696360231251,0.3033333333333333,-0.3377777777777778,-0.5866666666666667,0.0005691754461556297,-0.019303023897313924,0.028646010422715334
1589997474.0354798,-3.8353078501129607,-0.8486730374717598,8.8833651873588,0.3033333333333333,-0.3377777777777778,-0.5866666666666667,-0.0009460816251940879,-0.015705878426857486,0.03716583328625939
1589997474.0454798,-3.8001000507356673,-0.8649499746321664,8.927374936580415,0.3033333333333333,-0.3377777777777778,-0.5866666666666667,-0.004352409287758107,-0.0071176846917962566,0.03491749888211431
1589997474.0554798,-3.8649634480062547,-0.8642335809225957,8.963065676309617,0.3103811788723829,-0.3294485057770828,-0.6078102032838154,-0.00859924762968595,0.0031849017913029836,0.02186439813201619
1589997474.0654798,-3.92,-0.86,8.98,0.31555555555555553,-0.3233333333333333,-0.6233333333333333,-0.014473346347828995,0.01942176182856495,0.005068632713512494
1589997474.0754797,-3.92,-0.86,8.901643213799364,0.31555555555555553,-0.3233333333333333,-0.6233333333333333,-0.015271630954950384,0.030364015090443792,0.006121625494327592
1589997474.0854797,-3.937454516690397,-0.8774545166903971,8.877454516690397,0.31555555555555553,-0.3233333333333333,-0.6233333333333333,-0.012415642340027887,0.033002592629938265,0.006683819272501026
1589997474.0954797,-3.94,-0.8736653471177125,8.90533861152915,0.31555555555555553,-0.3233333333333333,-0.6233333333333333,-0.013381145479546837,0.03203392003885077,0.005162977822892913
1589997474.1054797,-3.94,-0.8622015089217995,8.9122015089218,0.31555555555555553,-0.3233333333333333,-0.6120688462203772,-0.011628749934916412,0.021425891742247162,0.0077660567800358436
1589997474.1154797,-3.930312217435243,-0.8503122174352428,8.958438912823787,0.31555555555555553,-0.3233333333333333,-0.6088888888888889,-0.004567668963502792,0.00797639186667014,0.007669873116394686
1589997474.1254797,-3.9202466507177034,-0.8597533492822966,8.891726555023924,0.31555555555555553,-0.3233333333333333,-0.6088888888888889,-0.0011715470411151527,0.0012522632997338497,0.005507964751561411
1589997474.1354797,-3.8955656865282395,-0.8355656865282395,8.906289542314507,0.31555555555555553,-0.3233333333333333,-0.6088888888888889,-0.001979287491968595,0.001090830782496456,0.009007980750370837
1589997474.1454797,-3.904441468758992,-0.8372207343794957,8.931662203138487,0.31555555555555553,-0.3233333333333333,-0.6088888888888889,-0.003756981431669806,0.005029130449188691,0.006666837309114316
1589997474.1554797,-3.9361703217188024,-0.8596277412891016,8.966170321718803,0.3206442292231004,-0.3276950536198004,-0.5943498212673322,-0.007931747194823948,0.007972354320913984,0.003313099473579406
1589997474.1654797,-3.93,-0.8899625957239609,8.909625957239609,0.3233333333333333,-0.33,-0.5866666666666667,-0.009813396868898058,0.008718485912831551,0.002173501217852816
1589997474.1754797,-3.93,-0.8806794741268646,8.816794741268648,0.3233333333333333,-0.33,-0.5866666666666667,-0.008800765389321038,0.006693222953677514,0.00014823825869877917
1589997474.1854796,-3.93993582490958,-0.8898074747287397,8.84009626263563,0.3233333333333333,-0.33,-0.5866666666666667,-0.001090830782496456,-0.006537984278568761,-0.0011013314071114176
1589997474.1954796,-3.924376889548363,-0.8431306686450895,8.863434665677454,0.3233333333333333,-0.33,-0.5866666666666667,-0.001090830782496456,-0.004840767715079979,-0.0036471562523445918
1589997474.2054796,-3.92,-0.8426371392038904,8.914229987213616,0.31841889030959813,-0.32578762026536984,-0.5922831729795068,-0.005226324916385382,-0.004363323129985824,-0.004363323129985824
1589997474.2154796,-3.900488976031371,-0.8207334640470569,8.94,0.31555555555555553,-0.3233333333333333,-0.5955555555555555,-0.010828299308926145,-0.0032991618528355063,-0.0032991618528355063
1589997474.2254796,-3.9,-0.8389944852941176,8.873519301470587,0.31555555555555553,-0.3233333333333333,-0.5955555555555555,-0.01816022706473948,0.006051403817935531,-0.008452434661614314
1589997474.2354796,-3.932381689337786,-0.8561908446688931,8.942858801010019,0.31555555555555553,-0.3233333333333333,-0.5955555555555555,-0.022959491242301545,0.01007727904686817,-0.009609719847944008
1589997474.2454796,-3.929082442799236,-0.8763763358011457,8.96,0.31555555555555553,-0.3233333333333333,-0.5955555555555555,-0.02280735646849613,0.013885609691029305,-0.01517662040138465
1589997474.2554796,-3.9261857691024358,-0.8714426926926927,8.953814230897564,0.311431709487265,-0.32745717940162383,-0.5900570941311681,-0.019117564709788155,0.015687699002411598,-0.02300876776011241
1589997474.2654796,-3.9421215929040008,-0.8842431858080015,8.925756814191999,0.3088888888888889,-0.33,-0.5866666666666667,-0.018114422853572024,0.017255021955836575,-0.026411368664675947
1589997474.2754796,-4.021845344066878,-0.9,8.878068735970276,0.3088888888888889,-0.33,-0.5866666666666667,-0.015060962729675309,0.013319382443293091,-0.01769207798730919
1589997474.2854795,-3.9563522816852066,-0.8871311202592626,8.889303319611106,0.3088888888888889,-0.33,-0.5866666666666667,-0.009267580617349412,0.002172699497251983,-0.004041414828997206
1589997474.2954795,-3.91,-0.8690053982481157,8.9,0.3088888888888889,-0.33,-0.5866666666666667,-0.004146334688529766,-0.0068704673571628235,-0.00021698844145605833
1589997474.3054795,-3.9207769534894052,-0.886942383723513,8.910776953489405,0.32026456201659437,-0.334191037468102,-0.5986410594326724,-0.002181661564992912,-0.008054102151301739,-0.0015938699346041236
1589997474.3154795,-3.93,-0.91,8.92,0.33,-0.3377777777777778,-0.6088888888888889,0.0014262220708686482,-0.0020351301501517847,-0.001090830782496456
1589997474.3254795,-3.9211878582839956,-0.91,8.875939291419979,0.33,-0.3377777777777778,-0.6088888888888889,0.006987939286762139,-0.002052086326850301,-0.0001295752381426107
1589997474.3354795,-3.928539052733923,-0.9014609472660772,8.946851474605307,0.33,-0.3377777777777778,-0.6088888888888889,0.00949874779257991,-0.006838992352754704,0.0
1589997474.3454795,-3.951766203090957,-0.892744598969681,8.996277005151596,0.33,-0.3377777777777778,-0.6088888888888889,0.012191801477436667,-0.013967347304058029,0.0
1589997474.3554795,-3.9794718839786563,-0.8510562320426871,9.019735941989328,0.30403748802845804,-0.3377777777777778,-0.6088888888888889,0.018400101999236973,-0.029106779999717655,0.004248106087423605
1589997474.3654795,-3.937584530113531,-0.8584830939772938,8.994550718068119,0.3033333333333333,-0.3377777777777778,-0.6088888888888889,0.023170933323060933,-0.033153879143901256,0.006214047138234298
1589997474.3754795,-3.881468668865343,-0.8438228896217809,8.81205178583959,0.3033333333333333,-0.3377777777777778,-0.6088888888888889,0.021351303719061392,-0.03205110526014971,0.003898011199118098
1589997474.3854795,-3.8768342979722346,-0.84,8.790502893916704,0.3033333333333333,-0.3377777777777778,-0.6088888888888889,0.014016228523052721,-0.024179030087530622,0.004763504868462687
1589997474.3954794,-3.8841075779346537,-0.8441075779346535,8.820537889673268,0.3033333333333333,-0.3377777777777778,-0.6088888888888889,0.008667971598652884,-0.015348977924284642,0.004109952176695275
1589997474.4054794,-3.8933420551855376,-0.85,8.86169719314938,0.3077894069140501,-0.33536407125488954,-0.6113025954117771,0.00436046891052639,-0.006542130475519302,0.001999380731333597
1589997474.4154794,-3.90080450681953,-0.8362067602292943,8.897011267048823,0.33,-0.3233333333333333,-0.6233333333333333,-0.0025954398357204665,-0.001090830782496456,0.0025954398357204665
1589997474.4254794,-3.9035648093841644,-0.82,8.842870381231672,0.33,-0.3233333333333333,-0.6233333333333333,-0.010282087783963074,0.0026083971262393256,0.0036234775482386675
1589997474.4354794,-3.9040461978596404,-0.8259538021403595,8.859769010701799,0.33,-0.3233333333333333,-0.6233333333333333,-0.020883478167074452,0.010208454712823558,0.004571410477008864
1589997474.4454794,-3.9109057047076012,-0.8463585570614022,8.956339932953211,0.33,-0.3233333333333333,-0.6233333333333333,-0.03331770581983588,0.02072375329238145,0.00545415391248228
1589997474.4554794,-3.9469404835709856,-0.8330595164290143,9.025388096714197,0.3329933870634429,-0.316747881793759,-0.6197412688572019,-0.0433841593983124,0.0297064398328635,0.007217404438956557
1589997474.4654794,-3.9401925048410984,-0.7876443786308236,9.04490374757945,0.33555555555555555,-0.3111111111111111,-0.6166666666666667,-0.042028483657080964,0.02297044349436039,0.020919746235638262
1589997474.4754794,-3.8972907044214926,-0.7881773238946269,8.960049437159103,0.33555555555555555,-0.3111111111111111,-0.6166666666666667,-0.031440662329666046,-0.0008812221472802965,0.042929261242824146
1589997474.4854794,-3.827085909384516,-0.6405790347882255,8.908542954692258,0.33555555555555555,-0.3111111111111111,-0.6166666666666667,-0.020873852790386643,-0.022611310586517615,0.07778860566061122
1589997474.4954793,-3.7541037870294716,-0.8919024455127597,8.94968552264047,0.33555555555555555,-0.3111111111111111,-0.6166666666666667,-0.00770442379430996,-0.0272707695624114,0.1186947303416094
1589997474.5054793,-4.18546544428773,-1.389437069609226,8.706196797477807,0.3244006102676143,-0.3222660563990523,-0.5973990338965863,0.04868799616039021,-0.007359238785256725,0.06784957511815082
1589997474.5154793,-4.23,-1.42,8.68,0.3233333333333333,-0.3233333333333333,-0.5955555555555555,0.05345070834232633,-0.00545415391248228,0.061086523819801536
1589997474.5254793,-3.9936977432482426,-0.9799889012208657,8.867412134665187,0.3233333333333333,-0.3233333333333333,-0.5955555555555555,0.0063417907256901745,0.02476666116234092,-0.045575176444280344
1589997474.5354793,-3.8127882741040637,-0.6001342030289398,8.776427687809266,0.3233333333333333,-0.3233333333333333,-0.5955555555555555,-0.011995478787584217,0.04134774534752246,-0.06356867908719267
1589997474.5454793,-3.812765819987079,-0.5817018599748376,8.830212519976877,0.3233333333333333,-0.3233333333333333,-0.5955555555555555,-0.03349079358258135,0.07113604674534277,-0.045791710531583776
1589997474.5554793,-3.951587082366078,-0.8249449031765156,9.06656871675825,0.3233333333333333,-0.3224108084458941,-0.5990611501278246,-0.05420330497311105,0.0993056687478939,-0.0169299142760891
1589997474.5654793,-3.9302570847781895,-0.8554008728925027,9.058093686476145,0.3233333333333333,-0.31777777777777777,-0.6166666666666667,0.0038055489898865223,0.018187643507083677,0.02105089496253878
1589997474.5754793,-3.6891977096222193,-0.7246827695142819,8.770167829406345,0.3233333333333333,-0.31777777777777777,-0.6166666666666667,0.016012396521213283,0.0022325631725215386,0.020058248694229293
1589997474.5854793,-3.541063156380377,-0.7698407902939625,8.831330264230566,0.3233333333333333,-0.31777777777777777,-0.6166666666666667,0.004119608527019776,0.01794072172587539,-0.01696026609089092
1589997474.5954792,-3.3997917497010763,-0.8472618573136708,8.85389896373057,0.3233333333333333,-0.31777777777777777,-0.6166666666666667,0.01521315477310671,0.02352753308190169,-0.07955912792586001
1589997474.6054792,-3.3510189907759087,-0.8744905046120456,8.793471513836137,0.3198407186350756,-0.32326617230361127,-0.6166666666666667,0.03528526845531862,0.028785503224139516,-0.16414274719920927
1589997474.6154792,-3.3489221324215106,-0.8666168013677339,8.832305331053776,0.31555555555555553,-0.33,-0.6166666666666667,0.033195231928522084,0.03551078898783836,-0.2442251697188058
1589997474.6254792,-3.3545322774936315,-0.9046772250636861,8.909209502557317,0.31555555555555553,-0.33,-0.6166666666666667,0.01941506031476452,0.03371371303586748,-0.3187036863461196
1589997474.6354792,-2.9277366041651227,-0.9922263395834877,8.879622767360853,0.31555555555555553,-0.33,-0.6166666666666667,0.019676103782430517,0.04807885382483268,-0.3706827808762785
1589997474.6454792,-2.2318611936701744,-1.0590868342838782,8.964535946662382,0.31555555555555553,-0.33,-0.6166666666666667,0.026477141755902694,0.07893445716858308,-0.41818174398777286
1589997474.6554792,-1.8629447775588075,-1.0313329699358464,8.911221434861002,0.3308148955698119,-0.33,-0.6166666666666667,0.04193644948350238,0.09239939111132354,-0.5162117805936645
1589997474.6654792,-1.7349875940293804,-0.98,8.843753101492654,0.3422222222222222,-0.33,-0.6166666666666667,0.05126904677733343,0.06340284763077669,-0.6295502101759863
1589997474.6754792,-1.6672148196295091,-0.98,8.728583685407864,0.3422222222222222,-0.33,-0.6166666666666667,0.03503101845056461,0.042592173881632986,-0.722797735198845
1589997474.6854792,-1.7910658409387223,-0.9879332743527659,8.822798938349786,0.3422222222222222,-0.33,-0.6166666666666667,0.025125501192410978,0.06199538862733555,-0.7815726874995287
1589997474.6954792,-1.8767374182810275,-0.9956737418281028,8.877021225484308,0.3422222222222222,-0.33,-0.6166666666666667,0.03018736945295422,0.06391805317196096,-0.8204129723873751
1589997474.7054791,-1.9613893768090844,-1.008277875361817,8.91897256376636,0.3394629304349499,-0.3249412983900008,-0.619425958453939,0.03490658503988659,0.06514991638605401,-0.8633413030443603
1589997474.7154791,-2.0436524443580524,-1.014086888910487,8.96,0.33555555555555555,-0.31777777777777777,-0.6233333333333333,0.0381316868382676,0.07412910266065065,-0.9204812659709978
1589997474.7254791,-2.0793422441083362,-1.0293422441083362,8.882631023566654,0.33555555555555555,-0.31777777777777777,-0.6233333333333333,0.04317395432249339,0.07354493940462738,-0.9708539766433494
1589997474.735479,-2.1403058387395735,-1.0651529193697868,8.881921532282977,0.33555555555555555,-0.31777777777777777,-0.6233333333333333,0.042437597189170125,0.07336671058067683,-1.0079562870231764
1589997474.745479,-2.2194499787402053,-1.1037799914960822,8.951339974488246,0.33555555555555555,-0.31777777777777777,-0.6233333333333333,0.03906374161579736,0.07567965710040558,-1.0438574078602894
1589997474.755479,-2.2687303557448106,-1.1258202371632073,8.985449407091982,0.3433158717731652,-0.31583769872337536,-0.6191298287154614,0.03849652208032878,0.07935365371496526,-1.0937110931721006
1589997474.765479,-2.291663556569217,-1.1499813394153016,8.925046651461745,0.3622222222222222,-0.3111111111111111,-0.6088888888888889,0.03999577165552284,0.08490129960929012,-1.132449569224588
1589997474.775479,-2.3070435006028025,-1.2035217503014013,8.761260746684586,0.3622222222222222,-0.3111111111111111,-0.6088888888888889,0.0417124144813409,0.08867979743730245,-1.189223775131553
1589997474.785479,-2.3673756411785756,-1.220932840271979,8.755597041631873,0.3622222222222222,-0.3111111111111111,-0.6088888888888889,0.040166723838841234,0.08806152118030258,-1.2372341187174598
1589997474.795479,-2.4118137687555166,-1.2447732789055606,8.874773278905561,0.3622222222222222,-0.3111111111111111,-0.6088888888888889,0.053005542514385655,0.0878860722956215,-1.2845795512115352
1589997474.805479,-2.3496599458320797,-1.3059351489617816,8.920680108335842,0.365612231250209,-0.3037660915504731,-0.6088888888888889,0.051065028922587255,0.10503505544063114,-1.3295575235648676
1589997474.815479,-2.3396953113196464,-1.3842382782991154,8.989085933958938,0.3688888888888889,-0.2966666666666667,-0.6088888888888889,0.03715471936320115,0.10581357076706158,-1.377450402394832
1589997474.825479,-2.3365809247405878,-1.4010539498270582,8.993161849481176,0.3688888888888889,-0.2966666666666667,-0.6088888888888889,0.04271348656820854,0.0965371581645988,-1.4225555762941597
1589997474.835479,-2.3007198844884487,-1.402853410341034,8.979280115511552,0.3688888888888889,-0.2966666666666667,-0.6088888888888889,0.06147345973886776,0.14094135226828608,-1.4708996577794184
1589997474.845479,-2.3236318553092183,-1.429218203033839,8.831449824970829,0.3688888888888889,-0.2966666666666667,-0.6088888888888889,0.06811296329130219,0.10737587079687619,-1.5098199043317881
1589997474.855479,-2.3775487210718635,-1.4763230816077955,8.771141900121803,0.38058803627013127,-0.2908170929760455,-0.6069390309920152,0.05194666395038239,0.07200695567751918,-1.5486515318474319
1589997474.865479,-2.412522043053459,-1.551216935419811,9.066172849312892,0.4088888888888889,-0.2766666666666667,-0.6022222222222222,0.02177814326392321,0.12013375123273563,-1.5933901886215667
1589997474.875479,-2.3852260200530484,-1.589698639929269,8.834219040990236,0.4088888888888889,-0.2766666666666667,-0.6022222222222222,0.061897931686794416,0.1172560907973248,-1.63165273762546
1589997474.885479,-2.3563526085370303,-1.61,8.645531740240788,0.4088888888888889,-0.2766666666666667,-0.6022222222222222,0.06583448319615103,0.1257494550208635,-1.6645226420629997
1589997474.895479,-2.3355302000930664,-1.6546979990693347,8.827046998604002,0.4088888888888889,-0.2766666666666667,-0.6022222222222222,0.048971713495860617,0.12453626730337836,-1.701423683546298
1589997474.905479,-2.34456884230586,-1.7585628076861999,8.94885024614896,0.4218389709385421,-0.2637165846170134,-0.6092368499991178,0.0533566443253507,0.12662714341212153,-1.7388123305972332
1589997474.915479,-2.3539712152409478,-1.8401439237952621,8.887510659096108,0.4355555555555555,-0.25,-0.6166666666666667,0.06593013828452352,0.12580023411686406,-1.7829762881870481
1589997474.925479,-2.35,-1.8774748891041655,8.802525110895834,0.4355555555555555,-0.25,-0.6166666666666667,0.0700886169492125,0.1278807350310029,-1.824016177262831
1589997474.935479,-2.3438647980610017,-1.92681121163399,8.82681121163399,0.4355555555555555,-0.25,-0.6166666666666667,0.06537610573133106,0.1340984450286078,-1.8674229826683941
1589997474.945479,-2.3447096350843935,-1.9782578105063613,8.859419270168786,0.4355555555555555,-0.25,-0.6166666666666667,0.06429566836967081,0.13712793960645298,-1.9064693870386595
1589997474.955479,-2.354391379720589,-2.0143913797205886,8.86560862027941,0.45019348795751796,-0.23292241219771048,-0.6195942531470592,0.06544984694978735,0.14194078207166594,-1.9510223245086191
1589997474.965479,-2.3557182524990745,-2.0456904850055535,8.877126990003703,0.4688888888888889,-0.2111111111111111,-0.6233333333333333,0.06498278075209867,0.14445370052355233,-1.993710128810941
1589997474.975479,-2.343217317246274,-2.09130447125621,8.859303903477644,0.4688888888888889,-0.2111111111111111,-0.6233333333333333,0.06534551738538052,0.14870394128844724,-2.0274087091902953
1589997474.9854789,-2.32,-2.142537466376329,8.738806199564493,0.4688888888888889,-0.2111111111111111,-0.6233333333333333,0.07008996472305812,0.14788085663675185,-2.0700876144031146
1589997474.9954789,-2.3067262760847735,-2.17,8.766726276084773,0.4688888888888889,-0.2111111111111111,-0.6233333333333333,0.07395442562596784,0.15191506649990916,-2.1019919035977517
1589997475.0054789,-2.279785755010745,-2.2026191833691504,8.76261918336915,0.4855609159442325,-0.19371421331423083,-0.6280449931533217,0.07600233468156226,0.1530721296426935,-2.136703797881282
1589997475.0154788,-2.3034714785353927,-2.3151292209601038,8.83,0.52,-0.15777777777777774,-0.6377777777777778,0.07526732399225547,0.1545644994614367,-2.169735825937314
1589997475.0254788,-2.3044303459329503,-2.427848270335248,8.774303459329504,0.52,-0.15777777777777774,-0.6377777777777778,0.07769754403393316,0.161456796990768,-2.2043619764925304
1589997475.0354788,-2.262712479168709,-2.4686437604156457,8.773502107636507,0.52,-0.15777777777777774,-0.6377777777777778,0.07827483460471628,0.1651283726806988,-2.2337807882368894
1589997475.0454788,-2.2240536419988364,-2.501261810668218,8.805315452667054,0.52,-0.15777777777777774,-0.6377777777777778,0.07744898555724837,0.16413562221775227,-2.2571060951011708
1589997475.0554788,-2.050522001588562,-2.4668406671961876,8.857252740270056,0.5245940164151444,-0.12824481510899302,-0.6377777777777778,0.08067053203499129,0.16620185455666273,-2.2839449291988463
1589997475.0654788,-1.9599043335312114,-2.483078222749897,8.730765331750309,0.5277777777777778,-0.10777777777777778,-0.6377777777777778,0.09014055937670461,0.17233039244863857,-2.3139252581306757
1589997475.0754788,-1.978461050079843,-2.526152913788791,8.656922677338054,0.5277777777777778,-0.10777777777777778,-0.6377777777777778,0.0921333429529976,0.1733582521602446,-2.326574059749592
1589997475.0854788,-2.067225888373704,-2.6956130596225254,8.72954845412394,0.5277777777777778,-0.10777777777777778,-0.6377777777777778,0.07452835785949513,0.16103476259479288,-2.359143282172571
1589997475.0954788,-2.032617667871555,-2.823691166064222,8.761073498192667,0.5277777777777778,-0.10777777777777778,-0.6377777777777778,0.07142374510623724,0.16859190613937822,-2.399406614537421
1589997475.1054788,-2.0005309159064395,-2.8397345420467803,8.809203626140341,0.5277777777777778,-0.10777777777777778,-0.6377777777777778,0.0784239884570126,0.171216997395919,-2.4212823750085937
1589997475.1154788,-1.9735020419560891,-2.903628573423156,8.793502041956089,0.5666666666666667,-0.04,-0.6733333333333333,0.0858350256262597,0.18180052960210163,-2.448997921356082
1589997475.1254787,-1.9859096622152397,-2.9640903377847607,8.809040848389632,0.5666666666666667,-0.04,-0.6733333333333333,0.08927734445147173,0.18124868960764937,-2.464054432653353
1589997475.1354787,-1.9210493927125505,-3.062098785425101,8.849444534412955,0.5666666666666667,-0.04,-0.6733333333333333,0.08835729338221293,0.18216874067690814,-2.482326856103704
1589997475.1454787,-1.9250009855323846,-3.1199921157409234,8.765032522568692,0.5666666666666667,-0.04,-0.6733333333333333,0.10035406688173697,0.17780627758617212,-2.489820938533442
1589997475.1554787,-1.8354609827769162,-3.1092765896661496,8.61014468206677,0.5689210404592823,-0.014450430350356883,-0.6834780154001034,0.10165831016929817,0.18118838645088728,-2.4933018624680843
1589997475.1654787,-1.7173268875302146,-3.0708488553959903,8.792263614389308,0.5733333333333334,0.03555555555555556,-0.7033333333333334,0.06892133487440498,0.19266199615238308,-2.498755433482877
1589997475.1754787,-1.7480652871528162,-3.174516321788204,8.831293792187672,0.5733333333333334,0.03555555555555556,-0.7033333333333334,0.04862990500146727,0.20683532526267998,-2.4984247980556074
1589997475.1854787,-1.705195630786307,-3.2309129436694333,8.575065210262103,0.5733333333333334,0.03555555555555556,-0.7033333333333334,0.06729237987111623,0.20092395257278725,-2.4936249421146512
1589997475.1954787,-1.694945706929363,-3.3,8.671865741259003,0.5733333333333334,0.03555555555555556,-0.7033333333333334,0.07470414123518912,0.17881225529536224,-2.487082339181374
1589997475.2054787,-1.6334100648085845,-3.2924028756595956,8.784805751319192,0.5661582714562847,0.0672102403072407,-0.7029112708699775,0.06575433851148432,0.18740316000388774,-2.4699281149621335
1589997475.2154787,-1.5672227660467068,-3.3084715424416165,8.76,0.5544444444444444,0.11888888888888888,-0.7022222222222222,0.07167662817500137,0.1904409630939128,-2.436355832363154
1589997475.2254786,-1.55,-3.3561388189695496,8.728633417236539,0.5544444444444444,0.11888888888888888,-0.7022222222222222,0.07080462015925557,0.1870526340223887,-2.40676787204858
1589997475.2354786,-1.50104966840021,-3.38,8.69510496684002,0.5544444444444444,0.11888888888888888,-0.7022222222222222,0.06872233929727672,0.18332827209554636,-2.3767069127432148
1589997475.2454786,-1.43406391808556,-3.36804793856417,8.69398402047861,0.5544444444444444,0.11888888888888888,-0.7022222222222222,0.06698398242681113,0.18042166832953163,-2.3423050661824423
1589997475.2554786,-1.3915349870776068,-3.3394485640443468,8.726378589889134,0.5582546852062081,0.12973342028775472,-0.7063255584271985,0.06349577883179341,0.1796391810019159,-2.3023698519820157
1589997475.2654786,-1.3029487593877747,-3.2773077288715657,8.821794847418957,0.5688888888888889,0.16,-0.7177777777777777,0.057282605345495806,0.17158209260297957,-2.257138676101147
1589997475.2754786,-1.1676462905858878,-3.155881008525304,8.890290948666788,0.5688888888888889,0.16,-0.7177777777777777,0.0436653250333828,0.15736847628121073,-2.2167600001192684
1589997475.2854786,-1.0951925542279883,-3.053751602481924,8.57519255422799,0.5688888888888889,0.16,-0.7177777777777777,0.049255420475692105,0.1680299493202921,-2.130443980413409
1589997475.2954786,-1.1095313060868675,-3.1469534895646376,8.589531306086867,0.5688888888888889,0.16,-0.7177777777777777,0.06176834200388692,0.17115817970234082,-2.0733537759410203
1589997475.3054786,-1.0668943340931294,-3.173980788016933,8.750971182025399,0.5789209088606679,0.16,-0.7328258077354463,0.03447234842914028,0.16383649642421086,-1.9815319456064842
1589997475.3154786,-0.9875701442876795,-3.1624298557123205,8.720280577150719,0.6022222222222222,0.16,-0.7677777777777778,0.033876966695963844,0.16032151880769216,-1.9098004436760505
1589997475.3254786,-0.9768740809137855,-3.179377757258644,8.680622242741356,0.6022222222222222,0.16,-0.7677777777777778,0.02454289055214257,0.16089673836419957,-1.8222934798277262
1589997475.3354785,-0.9661027629665535,-3.1967523024721283,8.663897237033447,0.6022222222222222,0.16,-0.7677777777777778,0.01769387807788604,0.1537643108150918,-1.7609535655144397
1589997475.3454785,-0.8946396240505637,-3.1469279248101127,8.701567548860677,0.6022222222222222,0.16,-0.7677777777777778,9.237121924602493e-05,0.133088230156299,-1.661711641310818
1589997475.3554785,-0.8496891077789015,-3.1485924101842486,8.6668739281474,0.6073776683327714,0.16420073386785494,-0.7702600296087829,-0.01312388247043876,0.11988964683316629,-1.587774836188102
1589997475.3654785,-0.8897127329192547,-3.3155978260869565,9.02745147515528,0.6322222222222222,0.18444444444444444,-0.7822222222222223,-0.008268675184168107,0.11047922308267774,-1.464917987427989
1589997475.3754785,-0.9558982157890449,-3.5030763381582166,9.040434239469896,0.6322222222222222,0.18444444444444444,-0.7822222222222223,0.05046642425279824,0.12050414141812454,-1.3682847458646645
1589997475.3854785,-0.9021138114997036,-3.639609721398933,8.639788500296383,0.6322222222222222,0.18444444444444444,-0.7822222222222223,0.06805545178344416,0.10589573148451494,-1.272896660481675
1589997475.3954785,-0.9157196015349433,-3.722149501918679,8.922878406139773,0.6322222222222222,0.18444444444444444,-0.7822222222222223,-0.0031970402938684946,0.07776297095942747,-1.2097414854449824
1589997475.4054785,-0.8820047427946005,-3.719315943086465,8.849315943086465,0.6085325712432608,0.161347034739957,-0.7650472252624752,0.019192413468323268,0.07061069831330945,-1.1333166715321998
1589997475.4154785,-0.8556405676535356,-3.8,8.85153021776364,0.5433333333333333,0.09777777777777777,-0.7177777777777777,0.027072781239813926,0.07705690568950008,-1.02434249773765
1589997475.4254785,-0.8413071489381284,-3.795653574469064,8.641339361726606,0.5433333333333333,0.09777777777777777,-0.7177777777777777,0.012327158383730455,0.06900751495708034,-0.9427271553605279
1589997475.4354784,-0.8256496043273565,-3.811751978363217,8.617460683161374,0.5433333333333333,0.09777777777777777,-0.7177777777777777,0.022192391174421282,0.062269686768100796,-0.8554260467385262
1589997475.4454784,-0.7692989798587496,-3.7580983520795184,8.598396547214229,0.5433333333333333,0.09777777777777777,-0.7177777777777777,0.02439118173689368,0.0609775263416656,-0.7708130453545268
1589997475.4554784,-0.706814658413837,-3.6770810435587435,8.451065540579625,0.523529402312592,0.13364904906063002,-0.6860167563294189,0.0407275778922684,0.06322944123598594,-0.6895394285848087
1589997475.4654784,-0.747021772077034,-3.766489113961483,8.812881011348093,0.4844444444444445,0.20444444444444448,-0.6233333333333333,0.01655798306463145,0.036541561070961376,-0.6186041166807048
1589997475.4754784,-0.7559865690343801,-3.7385950348500274,8.95438013940011,0.4844444444444445,0.20444444444444448,-0.6233333333333333,-0.020696483045959075,0.007650466388211986,-0.5703912430071083
1589997475.4854784,-0.7313509280288197,-3.607204949487039,8.428819797948156,0.4844444444444445,0.20444444444444448,-0.6233333333333333,0.03305014806483525,0.03452378194360914,-0.49604173663717605
1589997475.4954784,-0.7481559832376222,-3.4693014123855344,8.570186869470744,0.4844444444444445,0.20444444444444448,-0.6233333333333333,0.001988484795967853,0.02732305088254719,-0.4112192822338867
1589997475.5054784,-0.5333307465466397,-2.9289833928294273,8.062418128201148,0.4844444444444445,0.20444444444444448,-0.6233333333333333,-0.0051126661446264125,0.03726466219937917,-0.3622213407437863
1589997475.5154784,-0.7213511017623067,-3.567567401174871,9.902700151348023,0.49,0.2644444444444444,-0.6022222222222222,0.003626635291420696,0.012677175718270128,-0.27450597282794986
1589997475.5254784,-0.6413727942575926,-3.601093015035754,8.622381250169935,0.49,0.2644444444444444,-0.6022222222222222,0.11262101923639493,0.011617307793848373,-0.18440221662992196
1589997475.5354784,-0.73,-3.765935485394479,9.029638699317543,0.49,0.2644444444444444,-0.6022222222222222,-0.03435131670098433,0.0009282635860401595,-0.11965991488399064
1589997475.5454783,-0.73,-3.71,9.41,0.49,0.2644444444444444,-0.6022222222222222,-0.04472406208235469,-0.0643590161672909,-0.09708393964218458
1589997475.5554783,-0.6730167548108973,-3.738256966357051,8.199374250033332,0.4928131589213319,0.27211669604807687,-0.6022222222222222,0.016820735742466127,0.002181661564992912,0.025972738621504655
1589997475.5654783,-0.745379356186497,-3.9792071028392364,8.861380685594911,0.5022222222222222,0.2977777777777777,-0.6022222222222222,-0.02012407220809149,-0.00260666191639192,0.08971505711756224
1589997475.5754783,-0.7554235090751945,-3.9947450302506486,8.62881158167675,0.5022222222222222,0.2977777777777777,-0.6022222222222222,0.0185811285817941,-0.019468548179049753,0.1535851086558742
1589997475.5854783,-0.768909997178595,-4.063601993792909,8.85985798927866,0.5022222222222222,0.2977777777777777,-0.6022222222222222,0.01556113762928547,-0.02072578486743266,0.2006921409643884
1589997475.5954783,-0.7458692600422833,-3.9941307399577166,8.729457589852009,0.5022222222222222,0.2977777777777777,-0.6022222222222222,0.018093529472403204,-0.023606851153502244,0.2402786109923041
1589997475.6054783,-0.7601091343514901,-3.97989086564851,8.68054567175745,0.5023010414760762,0.2980202985588668,-0.6022586003393856,0.019545668752411316,-0.03050754777689081,0.2674440170876848
1589997475.6154783,-0.7772898878591064,-3.962710112140894,8.752898878591063,0.5166666666666667,0.3422222222222222,-0.6088888888888889,0.004159374471680641,-0.024589531964382877,0.31014206586923976
1589997475.6254783,-0.7745267256369547,-3.974526725636955,8.68,0.5166666666666667,0.3422222222222222,-0.6088888888888889,0.004569828027496304,-0.02790820086396207,0.3390193953819817
1589997475.6354783,-0.790663949513542,-3.9890040757296874,8.677676176702603,0.5166666666666667,0.3422222222222222,-0.6088888888888889,-0.0023265128784719312,-0.03370711577228087,0.3654238662049089
1589997475.6454782,-0.8167339699374743,-3.9667339699374744,8.65264847627067,0.5166666666666667,0.3422222222222222,-0.6088888888888889,-0.005810422525358471,-0.032012386249141295,0.405387442751073
1589997475.6554782,-0.8392771019581847,-3.989277101958185,8.795421645735171,0.5166666666666667,0.3422222222222222,-0.6088888888888889,-0.003351348291151213,-0.03693053471755581,0.43325695073875525
1589997475.6654782,-0.814493884162121,-3.942995922774747,8.671012231675757,0.5188888888888888,0.3555555555555556,-0.6088888888888889,-0.003382909694582869,-0.03992351712680772,0.48153768667301283
1589997475.6754782,-0.8379200565970993,-3.958613371064733,8.624159886805801,0.5188888888888888,0.3555555555555556,-0.6088888888888889,0.0017278883070460313,-0.04333071579456032,0.5181650723513533
1589997475.6854782,-0.8419824617786144,-3.9880175382213854,8.63396492355723,0.5188888888888888,0.3555555555555556,-0.6088888888888889,-0.01177331995825866,-0.050328761760971875,0.5727148576582759
1589997475.6954782,-0.8323006749846594,-4.01,8.626902024953978,0.5188888888888888,0.3555555555555556,-0.6088888888888889,-0.004865252548743039,-0.05560503777991981,0.6189706754040646
1589997475.7054782,-0.8761073146038978,-4.014865856745128,8.765134143254873,0.5214840124862904,0.3536092128575045,-0.6088888888888889,-0.015165474428534316,-0.05179982940941377,0.6626834275788378
1589997475.7154782,-0.8305385320885168,-4.037923241539873,8.72,0.5455555555555556,0.33555555555555555,-0.6088888888888889,-0.01452482885396887,-0.057067229371330644,0.7101727046507548
1589997475.7254782,-0.8269984544049459,-3.99,8.703001545595054,0.5455555555555556,0.33555555555555555,-0.6088888888888889,-0.018362037174913293,-0.05781403147231216,0.7412554281370484
1589997475.7354782,-0.8769123685041665,-3.987695877165278,8.636958771652779,0.5455555555555556,0.33555555555555555,-0.6088888888888889,-0.02492323472253096,-0.05781403147231216,0.7570315012542495
1589997475.7454782,-0.9102161452113685,-3.9902161452113685,8.602907809887748,0.5455555555555556,0.33555555555555555,-0.6088888888888889,-0.021394430007933535,-0.05870555832631333,0.767944870877505
1589997475.7554781,-0.95,-4.0287564865206935,8.76813472978104,0.553707477253231,0.33831891884290316,-0.6093724774641748,-0.024812154883928055,-0.062177354602297986,0.7677414014602535
1589997475.7654781,-0.9847948662170981,-3.999293887317816,8.745353056341092,0.6766666666666666,0.38,-0.6166666666666667,-0.03270878762690373,-0.06276128246602809,0.7635045228025554
1589997475.7754781,-1.0785044719486856,-3.962522359743428,8.725602854819767,0.6766666666666666,0.38,-0.6166666666666667,-0.02219401609844736,-0.06452215297073698,0.7599827817931376
1589997475.785478,-1.0709260095762942,-3.924630047881471,8.551298220254765,0.6766666666666666,0.38,-0.6166666666666667,-0.02963415413426342,-0.06534883497471654,0.7583294177851786
1589997475.795478,-1.0831445546452017,-3.98,8.653144554645202,0.6766666666666666,0.38,-0.6166666666666667,-0.02198351643564959,-0.06131520228675007,0.7712081470960125
1589997475.805478,-1.1032408605241724,-3.98,8.673240860524173,0.6766666666666666,0.38,-0.6166666666666667,-0.030021461760306414,-0.06277664689123313,0.7850918708386017
1589997475.815478,-1.1798107544485372,-3.910756982205851,8.797350562279522,1.2122222222222223,0.4455555555555555,-0.8922222222222222,-0.02416342511331086,-0.06754893456558586,0.8197712918119007
1589997475.825478,-1.1716361651951899,-3.9434553392192404,8.682906312732658,1.2122222222222223,0.4455555555555555,-0.8922222222222222,-0.031297099986763686,-0.06398209712885945,0.843847444509804
1589997475.835478,-1.220663821539723,-3.878672356920554,8.62199146461917,1.2122222222222223,0.4455555555555555,-0.8922222222222222,-0.03716065830184091,-0.06450383956121372,0.8897465493761504
1589997475.845478,-1.2284804040328743,-3.8630391919342513,8.645441212098623,1.2122222222222223,0.4455555555555555,-0.8922222222222222,-0.03801331518158614,-0.06620915332070416,0.911062971369781
1589997475.855478,-1.2111303158071092,-3.775086421131991,8.7537832630609,1.2122222222222223,0.4455555555555555,-0.8922222222222222,-0.02994562443793911,-0.06859904096964302,0.9316739324134002
1589997475.865478,-1.227165770801978,-3.8043315416039563,8.67417114599011,1.1368835614802073,-0.07704679997133235,-0.9046197233569842,-0.03038867868720814,-0.07153108197668819,0.9373415568334889
1589997475.875478,-1.2233480459605797,-3.82832597701971,8.741541609335073,1.1244444444444444,-0.16333333333333333,-0.9066666666666666,-0.02709297667866825,-0.07417167851375149,0.9408343278591821
1589997475.885478,-1.2383381283393793,-3.82083093583031,8.614125909115277,1.1244444444444444,-0.16333333333333333,-0.9066666666666666,-0.03118088750140631,-0.06926618552646582,0.9334760883782535
1589997475.895478,-1.2830502688066554,-3.87,8.674575403209984,1.1244444444444444,-0.16333333333333333,-0.9066666666666666,-0.027603502273330246,-0.07384376049884016,0.9247844034958158
1589997475.905478,-1.2995094769061728,-3.87,8.699264215359259,1.1244444444444444,-0.16333333333333333,-0.9066666666666666,-0.029398923358377096,-0.07204833941379328,0.9176027191556284
1589997475.915478,-1.3290979010462545,-3.8777255247384366,8.72,0.6666666666666666,0.18222222222222226,-0.7088888888888889,-0.02608153504915458,-0.06956506331683916,0.915057323482353
1589997475.925478,-1.36,-3.867237701701332,8.697901613610657,0.6666666666666666,0.18222222222222226,-0.7088888888888889,-0.029452431127404314,-0.0694756393009329,0.9100904033808846
1589997475.935478,-1.364434284614274,-3.852217142307137,8.578845709610665,0.6666666666666666,0.18222222222222226,-0.7088888888888889,-0.029815210189074355,-0.07393464050197898,0.9046639913487183
1589997475.945478,-1.403551912568306,-3.8607650273224046,8.726448087431695,0.6666666666666666,0.18222222222222226,-0.7088888888888889,-0.032104997784294605,-0.07176235951079142,0.8976822041072063
1589997475.955478,-1.4333952356557376,-3.783172387295082,8.696604764344261,0.6666666666666666,0.18222222222222226,-0.7088888888888889,-0.026896355308173373,-0.06980911858224598,0.8879159994644791
1589997475.965478,-1.396464156527458,-3.8011838211114766,8.787071686945083,0.6122810479009098,0.23575806569476418,-0.7088888888888889,-0.029838131817598104,-0.0662195444675584,0.8624597444018862
1589997475.975478,-1.3771916209592716,-3.7937445053876377,8.651872252693819,0.5955555555555555,0.25222222222222224,-0.7088888888888889,-0.022907446432425576,-0.06514350031913294,0.8287298430204944
1589997475.985478,-1.3527179367487456,-3.8263760843350063,8.668188042167502,0.5955555555555555,0.25222222222222224,-0.7088888888888889,-0.022907446432425576,-0.06247383550933898,0.7975837535728981
1589997475.995478,-1.371930632891538,-3.771518312289232,8.648069367108462,0.5955555555555555,0.25222222222222224,-0.7088888888888889,-0.022907446432425576,-0.05978509365852611,0.7494692720403449
1589997476.005478,-1.389191988275525,-3.7683839765510503,8.768687835857351,0.5955555555555555,0.25222222222222224,-0.7088888888888889,-0.01989937530343877,-0.049880648867848196,0.6728768632578822
1589997476.015478,-1.3527104870258726,-3.7550841948103493,8.727794681836222,0.5847830295852521,0.2373064170325713,-0.7246333499224094,-0.01963495408493621,-0.05071444715699968,0.6098277398524308
1589997476.025478,-1.3080129411764707,-3.8493376470588236,8.718675294117647,0.5811111111111111,0.23222222222222225,-0.73,-0.004543951874263914,-0.03999948146381269,0.4946442124733292
1589997476.0354779,-1.2586682352941176,-3.832889411764706,8.68577882352941,0.5811111111111111,0.23222222222222225,-0.73,-0.00902951221840596,-0.031028360775528604,0.3986532211086895
1589997476.0454779,-1.2483557579168159,-3.8149327262495523,8.65822121041592,0.5811111111111111,0.23222222222222225,-0.73,-0.0007321128068537887,-0.02256340531235136,0.24549401512347646
1589997476.0554779,-1.2340507494756228,-3.8578477515731313,8.729746252621887,0.5811111111111111,0.23222222222222225,-0.73,0.00238875590345121,-0.010079930471131367,0.15108773663675024
1589997476.0654778,-1.2366395878739844,-3.7553794333267287,8.749579948484248,0.5611111111111111,0.1111111111111111,-0.6822222222222222,0.01640828224980849,0.002777328225694365,-0.023684882201127726
1589997476.0754778,-1.1701557360808401,-3.663964137111155,8.741269467010104,0.5611111111111111,0.1111111111111111,-0.6822222222222222,0.017314815150744668,0.014562255937864666,-0.1469733567284478
1589997476.0854778,-9.473099430346972,-13.970499093733817,0.9947993267736923,0.5611111111111111,0.1111111111111111,-0.6822222222222222,-0.14527828129508485,0.3548013974151965,-0.7362592306403626
1589997476.0954778,-0.23324349733625824,-3.8617110623628954,-0.6572673143215293,0.5611111111111111,0.1111111111111111,-0.6822222222222222,-1.412466563068215,2.698709202667124,-4.075409096004521
1589997476.1054778,-1.5101043112324843,-3.927431839548731,0.2158801540045664,0.5611111111111111,0.1111111111111111,-0.6822222222222222,-0.4845899401491689,-2.077909527238428,-10.82350961301732
1589997476.1154778,-0.8176569445950341,-3.2392887346850263,-0.14617152770248293,0.5422222222222223,0.2577777777777778,-0.6166666666666667,-0.27707101875409984,0.3741549583962844,-10.38470904936626
1589997476.1254778,-0.15,-2.678489966140887,-0.45445536377900736,0.5422222222222223,0.2577777777777778,-0.6166666666666667,-0.2878686580171438,0.4042838550496166,-10.32427710058761
1589997476.1354778,-0.21832269617521466,-2.5980687818540797,-0.044147114192570835,0.5422222222222223,0.2577777777777778,-0.6166666666666667,-0.33706335600544474,0.5778364908778292,-9.981844791130504
1589997476.1454778,-2.5293378943018503,-7.268245328068322,9.286576748243721,0.5422222222222223,0.2577777777777778,-0.6166666666666667,-0.07866838801974246,1.08412256636201,-9.15834212893217
1589997476.1554778,-1.8122142313809557,-3.3240405227854226,0.6315503768757349,0.5422222222222223,0.2577777777777778,-0.6166666666666667,1.9345952194074767,3.552171523710835,-8.11310173136747
1589997476.1654778,-7.581926071846717,-3.6794816852199443,11.533180137151778,0.4262168451787289,0.42349974498276827,-0.610866397814492,3.3939373366866548,1.301441928801757,-7.512987148856321
1589997476.1754777,-0.6895505656204813,-1.5772974398230841,-0.659668963170877,0.38666666666666666,0.48,-0.6088888888888889,0.5323118943318532,-0.7902214409818994,-6.351276770148834
1589997476.1854777,-0.5539858807518925,-2.1909060134388025,3.8853154716339207,0.38666666666666666,0.48,-0.6088888888888889,-0.14714920357487893,-0.3574833305166725,-5.918538659683605
1589997476.1954777,-0.824641976358534,-1.4819089633472236,4.996420826600901,0.38666666666666666,0.48,-0.6088888888888889,0.04393847653242943,1.4076827783453767,-5.107127769077023
1589997476.2054777,-2.875600816395952,-0.13540989880091847,4.9518347648609575,0.38666666666666666,0.48,-0.6088888888888889,0.006975231584103542,2.1070662814465955,-4.738468036566088
1589997476.2154777,0.4777783772846833,-0.8824873541512106,8.959313414716396,0.23222222222222225,0.5611111111111111,-0.5966666666666667,0.031507183465999004,-0.08969649839561974,-4.14326370854037
1589997476.2254777,1.915522875027189,-2.3106445609879884,11.873987722647849,0.23222222222222225,0.5611111111111111,-0.5966666666666667,0.199551722500162,-0.5370925240023152,-3.6618392935655
1589997476.2354777,0.7646874313471819,-1.7446166426636074,8.06254302243269,0.23222222222222225,0.5611111111111111,-0.5966666666666667,0.23864721205479167,0.27019897387650077,-3.224756205710019
1589997476.2454777,0.9992132084852502,-1.3091951856148492,7.190558501823003,0.23222222222222225,0.5611111111111111,-0.5966666666666667,-0.050078628423191676,0.6195990930886552,-2.9040549178972213
1589997476.2554777,1.3293909512761022,-1.978239559164733,11.152691415313225,0.23222222222222225,0.5611111111111111,-0.5966666666666667,-0.34484773937130636,0.4840621706912905,-2.6851106586399403
1589997476.2654777,0.7733870967741936,-2.508655002733734,11.702966101694916,0.11928862159042586,0.6045471113541097,-0.5825499665876921,0.0695817636589921,0.11100291657050732,-2.499805732414904
1589997476.2754776,1.0380776083943775,-1.4513066719461492,6.474005147495546,0.11666666666666667,0.6055555555555555,-0.5822222222222222,0.3813115512433181,0.13676396217672948,-2.2080905094929255
1589997476.2854776,3.536425001505389,-3.908931173601493,8.576145801971055,0.11666666666666667,0.6055555555555555,-0.5822222222222222,-0.05734309192271027,0.027614258318474198,-1.8690290160714327
1589997476.2954776,23.892936111278377,-19.39099235262239,3.9121643483671553,0.11666666666666667,0.6055555555555555,-0.5822222222222222,-0.3833544928608356,-0.07615838479704176,-1.3290439350809604
1589997476.3054776,0.025671350321506026,-0.6410116694451027,2.4056775422719694,0.11666666666666667,0.6055555555555555,-0.5822222222222222,-0.22564282862421645,0.18899418760403341,-0.631487837071924
1589997476.3154776,-0.2646240561522918,1.4260161650537062,8.937089226842497,0.024444444444444446,0.6377777777777778,-0.5966666666666667,0.8826863945431929,0.17937977302381897,-0.1341163860124176
1589997476.3254776,0.02977539083271291,0.5606602148250559,2.5049073699883015,0.024444444444444446,0.6377777777777778,-0.5966666666666667,0.42141260635095745,-0.17971311272076945,0.12960765744770025
1589997476.3354776,0.8859968651293134,-0.3159037689695301,7.506586315814473,0.024444444444444446,0.6377777777777778,-0.5966666666666667,-0.5300590989543743,-0.2245029592727808,0.4370770115445164
1589997476.3454776,1.1311866658963545,-2.3861657711787703,11.051325322086775,0.024444444444444446,0.6377777777777778,-0.5966666666666667,-0.4757494592710704,0.1602828439223384,0.6674056149176408
1589997476.3554776,10.641363811692962,-8.274943702588027,9.990556361699392,0.024444444444444446,0.6377777777777778,-0.5966666666666667,-0.06175607348199291,-0.09649822143663522,0.7130382521705896
1589997476.3654776,2.568995439914163,-3.0258798283261807,7.044030311158798,0.009134477825464952,0.6320365402956605,-0.6091060145445876,0.22643853377057563,-0.1345780291374403,0.4709155697083567
1589997476.3754776,-1.2606007841328413,-0.9703240313653136,7.894709409594095,0.006666666666666667,0.6311111111111111,-0.6111111111111112,-0.0873975333648642,0.17322272069868533,0.5356520029092278
1589997476.3854775,5.484822727570615,-4.999733599842715,9.588847893046726,0.006666666666666667,0.6311111111111111,-0.6111111111111112,-0.2938450709122966,-0.026703264472507204,0.6537400922545343
1589997476.3954775,3.351583765927324,-3.970791882963662,8.206369608305804,0.006666666666666667,0.6311111111111111,-0.6111111111111112,0.022645111667555284,-0.05795990113277851,0.5993005169009522
1589997476.4054775,1.4148315163528244,-2.7898116947472746,7.948592666005947,0.006666666666666667,0.6311111111111111,-0.6111111111111112,0.0073001336559041785,-0.01666949438584029,0.539189871861701
1589997476.4154775,2.4224475390258466,-3.5933408683784016,9.349164463021411,0.02231631550513236,0.6385241026661738,-0.5995797909143469,-0.04526694184801023,-0.04103395917853638,0.5144975546292135
1589997476.4254775,2.1242715660866343,-3.4833580155497965,8.948098852276935,0.027777777777777776,0.6411111111111111,-0.5955555555555555,-0.006690425433796409,-0.04031495111824612,0.47523591849547275
1589997476.4354775,2.4514987879487475,-3.5627477779060372,8.229991919658318,0.027777777777777776,0.6411111111111111,-0.5955555555555555,-0.034497854032154454,-0.039188161968325995,0.4668891992754076
1589997476.4454775,2.567697795221055,-3.775779291238601,9.004651968140367,0.027777777777777776,0.6411111111111111,-0.5955555555555555,-0.0028094905251138114,-0.03285048926691786,0.4679454780589756
1589997476.4554775,2.38429845858506,-3.6020360228106822,8.58669640336514,0.027777777777777776,0.6411111111111111,-0.5955555555555555,-0.006401848184419098,-0.029348774179352728,0.4485535472416191
1589997476.4654775,2.27,-3.75,9.37,0.06222222222222223,0.6288888888888889,-0.6166666666666667,-0.015271630954950384,-0.025089107997418484,0.4319689898685966
1589997476.4754775,2.2769467213114756,-3.73301912568306,9.2850956284153,0.06222222222222223,0.6288888888888889,-0.6166666666666667,-0.015355827593216844,-0.026520450847948327,0.4320531865068631
1589997476.4854774,2.2964273551794836,-3.6642089168433123,8.757390276957294,0.06222222222222223,0.6288888888888889,-0.6166666666666667,-0.020985594930442383,-0.03361644271503456,0.44307660923591663
1589997476.4954774,2.2496366252558624,-3.6385465010234483,8.674912753582069,0.06222222222222223,0.6288888888888889,-0.6166666666666667,-0.018464847231142258,-0.033895030328687625,0.45538538602589973
1589997476.5054774,2.307935356691215,-3.643672729301495,8.777773748419252,0.06222222222222223,0.6288888888888889,-0.6166666666666667,-0.014774476488189974,-0.03652674423880199,0.4671796856772923
1589997476.5154774,2.3243175016265454,-3.621943613099111,8.739213619605291,0.06634685173136702,0.6378255861587027,-0.607729969396853,-0.017814205866674284,-0.0370882466048795,0.47695200301894525
1589997476.5254774,2.29,-3.6274735975369636,8.637144595997565,0.06888888888888889,0.6433333333333333,-0.6022222222222222,-0.023315067944891042,-0.040324850451702476,0.4881410150432812
1589997476.5354774,2.2433484290970847,-3.644449476365695,8.550045287291253,0.06888888888888889,0.6433333333333333,-0.6022222222222222,-0.02424095850420655,-0.045934998490209523,0.5113520156244178
1589997476.5454774,2.255178173527024,-3.696650890435804,8.642185411016877,0.06888888888888889,0.6433333333333333,-0.6022222222222222,-0.021251764541890518,-0.04415921097431609,0.5331286643272706
1589997476.5554774,2.180849261826725,-3.67056617455115,8.702169852365344,0.06888888888888889,0.6433333333333333,-0.6022222222222222,-0.015096696842457333,-0.041245755590939244,0.5620350811163618
1589997476.5654774,2.1449604928351413,-3.654960492835141,8.733680862461497,0.06888888888888889,0.6398665982173415,-0.611235733523801,-0.014041214152275092,-0.04036073895236887,0.5952885778237731
1589997476.5754774,2.0858406382350045,-3.6782399290849996,8.858879149019995,0.06888888888888889,0.6377777777777778,-0.6166666666666667,-0.02156348875900411,-0.04215841261066993,0.6246706456043861
1589997476.5854774,2.1034739442741452,-3.696736972137073,8.612208445806836,0.06888888888888889,0.6377777777777778,-0.6166666666666667,-0.022907446432425576,-0.052583862944459256,0.6557043373373154
1589997476.5954773,2.077552023862233,-3.7,8.706015892619952,0.06888888888888889,0.6377777777777778,-0.6166666666666667,-0.026446971552504257,-0.05542642040484246,0.6946689428335998
1589997476.6054773,2.0491717785117864,-3.7208282214882136,8.698343557023572,0.06888888888888889,0.6377777777777778,-0.6166666666666667,-0.0272707695624114,-0.0541176988977194,0.7365751216437141
1589997476.6154773,1.9954381859530008,-3.7389123628094,8.840422530569196,0.08671361450768854,0.6318362025715112,-0.5978516785134892,-0.0272707695624114,-0.06025602413041529,0.7972752437172267
1589997476.6254773,1.9556207184925534,-3.719372431095532,8.736234586573191,0.08888888888888889,0.6311111111111111,-0.5955555555555555,-0.030270927846286103,-0.06333664253270756,0.8418535136077627
1589997476.6354773,1.8993488480645484,-3.807562764645084,8.639348848064548,0.08888888888888889,0.6311111111111111,-0.5955555555555555,-0.039615927709920805,-0.07145398062731187,0.9101262783848566
1589997476.6454773,1.8081613423927325,-3.7890806711963663,8.609540335598183,0.08888888888888889,0.6311111111111111,-0.5955555555555555,-0.039219766561960454,-0.07457353120919914,0.9693638122314759
1589997476.6554773,1.7541491250317018,-3.7660372812579253,8.651515343646969,0.08888888888888889,0.6311111111111111,-0.5955555555555555,-0.03472095291839151,-0.07613185510950157,1.0270109570963692
1589997476.6654773,1.7283135745220701,-3.7701185528675794,8.726627149044141,0.09338602349670201,0.6333596784150176,-0.6002400707720275,-0.03074015450400289,-0.0791046298985894,1.0968339069379134
1589997476.6754773,1.6012446997337542,-3.7804148999112512,8.732620057193571,0.11555555555555555,0.6444444444444445,-0.6233333333333333,-0.04078944480816609,-0.09096766080300307,1.2328101912668394
1589997476.6854773,1.4643546812823784,-3.768258127487049,8.68609655379533,0.11555555555555555,0.6444444444444445,-0.6233333333333333,-0.04761653679858169,-0.10078223191746125,1.3749538310220746
1589997476.6954772,1.4133558962888841,-3.723355896288884,8.662508461108331,0.11555555555555555,0.6444444444444445,-0.6233333333333333,-0.05499266775047486,-0.10844337609280119,1.4580414580055638
1589997476.7054772,1.3961762491579823,-3.765489162737251,8.666176249157981,0.11555555555555555,0.6444444444444445,-0.6233333333333333,-0.05881932300218111,-0.11991643657281324,1.5819710208825914
1589997476.7154772,1.233852835035782,-3.783645482904153,8.726354517095848,0.12379635859481722,0.6197220353266595,-0.6099420283945332,-0.060847927521666643,-0.1305020334026832,1.7641470004138418
1589997476.7254772,1.0741904080482199,-3.78,8.8500784874897,0.12444444444444445,0.6177777777777778,-0.6088888888888889,-0.06389335190128828,-0.13932017814403497,1.8934488504826719
1589997476.7354772,1.0065432532023162,-3.7427513598877,8.702381119494648,0.12444444444444445,0.6177777777777778,-0.6088888888888889,-0.06909941187869766,-0.1508751617522002,2.0067707079522314
1589997476.7454772,0.8938827515617831,-3.777411498958811,8.671764373698513,0.12444444444444445,0.6177777777777778,-0.6088888888888889,-0.07669179891978117,-0.16490791147118147,2.1734477435669803
1589997476.7554772,0.7772727272727272,-3.7586363636363638,8.623181818181818,0.12444444444444445,0.6177777777777778,-0.6088888888888889,-0.07918439816576546,-0.17443375876466055,2.3113216784578317
1589997476.7654772,0.7074162516203861,-3.7803349935184554,8.695837483796138,0.15660291252567982,0.6212732634387816,-0.6179771516074989,-0.08443500615432672,-0.18507328137067147,2.4805571627519063
1589997476.7754772,0.5450675198404454,-3.745444799933519,8.724811359953463,0.17555555555555555,0.6233333333333333,-0.6233333333333333,-0.08585808661166179,-0.19434722932410567,2.6493764863029265
1589997476.7854772,0.44356593243287873,-3.8086044054027277,8.724651101350682,0.17555555555555555,0.6233333333333333,-0.6233333333333333,-0.09673721244422122,-0.2117818010589326,2.842087394478327
1589997476.7954772,0.36138069512836446,-3.786322608404647,8.660116173447436,0.17555555555555555,0.6233333333333333,-0.6233333333333333,-0.11070031558750464,-0.22537548566710167,3.0101889778246527
1589997476.8054771,0.2942508127839991,-3.738188109587999,8.68484324201,0.17555555555555555,0.6233333333333333,-0.6233333333333333,-0.1161563786917832,-0.23677490380534827,3.138270863663165
1589997476.8154771,0.22064105809391216,-3.8132335569337217,8.683547019364637,0.2048052989073113,0.616630267148556,-0.6233333333333333,-0.11780972450961726,-0.24885081728609448,3.266587511981603
1589997476.8254771,0.14190829499925806,-3.912855023000445,8.746183410001484,0.2288888888888889,0.6111111111111112,-0.6233333333333333,-0.12113385285942393,-0.26107162771633236,3.444106138940241
1589997476.835477,0.08207043108682453,-3.9040234770289413,8.650176077717061,0.2288888888888889,0.6111111111111112,-0.6233333333333333,-0.12043027933419384,-0.27247544426139664,3.5840968478584565
1589997476.845477,-0.04459148473132221,-3.9381971615771074,8.67347602620795,0.2288888888888889,0.6111111111111112,-0.6233333333333333,-0.13249137797030003,-0.28322268511956683,3.6989831661261445
1589997476.855477,-0.1423277780201562,-3.9361493826621876,8.683074691331093,0.2288888888888889,0.6111111111111112,-0.6233333333333333,-0.13559841382462373,-0.28730853298893794,3.8108865596004176
1589997476.865477,-0.21388276079420107,-3.947553104317681,8.7238827607942,0.29325027138705045,0.5828311097104037,-0.6233333333333333,-0.13909251033318,-0.2956383131863033,3.9547194398229366
1589997476.875477,-0.3030284581060982,-4.0556725830441245,8.73,0.3022222222222222,0.5788888888888889,-0.6233333333333333,-0.13962634015954636,-0.30246951816155826,4.056809760959941
1589997476.885477,7.271981376374602,-16.14614437743881,9.275621851720468,0.3022222222222222,0.5788888888888889,-0.6233333333333333,-0.16881310620226714,-0.3392514496617262,4.042811855210771
1589997476.895477,5.725323124473167,-12.14711014329868,6.408892947457151,0.3022222222222222,0.5788888888888889,-0.6233333333333333,-0.34609158180843447,-0.31635058164992014,1.7848760822243275
1589997476.905477,-3.1223732590529245,-0.9964178272980504,11.377278551532033,0.3022222222222222,0.5788888888888889,-0.6233333333333333,-0.0261109642429716,0.14161748615333442,-1.1682354055761992
1589997476.915477,-4.831356023407547,-3.334485773861573,8.362838501378892,0.3647028840907902,0.5137304843688109,-0.6518959216161072,0.7827623986702257,0.31621113075431884,-1.1722331583403587
1589997476.925477,-3.407606975907947,-3.9488145001797914,8.582118617403811,0.38,0.4977777777777778,-0.6588888888888889,0.333460726173741,0.1708473262914472,-0.5379046893741883
1589997476.935477,-1.5223588637180874,-4.354142844300611,11.117777328299173,0.38,0.4977777777777778,-0.6588888888888889,-0.33746805102954414,0.025865015815335013,0.020945564127705207
1589997476.945477,-1.1320579631531025,-4.988300044557237,10.369198744648287,0.38,0.4977777777777778,-0.6588888888888889,-0.28872479136302653,-0.04146830655618572,0.42557091727187457
1589997476.955477,-0.9019641800677675,-3.6090996611628032,7.893969235733878,0.38,0.4977777777777778,-0.6588888888888889,0.059814083469875545,-0.05733529328131711,0.8909964558995902
1589997476.965477,3.342750424448217,-7.905908319185059,7.696859083191851,0.38373514431239386,0.5046255423505,-0.655153744576495,0.03172298891915418,-0.0826549708367009,1.1900482315808067
1589997476.975477,2.2331850038255547,-9.265755164498852,8.762147819433817,0.38666666666666666,0.51,-0.6522222222222223,-0.20084947238216272,-0.12838605922666613,0.6308690550011093
1589997476.985477,-1.9062796852818746,-3.4135148336180556,10.135998411972762,0.38666666666666666,0.51,-0.6522222222222223,0.1222635718177709,0.10463511015747046,-0.2471333423364765
1589997476.995477,-1.0370909369024857,-2.638595946462715,9.721876558317401,0.38666666666666666,0.51,-0.6522222222222223,0.20580181692301183,0.08700324492332824,-0.1908869439483376
1589997477.005477,0.6691095512264374,-4.5726208691537185,9.000410126981624,0.38666666666666666,0.51,-0.6522222222222223,0.04151927884645336,-0.040188842122695564,0.1281450429023374
1589997477.015477,-0.1732016027401686,-5.145399877209423,9.036246485927554,0.3971297163968506,0.4986650294589675,-0.6522222222222223,-0.03108714399779039,-0.004756694750261137,0.02487532673604123
1589997477.025477,-0.17149637140868873,-4.779399940351924,8.800748185704345,0.4,0.4955555555555556,-0.6522222222222223,0.02958251966569666,0.011559574685225093,-0.023656485738605067
1589997477.035477,-0.12032786009878521,-4.579601922306768,8.685292751301562,0.4,0.4955555555555556,-0.6522222222222223,0.007150438736824121,-7.152797762144739e-05,-0.003471757177654654
1589997477.045477,-0.15721007943029308,-4.57899716972519,8.614106454852552,0.4,0.4955555555555556,-0.6522222222222223,-0.0007693877592530015,-0.0012344423946903656,0.002020940053371185
1589997477.055477,-0.16568411280027853,-4.634104676801671,8.640422420796101,0.4,0.4955555555555556,-0.6522222222222223,0.003444782088115767,0.0001492502602487317,0.0006200405213725938
1589997477.065477,-0.1421992928537431,-4.617800707146257,8.684398585707486,0.4039557126991682,0.49159984285638736,-0.6561779349213904,-0.0005747870503132043,-0.0023853347361859,0.0
1589997477.075477,-0.14606035175430765,-4.587172395321846,8.681413802339076,0.4066666666666667,0.4888888888888889,-0.6588888888888889,-0.0001984160910863562,-0.0038564632165333595,-0.0005839708690439915
1589997477.0854769,-0.1504992092620774,-4.597503953689613,8.619243278727657,0.4066666666666667,0.4888888888888889,-0.6588888888888889,0.001772384381240027,-0.0038451353802366646,-5.445528299813699e-05
1589997477.0954769,-0.15310266896254843,-4.6237946620749035,8.62171868273784,0.4066666666666667,0.4888888888888889,-0.6588888888888889,0.002482367876805726,-0.0025578526156289317,0.001090830782496456
1589997477.1054769,-0.15466663004266695,-4.593999890128001,8.653999890128,0.4066666666666667,0.4888888888888889,-0.6588888888888889,-0.00029092016913472886,-0.00043632032782270477,-7.273004228368221e-05
1589997477.1154768,-0.15349529614134935,-4.58,8.671457665272145,0.4089968640942329,0.48617032522339493,-0.6565586914613226,-0.003982045467493327,0.0007095531200039595,-0.0007095531200039595
1589997477.1254768,-0.14340533206204847,-4.6048920019069275,8.684364663170633,0.4133333333333333,0.4811111111111111,-0.6522222222222223,-0.0055352391739924315,-0.0013576480959018378,0.0
1589997477.1354768,-0.14087728459530027,-4.619122715404699,8.604342036553524,0.4133333333333333,0.4811111111111111,-0.6522222222222223,-0.0024639104698111853,-0.0038418319647766826,0.0
1589997477.1454768,-0.15441536851179113,-4.566492211070747,8.59,0.4133333333333333,0.4811111111111111,-0.6522222222222223,0.003272492347489368,-0.0031449455427383817,0.0006091887936237212
1589997477.1554768,-0.14492908322616205,-4.5602836670953515,8.645780084512218,0.4133333333333333,0.4811111111111111,-0.6522222222222223,0.0038256435587273744,-0.002181661564992912,0.001090830782496456
1589997477.1654768,-0.14,-4.56502971473851,8.68502971473851,0.4066798732171157,0.4849922961789047,-0.6594301373481247,0.0016416484656548293,-0.0005486567663943148,-0.0005421740161021412
1589997477.1754768,-0.1452923034340958,-4.597630730906862,8.654123089697713,0.4,0.4888888888888889,-0.6666666666666666,-0.000513530032874115,-6.377071674822598e-05,-0.000449759316125889
1589997477.1854768,-0.15,-4.6090676448008185,8.583290682134834,0.4,0.4888888888888889,-0.6666666666666666,-0.0028118304355317526,-0.002215562956709157,0.001090830782496456
1589997477.1954768,-0.13743726197382028,-4.57371863098691,8.605376428157077,0.4,0.4888888888888889,-0.6666666666666666,2.7374628075966384e-05,-0.0025873012799195873,0.0017760218500662366
1589997477.2054768,-0.1349330745792223,-4.565066925420778,8.664799223737667,0.4,0.4888888888888889,-0.6666666666666666,0.003272492347489368,-0.0027197765253295543,0.002181661564992912
1589997477.2154768,-0.14906038748908368,-4.578120774978167,8.693590581233625,0.4,0.5009694055410004,-0.6666666666666666,0.0003074874751578943,-0.0017899899113236312,0.000699159128827175
1589997477.2254767,-0.14800977151889638,-4.611990228481103,8.690016285864829,0.4,0.5155555555555555,-0.6666666666666666,-0.003272492347489368,0.0,-0.000654853771951338
1589997477.2354767,-0.13366041710554033,-4.620848957236149,8.647188540130609,0.4,0.5155555555555555,-0.6666666666666666,-0.0028732027819393696,-0.00019964478277499913,0.0
1589997477.2454767,-0.14590075433972552,-4.58,8.606396982641098,0.4,0.5155555555555555,-0.6666666666666666,0.0002506442228762647,-0.001090830782496456,0.0
1589997477.2554767,-0.1447719722138327,-4.577614013893084,8.649087888855332,0.4,0.5155555555555555,-0.6666666666666666,0.0032227444018062008,-0.0008305600732931337,0.0002602707092033223
1589997477.2654767,-0.15195960661149446,-4.575360262259004,8.701959606611496,0.4035735081726691,0.5063239927761602,-0.6666666666666666,0.004498486018947409,-0.00029235695371876083,0.0007984738287776952
1589997477.2754767,-0.13361767468747743,-4.5936176746874775,8.658293951875136,0.4133333333333333,0.4811111111111111,-0.6666666666666666,-0.0006962036914805945,-0.0006962036914805945,0.0
1589997477.2854767,-0.1356858285206575,-4.595685828520657,8.598429142603287,0.4133333333333333,0.4811111111111111,-0.6666666666666666,-0.0023530155253175438,0.0009412062101270177,0.0
1589997477.2954767,-0.13727552028089682,-4.593637760140449,8.59182656084269,0.4133333333333333,0.4811111111111111,-0.6666666666666666,-0.0038668816162663764,0.0009912073428309845,0.0
1589997477.3054767,-0.1587463702278517,-4.6,8.638746370227853,0.4133333333333333,0.4811111111111111,-0.6666666666666666,-0.0006137902885138967,-0.0006137902885138967,0.0009540809879651186
1589997477.3154767,-0.15911174182697363,-4.592741161217982,8.67903535512807,0.4109137204059941,0.48836994989312865,-0.6638437849181043,0.0,-0.0011877247182905805,0.0025775698044231054
1589997477.3254766,-0.14,-4.585610199504191,8.685118403966474,0.4066666666666667,0.5011111111111111,-0.6588888888888889,-0.0006119778315117645,-0.003272492347489368,0.0014365588529540744
1589997477.3354766,-0.15064338947512365,-4.59,8.628713221049752,0.4066666666666667,0.5011111111111111,-0.6588888888888889,-0.001090830782496456,-0.0015309718170548182,0.0011610136869563664
1589997477.3454766,-0.13799650672968253,-4.5789982533648415,8.615500873317579,0.4066666666666667,0.5011111111111111,-0.6588888888888889,0.001909430190218033,0.000600052194542898,-0.00021854721317867993
1589997477.3554766,-0.1281518438177874,-4.57,8.636303687635575,0.4066666666666667,0.5011111111111111,-0.6588888888888889,0.004363323129985824,0.0006462166739691586,-0.0012924333479383172
1589997477.3654766,-0.1444576728732609,-4.574457672873261,8.673373018619783,0.4034472362582005,0.4966534382378502,-0.6574029979311352,0.004606451469408444,0.00024312833942261982,0.00024312833942261982
1589997477.3754766,-0.15051876236499853,-4.586839587455,8.723160412545,0.3922222222222223,0.4811111111111111,-0.6522222222222223,0.0037304162677450313,0.0014355783114439057,-0.00028815933329334287
1589997477.3854766,-0.13011383906853047,-4.5800379463561764,8.729962053643824,0.3922222222222223,0.4811111111111111,-0.6522222222222223,2.0696526700627292e-05,0.0021775222596527866,-0.0032559351261288666
1589997477.3954766,-0.13,-4.588477645727221,8.591194114318053,0.3922222222222223,0.4811111111111111,-0.6522222222222223,-0.0020155984747317083,-0.0009247676922352525,-0.002810108501371742
1589997477.4054766,-0.14206040465252665,-4.604020134884175,8.62,0.3922222222222223,0.4811111111111111,-0.6522222222222223,-0.0023954349712000662,-0.00130460418870361,-0.00130460418870361
1589997477.4154766,-0.15772179078120924,-4.603165372343628,8.633669255312745,0.39399416272572624,0.48440185776047556,-0.6504502817187183,-0.0008423167080140394,-0.0004970281489648331,0.0
1589997477.4254766,-0.15139457152061855,-4.581394571520619,8.677210856958762,0.4,0.4955555555555556,-0.6444444444444445,0.00015212415430836126,-0.0018774132563761895,0.00030424830861672253
1589997477.4354765,-0.15647874306839188,-4.59,8.628308687615528,0.4,0.4955555555555556,-0.6444444444444445,0.00032261169168102213,0.0,0.001413442474177478
1589997477.4454765,-0.14841320967053437,-4.593173580658931,8.571586790329466,0.4,0.4955555555555556,-0.6444444444444445,-0.001263922756171337,-0.000346183947349762,0.0
1589997477.4554765,-0.13620855474889604,-4.602417109497792,8.610331562008831,0.4,0.4955555555555556,-0.6444444444444445,-0.00011374896996580982,-0.0017680790459874915,-0.0004135825190054204
1589997477.4654765,-0.13858570681996343,-4.587138097726679,8.668585706819963,0.40763173939552305,0.4898317510089133,-0.6533481404058881,0.002648122128242311,-0.0017152010017435129,-0.001090830782496456
1589997477.4754765,-0.150789298732262,-4.575394649366131,8.699210701267738,0.4266666666666667,0.4755555555555556,-0.6755555555555556,0.001593196606057844,-0.003272492347489368,0.000918632511749096
1589997477.4854765,-0.14,-4.5840896915895,8.644248105915667,0.4266666666666667,0.4755555555555556,-0.6755555555555556,0.001669345921602635,-0.002760176704099091,0.002247861060708814
1589997477.4954765,-0.14,-4.6,8.595115765476953,0.4266666666666667,0.4755555555555556,-0.6755555555555556,-0.0011009332261613799,-0.002181661564992912,0.001638771784660915
1589997477.5054765,-0.14389838380085454,-4.596101616199145,8.631695151402564,0.4266666666666667,0.4755555555555556,-0.6755555555555556,-0.0024219969370978343,-0.001756413859797145,0.002606909270188679
1589997477.5154765,-0.14714411275386885,-4.59,8.658567661738394,0.4266666666666667,0.4793634052170638,-0.6730169891145501,-0.0007793018105545671,-0.0004677728386126781,0.0020263764597218126
1589997477.5254765,-0.14294526752130193,-4.59,8.674109464957397,0.4266666666666667,0.4888888888888889,-0.6666666666666666,-0.0003212788474923161,0.00044827308751182375,-0.00044827308751182375
1589997477.5354764,-0.14938466262378136,-4.59,8.661230674752437,0.4266666666666667,0.4888888888888889,-0.6666666666666666,-0.0010237078873364682,-0.0009565849921764804,0.0009565849921764804
1589997477.5454764,-0.15,-4.603291139240507,8.59006329113924,0.4266666666666667,0.4888888888888889,-0.6666666666666666,0.0007249191908995435,0.0014567423740933683,0.0
1589997477.5554764,-0.1420863798673695,-4.593956810066315,8.621870430198946,0.4266666666666667,0.4888888888888889,-0.6666666666666666,0.0008632420441657041,0.0008867984987443556,0.0004316210220828521
1589997477.5654764,-0.127612917146145,-4.597612917146145,8.64954833141542,0.4266666666666667,0.49048027745812556,-0.6613620381025445,0.001921271219257459,-0.000830440436761003,0.001090830782496456
1589997477.5754764,-0.12311693079605947,-4.586883069203941,8.68,0.4266666666666667,0.4955555555555556,-0.6444444444444445,0.0007508263765711701,0.0,0.0007508263765711701
1589997477.5854764,-0.13630389677754004,-4.58315194838877,8.65163246450107,0.4266666666666667,0.4955555555555556,-0.6444444444444445,0.0003438242327310443,0.0,0.0006876484654620886
1589997477.5954764,-0.1499014458924982,-4.589950722946249,8.590443493483757,0.4266666666666667,0.4955555555555556,-0.6444444444444445,0.0010854554897862354,0.0,0.0021709109795724707
1589997477.6054764,-0.14659720804930815,-4.593402791950692,8.636805583901385,0.4266666666666667,0.4955555555555556,-0.6444444444444445,-0.0003939173000018835,-0.001090830782496456,0.0017877442649910287
1589997477.6154764,-0.14,-4.6055048076923075,8.652752403846154,0.421161858974359,0.4955555555555556,-0.6444444444444445,-0.0020715296109908663,-0.001090830782496456,-0.000490349414247205
1589997477.6254764,-0.1438783988796826,-4.6044864044812694,8.679391994398413,0.4066666666666667,0.4955555555555556,-0.6444444444444445,0.0015138984709722083,-0.0006677630940207036,0.0006677630940207036
1589997477.6354764,-0.15405046651889273,-4.575949533481108,8.657343935254396,0.4066666666666667,0.4955555555555556,-0.6444444444444445,0.003065336277448802,-0.0004418373562279449,-0.0008836747124558898
1589997477.6454763,-0.16,-4.5821317380676705,8.60426347613534,0.4066666666666667,0.4955555555555556,-0.6444444444444445,0.003922200685672535,-0.0015319532268097446,-0.0012994166763663345
1589997477.6554763,-0.1544697132371601,-4.59446971323716,8.64553028676284,0.4066666666666667,0.4955555555555556,-0.6444444444444445,0.003272492347489368,-0.0024832919168398344,0.0003016303518469225
1589997477.6654763,-0.14,-4.583152489827553,8.663152489827553,0.4066666666666667,0.4955555555555556,-0.6479472109195031,0.0027566674056791374,-0.002928609052949214,0.001090830782496456
1589997477.6754763,-0.1439727434426435,-4.588081769672069,8.66808176967207,0.4066666666666667,0.4955555555555556,-0.6666666666666666,0.00043335908381964575,-0.001090830782496456,0.00022411261485716448
1589997477.6854763,-0.154038478908861,-4.578076957817722,8.633846084364556,0.4066666666666667,0.4955555555555556,-0.6666666666666666,-0.00023075834997802374,-0.0006503010716716294,-0.00020977136084680294
1589997477.6954763,-0.14908727094011093,-4.593637576353296,8.620912729059889,0.4066666666666667,0.4955555555555556,-0.6666666666666666,-0.0009912674870358512,-0.0003967980259856869,0.001090830782496456
1589997477.7054763,-0.141691722621665,-4.6,8.651691722621665,0.4066666666666667,0.4955555555555556,-0.6666666666666666,-0.0005033805845188351,-0.0020473576027056307,0.0007719885090933978
1589997477.7154763,-0.16502827420645508,-4.603314483862363,8.68,0.40224735485018226,0.49647624551732317,-0.665377700720192,-0.003820991976212779,-0.003820991976212779,0.0
1589997477.7254763,-0.14,-4.614970054232493,8.685029945767507,0.38,0.5011111111111111,-0.6588888888888889,-0.0002678078308736878,-0.001365171766370712,0.000548681967748512
1589997477.7354763,-0.1435730801569507,-4.598213459921524,8.682134599215246,0.38,0.5011111111111111,-0.6588888888888889,0.0017918989826400057,-0.0015970176914635527,0.0019867802738164587
1589997477.7454762,-0.15826723654708522,-4.590866381726458,8.608663817264574,0.38,0.5011111111111111,-0.6588888888888889,0.00018901517132243134,0.0008073080255128098,0.0011853383681576716
1589997477.7554762,-0.12161564425934944,-4.561615644259349,8.634846932778048,0.38,0.5011111111111111,-0.6588888888888889,0.0030962528983231622,-0.0009145913333302499,0.0018291826666604998
1589997477.7654762,-0.12865908747418092,-4.568659087474181,8.655977262422542,0.38,0.5011111111111111,-0.6588888888888889,0.002327932430972764,-0.00014627086597985195,0.0002925417319597039
1589997477.7754762,-0.14118428615643103,-4.598815713843568,8.670525710748551,0.4,0.5011111111111111,-0.6588888888888889,-0.0016649192471051713,-0.0002583711589438703,-0.00012918557947193515
1589997477.7854762,-0.15,-4.590682343615827,8.598635312768346,0.4,0.5011111111111111,-0.6588888888888889,0.001958365138877811,-0.002256093707031279,-0.0009419664984197219
1589997477.7954762,-0.15,-4.592511044450505,8.592481592582493,0.4,0.5011111111111111,-0.6588888888888889,-0.001090830782496456,-0.003272492347489368,0.0005462185663539657
1589997477.8054762,-0.14981668721742705,-4.570733251130292,8.630183312782574,0.4,0.5011111111111111,-0.6588888888888889,-0.00107083445989089,-0.0032125033796726703,-0.00107083445989089
1589997477.8154762,-0.14167717701250276,-4.608322822987497,8.646708708050012,0.40316800102361633,0.5001793461041651,-0.6601933598986132,-0.0001829516312933434,-0.0005488548938800303,-0.0001829516312933434
1589997477.8254762,-0.15,-4.5970491469315,8.6770491469315,0.4188888888888889,0.4955555555555556,-0.6666666666666666,-0.001090830782496456,-0.002950604211314962,-0.00044705451014764354
1589997477.8354762,-0.15285356971346245,-4.59,8.6471714422923,0.4188888888888889,0.4955555555555556,-0.6666666666666666,-0.0007795546141520115,-0.0024929377333373563,0.000468278445807567
1589997477.8454762,-0.1563846399442719,-4.588192319972136,8.600846080167184,0.4188888888888889,0.4955555555555556,-0.6666666666666666,0.000591561905789446,-0.0028781177436297376,-0.0008936434805666407
1589997477.8554761,-0.14268806458566027,-4.58,8.658064193756982,0.4188888888888889,0.4955555555555556,-0.6666666666666666,0.0023928252688763304,-0.0005043860634210976,-0.0005864447190753584
1589997477.8654761,-0.14743870717803972,-4.57871935358902,8.68256129282196,0.41988494720854014,0.4955555555555556,-0.6659551964383443,-0.000558787410636294,0.0009511339298373825,-0.0020419647123338385
1589997477.8754761,-0.13,-4.575467169732223,8.697266415133889,0.4266666666666667,0.4955555555555556,-0.6611111111111111,-0.004065135278133769,0.0,-0.001090830782496456
1589997477.885476,-0.13237193076165518,-4.592371930761655,8.663908761621792,0.4266666666666667,0.4955555555555556,-0.6611111111111111,-0.003013754838612995,-0.0005174750177527463,-0.001090830782496456
1589997477.895476,-0.13937304912450552,-4.599373049124505,8.58689645963044,0.4266666666666667,0.4955555555555556,-0.6611111111111111,-0.0022500512964031623,-0.002044882102172411,-0.001090830782496456
1589997477.905476,-0.13810032244326825,-4.586200644886536,8.643799355113464,0.4266666666666667,0.4955555555555556,-0.6611111111111111,-0.0015599935382827122,0.0015599935382827122,0.0008836081069263894
1589997477.915476,-0.1317209648962706,-4.5734419297925415,8.65655807020746,0.4266666666666667,0.4955555555555556,-0.6611111111111111,0.000527646337162116,-0.000527646337162116,0.00018772814844477998
1589997477.925476,-0.1537705840077493,-4.621557353998063,8.658442646001937,0.4133333333333333,0.4755555555555556,-0.6522222222222223,-0.0031026113794562983,-0.0018418996289267721,0.0007510688464303162
1589997477.935476,-0.12632815315792822,-4.617343693684144,8.621523310789323,0.4133333333333333,0.4755555555555556,-0.6522222222222223,-0.0011462199258398741,-0.00034514721305101256,-0.0007456835694454434
1589997477.945476,-0.1435185084426066,-4.5882407457786964,8.56527776266391,0.4133333333333333,0.4755555555555556,-0.6522222222222223,0.0007070210507295618,-0.0008989259166130089,0.0001919048658834471
1589997477.955476,-0.15873261149500337,-4.580633694252499,8.588098917242505,0.4133333333333333,0.4755555555555556,-0.6522222222222223,-0.0009525801430332055,-6.912531973162525e-05,0.0010217054627648307
1589997477.965476,-0.1216311432094416,-4.588912571193705,8.681631143209442,0.4126083807958037,0.47694504791915404,-0.6534908891628991,0.0009129006601445592,0.0001186200815679312,-0.0021223515242089464
1589997477.975476,-0.15,-4.576868575192304,8.703131424807697,0.4,0.5011111111111111,-0.6755555555555556,-0.002181661564992912,0.0019319131232710515,-0.0013405792242183164
1589997477.985476,-0.15,-4.601743920538874,8.660816874072383,0.4,0.5011111111111111,-0.6755555555555556,-0.002181661564992912,0.001090830782496456,-0.0016109649031833435
1589997477.995476,-0.15,-4.609724854435438,8.573026601210184,0.4,0.5011111111111111,-0.6755555555555556,-0.002181661564992912,0.001090830782496456,0.0010007896070489235
1589997478.005476,-0.14571560063867756,-4.597857800319338,8.632853198083966,0.4,0.5011111111111111,-0.6755555555555556,0.0,0.0014806283588171113,0.00038979757632065526
1589997478.015476,-0.13010457516339868,-4.5899651416122005,8.68,0.40009295570079884,0.5010685064149116,-0.6755555555555556,-3.80246024399636e-06,-0.0010832258620084633,-0.0021778591047489156
1589997478.025476,-0.15544714328310283,-4.586829285075346,8.66178857313241,0.4266666666666667,0.4888888888888889,-0.6755555555555556,-0.001090830782496456,0.0008425109697420964,-0.001090830782496456
1589997478.035476,-0.142152488546439,-4.605695022907122,8.591390045814244,0.4266666666666667,0.4888888888888889,-0.6755555555555556,-0.0015604309355817952,0.00023480007654266957,-0.001090830782496456
1589997478.045476,-0.15275555970846572,-4.59,8.568266679125397,0.4266666666666667,0.4888888888888889,-0.6755555555555556,-0.002070152606288827,0.0013914157177965913,-0.0013914157177965913
1589997478.055476,-0.1550431549193585,-4.588347718306453,8.599913690161284,0.4266666666666667,0.4888888888888889,-0.6755555555555556,0.0007303588359611306,0.0018211896184575865,-0.0020014255917252493
1589997478.065476,-0.1360233988844718,-4.582007799628157,8.637953202231056,0.4266666666666667,0.4888888888888889,-0.6755555555555556,-0.0006527968546006799,0.00043803392789577606,-0.001309847746444344
1589997478.075476,-0.1498875858719034,-4.599887585871903,8.70966275761571,0.41340827608539765,0.4888888888888889,-0.6611922990925142,-6.131239565763209e-06,0.0,0.0010785683033649295
1589997478.085476,-0.16,-4.577293213708449,8.645689287638502,0.4133333333333333,0.4888888888888889,-0.6611111111111111,-0.00023511288692051554,0.0016512840972261232,-0.0005604533147296673
1589997478.095476,-0.1553262381522337,-4.6,8.580905444311455,0.4133333333333333,0.4888888888888889,-0.6611111111111111,-0.004193380353532457,0.00016994277645336693,0.0007509452295897221
1589997478.105476,-0.1349741209200013,-4.6,8.628393717853331,0.4133333333333333,0.4888888888888889,-0.6611111111111111,-0.0034533564880026013,0.0009099666419832226,-0.0007291025014699892
1589997478.115476,-0.13,-4.5905481658216525,8.668355502535043,0.4133333333333333,0.4888888888888889,-0.6611111111111111,-0.00017938684565122192,5.9795615217073756e-05,0.0009712395520623085
