time,acc_x,acc_y,acc_z,mag_x,mag_y,mag_z,gyr_x,gyr_y,gyr_z
1589995518.4932747,-4.06,-0.85,8.84,0.33,-0.3244444444444444,-0.5866666666666667,-0.007635815477475192,-0.002181661564992912,-0.009817477042468105
1589995518.5032747,-4.06,-0.8404524909857295,8.921131227464324,0.33,-0.3244444444444444,-0.5866666666666667,-0.005429474357680483,-0.002132302455389319,-0.013188687609164656
1589995518.5132747,-4.06,-0.8511027880757707,8.947756970189428,0.33,-0.3244444444444444,-0.5866666666666667,-0.004848590762253018,-0.0009705352645343894,-0.015512221990874518
1589995518.5232747,-4.062886408294661,-0.8657728165893223,8.984432041473307,0.32454789544341783,-0.3244444444444444,-0.5866666666666667,-0.0034187482243849794,0.0012594332074677924,-0.019342442331144984
1589995518.5332747,-4.082725184410015,-0.8863625922050078,8.988187038974962,0.3111111111111111,-0.3244444444444444,-0.5866666666666667,0.0016853737909813414,0.002281169699877476,-0.026080430645030378
1589995518.5432746,-4.12,-0.9,8.869845696291112,0.3111111111111111,-0.3244444444444444,-0.5866666666666667,0.005479401797808431,-0.002223741373869831,-0.027211857829983713
1589995518.5532746,-4.12,-0.9,8.855170048985304,0.3111111111111111,-0.3244444444444444,-0.5866666666666667,0.007880698972943955,-0.006225903332429037,-0.021608831088000824
1589995518.5632746,-4.093829443922646,-0.8672868049033066,8.869627917058017,0.3111111111111111,-0.3244444444444444,-0.5866666666666667,0.0072992638517602355,-0.007635815477475192,-0.010356968431562034
1589995518.5732746,-4.08,-0.8585066296638915,8.871493370336108,0.32150810292253396,-0.3244444444444444,-0.5904473909617296,0.0037611966471776505,-0.009491674176009251,-0.0008145071661471376
1589995518.5832746,-4.064648805213613,-0.8446488052136133,8.885351194786386,0.3233333333333333,-0.3244444444444444,-0.5911111111111111,0.005784325720652822,-0.010654754833522588,0.0
1589995518.5932746,-4.053664665470075,-0.8526706690598502,8.8393173237606,0.3233333333333333,-0.3244444444444444,-0.5911111111111111,0.006544984694978735,-0.00814399665590255,-0.0006910777922655025
1589995518.6032746,-4.076217066030575,-0.8774780440203839,8.897390220101919,0.3233333333333333,-0.3244444444444444,-0.5911111111111111,0.004638425851452457,-0.0027318670079261786,-0.0029973896260227354
1589995518.6132746,-4.086445848768795,-0.88,8.94867509261277,0.3233333333333333,-0.3244444444444444,-0.5911111111111111,0.0029570570787221424,-0.0028847945906247527,-0.001163093270593846
1589995518.6232746,-4.09,-0.8953345656192236,8.977667282809612,0.3233333333333333,-0.3244444444444444,-0.5706650236188129,0.006363515618408162,-0.0074543464009046165,-0.0008363708106830498
1589995518.6332746,-4.071478125270726,-0.8567822922983627,8.949130208784545,0.3233333333333333,-0.3244444444444444,-0.5644444444444444,0.012350136068463212,-0.010747069370395084,0.0009295923279269808
1589995518.6432745,-4.043977896095515,-0.8380110519522427,8.865911584382058,0.3233333333333333,-0.3244444444444444,-0.5644444444444444,0.017019371368887308,-0.015494619435334863,0.0004339211510559879
1589995518.6532745,-4.0638638268606675,-0.8479546089535558,8.834090782092888,0.3233333333333333,-0.3244444444444444,-0.5644444444444444,0.011379299903460849,-0.012891608813742583,-0.0017354264618521277
1589995518.6632745,-4.0372894179360435,-0.8630842328255826,8.869252698476748,0.3233333333333333,-0.3244444444444444,-0.5644444444444444,0.004822037666444488,-0.010571870214311411,-0.0028952957615677143
1589995518.6732745,-4.040909148384649,-0.87,8.910909148384649,0.3233333333333333,-0.3244444444444444,-0.587096021861148,0.0004710358629607886,-0.006966434205747898,-0.002132075212801286
1589995518.6832745,-4.055183706070287,-0.8603674121405751,8.920367412140575,0.3233333333333333,-0.3244444444444444,-0.6077777777777778,-0.002141583117712691,-0.001736442291945237,-0.0005654546148883386
1589995518.6932745,-4.058209910049627,-0.8664198200992556,8.819690989454095,0.3233333333333333,-0.3244444444444444,-0.6077777777777778,-0.0014813678267571674,0.001986393042862556,-0.0008955622603661001
1589995518.7032745,-4.085119283959756,-0.87,8.881637672869209,0.3233333333333333,-0.3244444444444444,-0.6077777777777778,-0.0017758529869357493,0.004921750382750084,-0.001090830782496456
1589995518.7132745,-4.1,-0.87,8.961311281282072,0.3233333333333333,-0.3244444444444444,-0.6077777777777778,-0.0038894270380873475,0.006544984694978735,4.767953289983463e-05
1589995518.7232745,-4.0673459015830495,-0.87,9.006327049208474,0.3233333333333333,-0.3244444444444444,-0.5787519125182666,0.0007793628398963387,0.001201970335797063,-0.0006901740038974349
1589995518.7332745,-4.067118541861189,-0.8771185418611889,8.988644374416433,0.3233333333333333,-0.3244444444444444,-0.5722222222222222,0.010723298612534847,-0.005435587212072142,-0.001090830782496456
1589995518.7432745,-4.07,-0.886861579706113,8.883937884114419,0.3233333333333333,-0.3244444444444444,-0.5722222222222222,0.012683835700457727,-0.007635815477475192,-0.0018393130184945553
1589995518.7532744,-4.078330230721498,-0.8733395385570034,8.864990692164493,0.3233333333333333,-0.3244444444444444,-0.5722222222222222,0.012907825817091814,-0.004001066638951997,-0.002181661564992912
1589995518.7632744,-4.046766610698009,-0.8434132885584072,8.856706644279203,0.3233333333333333,-0.3244444444444444,-0.5722222222222222,0.01381500947110347,-0.007622732834365376,-6.5413215549077995e-06
1589995518.7732744,-4.043859071164106,-0.8161409288358941,8.891577213492319,0.3094742621692273,-0.3198247540564091,-0.5760719642122516,0.011913114956061554,-0.00679389675394494,-0.001176854433895917
1589995518.7832744,-4.055790366287536,-0.82737109886261,8.898419267424927,0.3033333333333333,-0.31777777777777777,-0.5777777777777777,0.007118521951939747,-0.0016643680394574666,-0.001550030586155443
1589995518.7932744,-4.075523418775643,-0.8477617093878214,8.851191453060894,0.3033333333333333,-0.31777777777777777,-0.5777777777777777,0.000976638519974891,0.004477515392507389,-0.001090830782496456
1589995518.8032744,-4.089130848850906,-0.859130848850906,8.894785093105437,0.3033333333333333,-0.31777777777777777,-0.5777777777777777,0.0,0.00744619611186041,0.0018972325165707387
1589995518.8132744,-4.076760606999071,-0.8798590895013936,8.919859089501394,0.3033333333333333,-0.31777777777777777,-0.5777777777777777,0.0021662906140472358,0.0018590405066825633,0.0007374678222947548
1589995518.8232744,-4.074680297241698,-0.8806394055166044,8.948721188966791,0.3126939278167289,-0.31777777777777777,-0.5881784383148839,0.00378303357773709,-0.0016013720127441779,-0.000510541230247722
1589995518.8332744,-4.085938047716136,-0.87,8.97,0.3233333333333333,-0.31777777777777777,-0.6,0.006954285224663173,-0.006068104707008937,-0.0017385713061657932
1589995518.8432744,-4.06624064628052,-0.846240646280521,8.882882369695244,0.3233333333333333,-0.31777777777777777,-0.6,0.009590560740285962,-0.013910133141857527,-0.0004538326043642851
1589995518.8532743,-4.0429769823539745,-0.84,8.902557544115064,0.3233333333333333,-0.31777777777777777,-0.6,0.008889015459504868,-0.015271630954950384,-0.0018569231659264704
1589995518.8632743,-4.04619024700483,-0.8523804940096602,8.92238049400966,0.3233333333333333,-0.31777777777777777,-0.6,0.008051395061559134,-0.01662213335177541,-0.00015590796975536742
1589995518.8732743,-4.041978342864096,-0.8680216571359046,8.921978342864096,0.31352908572278326,-0.31777777777777777,-0.5893044571521272,0.008510842530522903,-0.013953184307752452,-0.0024092774296943873
1589995518.8832743,-4.05722311284589,-0.8613884435770545,8.90277688715411,0.3111111111111111,-0.31777777777777777,-0.5866666666666667,0.008726646259971648,-0.006514343808009609,-0.003272492347489368
1589995518.8932743,-4.06,-0.8514592040273556,8.840214428191489,0.3111111111111111,-0.31777777777777777,-0.5866666666666667,0.010589958890768096,-0.000795872335491157,0.00045413291410353017
1589995518.9032743,-4.06,-0.8284591623876765,8.83,0.3111111111111111,-0.31777777777777777,-0.5866666666666667,0.007775319991860569,0.00313298783310399,0.00030758382422045843
1589995518.9132743,-4.0708062547230135,-0.8308062547230134,8.867821891530546,0.3111111111111111,-0.31777777777777777,-0.5866666666666667,0.004776815400674621,0.0055421026595219,-0.0017681692943041143
1589995518.9232743,-4.093189748787374,-0.8597846231810613,8.94616412075581,0.3235680960769646,-0.32583817981450647,-0.6101151089553319,0.001114324748889904,0.002948038697312962,-0.0025531031479562134
1589995518.9332743,-4.088032955715756,-0.8520494335736354,8.940082389289392,0.33,-0.33,-0.6222222222222222,0.003916206084225175,-0.006741581385953894,-0.0008762595369178534
1589995518.9432743,-4.072567107890261,-0.8697315684389558,8.867969755231828,0.33,-0.33,-0.6222222222222222,0.012220603956373534,-0.022539574378622786,-0.0016216055032556573
1589995518.9532743,-4.051916505924497,-0.867944337282998,8.904250482226509,0.33,-0.33,-0.6222222222222222,0.01746847217122907,-0.03209774837771019,-0.0015241271652378838
1589995518.9632742,-4.0348131765481625,-0.849626353096324,8.960747293807351,0.33,-0.33,-0.6222222222222222,0.020766543421864094,-0.03769479982777487,-0.001656625450960399
1589995518.9732742,-4.020384630526357,-0.8303846305263571,8.984807684736822,0.3241239408772183,-0.3337393103508611,-0.6051282320468573,0.022865489750621745,-0.03874547111952611,-0.001657224514646598
1589995518.9832742,-4.01,-0.8134860849550115,8.976972169910024,0.31777777777777777,-0.3377777777777778,-0.5866666666666667,0.02186660350122996,-0.028941824628043657,-0.001090830782496456
1589995518.9932742,-4.0216683444996,-0.8158341722498004,8.911658277501996,0.31777777777777777,-0.3377777777777778,-0.5866666666666667,0.01627091859110445,-0.015088544662265606,-0.0017272402505433436
1589995519.0032742,-4.037017091008644,-0.8270170910086433,8.87,0.31777777777777777,-0.3377777777777778,-0.5866666666666667,0.009262739952053876,-0.0003067414965837352,-0.0014162156774121925
1589995519.0132742,-4.052464947330185,-0.8362324736650926,8.888697420995278,0.31777777777777777,-0.3377777777777778,-0.5866666666666667,0.004916385827482574,0.0012329201099949049,0.00026888404249985286
1589995519.0232742,-4.074937288613303,-0.84,8.929874577226606,0.32192702461480643,-0.33196883220593765,-0.5800278717274208,0.004087195058810618,-0.0065176216905700034,0.00027612807117520554
1589995519.0332742,-4.046460166743863,-0.8265840666975451,8.893044233441408,0.3233333333333333,-0.33,-0.5777777777777777,0.008021951385545094,-0.016043902771090187,0.0
1589995519.0432742,-4.00938105891126,-0.82,8.835635098185433,0.3233333333333333,-0.33,-0.5777777777777777,0.014315832170883764,-0.023383583358615925,-0.0014994517094718872
1589995519.0532742,-4.0,-0.7961363813482271,8.835909079101182,0.3233333333333333,-0.33,-0.5777777777777777,0.010288522115787718,-0.023353696676944452,-0.0013139559047558947
1589995519.0632741,-4.011253736766479,-0.8125074735329578,8.930029894131831,0.3233333333333333,-0.33,-0.5777777777777777,0.0038162772667767074,-0.014928096818483796,-0.0004770346583470884
1589995519.0732741,-4.0325055593741155,-0.8487583390611733,9.006252779687058,0.31985956684052347,-0.3265262335071901,-0.5916728437490173,-0.00341036227940559,0.0035506579458884757,0.0006820724558811179
1589995519.0832741,-4.054798906971829,-0.8649329689906096,9.01986593798122,0.31777777777777777,-0.3244444444444444,-0.6,-0.00545415391248228,0.011984514709776049,0.0005527273400907115
1589995519.093274,-4.05274157673614,-0.8492898920833677,8.971321360902875,0.31777777777777777,-0.3244444444444444,-0.6,-0.005077633525410845,0.012713449002886035,0.0003765203870714351
1589995519.103274,-4.0130672380749575,-0.8030672380749575,8.853067238074956,0.31777777777777777,-0.3244444444444444,-0.6,-0.0005820880722079021,0.0029241744687940035,-0.0004216632406147129
1589995519.113274,-4.01,-0.8,8.838301349844249,0.31777777777777777,-0.3244444444444444,-0.6,0.0017288931676739776,0.0027375435285686735,-0.00045276839731893436
1589995519.123274,-4.014291285467347,-0.8042912854673469,8.855747712804082,0.31157925432494343,-0.3268284919263038,-0.5942782860435375,-0.002499404719268725,0.012475753338874733,0.0009362132568523275
1589995519.133274,-4.04131211013121,-0.8259840825984083,8.879343944934394,0.3033333333333333,-0.33,-0.5866666666666667,-0.01221383212563358,0.02995338266980696,0.002181661564992912
1589995519.143274,-4.076100725834896,-0.834633091388368,8.859266182776736,0.3033333333333333,-0.33,-0.5866666666666667,-0.018784264427198435,0.03825912442896219,0.0010107837409102285
1589995519.153274,-4.09,-0.85323052725159,8.884845790877385,0.3033333333333333,-0.33,-0.5866666666666667,-0.020549586938946266,0.03166773590397528,0.000633514355491428
1589995519.163274,-4.074315984147952,-0.8595439894319683,8.941368031704096,0.3033333333333333,-0.33,-0.5866666666666667,-0.01393208499007759,0.017055348228141153,0.001090830782496456
1589995519.173274,-4.030343891041259,-0.8262751128330071,8.958137556416503,0.31190065369919184,-0.3267048767823621,-0.5906208145278322,-0.004844670675020007,0.0029036828825441873,0.0017378267133217294
1589995519.183274,-4.0158450211669425,-0.8216900423338855,8.932464936499171,0.31777777777777777,-0.3244444444444444,-0.5933333333333334,-0.002181661564992912,-0.0017284236838209076,-0.0010063029416293467
1589995519.193274,-4.02,-0.8181346483704974,8.836942538593481,0.31777777777777777,-0.3244444444444444,-0.5933333333333334,-0.0054174342656443854,0.006231347456700917,-0.0006838741869681897
1589995519.203274,-4.031942089365691,-0.8338841787313822,8.839710446828455,0.31777777777777777,-0.3244444444444444,-0.5933333333333334,-0.014149214821184891,0.025677277229251384,-0.000863189020616454
1589995519.213274,-4.08047998567207,-0.8540479985672069,8.912383988537657,0.31777777777777777,-0.3244444444444444,-0.5933333333333334,-0.021193532169206282,0.04064697091788075,-0.0004153889871485563
1589995519.223274,-4.14,-0.8829795092779879,8.99829918212998,0.31777777777777777,-0.3244444444444444,-0.5878012292478918,-0.025924666533654887,0.04699848887174951,0.0013461030287565097
1589995519.233274,-4.101913577439163,-0.8819135774391631,9.028261314532635,0.31777777777777777,-0.3244444444444444,-0.5788888888888889,-0.016884309031279292,0.02009058742929213,0.0
1589995519.243274,-4.043376387120247,-0.8286083318173549,8.900129161360743,0.31777777777777777,-0.3244444444444444,-0.5788888888888889,-0.001206125067493808,-0.003157198062492016,-0.0005707166327923972
1589995519.253274,-4.021396814554938,-0.8113968145549381,8.817095221832407,0.31777777777777777,-0.3244444444444444,-0.5788888888888889,0.003906216635796167,-0.011377538800514512,-0.0023340303963894646
1589995519.263274,-4.035139803835456,-0.840559215341824,8.88139803835456,0.31777777777777777,-0.3244444444444444,-0.5788888888888889,-0.005076491081183185,-0.002498323465401414,-0.0010298298516058621
1589995519.273274,-4.04619258483958,-0.8630962924197898,8.945481462098948,0.3215621351797432,-0.3244444444444444,-0.5854255062195564,-0.012934826474834892,0.007480672562352613,0.00041532456587301154
1589995519.283274,-4.056828215767634,-0.8668282157676348,8.97365643153527,0.33,-0.3244444444444444,-0.6,-0.017107304532333216,0.010961174644630778,-0.0003988548072762976
1589995519.293274,-4.058862115127176,-0.8644310575635876,8.928982597054887,0.33,-0.3244444444444444,-0.6,-0.013462341343821724,0.008726646259971648,0.00012412398462141724
1589995519.303274,-4.066129573944624,-0.8661295739446245,8.882259147889249,0.33,-0.3244444444444444,-0.6,-0.0064398931364041765,0.007882250283455666,-0.0015130287707544468
1589995519.313274,-4.06,-0.8502557915057914,8.899232625482625,0.33,-0.3244444444444444,-0.6,0.0015664898616400602,0.003887664050842219,-0.002181661564992912
1589995519.323274,-4.050370893439591,-0.8351854467197956,8.93,0.3209058438040583,-0.3244444444444444,-0.589835943075124,0.005413695714389082,-0.0004847280941084322,-0.0016564752727912825
1589995519.333274,-4.0532110183140455,-0.8388073455426968,8.934403672771348,0.3111111111111111,-0.3244444444444444,-0.5788888888888889,0.0036627876059617493,-0.00026019683898158784,-0.0006104646009936249
1589995519.3432739,-4.07,-0.8532566413662239,8.894407020872865,0.3111111111111111,-0.3244444444444444,-0.5788888888888889,-0.0014209778599313418,0.0025369060299757474,0.0
1589995519.3532739,-4.064282596209075,-0.8485651924181504,8.828587018954623,0.3111111111111111,-0.3244444444444444,-0.5788888888888889,-0.004986995135096089,0.0026488203423791026,0.0006236720051102655
1589995519.3632739,-4.063753644432274,-0.8587682221613698,8.86876822216137,0.3111111111111111,-0.3244444444444444,-0.5788888888888889,-0.004635235733828105,0.001362743386338737,0.0006813716931693685
1589995519.3732738,-4.07,-0.8839000886558995,8.90365994680646,0.3119244326236579,-0.3260710874695379,-0.57983776398686,-0.0030063335049036006,0.00013307942129288375,-0.00013307942129288375
1589995519.3832738,-4.064869495382144,-0.8451305046178557,8.924869495382143,0.31777777777777777,-0.3377777777777778,-0.5866666666666667,-0.0005311795458067336,0.0022101332558759007,-0.0005311795458067336
1589995519.3932738,-4.064697332252259,-0.8546973322522594,8.887118674234184,0.31777777777777777,-0.3377777777777778,-0.5866666666666667,0.0,0.0022476934242137807,-0.0010247989232755877
1589995519.4032738,-4.07,-0.86,8.878326156150534,0.31777777777777777,-0.3377777777777778,-0.5866666666666667,0.0005149840513133895,6.08626798696769e-05,-0.0026966456163063017
1589995519.4132738,-4.065401407544882,-0.8554014075448816,8.914598592455118,0.31777777777777777,-0.3377777777777778,-0.5866666666666667,0.0005892021618765426,0.0004140550793632846,-0.0017676064856296276
1589995519.4232738,-4.063236189198948,-0.85,8.932944756795791,0.31777777777777777,-0.3334628588458474,-0.5866666666666667,-0.00035301347961947516,0.002181661564992912,-0.0007060269592389503
1589995519.4332738,-4.065027524677297,-0.854972475322703,8.945082574031892,0.31777777777777777,-0.3244444444444444,-0.5866666666666667,-0.004345308270821588,0.004893726138597189,-0.0005544228208303457
1589995519.4432738,-4.067686769739171,-0.8561566151304142,8.883879381564972,0.31777777777777777,-0.3244444444444444,-0.5866666666666667,-0.0063780707200576155,0.007635815477475192,-0.0001669139749211207
1589995519.4532738,-4.079847173432803,-0.85,8.810382066417992,0.31777777777777777,-0.3244444444444444,-0.5866666666666667,-0.00437165852617989,0.007644150873669258,-0.0021649907726047795
1589995519.4632738,-4.055222904826045,-0.8452229048260456,8.864777095173954,0.31777777777777777,-0.3244444444444444,-0.5866666666666667,-0.00519360378914904,0.007684445766638689,-0.0005211002466664794
1589995519.4732738,-4.041443542823352,-0.8314435428233515,8.878556457176648,0.31777777777777777,-0.3244444444444444,-0.5866666666666667,-0.004442056177364014,0.004678255319498582,-0.0020241954702365328
1589995519.4832737,-4.065294554402936,-0.8379418316044039,8.910589108805873,0.33,-0.3244444444444444,-0.5788888888888889,-0.0066092464969472265,0.007475565935295935,0.00028877314611623655
1589995519.4932737,-4.08,-0.8626268710550045,8.91635816050496,0.33,-0.3244444444444444,-0.5788888888888889,-0.010390571404157677,0.012516875028267899,0.0005177364208068842
1589995519.5032737,-4.075493019745944,-0.87,8.863520940762168,0.33,-0.3244444444444444,-0.5788888888888889,-0.009049326929124165,0.009433401985796133,-0.0015824660622192643
1589995519.5132737,-4.06666150484716,-0.8633230096943213,8.893353980611359,0.33,-0.3244444444444444,-0.5788888888888889,-0.004725807256495804,0.008728335461454906,-0.0010891415810131983
1589995519.5232737,-4.067103223632483,-0.8523677412108278,8.936574188475795,0.3271060940756549,-0.3244444444444444,-0.5807304653861994,-0.004305614346591931,0.010391746825413278,0.0013491112822720966
1589995519.5332737,-4.084647319629182,-0.8626763401854091,8.984647319629183,0.31777777777777777,-0.3244444444444444,-0.5866666666666667,-0.005592211496401622,0.009894419963442258,0.0007219444356546473
1589995519.5432737,-4.061837801690072,-0.8659189008450362,8.91694571098547,0.31777777777777777,-0.3244444444444444,-0.5866666666666667,0.0008903577169309634,0.011309253956095545,-0.001936955772092923
1589995519.5532737,-4.057247325290234,-0.8563763373548827,8.854494650580468,0.31777777777777777,-0.3244444444444444,-0.5866666666666667,0.003762782668463475,0.006354964604765803,0.00039528027586764077
1589995519.5632737,-4.081534464433335,-0.8461551785222218,8.895379285911114,0.31777777777777777,-0.3244444444444444,-0.5866666666666667,0.006964389657095135,0.002601066527109311,0.0006714258203800569
1589995519.5732737,-4.096164132427478,-0.8419179337862611,8.918082066213739,0.31777777777777777,-0.3231658219202703,-0.5866666666666667,0.007426601356190824,0.0028540641049206316,-0.0006276423638531049
1589995519.5832736,-4.081087026852152,-0.8494564865739243,8.910543513426076,0.31777777777777777,-0.31814012006182824,-0.5866666666666667,0.006604272812565084,0.001209407017669154,-0.003094627994730321
1589995519.5932736,-4.072467474895438,-0.8501301004182488,8.892857776150183,0.31777777777777777,-0.31777777777777777,-0.5866666666666667,0.009789093534259823,-0.01334493739295141,1.419175410414023e-05
1589995519.6032736,-4.0779704286778005,-0.8220295713221997,8.8150739283055,0.31777777777777777,-0.31777777777777777,-0.5866666666666667,0.01669454956847597,-0.01767468440729605,-0.003272492347489368
1589995519.6132736,-4.04993680956494,-0.8374842023912351,8.865031595217529,0.31777777777777777,-0.31777777777777777,-0.5866666666666667,0.018811661242684713,-0.018811661242684713,-0.0029980614000722026
1589995519.6232736,-4.024513342728554,-0.8311283356821384,8.877743328635724,0.31777777777777777,-0.31777777777777777,-0.5866666666666667,0.016731708725966573,-0.016731708725966573,-0.0023047438944994903
1589995519.6332736,-4.036176659254191,-0.8361766592541908,8.962058886418065,0.3111111111111111,-0.33,-0.5788888888888889,-0.003753789242734287,0.0035291995744855193,0.00022458966824876785
1589995519.6432736,-4.06,-0.8617478624704384,8.956017100236494,0.3111111111111111,-0.33,-0.5788888888888889,-0.009817477042468105,0.008726646259971648,0.001090830782496456
1589995519.6532736,-4.0692501260595,-0.8653749369702499,8.91312531514875,0.3111111111111111,-0.33,-0.5788888888888889,-0.009817477042468105,0.00973567848473918,0.001090830782496456
1589995519.6632736,-4.083782393440087,-0.8562176065599133,8.943782393440086,0.3111111111111111,-0.33,-0.5788888888888889,-0.009817477042468105,0.009670522466176808,0.001503425902092373
1589995519.6732736,-4.084175167286245,-0.8529124163568773,8.935437918215612,0.31467073110285004,-0.32644038000826103,-0.5850373234200743,-0.008546695677056917,0.008271206160180787,0.002181661564992912
1589995519.6832736,-4.0657019792111635,-0.8385098960558166,8.887105937633489,0.3233333333333333,-0.31777777777777777,-0.6,-0.009204884616700479,0.014037049084713581,0.003119344241047462
1589995519.6932735,-4.055474043198181,-0.7918961727927245,8.82474043198181,0.3233333333333333,-0.31777777777777777,-0.6,-0.023561200871833075,0.021609775284805503,0.0023885019301165293
1589995519.7032735,-3.703814630148214,-0.4792042893244997,8.903858343009357,0.3233333333333333,-0.31777777777777777,-0.6,-0.04648722788167022,0.025005289635946695,-0.004028049684098654
1589995519.7132735,-2.890229896760268,-0.3895872447005641,9.16803029994502,0.3233333333333333,-0.31777777777777777,-0.6,-0.04699235216863161,0.027805356388499125,-0.02619988555225162
1589995519.7232735,-2.2033039399067724,-0.9190300169234881,9.171587245034292,0.3214978111629042,-0.3218159265527218,-0.5908223891478546,0.015276132765430089,0.03198487765143107,-0.09023114770404658
1589995519.7332735,-2.346279376235449,-0.9739095102130463,8.605580935646827,0.31777777777777777,-0.33,-0.5722222222222222,0.05945494955474533,0.033977474173530066,-0.2235316639392227
1589995519.7432735,-2.7025548003166544,-0.7888248300712473,8.657854120601643,0.31777777777777777,-0.33,-0.5722222222222222,-0.0049198901093662,0.03601891501232006,-0.3642323973631131
1589995519.7532735,-2.7267482158926817,-0.7516296590837745,9.032559278404454,0.31777777777777777,-0.33,-0.5722222222222222,0.002155796481666864,0.05289236040941509,-0.49092352769385306
1589995519.7632735,-2.3866613399851895,-0.8215592236036949,9.040362279299996,0.31777777777777777,-0.33,-0.5722222222222222,0.046153319533155,0.07781317686889294,-0.5874012372051084
1589995519.7732735,-2.188382437580508,-1.2047082522542276,9.118388193055061,0.31867642356638437,-0.3291013542113934,-0.5745587012725993,0.07773760562396312,0.09732466563940718,-0.6582360306000569
1589995519.7832735,-2.235717439293598,-0.9804470198675497,8.640987858719646,0.3233333333333333,-0.3244444444444444,-0.5866666666666667,0.06318872089070529,0.0735913455714662,-0.6791691848938378
1589995519.7932734,-2.3741151662229343,-1.0194943806988197,8.888483142096458,0.3233333333333333,-0.3244444444444444,-0.5866666666666667,0.003493110386670141,0.03736401915385547,-0.6990570680508427
1589995519.8032734,-2.4476246543850384,-1.04,8.971947715057938,0.3233333333333333,-0.3244444444444444,-0.5866666666666667,0.003780325603915496,0.0357564360561793,-0.7054254985153404
1589995519.8132734,-2.5258060206902977,-1.04,9.01755351206934,0.3233333333333333,-0.3244444444444444,-0.5866666666666667,0.02296891982518237,0.055655718952307906,-0.7047148098404787
1589995519.8232734,-2.561110190202954,-0.99,8.793885665710338,0.32370339673431797,-0.32407438104345976,-0.5878385341031181,0.036968047739567765,0.06242046463132871,-0.7041913695341182
1589995519.8332734,-2.5789374136648604,-0.99,8.85628094782701,0.32964580455495346,-0.3181319732228243,-0.6066561588684636,0.01752156362087735,0.04880792574824542,-0.7139146115934634
1589995519.8432734,-2.68220979614949,-1.0148839184597962,8.932906285390713,0.33,-0.31777777777777777,-0.6077777777777778,0.018734524541796794,0.0503939422976608,-0.7218382765194297
1589995519.8532734,-2.7240204099586522,-1.0353605466115363,8.874639453388465,0.33,-0.31777777777777777,-0.6077777777777778,0.029598617358776086,0.05781403147231216,-0.7250425707345056
1589995519.8632734,-2.7546296158149945,-1.0723148079074973,8.85620365535248,0.33,-0.31777777777777777,-0.6077777777777778,0.029028223677262273,0.05629899323967367,-0.7315333380948739
1589995519.8732734,-2.7689006468982535,-1.0805496765508733,8.910274838275436,0.3309466651709482,-0.31759455226082006,-0.6077777777777778,0.024058237625132917,0.05132900718754432,-0.7375814901982368
1589995519.8832734,-2.7490509779541865,-1.1152407823633494,8.8895184352733,0.3644444444444445,-0.3111111111111111,-0.6077777777777778,0.02701119450747847,0.05511321979745339,-0.7464403608452735
1589995519.8932734,-2.78,-1.1435966936224546,8.825613225510182,0.3644444444444445,-0.3111111111111111,-0.6077777777777778,0.027969261933049626,0.057421693060453936,-0.752453270416853
1589995519.9032733,-2.7829873644190988,-1.15,8.829873644190988,0.3644444444444445,-0.3111111111111111,-0.6077777777777778,0.025967285935656382,0.0567232006898157,-0.7592044413369317
1589995519.9132733,-2.79,-1.1514590109708362,8.902918021941673,0.3644444444444445,-0.3111111111111111,-0.6077777777777778,0.023066599840324404,0.05640489387401804,-0.7676498071345026
1589995519.9232733,-2.79,-1.1572397871988531,8.914479574397706,0.3644444444444445,-0.3111111111111111,-0.6077777777777778,0.023697184705948872,0.055143724142769114,-0.7708027314626249
1589995519.9332733,-2.8241676735393852,-1.2027095919242312,8.902916163230309,0.3796300771286156,-0.29592547842693995,-0.6011340634784529,0.02586183471807457,0.06199576913743295,-0.7778988665169485
1589995519.9432733,-2.813205660019793,-1.2296169800593797,8.816794339980207,0.38222222222222224,-0.2933333333333333,-0.6,0.02002641834187093,0.053800391605107196,-0.7954399807202356
1589995519.9532733,-2.8042285661062727,-1.2477469380151818,8.81225306198482,0.38222222222222224,-0.2933333333333333,-0.6,0.02198491641751682,0.05552462287198768,-0.8035887687277652
1589995519.9632733,-2.768472485768501,-1.2500759013282732,8.825037950664138,0.38222222222222224,-0.2933333333333333,-0.6,0.03381575425739013,0.05945441742132249,-0.8083221689309363
1589995519.9732733,-2.857806219261898,-1.2988033923246718,8.849401696162335,0.38222222222222224,-0.2933333333333333,-0.6,0.03381575425739013,0.062112089777957014,-0.8189528583574746
1589995519.9832733,-2.9210056449036106,-1.334860368516349,8.919720737032698,0.38803228364161374,-0.2933333333333333,-0.6193668713979716,0.019555718107338745,0.062177354602297986,-0.8315726156515496
1589995519.9932733,-2.9219773848881223,-1.397984923258748,8.894067845335632,0.3888888888888889,-0.2933333333333333,-0.6222222222222222,0.027486468792892106,0.06413920539344589,-0.8449521791153812
1589995520.0032732,-2.962169996646064,-1.4247799977640425,8.773490010061808,0.3888888888888889,-0.2933333333333333,-0.6222222222222222,0.031870802606341286,0.06706209460241201,-0.854451569044521
1589995520.0132732,-2.9332027623683916,-1.4632027623683912,8.87441243065776,0.3888888888888889,-0.2933333333333333,-0.6222222222222222,0.02818691675588473,0.06256945102870197,-0.8683905279594867
1589995520.0232732,-2.949030906826673,-1.4790309068266727,8.945639080720026,0.3888888888888889,-0.2933333333333333,-0.6222222222222222,0.02732362539564003,0.059116285587723146,-0.8796133156426678
1589995520.0332732,-2.885372057140013,-1.5169419142899807,8.857686028570006,0.4155555555555556,-0.2788888888888889,-0.6,0.030543261909900768,0.0643590161672909,-0.9028020365258917
1589995520.0432732,-2.8714543825593553,-1.5378184261609675,8.850727191279677,0.4155555555555556,-0.2788888888888889,-0.6,0.030543261909900768,0.0643590161672909,-0.9179838643792421
1589995520.0532732,-2.8848592078283293,-1.5425703960858355,8.772570396085834,0.4155555555555556,-0.2788888888888889,-0.6,0.02836160034490785,0.06629100710187869,-0.9500175213588014
1589995520.0632732,-2.871631102908653,-1.554077757271632,8.787339963088936,0.4155555555555556,-0.2788888888888889,-0.6,0.028450563208016748,0.06898922788660342,-0.9712376578870108
1589995520.0732732,-2.8844258194408434,-1.5860645486021079,8.844916187483793,0.4155555555555556,-0.2788888888888889,-0.6,0.029148406740348232,0.07108275848359784,-0.9914751203246237
1589995520.0832732,-2.871485392467441,-1.5722280887011617,8.87925730376628,0.42892721655129257,-0.2675744065078806,-0.6,0.029452431127404314,0.07098501645364828,-1.0265470225183129
1589995520.0932732,-2.915051965304368,-1.6174220520434477,8.877837774478394,0.43,-0.26666666666666666,-0.6,0.0343555011132757,0.07498611349358736,-1.0678439765689531
1589995520.1032732,-2.899219905083508,-1.6431203796659668,8.782340284749475,0.43,-0.26666666666666666,-0.6,0.03608251097720085,0.07761917586688401,-1.0933836371409904
1589995520.1132731,-2.888896852602057,-1.68,8.811103147397944,0.43,-0.26666666666666666,-0.6,0.037168469747499995,0.0794702008370003,-1.124759053110657
1589995520.1232731,-2.8617011734230315,-1.683402346846063,8.842721877476851,0.43132313488458013,-0.26591058958976377,-0.6007560770769029,0.0391214527829758,0.0754900070726004,-1.1573198171545194
1589995520.1332731,-2.9022422625606525,-1.7644845251213053,8.907587620097043,0.4628550931027298,-0.24789232775082104,-0.6187743389158457,0.03558357534399582,0.08079682323107036,-1.1820849592273794
1589995520.143273,-2.8441229639540127,-1.7868716065900216,8.779005429455966,0.4688888888888889,-0.24444444444444444,-0.6222222222222222,0.03986956896936051,0.08771620819933254,-1.2192332020975967
1589995520.153273,-2.8636984085004435,-1.819497347500739,8.726804243998819,0.4688888888888889,-0.24444444444444444,-0.6222222222222222,0.04271670196833366,0.0898515579485624,-1.2384513498406653
1589995520.163273,-2.917988728782101,-1.8683909830256809,8.796379711807782,0.4688888888888889,-0.24444444444444444,-0.6222222222222222,0.03944542469438709,0.08844505164447027,-1.2718586657640187
1589995520.173273,-2.903211041301885,-1.8783944793490575,8.808394479349058,0.4688888888888889,-0.24444444444444444,-0.6222222222222222,0.04384838640836382,0.09385146726840261,-1.2913134361273295
1589995520.183273,-2.97,-1.9493511652542372,8.878311043432204,0.4955555555555556,-0.20555555555555555,-0.6355555555555555,0.04330744093572678,0.09490227807719166,-1.3200613893095727
1589995520.193273,-2.97,-1.9892258179867692,8.821548364026462,0.4955555555555556,-0.20555555555555555,-0.6355555555555555,0.04500978836455697,0.09530483032733876,-1.3426761687496962
1589995520.203273,-2.971638180598944,-2.0398290835936606,8.748190902994716,0.4955555555555556,-0.20555555555555555,-0.6355555555555555,0.04234505864717331,0.09726263742464618,-1.364930772204809
1589995520.213273,-2.978498225413389,-2.0809893524803322,8.782491127066942,0.4955555555555556,-0.20555555555555555,-0.6355555555555555,0.046086632673624374,0.09801095222993639,-1.379897068310613
1589995520.223273,-2.970315419179378,-2.1287383232824877,8.848107484923732,0.4955555555555556,-0.20555555555555555,-0.6355555555555555,0.04690572364734761,0.10028761819962287,-1.403245486067454
1589995520.233273,-2.939761204564169,-2.179522409128338,8.861952240912833,0.5277777777777778,-0.18777777777777774,-0.65,0.04605389785432038,0.1001174270002047,-1.4345512412662464
1589995520.243273,-2.9637117791554566,-2.2690490115803015,8.842852965259095,0.5277777777777778,-0.18777777777777774,-0.65,0.043726913363316994,0.10441859956780013,-1.4581194912844184
1589995520.253273,-2.89,-2.3125495927784825,8.722549592778483,0.5277777777777778,-0.18777777777777774,-0.65,0.048670209069500606,0.10813130618142913,-1.4845465530586266
1589995520.263273,-2.89,-2.327971797841634,8.737971797841634,0.5277777777777778,-0.18777777777777774,-0.65,0.04614675666697186,0.10897245698227204,-1.5038930214780135
1589995520.273273,-2.899660284289806,-2.397621990028641,8.807621990028641,0.5277777777777778,-0.18777777777777774,-0.65,0.05108376060034474,0.11224439889094175,-1.5317278757579746
1589995520.283273,-2.9389771138881358,-2.4765343291677966,8.776325704629379,0.5333333333333333,-0.14888888888888888,-0.6644444444444444,0.05870446053009572,0.1155392407856924,-1.5636068295805454
1589995520.293273,-2.888168753048285,-2.5504578117379286,8.760457811737929,0.5333333333333333,-0.14888888888888888,-0.6644444444444444,0.05731463633599124,0.11994144656097806,-1.5866251309172097
1589995520.303273,-2.8608931880994963,-2.557276702975126,8.767276702975126,0.5333333333333333,-0.14888888888888888,-0.6644444444444444,0.04987637987196119,0.11919762091457503,-1.6111713772485088
1589995520.313273,-2.692915439775522,-2.56,8.726365399937645,0.5333333333333333,-0.14888888888888888,-0.6644444444444444,0.04690572364734761,0.12366035178510752,-1.6504852810462953
1589995520.323273,-2.6152244859010447,-2.6695510281979105,8.78390476644878,0.5333333333333333,-0.14888888888888888,-0.6644444444444444,0.05088911144109486,0.12335886225615916,-1.690640787190849
1589995520.333273,-2.574288362221436,-2.736508524938097,8.793491475061902,0.56,-0.10777777777777778,-0.68,0.05544193948362712,0.12748852288804954,-1.7513878504077542
1589995520.343273,-2.520876689069685,-2.724639264237708,8.805360735762292,0.56,-0.10777777777777778,-0.68,0.05479457173675413,0.13072536162241452,-1.7831088700045312
1589995520.353273,-2.5,-2.7586622782128396,8.68434759580827,0.56,-0.10777777777777778,-0.68,0.0545415391248228,0.14253402548107316,-1.848224971984176
1589995520.363273,-2.365807363260598,-2.7363189464577524,8.727362107084495,0.56,-0.10777777777777778,-0.68,0.05281940431376745,0.14289883250703572,-1.8887970403627343
1589995520.373273,-2.48,-2.851985272016832,8.741323514677887,0.5604411715592961,-0.1061233844304178,-0.681433807567712,0.05457763238861595,0.1494799104658076,-1.9408686753028386
1589995520.383273,-2.475140522321104,-2.913239651785931,8.775140522321104,0.5733333333333334,-0.057777777777777775,-0.7233333333333334,0.0554556743126861,0.1507113435791441,-1.9833340915411113
1589995520.3932729,-2.4190315396220994,-2.9519369207558017,8.72,0.5733333333333334,-0.057777777777777775,-0.7233333333333334,0.053556350981510556,0.15282195218868808,-2.0132534833989424
1589995520.4032729,-2.40197362491402,-2.9669901093427575,8.716990109342758,0.5733333333333334,-0.057777777777777775,-0.7233333333333334,0.05519819540099651,0.15457323932086964,-2.0416046466715025
1589995520.4132729,-2.3315079588806826,-2.9490477532840953,8.69,0.5733333333333334,-0.057777777777777775,-0.7233333333333334,0.060510799031775926,0.1613607094111861,-2.058705044559235
1589995520.4232728,-2.3472727443573698,-3.0436364661442186,8.69,0.5733333333333334,-0.057777777777777775,-0.7233333333333334,0.054491949384677725,0.1605008737473149,-2.0733222508450453
1589995520.4332728,-2.2641502604396573,-3.1185375651099143,8.761225390659487,0.5466666666666666,-0.017777777777777778,-0.7233333333333334,0.050816323593037865,0.16037798254133412,-2.091601190744357
1589995520.4432728,-2.2276803793716655,-3.11541244813278,8.705360758743332,0.5466666666666666,-0.017777777777777778,-0.7233333333333334,0.054119820193972656,0.16681276593578773,-2.094985508896386
1589995520.4532728,-2.197654165617921,-3.1841052101686387,8.652345834382078,0.5466666666666666,-0.017777777777777778,-0.7233333333333334,0.04915135792120578,0.1663180606103834,-2.1014551634908827
1589995520.4632728,-2.165171058490968,-3.240950647640806,8.684828941509032,0.5466666666666666,-0.017777777777777778,-0.7233333333333334,0.050037197250336035,0.17340477524342546,-2.093482609528711
1589995520.4732728,-2.16,-3.3039207991437745,8.743920799143774,0.5466666666666666,-0.017777777777777778,-0.7233333333333334,0.04723729261869509,0.17453292519943295,-2.0833906706997767
1589995520.4832728,-2.0512876835603553,-3.1935225181003806,8.73446966908005,0.5570202206132996,-0.02813133172441063,-0.7285101103066498,0.04521162734436388,0.17453292519943295,-2.064607952604405
1589995520.4932728,-1.9854779395396465,-3.16,8.709286763723787,0.56,-0.031111111111111114,-0.73,0.03568620778826893,0.18507708854253296,-2.04593173591218
1589995520.5032728,-1.9504253356395684,-3.2434026851165476,8.53765604151223,0.56,-0.031111111111111114,-0.73,0.03743672665372151,0.15415461409595935,-2.0253252893319593
1589995520.5132728,-1.9573346511819454,-3.2986772094555636,8.66202372127502,0.56,-0.031111111111111114,-0.73,0.02537769612635174,0.17751898574273828,-2.0019609176851803
1589995520.5232728,-1.9260510624279361,-3.328487234393016,8.616640421676824,0.56,-0.031111111111111114,-0.73,0.027206480441347776,0.17357067265906373,-1.9623959890582823
1589995520.5332727,-1.9261669765083658,-3.4051106979888455,8.758722325502788,0.6044444444444445,0.008888888888888889,-0.73,0.019519731972537983,0.16123389680874015,-1.916795978516311
1589995520.5432727,-1.866613247863248,-3.4788710826210827,8.741128917378918,0.6044444444444445,0.008888888888888889,-0.73,0.034616201845472025,0.15835518213615887,-1.8687254053029816
1589995520.5532727,-1.8218023504273504,-3.4639341168091167,8.756065883190884,0.6044444444444445,0.008888888888888889,-0.73,0.04520710821358518,0.1607992374518773,-1.8271764649357687
1589995520.5632727,-1.7005225657274985,-3.3288836173674743,8.276057035197397,0.6044444444444445,0.008888888888888889,-0.73,0.06943746542609122,0.15847879574602378,-1.7699701076643752
1589995520.5732727,-1.7077064314464332,-3.4510093345893638,8.771743769803887,0.6044444444444445,0.008888888888888889,-0.73,0.019284621499467497,0.11772961005564199,-1.7488118766328307
1589995520.5832727,-1.75,-3.590892821234667,8.44089081037603,0.5488888888888889,-0.031111111111111114,-0.7233333333333334,0.054697497436979436,0.1372889396330468,-1.6659909992885507
1589995520.5932727,-1.7489137776552484,-3.600543111172376,8.950767110069613,0.5488888888888889,-0.031111111111111114,-0.7233333333333334,0.0234998888175708,0.1135945119759177,-1.6113836674412791
1589995520.6032727,-1.7103694258735958,-3.619815287063202,8.623140119925562,0.5488888888888889,-0.031111111111111114,-0.7233333333333334,0.04452257152497027,0.11885018265276756,-1.5420088145068604
1589995520.6132727,-1.68970723358256,-3.631756598504639,8.77941446716512,0.5488888888888889,-0.031111111111111114,-0.7233333333333334,0.040009444470121794,0.10648625047836068,-1.472759322765771
1589995520.6232727,-1.682150617061526,-3.677096297630844,8.764301234123051,0.5488888888888889,-0.031111111111111114,-0.7233333333333334,0.030942155566189934,0.09577036359189577,-1.420004187324713
1589995520.6332726,-1.6147993307403143,-3.631319397666283,8.675239129962408,0.5293286881109831,0.021049424296637528,-0.6516125971476789,0.042586179758474986,0.09627676136559055,-1.34666927225981
1589995520.6432726,-1.6025742229445397,-3.7053463737411847,8.592376295092434,0.5188888888888888,0.048888888888888885,-0.6133333333333333,0.03868670926471092,0.09735394851538631,-1.2580843900400958
1589995520.6532726,-1.548160372134234,-3.6373241776497953,8.887624321630303,0.5188888888888888,0.048888888888888885,-0.6133333333333333,0.028908888355175758,0.08005023459678001,-1.1668750621606836
1589995520.6632726,-1.475161780295239,-3.531144407702166,8.396542885622518,0.5188888888888888,0.048888888888888885,-0.6133333333333333,0.05062591864341311,0.09669995781776199,-1.1111346844208743
1589995520.6732726,-1.4967624020887729,-3.6219060052219323,8.713433420365535,0.5188888888888888,0.048888888888888885,-0.6133333333333333,0.026257550108434606,0.06911680421470691,-1.0463609153157667
1589995520.6832726,-1.448442193271549,-3.6939474906549292,8.89495808542169,0.5433333333333333,0.13666666666666666,-0.5988888888888889,0.040991119520245825,0.06759131201207873,-0.9521758899889334
1589995520.6932726,-1.281453186171507,-3.462018314127093,8.533148570038264,0.5433333333333333,0.13666666666666666,-0.5988888888888889,0.05009895698440807,0.08277104111901583,-0.8874090457993353
1589995520.7032726,-1.392999048783802,-3.676581510168954,8.351084839425646,0.5433333333333333,0.13666666666666666,-0.5988888888888889,0.0419606932744243,0.06338652300875056,-0.8385674801871942
1589995520.7132726,-1.3606182318369389,-3.6998454420407656,8.438454420407652,0.5433333333333333,0.13666666666666666,-0.5988888888888889,-0.005803159744681284,0.023514394119032576,-0.7926175344108791
1589995520.7232726,-1.4089323492263972,-3.7652431323018627,8.80699261919798,0.5433333333333333,0.13666666666666666,-0.5988888888888889,0.017474626063230594,0.039810135484498806,-0.7367870048698723
1589995520.7332726,-1.3902256188533324,-3.7403008251377767,8.562481807386659,0.5312030299032096,0.18187961581530993,-0.5845530757441971,0.020742192333454437,0.03713746900294483,-0.6615192707074838
1589995520.7432725,-1.3625500448162535,-3.674678603440181,8.847871441376071,0.5311111111111111,0.18222222222222226,-0.5844444444444444,0.00914504870253874,0.0438412801859219,-0.5785782486656783
1589995520.7532725,-1.3000337956769696,-3.630202774061818,8.829459269168485,0.5311111111111111,0.18222222222222226,-0.5844444444444444,0.021814772381691428,0.02728367244007523,-0.5180229659821289
1589995520.7632725,-1.3197211856650004,-3.748327113990002,8.514461029359994,0.5311111111111111,0.18222222222222226,-0.5844444444444444,0.020740991830393605,0.03480013629915998,-0.44715344959647285
1589995520.7732725,-1.3991959548754094,-3.868793932313114,8.660472314263277,0.5311111111111111,0.18222222222222226,-0.5844444444444444,0.024181360284524535,0.02194817722579206,-0.3977717342017642
1589995520.7832725,-1.3668761394712854,-3.75243372075357,8.747221209358857,0.5350462118910159,0.21370302846146055,-0.5811651937945238,0.02444522863797659,0.013393088426904603,-0.34707438401417723
1589995520.7932725,-1.3380364576140782,-3.662054686421117,8.715708339087374,0.5377777777777778,0.23555555555555555,-0.5788888888888889,0.02575156028445489,0.01025579780985132,-0.29046011710451614
1589995520.8032725,-1.3734494168919738,-3.8019369678382633,8.666898833783947,0.5377777777777778,0.23555555555555555,-0.5788888888888889,0.025292078851624978,0.008861960162775977,-0.20450997281793096
1589995520.8132725,-1.391729923861514,-3.8572992386151412,8.653839390892113,0.5377777777777778,0.23555555555555555,-0.5788888888888889,0.02181661564992912,0.0011322325197088631,-0.09411956272129263
1589995520.8232725,-1.39,-3.870865465168732,8.74031276179838,0.5377777777777778,0.23555555555555555,-0.5788888888888889,0.02097489066187598,-0.006733799904425097,-0.020959003752965014
1589995520.8332725,-1.320168809545833,-3.680354500046249,8.64025321431875,0.5511111111111111,0.2533333333333333,-0.6,0.015251375263563263,-0.012013870019378921,0.0710273764370821
1589995520.8432724,-1.4171602996947552,-3.8840366293589863,8.785740449542132,0.5511111111111111,0.2533333333333333,-0.6,0.0036132319231521673,-0.020477974266950624,0.14191424951049508
1589995520.8532724,-1.4116318980577536,-3.8732637961155074,8.681214674750796,0.5511111111111111,0.2533333333333333,-0.6,0.0023596740285222895,-0.018900148229498506,0.20514849066032645
1589995520.8632724,-1.3645183381931998,-3.7790366763863994,8.65090366763864,0.5511111111111111,0.2533333333333333,-0.6,0.003173917499751934,-0.021520891106716816,0.2865332411499263
1589995520.8732724,-1.31512479878983,-3.78495840040339,8.75470880282373,0.5511111111111111,0.2533333333333333,-0.6,-0.0016226327375882064,-0.02915930327754548,0.3448322938848612
1589995520.8832724,-1.345115184388541,-3.8170691106331245,8.546378004301879,0.5651469462542127,0.26536404917027756,-0.5879692841630558,0.0016488108414130162,-0.0326183533301777,0.42416423996899344
1589995520.8932724,-1.4073005118446091,-3.80726655292342,8.52636672353829,0.5666666666666667,0.26666666666666666,-0.5866666666666667,-0.011708374473429872,-0.04105894509794735,0.46838125638984157
1589995520.9032724,-1.4330591493986886,-3.820822551803934,8.64105360962098,0.5666666666666667,0.26666666666666666,-0.5866666666666667,-0.008278013846007083,-0.045057763515589204,0.5420249464399827
1589995520.9132724,-1.4385323127504366,-3.898258502003493,8.698532312750435,0.5666666666666667,0.26666666666666666,-0.5866666666666667,-0.014441263620365338,-0.054962102415824325,0.6199634707581377
1589995520.9232724,-1.476268169623193,-3.7866882232811436,8.670985464301445,0.5666666666666667,0.26666666666666666,-0.5866666666666667,-0.01319746686946429,-0.057514449406811344,0.6855880204071454
1589995520.9332724,-1.5089135824529272,-3.7715226374215454,8.741958857296018,0.5701691819357272,0.26106264223616976,-0.5999762246890968,-0.01475000766705271,-0.06194033506169971,0.7522476865409665
1589995520.9432724,-1.5347761584780522,-3.8047761584780524,8.730895366087791,0.5722222222222222,0.2577777777777778,-0.6077777777777778,-0.026839349272135292,-0.07080633157325303,0.8328494452274023
1589995520.9532723,-1.560388001236986,-3.8167960004123285,8.662427997113701,0.5722222222222222,0.2577777777777778,-0.6077777777777778,-0.025353961396562097,-0.07456831971678789,0.9090211467764574
1589995520.9632723,-1.5778922667623234,-3.7095082653274742,8.71103040086091,0.5722222222222222,0.2577777777777778,-0.6077777777777778,-0.03151657396044143,-0.0787109750034618,0.9970576168308718
1589995520.9732723,-1.5871856336751926,-3.6728143663248076,8.737185633675193,0.5722222222222222,0.2577777777777778,-0.6077777777777778,-0.032248092176461504,-0.08041447816270561,1.0627631524884598
1589995520.9832723,-1.5741019874624014,-3.709745031343997,8.708203974924801,0.6358142723726172,0.22598175270258025,-0.6192596757215991,-0.03423539891087632,-0.0867911924145223,1.1332631585332398
1589995520.9932723,-1.5906921882465361,-3.6441286430960345,8.75517916865743,0.6522222222222223,0.21777777777777774,-0.6222222222222222,-0.03791614182609098,-0.09136685016841732,1.1773111094623698
1589995521.0032723,-1.612780256012413,-3.584439487975174,8.67136782389449,0.6522222222222223,0.21777777777777774,-0.6222222222222222,-0.03996696300319868,-0.0920235616788725,1.2253429013191164
1589995521.0132723,-1.6570041582316573,-3.6292066531706517,8.691409148109646,0.6522222222222223,0.21777777777777774,-0.6222222222222222,-0.03955343345477965,-0.09324439672488076,1.2817739757175606
1589995521.0232723,-1.6749262774276819,-3.62536861286159,8.695368612861591,0.6522222222222223,0.21777777777777774,-0.6222222222222222,-0.04141940219436562,-0.09864780884980494,1.314161585043732
1589995521.0332723,-1.6829809540450813,-3.597019045954919,8.687885724270487,0.7343640670200168,0.170744947288718,-0.6199037024093813,-0.042982888013141846,-0.10297858105044692,1.349369114231001
1589995521.0432723,-1.6950851479620324,-3.5849148520379677,8.724914852037967,0.9277777777777778,0.06,-0.6144444444444445,-0.04367038410707895,-0.10477548433049085,1.4042150159343147
1589995521.0532722,-1.6923028286189683,-3.58,8.650725457570717,0.9277777777777778,0.06,-0.6144444444444445,-0.04497526171679314,-0.10715261631909113,1.4518304305574086
1589995521.0632722,-1.7133217970484524,-3.5566782029515474,8.59113033825258,0.9277777777777778,0.06,-0.6144444444444445,-0.04557206655314092,-0.10859742562622514,1.4818225295324103
1589995521.0732722,-1.7464907078722072,-3.5963587387763627,8.679340154520776,0.9277777777777778,0.06,-0.6144444444444445,-0.053039112764132326,-0.11197276620935806,1.500174361153944
1589995521.0832722,-1.76,-3.5704076723225455,8.713469224107516,1.4347215718139794,-0.1861248855103299,-0.5731175047132323,-0.04951028900898659,-0.11164317345942412,1.520863133989264
1589995521.0932722,-1.7420537380882208,-3.542053738088221,8.763838785735338,1.5411111111111107,-0.23777777777777775,-0.5644444444444444,-0.0499541879222553,-0.11322237330704973,1.528784686878577
1589995521.1032722,-1.7525444730504112,-3.527455526949589,8.707277634747944,1.5411111111111107,-0.23777777777777775,-0.5644444444444444,-0.049494021127157686,-0.11276220651195214,1.524555392986276
1589995521.1132722,-1.7243588243895307,-3.462974119023249,8.69138470536628,1.5411111111111107,-0.23777777777777775,-0.5644444444444444,-0.046754675723524805,-0.11313314042674019,1.505379975160846
1589995521.1232722,-1.6899668926066684,-3.4266445950711124,8.726710809857774,1.5411111111111107,-0.23777777777777775,-0.5644444444444444,-0.04581489286485115,-0.1134464013796314,1.4718497945532298
1589995521.1332722,-1.7138399024786672,-3.5299796830556684,8.714620073141,0.9827527202131021,-0.042258341234367225,-0.654684184387557,-0.03658649103974907,-0.10606367991954975,1.4067617059771902
1589995521.1432722,-1.6614657871198568,-3.483103756708408,8.601293604651163,0.8811111111111111,-0.006666666666666667,-0.6711111111111111,-0.04037952114607465,-0.10198328706656573,1.3234695949444215
1589995521.1532722,-1.6889701909221901,-3.516764229106628,8.696910572766571,0.8811111111111111,-0.006666666666666667,-0.6711111111111111,-0.03294959296332752,-0.09209508832347882,1.2273779619889844
1589995521.1632721,-1.692054527028697,-3.4982181081147887,8.594926959487852,0.8811111111111111,-0.006666666666666667,-0.6711111111111111,-0.027943111960323543,-0.07991424101625957,1.106338202442012
1589995521.1732721,-1.7176688285867077,-3.499222942862236,8.67067531434683,0.8811111111111111,-0.006666666666666667,-0.6711111111111111,-0.0272707695624114,-0.07443078456344851,1.0146128835903911
1589995521.1832721,-1.7510722828069891,-3.491771192281185,8.775337495439251,0.8576400318914609,0.0010775980504767963,-0.6703962559064517,-0.026568962106368152,-0.0696173538595237,0.9212329744034825
1589995521.193272,-1.8101526037531228,-3.3824368185603344,8.701168348277399,0.6622222222222223,0.06555555555555556,-0.6644444444444444,-0.02072578486743266,-0.05511738505506799,0.7278993589316705
1589995521.203272,-1.8629086092715232,-3.39194701986755,8.778413245033112,0.6622222222222223,0.06555555555555556,-0.6644444444444444,-0.021570131237354424,-0.04782086565745788,0.566083383756323
1589995521.213272,-1.8302258058109746,-3.2897741941890253,8.672258058109746,0.6622222222222223,0.06555555555555556,-0.6644444444444444,-0.01621467217976029,-0.03466026911040901,0.3888178402203359
1589995521.223272,-1.835432869638529,-3.28,8.72889582674676,0.6622222222222223,0.06555555555555556,-0.6644444444444444,-0.007326493849484641,-0.02001270410614849,0.2440079768221487
1589995521.233272,-1.8536092656568341,-3.2658344406058992,8.713052971919568,0.6454334110884736,0.07867181425379673,-0.6786100038385449,-0.0002427289330880593,-0.010635962483440398,0.085605672974935
1589995521.243272,-1.8669107336465487,-3.289267799060354,8.802357065413805,0.6266666666666667,0.09333333333333334,-0.6944444444444444,0.0036494143970538283,0.0009710246839056812,-0.10381381759230994
1589995521.253272,-1.8528046395875923,-3.2452417562883302,8.743655675051107,0.6266666666666667,0.09333333333333334,-0.6944444444444444,0.012691197102302335,0.016136704073502033,-0.2725916900218336
1589995521.263272,-1.8572925112542593,-3.1981224662372223,8.71729251125426,0.6266666666666667,0.09333333333333334,-0.6944444444444444,0.01477148258587728,0.02708970147371089,-0.4348688737159042
1589995521.273272,-1.8541030266205902,-3.231278813655869,8.7789697337941,0.6266666666666667,0.09333333333333334,-0.6944444444444444,0.02318644029260534,0.03459851119606226,-0.5670013346917115
1589995521.283272,-1.754682247371593,-3.137448603763477,8.636172905645216,0.6085109042612559,0.08425545213062792,-0.708817756348728,0.03687925531922208,0.04857663125592082,-0.7293233397266802
1589995521.293272,-1.7703756675083826,-3.1873345200149026,8.724418595024217,0.6,0.08,-0.7155555555555555,0.030115906587404328,0.057841350784454,-0.8798516145274766
1589995521.303272,-1.7670671556848363,-3.246586568863033,8.651922347287215,0.6,0.08,-0.7155555555555555,0.02868152403083289,0.06861749151749966,-1.0188520918914712
1589995521.313272,-1.7570694068238861,-3.25,8.654832881886632,0.6,0.08,-0.7155555555555555,0.04056824646063184,0.07848373103150236,-1.1548757046731206
1589995521.323272,-1.684752920035939,-3.3051811919736447,8.69,0.6,0.08,-0.7155555555555555,0.043629637667451086,0.08674081218670755,-1.2502825392585173
1589995521.333272,-1.5930461984376658,-3.389669152734085,8.719669152734085,0.5670342747399055,0.07387779388026816,-0.6887120364151929,0.05040223518278736,0.098268735099558,-1.356452145852644
1589995521.343272,-16.8562750398361,-12.317199521966764,-2.71747524470749,0.5222222222222223,0.06555555555555556,-0.6522222222222223,-0.02726173724515364,0.22758791872141876,-1.5306898584369453
1589995521.353272,-13.129769467213114,-3.10673865069357,-1.9776446248423705,0.5222222222222223,0.06555555555555556,-0.6522222222222223,-0.8611789636545573,1.8792579615093608,-3.3460901535934378
1589995521.363272,-2.864732266942802,0.407980216366461,0.2346366187971769,0.5222222222222223,0.06555555555555556,-0.6522222222222223,-0.5174289544127593,-0.16029876804263177,-5.66453452696919
1589995521.373272,-0.2798209146854385,-1.4605002877761544,0.18128480984637182,0.5222222222222223,0.06555555555555556,-0.6522222222222223,-0.2503918583954597,-1.0727837316617561,-6.251403626101334
1589995521.383272,-0.2634574004070951,-1.2555132305902879,0.14822332073277114,0.5778611353429615,0.1430948919259475,-0.6551817388775807,-0.3287987283146522,-0.44728027009595517,-6.020834635896871
1589995521.393272,-0.24924605196128374,-0.9549040584139923,-0.006792324673119375,0.6266666666666667,0.2111111111111111,-0.6577777777777778,-0.25290751466568706,-0.13277146246081206,-5.657066775986794
1589995521.403272,0.3640072756521579,-2.452464033051204,3.4218594958228983,0.6266666666666667,0.2111111111111111,-0.6577777777777778,-0.2365429152557738,0.013176612896711154,-5.3311312200703505
1589995521.413272,1.1106633836491453,-2.4778828105484783,4.169174249723442,0.6266666666666667,0.2111111111111111,-0.6577777777777778,-0.06582089212763256,0.2769409271695049,-4.9730521104476555
1589995521.423272,1.5479492069398577,0.38581143308991117,9.821005938260694,0.6266666666666667,0.2111111111111111,-0.6577777777777778,1.2127703138389612,1.7699912418222028,-4.707493493114182
1589995521.433272,0.7301840053650768,1.2404677676251155,8.757044178053484,0.556903996795857,0.2833302130196254,-0.6420566127364685,2.2475015560900315,1.8727422011762758,-4.296867494807628
1589995521.4432719,0.3564554057929451,-1.5743566580632824,5.844517254564573,0.4688888888888889,0.3744444444444445,-0.6222222222222222,0.6417811823769768,-0.4860471787800531,-3.46239867697744
1589995521.4532719,1.3158894668067336,-1.6945399574675242,10.694539445028056,0.4688888888888889,0.3744444444444445,-0.6222222222222222,-0.40283101561003,-0.2466081947491422,-2.9222554240477234
1589995521.4632719,-1.1749361179361177,-0.6834692874692875,7.7371572481572475,0.4688888888888889,0.3744444444444445,-0.6222222222222222,-0.08586660776507787,1.2368589860640393,-2.4951138004737032
1589995521.4732718,0.11337664974619299,-1.7185746192893403,9.843953299492386,0.4688888888888889,0.3744444444444445,-0.6222222222222222,0.04628422696192931,1.5122905867878156,-2.1725171914525774
1589995521.4832718,1.0673413959443085,-2.1689904208865824,9.410019432568985,0.4503087619294382,0.40450053217296766,-0.622768696544559,-0.01809834930922688,0.3265748753335258,-1.8622364306808212
1589995521.4932718,0.5610393909301555,-2.595423700761337,10.15685700099305,0.4311111111111111,0.4355555555555555,-0.6233333333333333,-0.11557859461718242,-0.4596891268288288,-1.493747240308027
1589995521.5032718,0.41787081339712917,-3.5714066985645934,12.774258373205742,0.4311111111111111,0.4355555555555555,-0.6233333333333333,0.005948594276733443,0.2132920392421268,-1.1984862120377817
1589995521.5132718,0.15664282269731555,-2.3960756577184803,7.633045598242511,0.4311111111111111,0.4355555555555555,-0.6233333333333333,0.069126454607258,0.3666707592211076,-1.0013135425732778
1589995521.5232718,0.2567396969002106,-2.495269225156866,8.048532029767985,0.4311111111111111,0.4355555555555555,-0.6233333333333333,-0.0004814836252856891,-0.08275597020445963,-0.9364641169881177
1589995521.5332718,0.3154990508542312,-3.1836497152562693,9.785333200119892,0.4141552602657608,0.4470613114863289,-0.6233333333333333,0.06219544611092967,0.04976494490609418,-0.826929837101255
1589995521.5432718,0.1714386596510662,-3.866500138465799,11.871132650235392,0.4,0.4566666666666666,-0.6233333333333333,0.039000266642191334,0.2339816320008293,-0.7221011590548443
1589995521.5532718,0.05924234758411333,-3.2532038957753606,9.940182140146725,0.4,0.4566666666666666,-0.6233333333333333,-0.04695153136550961,0.04221677938825838,-0.684639948048474
1589995521.5632718,-0.018921109510086458,-2.600923991354467,7.364113832853025,0.4,0.4566666666666666,-0.6233333333333333,-0.04223786382556252,-0.04462327026113338,-0.6092028608113614
1589995521.5732718,-0.05799473903698714,-3.2761210021492957,9.337951432329259,0.4,0.4566666666666666,-0.6233333333333333,0.031247247207506507,0.05179918780818774,-0.45798656202256005
1589995521.5832717,-0.0949686660698299,-2.6459982094897048,7.511369740376008,0.4007360986770119,0.4606231970556052,-0.6250815676912365,-0.0040923244351400165,0.011366808319487465,-0.3630152030373434
1589995521.5932717,-0.1444391585946008,-2.9803129477847197,8.418695477732562,0.4088888888888889,0.5044444444444445,-0.6444444444444445,-0.001090830782496456,0.004363323129985824,-0.1308996938995747
1589995521.6032717,-0.1841124901731901,-3.04730876432332,8.633435214522237,0.4088888888888889,0.5044444444444445,-0.6444444444444445,0.004408513465902191,-0.005260529304711809,0.021019690962437915
1589995521.6132717,-0.2054384722965623,-3.3340311134899943,9.37980903707029,0.4088888888888889,0.5044444444444445,-0.6444444444444445,0.0031575461267670264,-0.014391406208848687,0.1688889960747602
1589995521.6232717,-0.20629406447725218,-3.2669990961132873,9.039879481771617,0.4088888888888889,0.5044444444444445,-0.6444444444444445,-0.0028682374928733264,-0.021633714977901616,0.2818029368592498
1589995521.6332717,-0.17511995558282928,-3.107299611349756,8.534578767423511,0.4088888888888889,0.5056911123449215,-0.6488077820961139,-0.006199193153863001,-0.03203334039266221,0.4443968934114878
1589995521.6432717,-0.17262872103170757,-3.002298070396587,8.055956559681954,0.4088888888888889,0.5066666666666667,-0.6522222222222223,-0.009771360275167758,-0.038465826369374206,0.5689826459247351
1589995521.6532717,-0.201447583905139,-3.2187520470988202,8.526056510292502,0.4088888888888889,0.5066666666666667,-0.6522222222222223,-0.012781414361305048,-0.04535568971594351,0.6701875373036061
1589995521.6632717,-0.23239911727616647,-3.361597572509458,8.920790510718788,0.4088888888888889,0.5066666666666667,-0.6522222222222223,-0.011126594344255109,-0.05458495570309839,0.7825158184404829
1589995521.6732717,-0.29245523865694906,-3.394079285503644,8.558081897459662,0.4088888888888889,0.5066666666666667,-0.6522222222222223,-0.0862983772787378,-0.06932494552598617,1.0684254849438526
1589995521.6832716,3.8009174526297906,-5.614621675588411,5.405161441074008,0.40656840947498607,0.5006334201905194,-0.6582554686983696,-0.36721925255561666,-0.27719234575675833,2.891462879702763
1589995521.6932716,8.758849596678125,-11.88020251182737,5.003399816207754,0.4033333333333333,0.4922222222222222,-0.6666666666666666,-0.4603894737648144,-0.5875883401772632,3.9019777452528004
1589995521.7032716,3.6732145719040874,-8.119505640140542,8.736519755902115,0.4033333333333333,0.4922222222222222,-0.6666666666666666,0.03793741765537251,-0.2191867217225379,1.376775635366219
1589995521.7132716,-2.0786284868977174,1.5397432375316993,7.795807269653424,0.4033333333333333,0.4922222222222222,-0.6666666666666666,0.5171888768793436,0.3601893506446801,-0.35341534220024867
1589995521.7232716,-1.2728338315283971,0.7925422649090998,2.2576988288332434,0.4033333333333333,0.4922222222222222,-0.6666666666666666,0.650972606350706,0.2621453939566003,-0.21988752777820203
1589995521.7332716,-2.156623217523399,0.13483853579654048,8.88954476405155,0.4033333333333333,0.4922222222222222,-0.6666666666666666,-0.04778744333947671,-0.215402918077653,-0.2213822016812826
1589995521.7432716,-2.465889850132454,-2.2812711880105963,12.085780922917323,0.4633333333333333,0.4655555555555556,-0.6522222222222223,-0.38494771870611744,0.0103292163347365,-0.1357424038258993
1589995521.7532716,-1.1745324153757888,-2.2597246127366613,8.772248995983935,0.4633333333333333,0.4655555555555556,-0.6522222222222223,0.04712476597315011,0.03284195466039387,0.03036615054360902
1589995521.7632716,-0.8813585710898602,-2.94432071445507,8.980848810558761,0.4633333333333333,0.4655555555555556,-0.6522222222222223,0.0009941879857542912,-0.011175821293555918,0.20386388469382233
1589995521.7732716,1.0387903225806452,-7.847871967991998,8.277084271067768,0.4633333333333333,0.4655555555555556,-0.6522222222222223,-0.08243444229743145,-0.05313824356079354,0.08066351302819849
1589995521.7832716,2.0894023904382473,-11.31223107569721,7.541434262948207,0.457011952191235,0.4636963258078796,-0.6570562195661798,-0.012538035089650498,0.014389405262333718,-0.5544636370217643
1589995521.7932715,-2.0680692396192866,-8.199905867587072,7.894805982637799,0.4444444444444444,0.46,-0.6666666666666666,0.10274334453026682,0.14253236995360213,-1.4088122340330749
1589995521.8032715,-4.281559914407989,-6.692608416547788,7.506318830242511,0.4444444444444444,0.46,-0.6666666666666666,0.03232220306617743,0.07584059369307103,-0.5506343396360678
1589995521.8132715,-1.104283701268201,-2.5598825739783937,8.060657585720996,0.4444444444444444,0.46,-0.6666666666666666,-0.05785450851872702,-0.08635342340083968,0.4974664870122647
1589995521.8232715,-0.06437006164799863,-3.1102652600503604,8.948733828253886,0.4444444444444444,0.46,-0.6666666666666666,-0.06489874866829429,-0.0964326093839982,0.5773484513249223
1589995521.8332715,-0.1981019603360576,-3.9157084071555124,8.87270332056924,0.4444444444444444,0.46,-0.6688585344789265,0.02567644964466652,0.018158277059491232,-0.06428364242230389
1589995521.8432715,-1.6629541396103895,-4.3022345779220785,8.160870332792207,0.4444444444444444,0.46,-0.6711111111111111,0.04593263087077845,0.0615465852439778,-0.3082304185461189
1589995521.8532715,-1.1227953723788864,-5.397678958785249,9.039181489515546,0.4444444444444444,0.46,-0.6711111111111111,-0.034342634201502666,-0.011398590120264486,-0.006423045115098808
1589995521.8632715,-0.021881893839843958,-4.806916338151555,9.208118106160157,0.4444444444444444,0.46,-0.6711111111111111,-0.0030501388741648212,-0.027358164598224835,0.07763515609576545
1589995521.8732715,-0.47856967415748264,-4.699106046348427,8.652187116221949,0.4444444444444444,0.46,-0.6711111111111111,0.007100151607839577,0.0062478981953230876,-0.02009260578167091
1589995521.8832715,-0.26450310212284084,-4.565314438826776,8.60536005358937,0.4444444444444444,0.46,-0.6711111111111111,0.00855959164708259,0.002599298097215554,-0.006957645428483792
1589995521.8932714,-0.29418537471112577,-4.490926873555629,8.684424314955432,0.4444444444444444,0.4655555555555556,-0.6644444444444444,0.0014968312293161794,-0.0006848303356767326,-0.0017251080078750903
1589995521.9032714,-0.307058130560182,-4.571470934719909,8.545587195840273,0.4444444444444444,0.4655555555555556,-0.6644444444444444,-0.003176733915471866,-0.0034329464346413226,0.00016045408715195463
1589995521.9132714,-0.29366911893501485,-4.605683832545105,8.52733823787003,0.4444444444444444,0.4655555555555556,-0.6644444444444444,-0.01126924307599553,-0.003162606766299368,-0.0009103631569809709
1589995521.9232714,-0.2926446343876024,-4.6411735612651235,8.548826438734876,0.4444444444444444,0.4655555555555556,-0.6644444444444444,-0.003079569653742753,-0.0017327075206179914,-0.003721446391864288
1589995521.9332714,-0.25686294332459925,-4.571126905857352,8.625736037467247,0.4465414549047386,0.4646023689826946,-0.6644444444444444,0.005860585097386104,-0.004331207436932069,0.0
1589995521.9432714,-0.28745801824830475,-4.486990449817163,8.744280541058686,0.4566666666666666,0.46,-0.6644444444444444,0.01239675140413411,0.00102150898391412,0.0
1589995521.9532714,-0.2634111616085467,-4.566530467185043,8.63988325758718,0.4566666666666666,0.46,-0.6644444444444444,0.0007187307738291638,0.000365732697790937,-0.000731465395581874
1589995521.9632714,-0.277828665568369,-4.550428336079078,8.593914332784184,0.4566666666666666,0.46,-0.6644444444444444,-0.0028455048780970157,0.0014227524390485078,-0.0015178182518888082
1589995521.9732714,-0.25936143423599495,-4.591915697292015,8.60496382462932,0.4566666666666666,0.46,-0.6644444444444444,-0.000959409585672658,0.002181661564992912,0.0010211740632939499
1589995521.9832714,-0.28,-4.546079501691169,8.66178661129902,0.4566666666666666,0.46099256183278825,-0.6672236175762514,0.006155206574713601,0.0019867725048603444,0.002687825167091666
1589995521.9932714,-0.2835980333422852,-4.580421633234863,8.691588200053712,0.4566666666666666,0.4655555555555556,-0.68,0.0035783540247431617,0.0003058616772537938,-0.0007849691052426622
1589995522.0032713,-0.2813039220875456,-4.536088233737363,8.677823532525274,0.4566666666666666,0.4655555555555556,-0.68,-0.0012965199087677536,-0.00140702909829288,-0.0009168683018072154
1589995522.0132713,-0.2631657238633983,-4.603165723863398,8.556331447726798,0.4566666666666666,0.4655555555555556,-0.68,-0.009472150138560259,-0.0014910077571772215,0.0014910077571772215
1589995522.0232713,-0.27,-4.607166993329991,8.568583496664996,0.4566666666666666,0.4655555555555556,-0.68,-0.007490513906906093,-0.0003090330882663889,-0.00015451654413319444
1589995522.0332713,-0.27,-4.594421653979975,8.562210826989988,0.4566666666666666,0.4655555555555556,-0.68,-0.0019293105083617824,-0.0016993339379024663,-0.0008496669689512332
1589995522.0432713,-0.27102831398599103,-4.573830116084054,8.652056627971982,0.43,0.4722222222222222,-0.6577777777777778,0.009817477042468105,0.001203002437495516,-0.0019573182549947918
1589995522.0532713,-0.2829806656230305,-4.528941996869091,8.649135340638786,0.43,0.4722222222222222,-0.6577777777777778,0.007541495772716671,0.002831941927779036,-0.000325140181393062
1589995522.0632713,-0.29141857129195753,-4.554255713875873,8.597162857416084,0.43,0.4722222222222222,-0.6577777777777778,0.0007889824558031649,0.003899096760255908,-0.0009360886592531507
1589995522.0732713,-0.29944056612795256,-4.578321698383858,8.581118867744095,0.43,0.4722222222222222,-0.6577777777777778,-0.007086592557914722,0.0012739050890166127,-6.102476884005219e-05
1589995522.0832713,-0.29767299377629564,-4.60418248444074,8.62581751555926,0.4324562843472435,0.4722222222222222,-0.6588120027660909,-0.0009639122815025782,-0.0002538370019877555,0.000583156778520945
1589995522.0932713,-0.28140876747387406,-4.5635219186846845,8.666478081315315,0.4496240787775774,0.4722222222222222,-0.6660405477893893,-7.683634629407745e-05,-0.002027988872404757,-0.0029651469623130583
1589995522.1032712,-0.28361653272101034,-4.55787217757367,8.686593953310371,0.4511111111111111,0.4722222222222222,-0.6666666666666666,0.0027385571883569654,-0.000858721362263762,-0.0018798358260932037
1589995522.1132712,-0.26,-4.557269690257453,8.6,0.4511111111111111,0.4722222222222222,-0.6666666666666666,-0.0036123495722912707,0.00011328574160063416,0.0027060636394861974
1589995522.1232712,-0.2629699461542432,-4.617030053845757,8.597030053845756,0.4511111111111111,0.4722222222222222,-0.6666666666666666,-0.006868955563719275,0.0007668599137559166,-0.0008857780900307542
1589995522.1332712,-0.27,-4.61,8.591593319292022,0.4511111111111111,0.4722222222222222,-0.6671535142281179,-0.0072013050449543405,4.3451043252085115e-05,0.0020513084352366566
1589995522.1432712,-0.277682457153861,-4.586952628538417,8.637682457153861,0.4511111111111111,0.4722222222222222,-0.6788888888888889,0.005367557534649781,0.0002528047076322906,-0.0006718177450643733
1589995522.1532712,-0.29,-4.55,8.624880103551918,0.4511111111111111,0.4722222222222222,-0.6788888888888889,0.00794374465143763,-0.0014822815867634649,0.0003914508042670089
1589995522.1632712,-0.28345343181408755,-4.55,8.593093136371825,0.4511111111111111,0.4722222222222222,-0.6788888888888889,0.004402625265907152,-0.0018246016601476478,0.000733770877651192
1589995522.1732712,-0.27,-4.55,8.63020230318366,0.4511111111111111,0.4722222222222222,-0.6788888888888889,-0.0006677391819059291,-0.0006456713278925032,-0.0006677391819059291
1589995522.1832712,-0.27,-4.55,8.657276975909525,0.4511111111111111,0.4722222222222222,-0.6788888888888889,-0.0024397723680293325,0.0005356841295230989,-0.0024397723680293325
1589995522.1932712,-0.28804773114700866,-4.595119327867521,8.651952268852991,0.46214028014539416,0.46620631183988603,-0.665854416393827,-0.003272492347489368,-0.0008778712864412586,-0.00031943924408279643
1589995522.2032712,-0.28,-4.57,8.653554238944539,0.4633333333333333,0.4655555555555556,-0.6644444444444444,0.0045626513788844655,-0.002380989813891554,-0.00198233331609427
1589995522.2132711,-0.28,-4.57,8.583248268225478,0.4633333333333333,0.4655555555555556,-0.6644444444444444,0.00509982281546659,-0.0032218736193442695,-0.0010402120543513574
1589995522.2232711,-0.27788106895584846,-4.574237862088303,8.651059465522076,0.4633333333333333,0.4655555555555556,-0.6644444444444444,-0.002528370846335098,-0.0018349522836507257,0.0
1589995522.2332711,-0.26009386088748143,-4.609906139112519,8.66,0.46321861447085605,0.4656181294805432,-0.664507018369432,-0.00543367664341485,0.001060114878895312,2.047726906742937e-05
1589995522.243271,-0.26809550154527073,-4.601904498454729,8.66,0.4534388314446691,0.47095255658573604,-0.6698414454746249,-0.003687989455416497,-0.0015584159031022187,0.001766164457065783
1589995522.253271,-0.2613318378349042,-4.587336324330192,8.654672648660384,0.4511111111111111,0.4722222222222222,-0.6711111111111111,0.002544863991894648,7.264048538034724e-05,-0.001090830782496456
1589995522.263271,-0.27650740814443625,-4.556985183711127,8.593970367422255,0.4511111111111111,0.4722222222222222,-0.6711111111111111,0.00668335880078884,0.0009003394471591857,-0.001090830782496456
1589995522.273271,-0.29,-4.55,8.67,0.4511111111111111,0.4722222222222222,-0.6711111111111111,0.0039066740810972285,0.00036531923911087646,0.000999500972718737
1589995522.283271,-0.2878968253968254,-4.550701058201058,8.668597883597883,0.4515005878894767,0.47136537330981776,-0.6701763668430335,-0.0013202515423072186,0.004210375956778649,-7.647358660358752e-05
1589995522.293271,-0.2644878482614719,-4.5644878482614715,8.643268227607793,0.4566666666666666,0.46,-0.6577777777777778,-0.0036290006753678123,0.0019368874134535747,-0.0006012824794177818
1589995522.303271,-0.2788349381723649,-4.578834938172365,8.621747592741452,0.4566666666666666,0.46,-0.6577777777777778,-0.0012814635782608572,0.0011543750477512565,0.0009637422519868548
1589995522.313271,-0.2825366799108441,-4.57,8.605073359821688,0.4566666666666666,0.46,-0.6577777777777778,0.002181661564992912,-0.0008301265596267246,0.0005374130760786397
1589995522.323271,-0.288590069757899,-4.57,8.62211489536315,0.4566666666666666,0.46,-0.6577777777777778,0.001874062503141634,-0.0028879935201752706,-0.001244630313422095
1589995522.333271,-0.2713791546983997,-4.57,8.647931267952401,0.4566666666666666,0.46,-0.6577777777777778,-0.0018807766852251165,0.0018055554652831683,-0.003122049907605471
1589995522.343271,-0.27,-4.5864374573960465,8.644520847534652,0.44996992476457365,0.46,-0.6498634464389407,-0.001583978747873532,-0.0014044353377233683,-0.001479443896131228
1589995522.353271,-0.26749919600227595,-4.6025008039977235,8.619993568018208,0.4444444444444444,0.46,-0.6433333333333333,0.0002731462083573491,-0.002999346139132019,-0.000545590796341522
1589995522.363271,-0.26424912306343173,-4.599377192341421,8.58124561531716,0.4444444444444444,0.46,-0.6433333333333333,0.004595076841796174,0.0008590770706861066,-0.0019499078531825624
1589995522.373271,-0.2795746857643964,-4.561063285589008,8.657873428821983,0.4444444444444444,0.46,-0.6433333333333333,0.00543095661946076,2.319729302151935e-05,-0.0011140280755179753
1589995522.383271,-0.29972786732071943,-4.550544265358561,8.67972786732072,0.4444444444444444,0.46,-0.6431216745827818,0.0020035511429034414,2.9685070348245063e-05,-0.0020926063539481767
1589995522.393271,-0.28463105486982676,-4.575368945130173,8.65389316460948,0.4444444444444444,0.46,-0.6355555555555555,-0.004753763837820983,0.0012860511364140355,0.0007003900746612967
1589995522.403271,-0.26074177461343034,-4.597774676159709,8.577032901546279,0.4444444444444444,0.46,-0.6355555555555555,-0.006383154578577887,0.002019831448592064,-0.000929000666095608
1589995522.413271,-0.27465164164576394,-4.567674179177118,8.556280745760173,0.4444444444444444,0.46,-0.6355555555555555,-0.003094784655900385,-0.0010148307792683512,0.0008371230876793682
1589995522.423271,-0.2897885041024838,-4.56,8.610634487692549,0.4444444444444444,0.46,-0.6355555555555555,0.0010446895354199888,-0.004294111259371123,-4.6141247076467044e-05
1589995522.433271,-0.280411366227727,-4.56,8.63876590131682,0.4444444444444444,0.46,-0.6355555555555555,-0.0010010845936796488,-0.0012254500657216663,-0.0020919153761761048
1589995522.443271,-0.27807574901074056,-4.567697003957037,8.64807574901074,0.4566666666666666,0.4722222222222222,-0.6522222222222223,-0.004824444248782234,0.0006297096637000458,-0.00020990322123334856
1589995522.453271,-0.27130146168133734,-4.59479415327465,8.641301461681337,0.4566666666666666,0.4722222222222222,-0.6522222222222223,-0.0026075639042656136,0.0028465900082166665,-0.000948863336072222
1589995522.463271,-0.29,-4.6,8.535611598183163,0.4566666666666666,0.4722222222222222,-0.6522222222222223,-0.00326148840329074,-0.00012242608074389822,-0.0018143833227612172
1589995522.473271,-0.29,-4.6,8.572531953100244,0.4566666666666666,0.4722222222222222,-0.6522222222222223,0.00398780633267348,-0.0009279032736288116,0.0006020482558935234
1589995522.483271,-0.26031846945413684,-4.550530782423561,8.678938435152876,0.4566666666666666,0.4722222222222222,-0.6522222222222223,0.006533404818850158,-1.15798761285773e-05,0.001090830782496456
1589995522.4932709,-0.27821941815632667,-4.559109709078163,8.698219418156325,0.43844724851033995,0.4610881333489115,-0.6572831717100908,0.0005826940457499472,0.0029811453246143945,-0.0018903145421179386
1589995522.5032709,-0.28229840332751915,-4.5568952099825575,8.647822353414732,0.43666666666666665,0.46,-0.6577777777777778,-0.004451286272382224,0.002520341617414326,-0.00025071691002501395
1589995522.5132709,-0.29193820877786675,-4.578061791222133,8.553567461445066,0.43666666666666665,0.46,-0.6577777777777778,-0.0006679792229360773,0.0,-0.001090830782496456
1589995522.5232708,-0.29600936785561605,-4.568004683927808,8.617981264288767,0.43666666666666665,0.46,-0.6577777777777778,0.0008731755632607641,-0.0004353104384713836,-0.0008731755632607641
1589995522.5332708,-0.28041746435939857,-4.5602087321796985,8.649165071281203,0.43666666666666665,0.46,-0.6577777777777778,2.2769148691353675e-05,-0.0021361232676102046,-2.2769148691353675e-05
1589995522.5432708,-0.2816591436405822,-4.553318287281164,8.663363425437671,0.4444444444444444,0.4533333333333333,-0.6577777777777778,-0.0005429534867190755,0.0,0.0020006770694198867
1589995522.5532708,-0.28936208684553405,-4.572551652617864,8.624258781609807,0.4444444444444444,0.4533333333333333,-0.6577777777777778,-0.0032029068169442836,0.0,0.0010212452519513713
1589995522.5632708,-0.2786555007685705,-4.607311001537141,8.548066995388577,0.4444444444444444,0.4533333333333333,-0.6577777777777778,-0.0014483509906498269,0.000146662114868617,-0.00043998634460585103
1589995522.5732708,-0.27028247459724913,-4.590564949194498,8.598305152416504,0.4444444444444444,0.4533333333333333,-0.6577777777777778,0.003118426354513056,0.0010600175839011936,-0.003180052751703581
1589995522.5832708,-0.2962992364430793,-4.563700763556921,8.678897709329238,0.4444444444444444,0.4533333333333333,-0.6577777777777778,0.005185026792040269,0.0020470980047719066,-0.0004036906806630155
1589995522.5932708,-0.27827747192985397,-4.530861264035074,8.699138735964926,0.4566666666666666,0.4655555555555556,-0.6577777777777778,0.001993762900729956,-0.0012787294467594122,0.0
1589995522.6032708,-0.26424055822359066,-4.5378797208882045,8.692120279111794,0.4566666666666666,0.4655555555555556,-0.6577777777777778,0.00046257314452611544,-0.002809919202963253,0.0
1589995522.6132708,-0.27856810974885965,-4.56143189025114,8.57143189025114,0.4566666666666666,0.4655555555555556,-0.6577777777777778,-0.005219861418017202,-0.00101273328434143,0.001791174074217782
1589995522.6232708,-0.26434315171864137,-4.575656848281358,8.585656848281358,0.4566666666666666,0.4655555555555556,-0.6577777777777778,-0.00289230810315487,-0.00023688217938731945,-0.002088081450552771
1589995522.6332707,-0.26853281401001555,-4.588532814010016,8.641196884060093,0.4566666666666666,0.4655555555555556,-0.6577777777777778,-0.002181661564992912,-0.0018615712366883907,-0.000480135492456782
1589995522.6432707,-0.27,-4.557441265923216,8.682558734076784,0.46209312234613065,0.4827393318738583,-0.6686306891367058,0.0013699453720143265,0.003145748840517946,0.0
1589995522.6532707,-0.26,-4.581235486607684,8.603822566961579,0.4633333333333333,0.4866666666666667,-0.6711111111111111,-0.0002695413646047478,-0.0002695413646047478,-0.0019121202003881642
1589995522.6632707,-0.262671068427371,-4.588664465786314,8.564006602641056,0.4633333333333333,0.4866666666666667,-0.6711111111111111,-0.0017446090155833175,-0.0014532406493102546,0.0
1589995522.6732707,-0.28,-4.580766278201366,8.591532556402731,0.4633333333333333,0.4866666666666667,-0.6711111111111111,0.001174418767496966,0.003105316377488348,-0.00016717597000101997
1589995522.6832707,-0.28,-4.588050957847751,8.606101915695502,0.4633333333333333,0.4866666666666667,-0.6711111111111111,0.0019690540473873536,0.0015160458177075722,-0.0017564465297817953
1589995522.6932707,-0.28865073102808075,-4.55067463448596,8.69865073102808,0.4444444444444444,0.4655555555555556,-0.6577777777777778,0.006324211075713208,-0.002034479152149227,-0.001090830782496456
1589995522.7032707,-0.27,-4.56,8.675090406512311,0.4444444444444444,0.4655555555555556,-0.6577777777777778,0.0030290589063114506,-4.8686688235583454e-05,-0.0011395174707320393
1589995522.7132707,-0.27210817349231037,-4.563162260238465,8.57,0.4444444444444444,0.4655555555555556,-0.6577777777777778,-0.002181661564992912,-0.001090830782496456,-0.0017217294569418747
1589995522.7232707,-0.2889354037962634,-4.591064596203736,8.577452173426156,0.4444444444444444,0.4655555555555556,-0.6577777777777778,-0.001949402702999975,-0.0009747013514999874,0.001949402702999975
1589995522.7332706,-0.28110715018943994,-4.59889284981056,8.632249948673921,0.4444444444444444,0.4655555555555556,-0.6577777777777778,-0.00024154270149756335,-0.00012077135074878168,0.00024154270149756335
1589995522.7432706,-0.28769794784095765,-4.5692082086361685,8.647697947840959,0.4495764096717495,0.4612789178661347,-0.6748843285354615,-0.0008397158466968763,0.0016794316933937527,0.0008397158466968763
1589995522.7532706,-0.2834615545954109,-4.56,8.669615336213766,0.4511111111111111,0.46,-0.68,0.000335636720903205,0.000755194061593251,-0.000335636720903205
1589995522.7632706,-0.28,-4.587039753401361,8.589867488662131,0.4511111111111111,0.46,-0.68,0.0030572171399176114,-0.0009831931787105776,-0.00010763760378587834
1589995522.7732706,-0.28,-4.582787386491315,8.601637840526054,0.4511111111111111,0.46,-0.68,-0.0006613780712721416,0.0004827173850081479,-0.0007867740837523019
1589995522.7832706,-0.2715575009447034,-4.571557500944704,8.626884998110594,0.4511111111111111,0.46,-0.68,-0.0003397939948499478,-0.0007510367876465082,-0.0001698969974249739
1589995522.7932706,-0.2624177152928639,-4.577582284707137,8.645164569414273,0.46037834797538857,0.46,-0.6698902870571518,0.0024812968680588627,0.0013904660855624067,0.000827098956019621
1589995522.8032706,-0.28,-4.5509548524545576,8.65140632790898,0.4633333333333333,0.46,-0.6666666666666666,0.004259164884968428,0.002389978055027705,0.000882514292461663
1589995522.8132706,-0.27948590926323774,-4.56,8.57205636294705,0.4633333333333333,0.46,-0.6666666666666666,0.003048177947226733,0.004139008729723189,-0.0010347521824307971
1589995522.8232706,-0.2691801694663297,-4.56245949160101,8.61245949160101,0.4633333333333333,0.46,-0.6666666666666666,-0.001090830782496456,0.0002682889147674129,8.942963825580429e-05
1589995522.8332705,-0.26138639066448643,-4.585840828006541,8.635840828006542,0.4633333333333333,0.46,-0.6666666666666666,-0.001090830782496456,0.0028187970634731244,0.000939599021157708
1589995522.8432705,-0.27909024678990985,-4.56909024678991,8.67909024678991,0.4511111111111111,0.4722222222222222,-0.6577777777777778,-0.0019831842037846504,0.0019831842037846504,-0.0008923534212881945
1589995522.8532705,-0.2704949035981825,-4.560989807196365,8.665050964018175,0.4511111111111111,0.4722222222222222,-0.6577777777777778,5.39856079265715e-05,0.0,0.000982859566643313
1589995522.8632705,-0.27925499655410063,-4.577764989662302,8.575215024121295,0.4511111111111111,0.4722222222222222,-0.6577777777777778,0.0011720980516817536,-8.126726918529765e-05,-0.001090830782496456
1589995522.8732705,-0.27,-4.550331034482759,8.64,0.4511111111111111,0.4722222222222222,-0.6577777777777778,0.002073330783834643,-0.0010547205221103663,-0.0010547205221103663
1589995522.8832705,-0.27,-4.55871544227886,8.64,0.4511111111111111,0.4722222222222222,-0.6577777777777778,-0.0006704602512627397,-0.0001401235104112389,-0.0001401235104112389
