time,acc_x,acc_y,acc_z,mag_x,mag_y,mag_z,gyr_x,gyr_y,gyr_z
1589995552.3821619,-4.03,-0.8,8.81,0.3,-0.3288888888888889,-0.5966666666666667,0.001090830782496456,-0.003272492347489368,0.001090830782496456
1589995552.3921618,-4.020514496358948,-0.8094855036410512,8.772057985435795,0.3,-0.3288888888888889,-0.5966666666666667,-0.002013293025245789,0.0008663393961669576,0.001090830782496456
1589995552.4021618,-4.046255708769994,-0.8012480970766686,8.813759514616658,0.3,-0.3288888888888889,-0.5966666666666667,-0.00027229254215476915,-0.0008185382403416868,0.001090830782496456
1589995552.4121618,-4.03744819952264,-0.81255180047736,8.8513795011934,0.3,-0.3288888888888889,-0.5966666666666667,0.0006845945168228995,0.0002783582511493431,0.00040623626567355643
1589995552.4221618,-4.02328718016181,-0.8334256396763796,8.916989738867327,0.3082045575800098,-0.3288888888888889,-0.6063629619884965,-0.0003736793208736133,-0.0003736793208736133,0.0
1589995552.4321618,-4.041549115273062,-0.8543660768487084,8.932816961575645,0.31222222222222223,-0.3288888888888889,-0.6111111111111112,-0.001874378725010492,-0.001874378725010492,0.001567095885028072
1589995552.4421618,-4.021749903956972,-0.8317499039569727,8.854666410551927,0.31222222222222223,-0.3288888888888889,-0.6111111111111112,-0.00012725660684521347,-0.00012725660684521347,0.002181661564992912
1589995552.4521618,-4.03353450166141,-0.8096982475078854,8.863534501661409,0.31222222222222223,-0.3288888888888889,-0.6111111111111112,0.0014763851038015184,0.0,0.0029198541168936713
1589995552.4621618,-4.0340049482799465,-0.8179851551601611,8.88798515516016,0.31222222222222223,-0.3288888888888889,-0.6111111111111112,0.002181661564992912,-0.002615834783557158,0.0019645749557107885
1589995552.4721618,-4.035637656091799,-0.83,8.9,0.31222222222222223,-0.3288888888888889,-0.602967830089624,0.002181661564992912,-0.004978296010592109,0.0004758579018901706
1589995552.4821618,-4.025388949972512,-0.8226944749862561,8.885388949972514,0.31222222222222223,-0.3288888888888889,-0.5966666666666667,0.006166207348637712,-0.0038603355990243604,0.0015938183134579194
1589995552.4921618,-4.02,-0.8112644414273639,8.76643773855573,0.31222222222222223,-0.3288888888888889,-0.5966666666666667,0.00858871709680843,-0.002319590728156129,0.0002758583263264343
1589995552.5021617,-4.038426569074115,-0.8284265690741155,8.805279707222347,0.31222222222222223,-0.3288888888888889,-0.5966666666666667,0.003701579069511027,-0.00419168844117716,0.0
1589995552.5121617,-4.047149467241824,-0.8085515982745272,8.838597868967296,0.31222222222222223,-0.3288888888888889,-0.5966666666666667,0.002492606452906172,-0.003583437235402628,0.0
1589995552.5221617,-4.032080259863301,-0.8268796102050484,8.903759220410096,0.29529802320422877,-0.33287105336371087,-0.5956711255479611,0.005113772188310177,-0.003272492347489368,0.0029321106233172658
1589995552.5321617,-4.0382860431900065,-0.8134279136199877,8.918286043190006,0.2933333333333333,-0.3333333333333333,-0.5955555555555555,0.00545415391248228,-0.003272492347489368,0.001464758152138593
1589995552.5421617,-4.031868419159092,-0.8343947425227256,8.846815772431823,0.2933333333333333,-0.3333333333333333,-0.5955555555555555,0.006341171781644425,-0.0006114387400029306,-0.0006832049558278357
1589995552.5521617,-4.036669205233353,-0.8333307947666471,8.850007615700058,0.2933333333333333,-0.3333333333333333,-0.5955555555555555,0.005817487258645959,-0.002182492308998328,-0.00036333334616367994
1589995552.5621617,-4.035736727596663,-0.83,8.877053089613348,0.2933333333333333,-0.3333333333333333,-0.5955555555555555,0.004524052158136716,-0.00373754322466215,-0.00046505087717278195
1589995552.5721617,-4.03,-0.83,8.90342472965858,0.2906696547099933,-0.3333333333333333,-0.5959360810731755,0.0047668125608124464,-0.004363323129985824,-0.0003436706758349168
1589995552.5821617,-4.034952036059638,-0.8101918557614516,8.91,0.2855555555555556,-0.3333333333333333,-0.5966666666666667,0.007095632140486732,-0.0032829564560089048,1.0464108519536849e-05
1589995552.5921617,-4.034282859841604,-0.8014342803167914,8.835677177940855,0.2855555555555556,-0.3333333333333333,-0.5966666666666667,0.006544984694978735,-0.004052591306780319,-0.001090830782496456
1589995552.6021616,-4.035857989315201,-0.81,8.809289946576008,0.2855555555555556,-0.3333333333333333,-0.5966666666666667,0.007183992201834455,-0.004815146405626561,0.00018718423121498202
1589995552.6121616,-4.029292556919962,-0.8046462784599808,8.856768607700097,0.2855555555555556,-0.3333333333333333,-0.5966666666666667,0.008219815903151921,-0.004363323129985824,-7.717006885700158e-05
1589995552.6221616,-4.015678055969948,-0.8129658320901558,8.897287776120208,0.2855555555555556,-0.3366948453567071,-0.5904238586232583,0.008726646259971648,-0.005777676006448058,-0.0006193798236757112
1589995552.6321616,-4.024965484838628,-0.822517257580686,8.905034515161372,0.2855555555555556,-0.3411111111111111,-0.5822222222222222,0.00668604481785171,-0.006819574900627217,0.0
1589995552.6421616,-4.039314414648963,-0.81,8.842600451271371,0.2855555555555556,-0.3411111111111111,-0.5822222222222222,0.002689684075994147,-0.003122920826501396,-0.0017484248144856629
1589995552.6521616,-4.03,-0.7957153819323335,8.8314269271015,0.2855555555555556,-0.3411111111111111,-0.5822222222222222,0.0006234514545513405,0.0004673793279451155,-0.0009351771818270106
1589995552.6621616,-4.03,-0.7959515412287508,8.84595154122875,0.2855555555555556,-0.3411111111111111,-0.5822222222222222,-0.002596849750247259,-0.00020759409262717347,0.0012984248751236294
1589995552.6721616,-4.03,-0.8230820668693009,8.888470111448836,0.30179849150061916,-0.33512687155240345,-0.5882064617809298,-0.005202610765474991,-0.0002515431470072881,0.0005030862940145762
1589995552.6821616,-4.03,-0.8170291060662982,8.887029106066299,0.30666666666666664,-0.3333333333333333,-0.59,-0.004039248874544427,0.0007074525189689264,0.0014149050379378529
1589995552.6921616,-4.0219927458162745,-0.81,8.815941966530202,0.30666666666666664,-0.3333333333333333,-0.59,-0.005019404216865471,0.001090830782496456,0.0013082056303048606
1589995552.7021616,-4.02,-0.8024615767016032,8.860307386387175,0.30666666666666664,-0.3333333333333333,-0.59,-0.0029872106568683762,-0.003843055728731351,0.001090830782496456
1589995552.7121615,-4.032723206727241,-0.8,8.892723206727242,0.30666666666666664,-0.3333333333333333,-0.59,-0.0007937750099787616,-0.00406626735746813,0.001090830782496456
1589995552.7221615,-4.05,-0.8008992173774158,8.911798434754832,0.30636692754086137,-0.33313350724946317,-0.5909491738983833,0.0010417860827244144,-0.002034527465676787,0.0008946519834082896
1589995552.7321615,-4.046520941903108,-0.8234790580968925,8.93608376761243,0.3,-0.3288888888888889,-0.6111111111111112,0.0011385190998551603,0.001090830782496456,-0.001754466881015821
1589995552.7421615,-4.04,-0.823852761660764,8.866969331625349,0.3,-0.3288888888888889,-0.6111111111111112,0.003607772187878415,8.49912613293145e-05,0.0007555509421074088
1589995552.7521615,-4.035314905041265,-0.81,8.788740379834941,0.3,-0.3288888888888889,-0.6111111111111112,0.002319064810022892,-0.002692726144983645,0.0
1589995552.7621615,-4.03,-0.8189354081033471,8.827870816206694,0.3,-0.3288888888888889,-0.6111111111111112,-0.0009747018213299221,-0.002785141436824407,0.001462052731994883
1589995552.7721615,-4.034616860534836,-0.83,8.859233721069671,0.3056428295425777,-0.3288888888888889,-0.6111111111111112,-0.001678040206003662,-0.00016717612903591195,0.0027688709885001182
1589995552.7821615,-4.034297492401216,-0.8242974924012157,8.881405015197569,0.31222222222222223,-0.3288888888888889,-0.6111111111111112,-0.002956972030348581,0.002803708647610287,0.0009375673997581622
1589995552.7921615,-4.018948099507513,-0.8255259502462432,8.862370248768784,0.31222222222222223,-0.3288888888888889,-0.6111111111111112,-0.004363323129985824,0.0026697046843747714,0.0
1589995552.8021615,-4.043124637681159,-0.8167501449275363,8.853249855072463,0.31222222222222223,-0.3288888888888889,-0.6111111111111112,0.0014180167806782914,0.0014589940761598975,-0.0014453349776660288
1589995552.8121614,-4.043214556482184,-0.8211902956785444,8.882380591357089,0.31222222222222223,-0.3288888888888889,-0.6111111111111112,0.0031426512308464997,-0.000740177066212531,-0.0009609896658535875
1589995552.8221614,-4.036182686286788,-0.8238173137132122,8.912365372573575,0.30878739650734016,-0.3316367494607945,-0.5980587733945593,0.002181661564992912,-0.002181661564992912,0.0
1589995552.8321614,-4.04,-0.82,8.92,0.30666666666666664,-0.3333333333333333,-0.59,0.003782315819672483,-0.003782315819672483,-0.0008003271273397857
1589995552.8421614,-4.032342401619639,-0.8046848032392763,8.843424016196382,0.30666666666666664,-0.3333333333333333,-0.59,0.0035280087266564486,-0.005198637533315199,0.0005797980241622944
1589995552.8521614,-4.023390824352467,-0.8132183512950644,8.833218351295065,0.30666666666666664,-0.3333333333333333,-0.59,0.005435340020465589,-0.007617001585458501,0.001090830782496456
1589995552.8621614,-4.016517727455076,-0.8130354549101523,8.846964545089847,0.30666666666666664,-0.3333333333333333,-0.59,0.006924841703483256,-0.008726646259971648,0.001090830782496456
1589995552.8721614,-4.0107155998838,-0.8014311997675996,8.8585688002324,0.30666666666666664,-0.3333333333333333,-0.59,0.007557755639355227,-0.008726646259971648,0.001090830782496456
1589995552.8821614,-4.012287016399987,-0.81,8.88,0.32,-0.3411111111111111,-0.6111111111111112,-0.0004989495778359426,-0.0034697860823762056,0.0006962433127227804
1589995552.8921614,-4.03,-0.8148883680520478,8.86044652779181,0.32,-0.3411111111111111,-0.6111111111111112,-0.0022303701910474484,-0.002714899799727506,0.0006063011738163984
1589995552.9021614,-4.0332451402834915,-0.82,8.852980561133966,0.32,-0.3411111111111111,-0.6111111111111112,0.0010619696744255697,-0.0050424418048653176,-0.0011196918905673422
1589995552.9121614,-4.037861705244653,-0.8157234104893055,8.886414884266042,0.32,-0.3411111111111111,-0.6111111111111112,0.004672002992199442,-0.008260142711734957,0.0001578236860230736
1589995552.9221613,-4.019333286273956,-0.7919999647054672,8.904666643136979,0.3179259167754915,-0.3378518374725977,-0.614962979956627,0.009817477042468105,-0.007417653171012192,-0.0018180448874336073
1589995552.9321613,-3.9904080487975886,-0.7702720325317255,8.889727967468275,0.31222222222222223,-0.3288888888888889,-0.6255555555555555,0.009728454604634137,-0.00971361753166181,0.002166824492020584
1589995552.9421613,-4.02,-0.7849697565952486,8.809637079142982,0.31222222222222223,-0.3288888888888889,-0.6255555555555555,-0.0005685086970575281,0.002756768349424526,0.0005421163475611851
1589995552.9521613,-4.02,-0.8015628987715455,8.787735072850205,0.31222222222222223,-0.3288888888888889,-0.6255555555555555,-0.008479581034460785,0.009987962851460884,0.0
1589995552.9621613,-4.02,-0.82,8.836664631569061,0.31222222222222223,-0.3288888888888889,-0.6255555555555555,-0.014271425244272658,0.014725882571634985,0.0
1589995552.9721613,-4.025865664985764,-0.8141343350142363,8.883462659943055,0.3167844061000385,-0.32432670501107264,-0.6209933716777393,-0.01873298210519985,0.017264433717183197,0.0012796895852565538
1589995552.9821613,-4.035339585566274,-0.81,8.9,0.32,-0.3211111111111111,-0.6177777777777778,-0.01788757879449668,0.016362461737446838,0.002181661564992912
1589995552.9921613,-4.024291046008521,-0.8204726359943191,8.852873138025565,0.32,-0.3211111111111111,-0.6177777777777778,-0.015791268051622655,0.012364105936677552,0.0010392741933445443
1589995553.0021613,-4.027684481096712,-0.8182103459355253,8.845368962193424,0.32,-0.3211111111111111,-0.6177777777777778,-0.010770449805970684,0.008083620381545977,0.0019290776352770141
1589995553.0121613,-4.04,-0.8245673538127012,8.889423138416934,0.32,-0.3211111111111111,-0.6177777777777778,-0.006576447613581087,0.005517079749686983,0.001153756619701159
1589995553.0221612,-4.036238861438405,-0.8249554457536213,8.913761138561595,0.3124777228768107,-0.3240364411034625,-0.6098375963699668,-0.0046336007684379,0.0016313860594006082,0.00013999893357011413
1589995553.0321612,-4.025095347365089,-0.8098093052698212,8.900381389460359,0.3,-0.3288888888888889,-0.5966666666666667,-6.240470452167565e-05,-0.001090830782496456,0.001111632350670348
1589995553.0421612,-4.025168403456983,-0.8044947896290501,8.83348436888715,0.3,-0.3288888888888889,-0.5966666666666667,0.0004535655538701164,-0.001090830782496456,0.0005637853587238503
1589995553.0521612,-4.026451612903226,-0.79,8.793548387096774,0.3,-0.3288888888888889,-0.5966666666666667,-0.002181661564992912,-0.00031669280782155177,0.0007037617951590039
1589995553.0621612,-4.02,-0.8007143871945445,8.832143161583634,0.3,-0.3288888888888889,-0.5966666666666667,-0.0033504199017324017,0.002259589119235946,-0.0003895861122464966
1589995553.0721612,-4.030698969444947,-0.8146505152775266,8.884650515277528,0.3,-0.3247281785491874,-0.6008273770063681,-0.0066212304336359645,0.006697476172293193,7.624573865722822e-05
1589995553.0821612,-4.04,-0.821854478752675,8.885927239376338,0.3,-0.3211111111111111,-0.6044444444444445,-0.006342692444088381,0.0067869617098914314,0.00044426926580305064
1589995553.0921612,-4.034276182036178,-0.8357238179638221,8.867104728144712,0.3,-0.3211111111111111,-0.6044444444444445,-0.00545415391248228,0.004205410546813606,0.0
1589995553.1021612,-4.034846650218258,-0.8351533497817423,8.854846650218258,0.3,-0.3211111111111111,-0.6044444444444445,-0.0028107162874479283,0.003272492347489368,-0.0005286875250068702
1589995553.1121612,-4.037552135054618,-0.8275521350546177,8.867343594836147,0.3,-0.3211111111111111,-0.6044444444444445,0.000534041286763409,0.0027384510607259592,-0.000556789495733047
1589995553.1221611,-4.0306102284011915,-0.8206102284011916,8.888169314796425,0.3,-0.3211111111111111,-0.6044444444444445,0.0020485303801182205,0.0012239619673711471,0.0009576995976217646
1589995553.1321611,-4.032996507260067,-0.8070034927399337,8.882020956439602,0.3,-0.3288888888888889,-0.6044444444444445,0.0,-0.002291887639713025,0.0
1589995553.1421611,-4.027377467380394,-0.7957924891267983,8.810547423887588,0.3,-0.3288888888888889,-0.6044444444444445,0.0009179364756354002,-0.0013769047134531004,0.0
1589995553.1521611,-4.005632123143901,-0.8031036305682967,8.800575137992691,0.3,-0.3288888888888889,-0.6044444444444445,0.00027581575347830796,6.273782266118938e-05,0.0
1589995553.162161,-4.004850472044773,-0.8216168240149245,8.844850472044774,0.3,-0.3288888888888889,-0.6044444444444445,-0.002181661564992912,0.004186954989449905,-0.00017636814053591858
1589995553.172161,-4.032975729096018,-0.8270242709039821,8.875951458192036,0.30363700222846624,-0.33252589111735514,-0.6044444444444445,-0.0008832548056702725,0.0022986872779973883,-0.001090830782496456
1589995553.182161,-4.035493663835121,-0.810987327670241,8.88549366383512,0.31222222222222223,-0.3411111111111111,-0.6044444444444445,0.003164791605978438,-0.0019662600819710524,-0.00010770074151092977
1589995553.192161,-4.0359041364836505,-0.8177124094509511,8.838671044614447,0.31222222222222223,-0.3411111111111111,-0.6044444444444445,0.005007364512028448,-0.004363323129985824,-0.00019725198158879122
1589995553.202161,-4.028125171561899,-0.8062503431237991,8.83968707109525,0.31222222222222223,-0.3411111111111111,-0.6044444444444445,0.00674949675219671,-0.006306337389557469,-0.00044315936263924095
1589995553.212161,-4.0107347100873705,-0.79,8.86926528991263,0.31222222222222223,-0.3411111111111111,-0.6044444444444445,0.009151844994292646,-0.008141158649747677,0.0
1589995553.222161,-4.012093898573693,-0.79,8.88,0.30998261137524213,-0.3361839672477549,-0.6071319774608206,0.009589068140507178,-0.007407406575514266,0.0
1589995553.232161,-4.03,-0.79974618667429,8.88974618667429,0.30666666666666664,-0.3288888888888889,-0.6111111111111112,0.0023200952593390913,-0.00013843369434618068,0.0015947160654408302
1589995553.242161,-4.03,-0.8052968291660847,8.843561949993015,0.30666666666666664,-0.3288888888888889,-0.6111111111111112,-0.006863746812171442,0.0075062993208720365,0.0017333832911970504
1589995553.252161,-4.03,-0.794588033060965,8.807059834695174,0.30666666666666664,-0.3288888888888889,-0.6111111111111112,-0.01504078591663132,0.01217889309484911,0.001180708026190503
1589995553.262161,-4.033608335207738,-0.7936083352077375,8.851650011246425,0.30666666666666664,-0.3288888888888889,-0.6111111111111112,-0.019724948237889506,0.014968016796087096,0.0013944449413597414
1589995553.272161,-4.039189493433396,-0.8016210131332083,8.89405253283302,0.3061263289555972,-0.3304198457369189,-0.6099403794037941,-0.02163979054747566,0.01609722408376665,0.0
1589995553.282161,-4.026644105601169,-0.82,8.919864633607014,0.3,-0.3477777777777778,-0.5966666666666667,-0.01707245504579966,0.010893541642126144,0.00036607129130522136
1589995553.292161,-4.026030113845024,-0.8230150569225119,8.855879544619905,0.3,-0.3477777777777778,-0.5966666666666667,-0.011999138607461015,0.007202768075389746,0.0014197224727019611
1589995553.302161,-4.023197211380096,-0.8187981409200641,8.816802788619905,0.3,-0.3477777777777778,-0.5966666666666667,-0.012610105242740092,0.008726646259971648,0.002181661564992912
1589995553.312161,-4.014277274892806,-0.7928909004287756,8.842831824678418,0.3,-0.3477777777777778,-0.5966666666666667,-0.015889439260920745,0.0077934896363172235,0.003114818188647336
1589995553.322161,-4.02,-0.7530718731349646,8.890470628357063,0.3022570835820047,-0.3455206941957731,-0.5992999308456722,-0.02037358295991164,0.0076529280074418855,0.005101952004961257
1589995553.332161,-4.015410428497677,-0.669514713474445,8.93623128549303,0.30666666666666664,-0.3411111111111111,-0.6044444444444445,-0.021315971062608855,0.008816187867827579,0.009548852218900313
1589995553.342161,-4.01,-0.6056597940388844,8.885278352311076,0.30666666666666664,-0.3411111111111111,-0.6044444444444445,-0.020252341840956714,0.004321714292143544,0.02397915899890432
1589995553.352161,-4.0021097422195835,-0.5881646133293751,8.867615902231458,0.30666666666666664,-0.3411111111111111,-0.6044444444444445,-0.01748322006775856,-0.001721387213742119,0.05281086870418397
1589995553.362161,-3.993569852039565,-0.5878492601978256,8.920709556118695,0.30666666666666664,-0.3411111111111111,-0.6044444444444445,-0.011065516577481622,-0.007868017174329663,0.0900649210683739
1589995553.372161,-3.959578847704878,-0.62,8.94,0.3017671330551367,-0.3411111111111111,-0.5991366163652869,-0.004652469599982342,-0.014982484484953863,0.1319508956646196
1589995553.382161,-4.273209553377569,-0.6976120614435584,8.881790953917331,0.2933333333333333,-0.3411111111111111,-0.59,0.0009605889382926216,-0.006308893683714614,0.17404451828366857
1589995553.392161,-4.445166978511084,-0.7283367352724387,8.796516697851109,0.2933333333333333,-0.3411111111111111,-0.59,0.007503458621176365,0.014097520496282726,0.21241308637816766
1589995553.402161,-3.9877711295380647,-0.6163547338245763,8.819174827327473,0.2933333333333333,-0.3411111111111111,-0.59,0.006891581658499697,-0.0017315996889585815,0.27816046440795
1589995553.4121609,-3.804819076996085,-0.5480421758215684,8.86629523075098,0.2933333333333333,-0.3411111111111111,-0.59,0.004553885275818786,-0.03490658503988659,0.3292173308258748
1589995553.4221609,-3.9789803060861315,-0.5418221319254953,8.822754923478469,0.2933333333333333,-0.3411111111111111,-0.59,0.008624894486008209,-0.03490658503988659,0.3285388292908432
1589995553.4321609,-1.2789510040160643,-0.8118726907630521,8.82,0.3,-0.3333333333333333,-0.5966666666666667,-0.006544984694978735,-0.020656348450153267,0.31535633166949
1589995553.4421608,-2.424382329317269,-0.6939606425702811,8.82,0.3,-0.3333333333333333,-0.5966666666666667,-0.006544984694978735,0.04365469744778688,0.2694198703138185
1589995553.4521608,-2.304887218045113,-1.0377001326846527,8.912874834144183,0.3,-0.3333333333333333,-0.5966666666666667,0.012815934943049912,0.011206947477492336,0.1366360839941713
1589995553.4621608,-1.9852134831460675,-1.1201573033707866,8.638561797752809,0.3,-0.3333333333333333,-0.5966666666666667,0.0798169463120609,0.049702662799771105,0.11671889372712077
1589995553.4721608,-2.073273106323836,-0.9892826808740638,8.593273106323835,0.3019730780119939,-0.33563525768065955,-0.5946935886546727,0.09080326094639307,0.055275329394076846,0.1070335696842463
1589995553.4821608,-2.2395162382513067,-0.928145128524608,8.791129228852354,0.30666666666666664,-0.3411111111111111,-0.59,0.018429689335631088,0.021623026352090156,0.06804492448782098
1589995553.4921608,-2.350236501485605,-0.899952699702879,8.876556299306717,0.30666666666666664,-0.3411111111111111,-0.59,-0.02181661564992912,-0.007995985963632622,0.030846676113925303
1589995553.5021608,-2.451228811820234,-0.8738559408988303,8.821398317258362,0.30666666666666664,-0.3411111111111111,-0.59,-0.01779533837170906,-0.004132218328046701,0.0023711746658469026
1589995553.5121608,-2.4749944423185553,-0.8187541682610835,8.767497221159278,0.30666666666666664,-0.3411111111111111,-0.59,0.012135037768523139,0.013498879371143663,-0.03435571340763916
1589995553.5221608,-2.5248774660633484,-0.8082924886877828,8.826990769230768,0.30083121166415283,-0.33896120663650076,-0.5918427752639517,0.009054902415442887,0.012974706582568976,-0.07126732155112937
1589995553.5321608,-2.59,-0.83,8.95,0.2855555555555556,-0.3333333333333333,-0.5966666666666667,-0.004363323129985824,0.009817477042468105,-0.10362892433716332
1589995553.5421607,-2.606021657834571,-0.8246594473884763,8.89125392127324,0.2855555555555556,-0.3333333333333333,-0.5966666666666667,0.0020448799726252177,0.015060552308240776,-0.1531468574027941
1589995553.5521607,-2.6125062236690924,-0.8312406644963615,8.847493776330907,0.2855555555555556,-0.3333333333333333,-0.5966666666666667,0.01008814804714443,0.021678564559660576,-0.215968201406716
1589995553.5621607,-2.606164997466973,-0.8561649974669732,8.88774248860138,0.2855555555555556,-0.3333333333333333,-0.5966666666666667,0.013172054820805863,0.026770350250165255,-0.26619433783775837
1589995553.5721607,-2.621476379306393,-0.8729527586127857,8.942618103468035,0.28949256703926984,-0.3326771647527143,-0.59781496168275,0.010747259825559153,0.03183164590514402,-0.31300187507106175
1589995553.5821607,-2.63,-0.8870106202475964,8.897010620247597,0.31222222222222223,-0.3288888888888889,-0.6044444444444445,0.011937066887888936,0.038454681306249024,-0.36583220674892314
1589995553.5921607,-2.6250692832990783,-0.8724653583504608,8.84548498309355,0.31222222222222223,-0.3288888888888889,-0.6044444444444445,0.022653632825638377,0.03569825640238725,-0.4328482068561196
1589995553.6021607,-2.6111652191208643,-0.8794173904395677,8.748156533846052,0.31222222222222223,-0.3288888888888889,-0.6044444444444445,0.018861887523787875,0.041006699824977955,-0.47531575423684513
1589995553.6121607,-2.6408881922675027,-0.8954440961337513,8.824942528735631,0.31222222222222223,-0.3288888888888889,-0.6044444444444445,0.01180536511422758,0.045663293602497934,-0.5302577447010619
1589995553.6221607,-2.632010798303124,-0.9013405322020825,8.843351330505206,0.31222222222222223,-0.3291867849337961,-0.6044444444444445,0.016435576426994808,0.045235864909190474,-0.6108156817513597
1589995553.6321607,-2.6582189537337406,-0.9217810462662593,8.879313722402445,0.31222222222222223,-0.3333333333333333,-0.6044444444444445,0.0176475745291719,0.052554159569058484,-0.6823235697798081
1589995553.6421607,-2.6604695680898502,-0.9378521760673879,8.819530431910149,0.31222222222222223,-0.3333333333333333,-0.6044444444444445,0.019971689196421196,0.054592761057511485,-0.7509231722364073
1589995553.6521606,-2.688179866215212,-0.9586348996614088,8.791820133784787,0.31222222222222223,-0.3333333333333333,-0.6044444444444445,0.02375009496983344,0.05761548567624129,-0.7924856357439418
1589995553.6621606,-2.78671231671038,-0.97,8.861369853368304,0.31222222222222223,-0.3333333333333333,-0.6044444444444445,0.027853541909200946,0.06443373007837355,-0.8758922823173146
1589995553.6721606,-2.860102620304872,-0.9703078609146158,8.91948689847564,0.31243886508806307,-0.3334131491260115,-0.6042962151151849,0.029474819404897018,0.06770986748600474,-0.9212768580580581
1589995553.6821606,-2.8767910280792037,-1.0067910280792034,8.872263676026401,0.3333333333333333,-0.3411111111111111,-0.59,0.03212795019063675,0.07600811023961476,-0.9934971684185416
1589995553.6921606,-2.9007726117711696,-1.03,8.877836687040727,0.3333333333333333,-0.3411111111111111,-0.59,0.03381575425739013,0.07857352788786126,-1.038256574405157
1589995553.7021606,-2.95,-1.036401833092137,8.759205499276412,0.3333333333333333,-0.3411111111111111,-0.59,0.03381575425739013,0.08211814122499925,-1.1119107321772794
1589995553.7121606,-2.957479064709081,-1.064958129418162,8.814958129418162,0.3333333333333333,-0.3411111111111111,-0.59,0.03245602192256539,0.08535674750168852,-1.1619732357646873
1589995553.7221606,-2.979885180182143,-1.110229639635714,8.860114819817856,0.3337033083019836,-0.34097077577817475,-0.5904847947865073,0.02836160034490785,0.08622573141392365,-1.1993616006281689
1589995553.7321606,-2.9707468735021134,-1.1285062529957732,8.869253126497886,0.3631489631598569,-0.3298017342803608,-0.6290687563244102,0.02836160034490785,0.09021306990451135,-1.242225489401987
1589995553.7421606,-2.974944800969349,-1.1660220796122605,8.856878562132568,0.3655555555555556,-0.3288888888888889,-0.6322222222222222,0.03447266123895994,0.09315454031312541,-1.3054441633989116
1589995553.7521605,-2.959361549497848,-1.1993615494978478,8.799361549497847,0.3655555555555556,-0.3288888888888889,-0.6322222222222222,0.03660084937064251,0.0934400863744807,-1.3469438319667217
1589995553.7621605,-3.0123985091341776,-1.2643910548050676,8.854797018268355,0.3655555555555556,-0.3288888888888889,-0.6322222222222222,0.03974889794477208,0.09948295422251113,-1.3871382016374008
1589995553.7721605,-3.0197378735913767,-1.3084272415482607,8.869475747182753,0.3655555555555556,-0.3288888888888889,-0.6322222222222222,0.044552500749095815,0.10348595655944759,-1.4159598184633433
1589995553.7821605,-3.0823014540241656,-1.3824149088674995,8.894829817735,0.3922222222222223,-0.2977777777777777,-0.6044444444444445,0.04909976121589372,0.10772882177418992,-1.4607338017947333
1589995553.7921605,-3.024868685729325,-1.3641050514165398,8.832553531479705,0.3922222222222223,-0.2977777777777777,-0.6044444444444445,0.05247182547105219,0.1110694923219205,-1.4928735466707164
1589995553.8021605,-2.9854433854078546,-1.3956452916737163,8.698507510386705,0.3922222222222223,-0.2977777777777777,-0.6044444444444445,0.053331952095048735,0.11795050531389294,-1.5143767122706304
1589995553.8121605,-2.924874184806885,-1.4627461957654626,8.697117119799888,0.3922222222222223,-0.2977777777777777,-0.6044444444444445,0.05373773317166849,0.11461957801346133,-1.5530011122113891
1589995553.8221605,-2.943609332658349,-1.5501768857389595,8.878223549030702,0.3922222222222223,-0.2977777777777777,-0.6044444444444445,0.03806946157856937,0.102357452418862,-1.5768441342008876
1589995553.8321605,-2.9796215950176994,-1.5926488348761052,8.878107975088497,0.4188888888888889,-0.27111111111111114,-0.64,0.030401815474174705,0.10861141117156464,-1.61861015720872
1589995553.8421605,-2.9716819050864145,-1.648226664395101,8.838409525432072,0.4188888888888889,-0.27111111111111114,-0.64,0.050321789289377604,0.12160269844234908,-1.6376640452058708
1589995553.8521605,-2.9616064619707005,-1.6930822295805739,8.743082229580574,0.4188888888888889,-0.27111111111111114,-0.64,0.06052140648787005,0.12338545581439915,-1.6701013318834406
1589995553.8621604,-2.925841942868518,-1.790395142828705,8.821683885737036,0.4188888888888889,-0.27111111111111114,-0.64,0.05040500283055695,0.11608163661606428,-1.6964573837625059
1589995553.8721604,-2.909330304350532,-1.8313393912989357,8.793348478247339,0.4223861883916655,-0.26932525604586355,-0.6414138019266543,0.05156125662907083,0.1184671966760264,-1.7196656366164738
1589995553.8821604,-2.8942518682269265,-1.8816147247519044,8.817007472907706,0.4711111111111111,-0.24444444444444444,-0.6611111111111111,0.055945881861314974,0.13013529718405115,-1.751148606312716
1589995553.8921604,-2.871557067271353,-1.962814310909549,8.740299823633157,0.4711111111111111,-0.24444444444444444,-0.6611111111111111,0.0567232006898157,0.13573986041772665,-1.7807517073740362
1589995553.9021604,-2.8383396942354784,-1.9886564892232346,8.696996183458714,0.4711111111111111,-0.24444444444444444,-0.6611111111111111,0.05646881228059048,0.13391779783783886,-1.8048852821580614
1589995553.9121604,-2.7984721542943416,-2.0576392285282923,8.73069491993961,0.4711111111111111,-0.24444444444444444,-0.6611111111111111,0.055299045681991794,0.1329146933519039,-1.8301264246091462
1589995553.9221604,-2.786208539358285,-2.1075829212834303,8.788483415743313,0.47254344068687015,-0.24099000252643735,-0.66001580025906,0.05345070834232633,0.13223867520078758,-1.860760857523692
1589995553.9321604,-2.74,-2.218226342682464,8.773645268536493,0.49,-0.1988888888888889,-0.6466666666666666,0.05702944235939132,0.1364559283685822,-1.8972823426570997
1589995553.9421604,-2.7425325432656136,-2.2651952595936793,8.769869826937546,0.49,-0.1988888888888889,-0.6466666666666666,0.06105812446308643,0.13825925176183643,-1.9281641053285248
1589995553.9521604,-2.745025313251487,-2.3163960258195164,8.741421339071003,0.49,-0.1988888888888889,-0.6466666666666666,0.054851627207025945,0.1377547666767566,-1.9581852536326687
1589995553.9621603,-2.671171147154563,-2.408828852845437,8.758234229430913,0.49,-0.1988888888888889,-0.6466666666666666,0.060060556389760746,0.14354154292696747,-1.994170371476641
1589995553.9721603,-2.641746548434168,-2.4382534515658323,8.752349309686833,0.49,-0.1988888888888889,-0.6466666666666666,0.06391222735537827,0.14931904937539375,-2.0127867811437925
1589995553.9821603,-2.6002877019219435,-2.529232794874818,8.759904099359352,0.5164109316249395,-0.1669756798420871,-0.6906848860415656,0.06436947730437886,0.1570273269940498,-2.052629698545691
1589995553.9921603,-2.560023316062176,-2.580753088880032,8.758493822239936,0.5166666666666667,-0.16666666666666666,-0.6911111111111111,0.0651983124144293,0.1536377550498717,-2.1065534527314456
1589995554.0021603,-2.457424687162058,-2.651716875225295,8.622575312837942,0.5166666666666667,-0.16666666666666666,-0.6911111111111111,0.06492086227092803,0.16082033011334326,-2.1477899744000872
1589995554.0121603,-2.4245907802163185,-2.6754092197836816,8.662170744513285,0.5166666666666667,-0.16666666666666666,-0.6911111111111111,0.07031394651733677,0.16580627893946132,-2.2008888693258006
1589995554.0221603,-2.3904676163960414,-2.711091104924096,8.74046761639604,0.5168918153017976,-0.1655582426167912,-0.691215025865787,0.06643865966044345,0.1658232819514347,-2.247910553505449
1589995554.0321603,-2.4160389781941594,-2.770757615786372,8.766038978194159,0.5292039524638545,-0.10494464428051113,-0.6968975507098132,0.06085985394049521,0.1667530829047594,-2.29161119831171
1589995554.0421603,-2.34,-2.8015728496196606,8.70008041461172,0.5311111111111111,-0.09555555555555556,-0.6977777777777778,0.06380921483935137,0.16833985493410955,-2.35813440549214
1589995554.0521603,-2.34,-2.850657694558221,8.658007690378668,0.5311111111111111,-0.09555555555555556,-0.6977777777777778,0.06610392597419625,0.17445908462702925,-2.389495457668353
1589995554.0621603,-2.347254604099469,-2.866952034127562,8.674634689418374,0.5311111111111111,-0.09555555555555556,-0.6977777777777778,0.06499097390290012,0.18523514307175395,-2.4341627298157595
1589995554.0721602,-2.251245239829362,-2.9193207782748933,8.709547185516596,0.5311111111111111,-0.09555555555555556,-0.6977777777777778,0.06975142708261596,0.19189977752335613,-2.4627254488940538
1589995554.0821602,-2.2553118774261125,-3.004064367721662,8.750623754852226,0.5377777777777778,-0.03666666666666667,-0.7111111111111111,0.07090400086226964,0.19275330998173318,-2.492276173606986
1589995554.0921602,-2.237177786736545,-3.05188147550897,8.711533360209636,0.5377777777777778,-0.03666666666666667,-0.7111111111111111,0.07049352658193012,0.1950534729266959,-2.5066644930952076
1589995554.1021602,-2.2118141503729087,-3.068790566418061,8.635442451118728,0.5377777777777778,-0.03666666666666667,-0.7111111111111111,0.06680453520839665,0.1932089772399291,-2.515886971529042
1589995554.1121602,-2.143784374069294,-3.183551786246118,8.64088794656153,0.5377777777777778,-0.03666666666666667,-0.7111111111111111,0.0670249774535479,0.1978278114088698,-2.5223167203602803
1589995554.1221602,-2.1021453390251166,-3.2073455205570762,8.64683638013927,0.5377777777777778,-0.03666666666666667,-0.7111111111111111,0.07026934468066484,0.20042330519056337,-2.517125732796893
1589995554.1321602,-2.08,-3.2804696281468932,8.702910924628533,0.5528951848145012,-0.0114709882721277,-0.7388263573451039,0.06374956517117289,0.19355842828825115,-2.5069442138280977
1589995554.1421602,-2.028474448108551,-3.371525551891449,8.610846688651305,0.5577777777777778,-0.0033333333333333327,-0.7477777777777778,0.05646442938906343,0.19836479051800612,-2.480918637014554
1589995554.1521602,-2.0181689979362534,-3.3803662004127495,8.562563402889246,0.5577777777777778,-0.0033333333333333327,-0.7477777777777778,0.060846846210127585,0.1975202641684165,-2.457853765844874
1589995554.1621602,-1.9700802568218299,-3.389983948635634,8.62988764044944,0.5577777777777778,-0.0033333333333333327,-0.7477777777777778,0.054552044718233675,0.19961853133238117,-2.4347728270412627
1589995554.1721601,-1.9504878844361602,-3.4290242311276797,8.63975605778192,0.5577777777777778,-0.0033333333333333327,-0.7477777777777778,0.052413097495956344,0.19642937075355177,-2.40174346128466
1589995554.1821601,-1.8837166474199236,-3.43,8.66485625721753,0.5780310243994679,0.006793289977511701,-0.7542219926119519,0.04332188738965321,0.19634954084936207,-2.326807032879251
1589995554.1921601,-1.8563423959218353,-3.5324384027187765,8.63658878504673,0.5822222222222222,0.008888888888888889,-0.7555555555555555,0.04105258702300065,0.19648253508665028,-2.304820716245579
1589995554.2021601,-1.8357834455264364,-3.5461443696490424,8.561205966930265,0.5822222222222222,0.008888888888888889,-0.7555555555555555,0.03880995342828877,0.19723007961822092,-2.267443489667047
1589995554.21216,-1.7381782297028452,-3.5536435405943094,8.585465310891465,0.5822222222222222,0.008888888888888889,-0.7555555555555555,0.030046451130207232,0.17859600892877334,-2.1311744978661125
1589995554.22216,-1.7249332112293554,-3.580133577541289,8.625200366311933,0.5822222222222222,0.008888888888888889,-0.7555555555555555,0.02643443266380302,0.16848235722284155,-2.089275083655824
1589995554.23216,-1.71,-3.6208212989883943,8.699589350505802,0.62,0.045555555555555564,-0.7622222222222222,0.024311841591282773,0.15672127339222022,-1.997671985889436
1589995554.24216,-1.7044339458437974,-3.6359519606136708,8.68595196061367,0.62,0.045555555555555564,-0.7622222222222222,0.0316892892670393,0.14780102067309728,-1.9257055008620012
1589995554.25216,-1.5959173556709425,-3.56,8.60931955927849,0.62,0.045555555555555564,-0.7622222222222222,0.032947597180299715,0.13685088204680404,-1.8454987706928663
1589995554.26216,-1.5503873500624175,-3.56,8.601731225010402,0.62,0.045555555555555564,-0.7622222222222222,0.03543087376255047,0.13022881116080198,-1.7825890972758471
1589995554.27216,-1.5613393975347702,-3.6524707226506714,8.642678795069541,0.62,0.045555555555555564,-0.7622222222222222,0.0336696486512974,0.12639026516349616,-1.7077147519785285
1589995554.28216,-1.535824042066313,-3.7020879789668437,8.652087978966843,0.5433333333333333,-0.021111111111111112,-0.7333333333333333,0.03452697975151357,0.11844502894606605,-1.5914340283645654
1589995554.29216,-1.4747591475673503,-3.7285026135906714,8.668769601930036,0.5433333333333333,-0.021111111111111112,-0.7333333333333333,0.029942449683980524,0.11186555204055876,-1.5111387167359382
1589995554.30216,-1.415732006433454,-3.711637716123844,8.54228287092883,0.5433333333333333,-0.021111111111111112,-0.7333333333333333,0.0354614744741191,0.10634652725042017,-1.4412310693941828
1589995554.31216,-1.4010368985349457,-3.75481550732527,8.57481550732527,0.5433333333333333,-0.021111111111111112,-0.7333333333333333,0.03110880233002301,0.09994424971132417,-1.3620909992959112
1589995554.32216,-1.3752338461538463,-3.7930215384615384,8.629532307692308,0.5433333333333333,-0.021111111111111112,-0.7333333333333333,0.03234430744186261,0.09476298737727289,-1.2861817936295328
1589995554.33216,-1.3631860535016533,-3.8,8.667255785993387,0.515320442173463,0.05384230037070434,-0.6583799218515178,0.031981637215825615,0.08637858470401452,-1.2169055092198302
1589995554.34216,-1.2908706533692313,-3.770373137158242,8.670124379052748,0.5022222222222222,0.08888888888888889,-0.6233333333333333,0.031634092692397225,0.08074861320462465,-1.1114697426772076
1589995554.35216,-1.29,-3.7993068539939086,8.574752724519797,0.5022222222222222,0.08888888888888889,-0.6233333333333333,0.026838769921194557,0.07193005282419952,-1.0569179656362957
1589995554.36216,-1.2281678750697156,-3.7096946458449525,8.629389291689906,0.5022222222222222,0.08888888888888889,-0.6233333333333333,0.025022490055040703,0.06544984694978735,-0.9599143580634075
1589995554.37216,-1.1891801450083659,-3.703196690834728,8.616393381669456,0.5022222222222222,0.08888888888888889,-0.6233333333333333,0.023604856185354614,0.06544984694978735,-0.9131324403637664
1589995554.38216,-1.19611077073888,-3.7696287219703466,8.679628721970346,0.5070575501368296,0.1701223978542935,-0.5923872346798459,0.019109788768868496,0.05690511720678393,-0.8246083238207484
1589995554.39216,-1.0367064463075133,-3.259015804885876,8.441171727706687,0.5077777777777778,0.18222222222222226,-0.5877777777777777,-0.017929220997051187,0.07344493340241948,-0.756323600183809
1589995554.40216,-1.1577095992413333,-3.828150398651259,9.762515190896,0.5077777777777778,0.18222222222222226,-0.5877777777777777,0.01932476596315997,-0.01597591431148334,-0.6826008006950468
1589995554.41216,-1.0251231077236487,-3.5924410803975975,8.171477292683784,0.5077777777777778,0.18222222222222226,-0.5877777777777777,0.11011990580120781,0.09410314903199059,-0.5974301385460815
1589995554.42216,-1.0354870024490277,-3.6664610073470834,8.277649228408722,0.5077777777777778,0.18222222222222226,-0.5877777777777777,-0.02063791587459632,-0.004752167563119705,-0.548073766239191
1589995554.43216,-1.0751129208294854,-3.910491982201327,9.368613046763496,0.4888888888888889,0.2344444444444445,-0.5733333333333334,0.0017532419192437371,0.01873149965883197,-0.45873129729479606
1589995554.44216,-0.8462240785828226,-3.3030562085467214,7.502288640752246,0.4888888888888889,0.2344444444444445,-0.5733333333333334,0.06225238298938221,0.021612411138362375,-0.3838275988270055
1589995554.45216,-1.0208156127588137,-3.7961010072747623,8.823833240067152,0.4888888888888889,0.2344444444444445,-0.5733333333333334,-0.027621306538823595,0.02181661564992912,-0.3230122697454069
1589995554.4621599,-0.9513734893940674,-3.663496154821263,8.405369094904081,0.4888888888888889,0.2344444444444445,-0.5733333333333334,0.02503462637885553,0.00972213420998294,-0.24343352816827665
1589995554.4721599,-1.0488494042085694,-3.911616665258176,8.78641130736077,0.4888888888888889,0.2344444444444445,-0.5733333333333334,0.02116809079952241,0.0029556969461499716,-0.17866905721444687
1589995554.4821599,-1.030796670630202,-3.774340071343638,8.426206896551724,0.5166666666666667,0.2533333333333333,-0.59,0.016710074876220976,0.0019209517109123084,-0.10657196244118763
1589995554.4921598,-1.039546279491833,-3.9318330308529945,8.933684210526316,0.5166666666666667,0.2533333333333333,-0.59,0.020527811948649277,-0.000942351093408917,-0.0550325119634056
1589995554.5021598,-1.0996422516107156,-4.017138012885724,8.73212953543574,0.5166666666666667,0.2533333333333333,-0.59,0.010986356416048572,-0.004480396016611842,0.0006652625168938203
1589995554.5121598,-1.090753009494744,-3.946024075957952,8.536566208884366,0.5166666666666667,0.2533333333333333,-0.59,0.012925688202681702,-0.00738939369656154,0.04430022771613929
1589995554.5221598,-1.09,-3.9636869302318405,8.608825988369402,0.5166666666666667,0.2533333333333333,-0.59,0.008568243678003367,-0.00892773710946208,0.07835671278153589
1589995554.5321598,-1.1153758337084168,-3.941936249437375,8.74612750112525,0.5180764352060232,0.275184745693359,-0.5942293056180695,0.006146172425998587,-0.013277569610049646,0.13040643431541135
1589995554.5421598,-1.1235985105598976,-4.003219362721331,8.757992552799488,0.5188888888888888,0.2877777777777778,-0.5966666666666667,0.0030535138274338856,-0.015969925128459354,0.18117281257443962
1589995554.5521598,-1.111715490064114,-4.041715490064114,8.491464701923418,0.5188888888888888,0.2877777777777778,-0.5966666666666667,0.00018713093690022795,-0.021784660811024207,0.2420959259398742
1589995554.5621598,-1.122731203459044,-4.0972904155656975,8.580043238049484,0.5188888888888888,0.2877777777777778,-0.5966666666666667,-0.001388758863135051,-0.022907446432425576,0.2828325338262911
1589995554.5721598,-1.1056347739342194,-4.099543467417774,8.696547839098672,0.5188888888888888,0.2877777777777778,-0.5966666666666667,-0.0028461200303688742,-0.026229738759305385,0.32964100998018825
1589995554.5821598,-1.078350530150396,-4.015927915827177,8.69087632537599,0.5298911659690706,0.29813286208853707,-0.5966666666666667,-0.0045432523786606265,-0.028996980360493484,0.37529636028655156
1589995554.5921597,-1.0917194891201514,-4.02067880794702,8.655520340586566,0.5377777777777778,0.3055555555555556,-0.5966666666666667,-0.00545415391248228,-0.03340114567946398,0.4248909738593705
1589995554.6021597,-1.1603230251071648,-4.083087875076546,8.589676974892836,0.5377777777777778,0.3055555555555556,-0.5966666666666667,-0.00545415391248228,-0.03960674308847244,0.47393357738726916
1589995554.6121597,-1.1978923253150058,-4.043512791141657,8.719461626575029,0.5377777777777778,0.3055555555555556,-0.5966666666666667,-0.009510928185684067,-0.04036073895236887,0.5225616741670593
1589995554.6221597,-1.1688138965716217,-4.04,8.652034741429055,0.5377777777777778,0.3055555555555556,-0.5966666666666667,-0.014069822243192247,-0.043762615112948176,0.5580982606887952
1589995554.6321597,-1.0947043181337444,-4.04,8.648655909104646,0.5699073990135544,0.31177419192377037,-0.6163590151660137,-0.01018402097324986,-0.046759106075034904,0.6099679307444414
1589995554.6421597,-1.1311135723749586,-4.122227144749917,8.658222714474991,0.5722222222222222,0.31222222222222223,-0.6177777777777778,-0.019684026113968273,-0.04869964166034764,0.6453374239970089
1589995554.6521597,-1.1805193984889342,-4.180519398488935,8.595168962417706,0.5722222222222222,0.31222222222222223,-0.6177777777777778,-0.02181661564992912,-0.05173937364193871,0.6832566729448596
1589995554.6621597,-1.1690551567580831,-4.141128699102195,8.552073542344111,0.5722222222222222,0.31222222222222223,-0.6177777777777778,-0.021055039658500932,-0.05540618152554262,0.7133431650631021
1589995554.6721597,-1.16,-4.130047494964055,8.60530871726636,0.5722222222222222,0.31222222222222223,-0.6177777777777778,-0.021821796546809633,-0.0567232006898157,0.7413050015048703
1589995554.6821597,-1.16,-4.1794327731092435,8.696288515406163,0.6372132741985683,0.2983477279800809,-0.6323825085589792,-0.02577507861554301,-0.06174155701027121,0.7771409257620173
1589995554.6921597,-1.1524409431369942,-4.131968488232948,8.589055090191907,0.6711111111111111,0.2911111111111111,-0.64,-0.023972508797288267,-0.06600814654985246,0.7988574720491565
1589995554.7021596,-1.15,-4.0149831029185865,8.541362100265326,0.6711111111111111,0.2911111111111111,-0.64,-0.02667644120310569,-0.06748292642495385,0.8037937046100615
1589995554.7121596,-1.2403261966927763,-3.883866318537859,8.59806684073107,0.6711111111111111,0.2911111111111111,-0.64,-0.02797455953254218,-0.06692771854464949,0.8032384967297572
1589995554.7221596,-1.3251032304285528,-3.7989380617428683,8.63702064608571,0.6711111111111111,0.2911111111111111,-0.64,-0.03295660246289166,-0.06424317667329192,0.7951931190540852
1589995554.7321596,-1.3337935994246675,-3.7651743976986696,8.652412801150666,0.949709536937153,0.3221431139877742,-0.711718406648288,-0.03016749208263302,-0.05988311898675618,0.7872040551351734
1589995554.7421596,-1.3386093965008847,-3.8016563790053075,8.685828189502653,1.12,0.3411111111111111,-0.7555555555555555,-0.024453351145846736,-0.06063144988887683,0.7786724957818225
1589995554.7521596,-1.357984125869214,-3.8639523776076423,8.555119055980894,1.12,0.3411111111111111,-0.7555555555555555,-0.028902686738529405,-0.05520123239147269,0.7669726469680369
1589995554.7621596,-1.3946032913487174,-3.913254114185897,8.609206582697434,1.12,0.3411111111111111,-0.7555555555555555,-0.03511438143423545,-0.05265422235587908,0.7610449173901528
1589995554.7721596,-1.4336709167957884,-3.940202550077473,8.626734183359158,1.12,0.3411111111111111,-0.7555555555555555,-0.028651561319238447,-0.05162529210951543,0.7588398844994009
1589995554.7821596,-1.4660384413539753,-3.9580192206769875,8.710192206769877,1.3195894924050264,-0.11420241843785534,-1.021971886935479,-0.02683863055063653,-0.05301856933055146,0.7590021551116459
1589995554.7921596,-1.4291312662204616,-4.009042480535445,8.664610025952738,1.3688888888888888,-0.22666666666666666,-1.0877777777777775,-0.021029447363639164,-0.05612556071322872,0.7654595468163055
1589995554.8021595,-1.4114606147571935,-3.9004486066007096,8.538987991843516,1.3688888888888888,-0.22666666666666666,-1.0877777777777775,-0.02056645651358113,-0.05765470311846063,0.7789635716673926
1589995554.8121595,-1.4741986736667587,-3.8942663719259465,8.598465045592706,1.3688888888888888,-0.22666666666666666,-1.0877777777777775,-0.025394444162842335,-0.059370251237448726,0.7942627082711231
1589995554.8221595,-1.5,-3.871521374623477,8.638136750107579,1.3688888888888888,-0.22666666666666666,-1.0877777777777775,-0.025051815190704558,-0.059551902162963716,0.8080109901823882
1589995554.8321595,-1.5007082958430809,-3.83,8.652833183372323,1.3234005558554776,-0.20651958490792394,-1.0610986343550675,-0.0218938787408038,-0.059213914618307356,0.8208455900734577
1589995554.8421595,-1.5237164729231643,-3.8117113694357814,8.68085568471789,0.7266666666666667,0.057777777777777775,-0.7111111111111111,-0.023904936491883348,-0.06476442047398111,0.8294367990039967
1589995554.8521595,-1.556604034666084,-3.79,8.575910470225523,0.7266666666666667,0.057777777777777775,-0.7111111111111111,-0.024485368259838394,-0.06412571878196345,0.8215532204610181
1589995554.8621595,-1.588114963749303,-3.7718850362506973,8.56340237312256,0.7266666666666667,0.057777777777777775,-0.7111111111111111,-0.025480304221038055,-0.06267136360433667,0.8038795837015826
1589995554.8721595,-1.6422292363338566,-3.708562410427899,8.653812529857367,0.7266666666666667,0.057777777777777775,-0.7111111111111111,-0.026266294045573572,-0.06025475883428096,0.7768760153398595
1589995554.8821595,-1.7102716688227684,-3.6347736093143594,8.710362225097025,0.6666839154808106,0.12056346126203825,-0.6998993819174932,-0.029491943756007027,-0.0567232006898157,0.7410565271133556
1589995554.8921595,-1.7200514579759862,-3.5767524299599773,8.597061177815895,0.6077777777777778,0.18222222222222226,-0.6888888888888889,-0.017858066206530028,-0.05309645340552932,0.7007349756325747
1589995554.9021595,-1.6854690870313371,-3.649946680885097,8.626300622864207,0.6077777777777778,0.18222222222222226,-0.6888888888888889,-0.021413076204350342,-0.049485108444736164,0.6537262878858148
1589995554.9121594,-1.6961943072218302,-3.5971256175017645,8.56902846389085,0.6077777777777778,0.18222222222222226,-0.6888888888888889,-0.02223175233304433,-0.04820412277140167,0.6051417509547148
1589995554.9221594,-1.633966606850277,-3.712066786299446,8.695273464929391,0.6077777777777778,0.18222222222222226,-0.6888888888888889,-0.015333802437092356,-0.04295436637541547,0.5811873556589832
1589995554.9321594,-1.6164524783687706,-3.7635475216312293,8.860488631028238,0.5858411399527504,0.18679235510243625,-0.7071694204097451,-0.01738319956336461,-0.04036073895236887,0.5504460607842202
1589995554.9421594,-1.5213235071424966,-3.8463419312503153,8.775156226338904,0.5811111111111111,0.18777777777777774,-0.7111111111111111,-0.01854412330243975,-0.04103348492685485,0.5306149798095364
1589995554.9521594,-1.4226274904930607,-3.89377124841551,8.523137452465305,0.5811111111111111,0.18777777777777774,-0.7111111111111111,-0.004275643976180977,-0.0346570557699802,0.5078280861035357
1589995554.9621594,-1.4,-3.948990511743662,8.704952558718308,0.5811111111111111,0.18777777777777774,-0.7111111111111111,-0.013654303373871489,-0.038265101840125326,0.45970432541054995
1589995554.9721594,-1.2807116908378386,-3.80510312079865,8.689316628050001,0.5811111111111111,0.18777777777777774,-0.7111111111111111,-0.006010818037878795,-0.029319661740993874,0.37406409483500896
1589995554.9821594,-1.2742952468945694,-3.6457098860486603,8.45998973411354,0.5766660963396412,0.1719027250225279,-0.7314311786378309,0.01324652225249007,-0.007166716807125367,0.24885421300951718
1589995554.9921594,-1.424036536047971,-3.643509134011993,8.682109608143914,0.5733333333333334,0.16,-0.7466666666666667,-0.015243428468954729,-0.013205030665076747,0.07279688357389603
1589995555.0021594,-1.3375930318565563,-3.5907241053893437,8.526692937485652,0.5733333333333334,0.16,-0.7466666666666667,-0.00039493822423386504,-0.002083476500299615,-0.1104940607860173
1589995555.0121593,-1.2934873124361694,-3.747898499489355,8.589214916070913,0.5733333333333334,0.16,-0.7466666666666667,0.021486598418143918,0.03411052166107676,-0.28859914081738125
1589995555.0221593,-1.293593687536883,-3.742343187831947,8.675625249852468,0.5733333333333334,0.16,-0.7466666666666667,0.020810985581307957,0.03655982774892421,-0.45434932566953046
1589995555.0321593,-1.2986073067880732,-3.5378538642385338,8.629748852483486,0.5293404319720698,0.11409436379694245,-0.6280771064754347,0.02432951168434673,0.05165507313515012,-0.6902418724052743
1589995555.0421593,-2.0738766345264827,-1.8528945978074232,-3.2489122969224677,0.5222222222222223,0.10666666666666667,-0.6088888888888889,-0.7282394804674932,2.0878864258949132,-1.9196158721848229
1589995555.0521593,-2.770678675631105,-3.5940314601040213,-2.18042115945706,0.5222222222222223,0.10666666666666667,-0.6088888888888889,-0.824229276132677,-0.039692651800536716,-6.016446668593879
1589995555.0621593,-2.113864164231663,-3.873312354836292,0.06123398516520567,0.5222222222222223,0.10666666666666667,-0.6088888888888889,-0.7609111495316437,-1.1253234533610257,-9.583688435269062
1589995555.0721593,-0.590339101403103,-2.618154144936391,-0.1973949854889039,0.5222222222222223,0.10666666666666667,-0.6088888888888889,-0.7596642258039875,-0.28232886739974705,-9.823284293546614
1589995555.0821593,-0.3738488078368554,-2.4622974554864148,0.01000492883987432,0.5521382265760308,0.23744234284188698,-0.6259837485196366,-0.8086429871034942,-0.1906367086248948,-9.51505447383342
1589995555.0921593,-1.059991024682124,-3.7863660433807027,3.8795639491398655,0.5611111111111111,0.2766666666666667,-0.6311111111111111,-0.5892782599692092,0.240120215196056,-9.209249803511419
1589995555.1021593,-1.2657785836177473,-3.9361177474402727,4.55778156996587,0.5611111111111111,0.2766666666666667,-0.6311111111111111,0.1429988873782972,1.3058352050638868,-8.692752323303225
1589995555.1121593,-2.94417237578613,-2.6846007218344106,14.294079228890666,0.5611111111111111,0.2766666666666667,-0.6311111111111111,1.4218182774338577,2.8879033360465223,-7.895922192754118
1589995555.1221592,-1.5910159986335688,-1.3464350375768617,13.716427351400595,0.5611111111111111,0.2766666666666667,-0.6311111111111111,2.6417586674856923,1.959266296552486,-7.132474113916599
1589995555.1321592,0.30077771456081237,-0.21015843144120094,-0.6603466234846165,0.4523851274794423,0.3872780719798095,-0.6229409504913903,2.2076098174063574,0.24916763512985385,-6.007240829367085
1589995555.1421592,-0.3357739130434782,-0.49271872909698994,-0.8323822742474916,0.3688888888888889,0.4722222222222222,-0.6166666666666667,0.5844240107871893,0.044939856867587724,-4.99554548504763
1589995555.1521592,1.3196228398712138,-0.38121492870753665,7.385029239766083,0.3688888888888889,0.4722222222222222,-0.6166666666666667,-0.24460986144515579,0.46202227745501057,-4.53411523454203
1589995555.1621592,1.1087475795833008,-1.2760860893811479,15.412172178762296,0.3688888888888889,0.4722222222222222,-0.6166666666666667,-1.028426534077537,0.7357124518824244,-4.1618362881511
1589995555.1721592,-1.8368027928878785,-2.9555338150523665,15.965793618575953,0.3688888888888889,0.4722222222222222,-0.6166666666666667,-1.447953919810152,0.6465529491209594,-3.6617918488993118
1589995555.1821592,0.6966084365901549,-1.6494004333401042,7.815337531315593,0.2727854891251194,0.513409393549552,-0.614950534528028,0.3911294198536692,0.4462351716095091,-2.7752550942229353
1589995555.1921592,0.7387445092245029,-1.3403050874530789,5.628055267151186,0.24444444444444444,0.5255555555555556,-0.6144444444444445,0.5690556048487373,0.41752900739617244,-2.4863067055005144
1589995555.2021592,1.341752269847973,-2.9450773331925673,11.323230574324324,0.24444444444444444,0.5255555555555556,-0.6144444444444445,0.08907833345075283,-0.017926125974887852,-2.2372156235687175
1589995555.2121592,1.2897543769003001,-3.2045875479422112,12.09047713678186,0.24444444444444444,0.5255555555555556,-0.6144444444444445,-0.17500252372174413,0.17394204136426894,-1.9508638954185025
1589995555.2221591,0.8518273200083961,-2.4736546400167922,8.99645660843809,0.24444444444444444,0.5255555555555556,-0.6144444444444445,-0.029912072421043434,0.16421675503481326,-1.7223956268442888
1589995555.2321591,0.6013673417399057,-1.9449445930454718,7.041781301745001,0.19812762705387849,0.5703284790331026,-0.6229358609660482,0.09230622308348957,0.10004923203296781,-1.4360799756313063
1589995555.2421591,0.7362786204814731,-2.519998188815938,9.238830427892236,0.17777777777777778,0.59,-0.6266666666666667,-0.03614931386478458,0.13574507022525464,-1.212395381831811
1589995555.252159,1.8978386114271037,-4.089273054199846,8.849332501559577,0.17777777777777778,0.59,-0.6266666666666667,-0.10242693297035829,0.0060119582849489095,-0.9423824469549273
1589995555.262159,1.1344091141309902,-3.2166292020026566,7.623519362419536,0.17777777777777778,0.59,-0.6266666666666667,-0.22079476109461116,-0.12889692100382744,0.017439672460515365
1589995555.272159,-2.4349045786116124,-0.24823988587117435,13.134901617722269,0.17777777777777778,0.59,-0.6266666666666667,-0.0445459810429254,0.07474288781002163,0.9729126531727293
1589995555.282159,-1.6502980561555074,-0.6251490280777537,6.587933613731954,0.15080080330415674,0.6071200030313364,-0.6235539388427873,0.5298391163161903,0.16166350277204775,1.327508549415253
1589995555.292159,0.48279315935026557,-1.4722441908515844,7.9758835309450395,0.12,0.6266666666666667,-0.62,-0.11605539371049373,-0.1774854049180511,1.4158983556804
1589995555.302159,0.8849616115954508,-2.4747615972446453,11.470520037312095,0.12,0.6266666666666667,-0.62,-0.44099025006071163,-0.26180410365712276,1.4856464234386906
1589995555.312159,0.17119858411720365,-2.246797876175805,8.01492740323162,0.12,0.6266666666666667,-0.62,-0.031083904402539886,-0.10206941993768458,1.604327852258709
1589995555.322159,2.103339102435098,-5.043267458241095,8.118759508955524,0.12,0.6266666666666667,-0.62,0.09085704989665994,-0.1141358924888415,1.7444348541730277
1589995555.332159,5.307927716498474,-9.489982566131356,9.168095349850805,0.1326469306333188,0.615424950548161,-0.62,-0.2481141371993252,-0.1760725300635338,1.9570613098727534
1589995555.342159,1.3213139728128862,-4.939299654834448,8.773200238632974,0.14,0.6088888888888889,-0.62,-0.12190716141316255,-0.17549243979491988,2.328536279773748
1589995555.352159,-1.1099237722438258,-2.0733079240812753,7.4415848162550535,0.14,0.6088888888888889,-0.62,0.09893473656407682,-0.1125251604978311,2.6462657532837564
1589995555.362159,-0.1126607565294272,-2.4871855958326363,8.40702382374728,0.14,0.6088888888888889,-0.62,-0.10355106556999283,-0.20407004435313014,2.7869019438662592
1589995555.372159,0.26873030738174025,-2.6933044057355726,9.027947597344488,0.14,0.6088888888888889,-0.62,-0.20370835236837603,-0.2518225460797105,2.8230928574278478
1589995555.382159,-0.1153391188528855,-2.8678814176604024,8.33836840024141,0.14,0.6088888888888889,-0.62,-0.11991740181787965,-0.22611395897899,2.904979468193105
1589995555.392159,0.20137192440735602,-3.8376806269420936,8.25780922042643,0.2088888888888889,0.5988888888888889,-0.6322222222222222,-0.08625069318611858,-0.2267733142694371,3.0302385905329836
1589995555.402159,0.5123923736737266,-5.4846412455790885,8.477665758770682,0.2088888888888889,0.5988888888888889,-0.6322222222222222,-0.1589626782645919,-0.24339357504635017,3.1846252827465507
1589995555.412159,-0.17659870728797566,-3.2490021545200407,8.48946350670394,0.2088888888888889,0.5988888888888889,-0.6322222222222222,-0.09781194356944281,-0.2583595250548941,3.5549262113204856
1589995555.422159,-0.17778605609061726,-3.1887176691501606,8.674824641104852,0.2088888888888889,0.5988888888888889,-0.6322222222222222,-0.08367595168319474,-0.2677315276514572,3.737862471519639
1589995555.432159,-0.08126904612815697,-3.4787382592360676,8.617599666040492,0.2402199726338737,0.5895302534845428,-0.6375118857116352,-0.12687413897368688,-0.2810348715004726,3.797781557891391
1589995555.442159,-0.24185601489501085,-4.362952108402579,8.361776023170016,0.29444444444444445,0.5733333333333334,-0.6466666666666666,-0.12062930563127403,-0.28252080979478367,3.840344822456995
1589995555.452159,-0.35993194523211536,-4.842109697804424,8.738570849874423,0.29444444444444445,0.5733333333333334,-0.6466666666666666,-0.14174861273597592,-0.2922981079676276,3.9585356052556158
1589995555.462159,-0.37987575127138234,-4.031274560795192,8.683354715672676,0.29444444444444445,0.5733333333333334,-0.6466666666666666,-0.12737318498724085,-0.30211946645015963,4.152084511730031
1589995555.472159,-0.41689769098050733,-4.604873536213796,8.490693072941522,0.29444444444444445,0.5733333333333334,-0.6466666666666666,-0.2048547854208339,-0.3509109045134104,3.7872318520506445
1589995555.482159,-1.6431026055570177,-3.754879497687709,9.291562206263864,0.32373826622050106,0.547515049734097,-0.6531212375664757,-0.3723258881850953,-0.28306933715213173,1.1574365893516712
1589995555.492159,-3.8147024481185303,-2.3147147132414267,11.282211646960702,0.36,0.5155555555555555,-0.6611111111111111,0.0248857445585976,0.154852963574484,-1.478256650226554
1589995555.5021589,-3.6429125280358856,-3.1643244686532097,10.948663889778917,0.36,0.5155555555555555,-0.6611111111111111,0.6241089934079979,0.4445949221970691,-1.304648994447764
1589995555.5121589,-1.0553603978831831,-2.722261858094865,8.50686005488044,0.36,0.5155555555555555,-0.6611111111111111,0.25216535505526655,0.07319229744348563,-0.30343079388092337
1589995555.5221589,-0.86148906009245,-4.1652283513097075,10.102188392398562,0.36,0.5155555555555555,-0.6611111111111111,-0.3321366945063705,-0.10644552001062443,0.09364590097748306
1589995555.5321589,-0.6866159880133968,-4.267121893178213,9.697829631588226,0.3767339444150655,0.5032043108682452,-0.6591189748712224,-0.3410506092486318,-0.08633546842711781,0.419186964335182
1589995555.5421588,-0.5254147858360919,-4.038692279399472,8.826869629183804,0.4066666666666667,0.4811111111111111,-0.6555555555555556,0.07317392973905049,-0.035663969638761055,0.842769982932522
1589995555.5521588,2.901400439907038,-9.60906166998672,8.581604000664012,0.4066666666666667,0.4811111111111111,-0.6555555555555556,-0.016682295713141476,-0.0761711435711292,1.0913496695494511
1589995555.5621588,2.19049851073836,-8.988852484715473,9.291629304488687,0.4066666666666667,0.4811111111111111,-0.6555555555555556,-0.16966816305635096,-0.10345165079723731,0.6596522274118317
1589995555.5721588,-1.1026982099863916,-3.0433277504448863,9.019391395373182,0.4066666666666667,0.4811111111111111,-0.6555555555555556,0.061437649608158756,0.03104634808822411,-0.08194371537251596
1589995555.5821588,0.19896836277353014,-4.326524387028737,8.60896836277353,0.4095609456015467,0.4806287312886311,-0.6516965169757155,0.15743230491481142,0.07404420157781902,-0.13799495426532296
1589995555.5921588,0.3250034223134839,-5.719822039698837,9.155537303216974,0.4133333333333333,0.48,-0.6466666666666666,-0.11215651824490118,-0.04484471797178072,0.1336423754850795
1589995555.6021588,-0.3498718583836983,-4.810283034446316,8.549257901515901,0.4133333333333333,0.48,-0.6466666666666666,-0.07051030890444007,-0.026263807271663407,0.058434290846209644
1589995555.6121588,-0.3778873743336553,-3.93802797753211,8.26070408929913,0.4133333333333333,0.48,-0.6466666666666666,0.05262108218317964,0.019074181750719482,-0.029129798732180585
1589995555.6221588,-0.2267377137161696,-4.558721153108947,8.594754274323392,0.4133333333333333,0.48,-0.6466666666666666,-0.002963132302679555,-0.0003791103225528203,-0.004053963085176011
1589995555.6321588,-0.22030621789465615,-4.674488077896189,8.466124357893124,0.4133333333333333,0.48,-0.6466666666666666,0.0019478392310433917,0.0010240244013680216,0.0008570084485469351
1589995555.6421587,-0.21,-4.555006042377205,8.568680076268228,0.4133333333333333,0.4722222222222222,-0.6844444444444444,0.002181661564992912,0.0017510357760545468,0.001090830782496456
1589995555.6521587,-0.20558944521466396,-4.617073342575967,8.538516102638697,0.4133333333333333,0.4722222222222222,-0.6844444444444444,-0.0016672735771923602,0.001571947675269615,0.001090830782496456
1589995555.6621587,-0.2223542144458474,-4.581295900224187,8.537408199551628,0.4133333333333333,0.4722222222222222,-0.6844444444444444,-0.004594211476094152,0.003157048174435204,0.0020662173919387484
1589995555.6721587,-0.24644728855591974,-4.591578308447358,8.534606940325686,0.4133333333333333,0.4722222222222222,-0.6844444444444444,-0.0014065801640868753,0.004363323129985824,0.002497410946583331
1589995555.6821587,-0.24171797274890058,-4.5503078364934035,8.654538245259895,0.4133333333333333,0.47012247775134375,-0.67795432517082,-0.00037480351159816227,0.00380111786258858,0.0009034290266973749
1589995555.6921587,-0.2547726529277069,-4.566591429506052,8.661135099771018,0.4133333333333333,0.46,-0.6466666666666666,-0.002702277237764364,0.0016114464552679081,0.0005206156727714521
1589995555.7021587,-0.2514857418654225,-4.59811406507662,8.609514740779472,0.4133333333333333,0.46,-0.6466666666666666,-0.005130015320152963,0.0017172808218270134,0.001090830782496456
1589995555.7121587,-0.2284177434240886,-4.6320887171204435,8.466329026303645,0.4133333333333333,0.46,-0.6466666666666666,-0.007635815477475192,0.0023542589828740718,0.00024854531557804576
1589995555.7221587,-0.22136999119330691,-4.577899970644356,8.551369991193306,0.4133333333333333,0.46,-0.6466666666666666,-0.006395541838437912,0.0031230494909485445,0.00014944285654082336
1589995555.7321587,-0.2353644431720584,-4.61218665903235,8.602448897795592,0.41024296211470557,0.46,-0.65001456882018,-0.0033520015135997594,0.001090830782496456,0.002181661564992912
1589995555.7421587,-0.22,-4.560696546894359,8.677442762484514,0.4,0.46,-0.6611111111111111,-0.0013317913828103448,0.001978691704370019,0.0026255920259296937
1589995555.7521586,-0.22912195568577184,-4.604796740523714,8.611756088628457,0.4,0.46,-0.6611111111111111,-0.0016140740043879532,0.003272492347489368,0.002940808678869085
1589995555.7621586,-0.24832310932063725,-4.572794817798938,8.573353781358726,0.4,0.46,-0.6611111111111111,0.0018767942363378653,0.003272492347489368,0.0022426350307239214
1589995555.7721586,-0.23735008645080163,-4.624700172901603,8.529748703237976,0.4,0.46,-0.6611111111111111,-0.0016035401109089093,0.004363323129985824,0.0013144793838669078
1589995555.7821586,-0.23303826308383033,-4.60696173691617,8.635442605374255,0.40607652616766066,0.46185671632900743,-0.6611111111111111,0.00016571154485823665,0.004197611585127587,-0.0007594076927799826
1589995555.7921586,-0.2419912356736974,-4.581991235673698,8.622013146489454,0.44,0.4722222222222222,-0.6611111111111111,-0.00021960021603710067,0.00239887168180033,0.001090830782496456
1589995555.8021586,-0.23,-4.589844430471134,8.59237336686928,0.44,0.4722222222222222,-0.6611111111111111,-0.003047538189753833,0.001090830782496456,0.001090830782496456
1589995555.8121586,-0.2227186096111086,-4.612718609611108,8.538203475972228,0.44,0.4722222222222222,-0.6611111111111111,-0.004363323129985824,0.0014879690212752854,0.0006936925437176265
1589995555.8221586,-0.22152190113438766,-4.591358574149209,8.581521901134387,0.44,0.4722222222222222,-0.6611111111111111,-0.004991745351499369,0.002495872675749685,-0.0003142111107567729
1589995555.8321586,-0.2433868613138686,-4.576613138686132,8.621021897810218,0.4326520681265207,0.47075263584752636,-0.6611111111111111,-0.005342682153687021,0.003032031839231025,-0.0006099097659797703
1589995555.8421586,-0.22,-4.592939950441166,8.656469975220583,0.4066666666666667,0.4655555555555556,-0.6611111111111111,-0.0007057648132601372,0.002181661564992912,0.0007057648132601372
1589995555.8521585,-0.2256261926283017,-4.58,8.633121422115096,0.4066666666666667,0.4655555555555556,-0.6611111111111111,0.0006137224107206133,0.0015679391542722987,0.0
1589995555.8621585,-0.23807796663028225,-4.58,8.588077966630282,0.4066666666666667,0.4655555555555556,-0.6611111111111111,0.0015526776155908545,0.0006289839494020576,0.0
1589995555.8721585,-0.23,-4.595147022719118,8.595147022719118,0.4066666666666667,0.4655555555555556,-0.6611111111111111,-0.0007603740095927214,0.003272492347489368,0.0003304567729037346
1589995555.8821585,-0.23121514280885586,-4.626354571573432,8.626354571573433,0.40747676187257054,0.4655555555555556,-0.6611111111111111,-0.0005302060724116626,0.0028748377931806213,0.0008257277462906246
1589995555.8921585,-0.24267575115562404,-4.601337875577812,8.595986373266564,0.4133333333333333,0.4655555555555556,-0.6611111111111111,-0.0034876856119292745,0.00014593958634275821,-0.0012367703688392143
1589995555.9021585,-0.2567409836065574,-4.605654644808744,8.566740983606557,0.4133333333333333,0.4655555555555556,-0.6611111111111111,0.0018261580247301325,0.0013278331426716423,-0.0018261580247301325
1589995555.9121585,-0.23382131147540985,-4.575095081967214,8.543821311475408,0.4133333333333333,0.4655555555555556,-0.6611111111111111,-0.0006739903638080563,0.002994598735030435,0.0006739903638080563
1589995555.9221585,-0.21604420006344505,-4.593022100031723,8.551511050015861,0.4133333333333333,0.4655555555555556,-0.6611111111111111,-0.005022643078463115,-0.0015223416165156206,-0.0015223416165156206
1589995555.9321585,-0.24828617597668007,-4.61114254934888,8.56171382402332,0.41409503289925326,0.4659364053385156,-0.6611111111111111,-0.008352747859887788,0.0021193451649789354,0.0022439779650068885
1589995555.9421585,-0.22634222511385815,-4.623657774886142,8.602684450227716,0.4266666666666667,0.4722222222222222,-0.6611111111111111,-0.00045208796906326745,0.002474489659240171,0.0022347481899315817
1589995555.9521585,-0.24,-4.591818497591701,8.600909596146721,0.4266666666666667,0.4722222222222222,-0.6611111111111111,0.004065810047449624,0.006644130462422664,0.0
1589995555.9621584,-0.24,-4.578908694704729,8.540545652647635,0.4266666666666667,0.4722222222222222,-0.6611111111111111,0.003047765517728603,0.007695336947934357,0.0
1589995555.9721584,-0.24,-4.611303988256456,8.539566026422975,0.4266666666666667,0.4722222222222222,-0.6611111111111111,-0.0017073677002524801,0.005217006980112064,0.00023714693237021593
1589995555.9821584,-0.24,-4.58175188420692,8.61,0.4254987438620532,0.47115162631799323,-0.6598458614061132,-0.0002866513830416882,0.00445887359099972,0.0009952803214825598
1589995555.9921584,-0.24,-4.599713086673518,8.61,0.4135246088843211,0.4601753359217388,-0.6468738818469034,-0.0032255462642241683,0.005438505218060547,1.5648694421733058e-05
1589995556.0021584,-0.24680088375867976,-4.59680088375868,8.614809721345477,0.4133333333333333,0.46,-0.6466666666666666,-0.0036214617947710145,0.0018766145583627824,-0.0006979388945632929
1589995556.0121584,-0.2345095571095571,-4.592745221445221,8.550980885780886,0.4133333333333333,0.46,-0.6466666666666666,-0.0034649515128207355,-0.0007913735767747598,-0.0012832899478278236
1589995556.0221584,-0.22,-4.602176186645213,8.58,0.4133333333333333,0.46,-0.6466666666666666,-0.0015656010587077052,0.0002373851381056246,0.0015656010587077052
1589995556.0321584,-0.2190148596587782,-4.609014859658778,8.584925701706108,0.4133333333333333,0.46120406041704887,-0.6489653274628508,-0.0033799544884177478,0.0009833686415680765,0.0031650302065609885
1589995556.0421584,-0.21328226501199096,-4.6,8.616870939952037,0.4133333333333333,0.4722222222222222,-0.67,-0.0032892044165685704,0.000716079142278169,0.0011075428515756585
1589995556.0521584,-0.22202549859974316,-4.597974501400256,8.575821509801798,0.4133333333333333,0.4722222222222222,-0.67,-0.0006489355379957952,0.0019607139427425817,-0.0006489355379957952
1589995556.0621583,-0.22851510884869491,-4.591484891151305,8.530394238059134,0.4133333333333333,0.4722222222222222,-0.67,0.0007668777871964144,0.0012528072801464766,0.0007668777871964144
1589995556.0721583,-0.24882454050374403,-4.58,8.569403675970047,0.4133333333333333,0.4722222222222222,-0.67,0.0,0.0020534388247835343,0.0017969933443647795
1589995556.0821583,-0.2416865214431586,-4.58,8.626507828454733,0.4133333333333333,0.4722222222222222,-0.67,0.0,0.001274801733050232,-0.000538917930835128
1589995556.0921583,-0.23108260232715064,-4.617834795345699,8.63891739767285,0.4133333333333333,0.4655555555555556,-0.6466666666666666,-0.003272492347489368,0.0,0.0
1589995556.1021583,-0.23798554994157436,-4.604028900116851,8.632014450058426,0.4133333333333333,0.4655555555555556,-0.6466666666666666,-0.003272492347489368,0.0,0.0
1589995556.1121583,-0.23864706354944965,-4.58,8.543382341126375,0.4133333333333333,0.4655555555555556,-0.6466666666666666,-0.002255452801344002,0.00022137370905326968,0.001017039546145366
1589995556.1221583,-0.2217984253233711,-4.58,8.585503936691572,0.4133333333333333,0.4655555555555556,-0.6466666666666666,-0.0031744034623516514,0.002978225692076218,9.808888513771668e-05
1589995556.1321583,-0.22922314459174825,-4.591165283112377,8.628834716887622,0.4133333333333333,0.4658145073583062,-0.6470119357370008,-0.003314863237132862,4.237088964349386e-05,0.002181661564992912
1589995556.1421583,-0.21190063189195885,-4.617149052162062,8.602850947837938,0.4133333333333333,0.4715886782582359,-0.6547108302702405,-0.004259659741288663,0.0009871673937992956,0.002181661564992912
1589995556.1521583,-0.22512339055793992,-4.58768508583691,8.55975321888412,0.4133333333333333,0.4722222222222222,-0.6555555555555556,-0.001090830782496456,0.003831367560624623,0.0008113931759288285
1589995556.1621583,-0.23791347681640906,-4.6037404304492275,8.540432615917954,0.4133333333333333,0.4722222222222222,-0.6555555555555556,-0.000863226410791107,0.005226549540776931,-0.00022760437170534894
1589995556.1721582,-0.23181647077668543,-4.58,8.587265883106742,0.4133333333333333,0.4722222222222222,-0.6555555555555556,-0.00019814622387137032,0.004165176906114454,-0.0002982458870109747
1589995556.1821582,-0.23932207677227596,-4.580338961613862,8.621016884841586,0.4135216453410344,0.4724858590330038,-0.6552542563432338,-0.001127805758744992,0.0033834172762349764,0.003124592442495224
1589995556.1921582,-0.22262244122590896,-4.5952448824518175,8.639510235096365,0.4188888888888889,0.48,-0.6466666666666666,-0.002753789487894758,0.0051146648877241204,-0.001090830782496456
1589995556.2021582,-0.23197992682487956,-4.606040146350241,8.590200731751205,0.4188888888888889,0.48,-0.6466666666666666,-0.004147346617218916,0.0015227838080302707,-0.0008748542697295486
1589995556.2121582,-0.23942961392128734,-4.590570386078713,8.51228154431485,0.4188888888888889,0.48,-0.6466666666666666,-0.003210272878232647,0.003148053408975926,0.00012443893851344214
1589995556.2221582,-0.23165504955534505,-4.5983449504446545,8.556620198221381,0.4188888888888889,0.48,-0.6466666666666666,-0.002181661564992912,0.0012713686826492012,0.0018205857646874217
1589995556.2321582,-0.2375851489488046,-4.5924148510511955,8.580340595795219,0.4188888888888889,0.48,-0.6466666666666666,-0.002181661564992912,0.0019182421788141242,0.0005268387723575754
1589995556.2421582,-0.23995779683341845,-4.570211015832908,8.620084406333163,0.4188888888888889,0.4722222222222222,-0.64,-0.0032632850448441734,0.001090830782496456,0.0021632469597025225
1589995556.2521582,-0.23,-4.61695638667992,8.625796471172963,0.4188888888888889,0.4722222222222222,-0.64,-0.0008694929758591905,0.0014228374924523542,-0.0019603237583556464
1589995556.2621582,-0.23,-4.5908983598409545,8.504192345924453,0.4188888888888889,0.4722222222222222,-0.64,0.001025500211278353,0.0042653272731586695,-6.533057121810293e-05
1589995556.2721581,-0.21154160530191457,-4.598458394698085,8.584624815905745,0.4188888888888889,0.4722222222222222,-0.64,0.0013408463060988283,0.0029361662439317347,-0.0009226677307176392
1589995556.2821581,-0.21926307069219442,-4.5907369293078055,8.607789212076582,0.4188888888888889,0.4722222222222222,-0.64,-0.002870559760750293,0.0012516038171920861,-8.038651734781498e-05
1589995556.2921581,-0.21180862318371224,-4.581808623183712,8.626382753632576,0.4088772061134261,0.4722222222222222,-0.657292906612163,-0.003272492347489368,0.0028779119789433564,0.0008935405982234501
1589995556.302158,-0.21077975646060867,-4.591559512921218,8.592202435393913,0.4066666666666667,0.4722222222222222,-0.6611111111111111,-0.004363323129985824,0.0012609472525129404,-0.0008356560774717295
1589995556.312158,-0.2183016803859328,-4.6066033607718655,8.516983196140671,0.4066666666666667,0.4722222222222222,-0.6611111111111111,-0.004363323129985824,0.002901976484780972,0.001625887770930318
1589995556.322158,-0.23,-4.608574376066342,8.55140499146927,0.4066666666666667,0.4722222222222222,-0.6611111111111111,-0.0042078116828759655,0.004676596676932987,0.0003110228942197172
1589995556.332158,-0.23,-4.600253342856009,8.617973257151926,0.4066666666666667,0.4722222222222222,-0.6611111111111111,-0.0033001277660754088,0.00013817709293020407,0.0021263907278208302
1589995556.342158,-0.2483480473852529,-4.574955857844241,8.638348047385254,0.4133333333333333,0.4655555555555556,-0.67,-0.002361861641332075,0.002181661564992912,0.0009106307061572932
1589995556.352158,-0.23876535082166458,-4.598765350821664,8.618888157394982,0.4133333333333333,0.4655555555555556,-0.67,-0.0030031336816269258,0.002181661564992912,0.0
1589995556.362158,-0.22681076139480216,-4.588405380697401,8.547973096512994,0.4133333333333333,0.4655555555555556,-0.67,-0.0012647767646602503,0.0023556075471567062,0.0
1589995556.372158,-0.21102138241208343,-4.580510691206042,8.591532073618126,0.4133333333333333,0.4655555555555556,-0.67,-0.002014538258622747,0.0031053690411192033,0.00011141553758010987
1589995556.382158,-0.2238978003591877,-4.586948900179594,8.610846700538781,0.4133333333333333,0.4655555555555556,-0.67,9.236070112592218e-05,0.000998470081370534,0.0015160148440792227
1589995556.392158,-0.2378894490328578,-4.582110550967142,8.651557796131431,0.4177163605738099,0.4655555555555556,-0.6629871564152375,-0.0014909853760970008,0.0017212107723956376,0.0004604507925972743
1589995556.402158,-0.22324452167197606,-4.596755478328023,8.568644174148083,0.4188888888888889,0.4655555555555556,-0.6611111111111111,-0.00017696120571341774,0.00235862277070633,0.0
1589995556.412158,-0.23854903456304444,-4.584352896310866,8.518705792621732,0.4188888888888889,0.4655555555555556,-0.6611111111111111,-0.001090830782496456,0.0027976650185985038,0.00015827577629695476
1589995556.422158,-0.2301304644534543,-4.609608606639638,8.569217213279275,0.4188888888888889,0.4655555555555556,-0.6611111111111111,-0.001090830782496456,4.2694392554856915e-05,0.0010765993183115036
1589995556.432158,-0.22083416572329137,-4.600834165723291,8.615829171383542,0.4188888888888889,0.4655555555555556,-0.6611111111111111,-0.0020906682001259457,0.00099983741762949,0.001090830782496456
1589995556.442158,-0.2130790422851757,-4.6069209577148245,8.633841915429649,0.4058159687608875,0.4617105790473199,-0.6611111111111111,0.0008381759228817494,0.001090830782496456,0.00033587141052779065
1589995556.452158,-0.23738295537673737,-4.600872348207754,8.603489392831017,0.4,0.46,-0.6611111111111111,0.002181661564992912,-0.0009005139268816757,0.0009956723546890658
1589995556.462158,-0.22595989352262644,-4.592979946761313,8.536819520851818,0.4,0.46,-0.6611111111111111,0.0006501235314882161,0.001206476267760588,-0.00044070725100823984
1589995556.472158,-0.22,-4.600010230702337,8.560040922809351,0.4,0.46,-0.6611111111111111,-0.0010874827929854944,-1.1159965036538503e-06,0.0
1589995556.482158,-0.22,-4.607162003171518,8.58864801268607,0.4,0.46,-0.6611111111111111,0.0012529292746521778,-0.0007812533523828779,0.0
1589995556.492158,-0.21026474775849463,-4.590529495516989,8.648676261207527,0.4064901681610036,0.47189864162850653,-0.6838266996746236,0.002181661564992912,-2.8879500456288273e-05,-0.0010619512820401677
1589995556.502158,-0.21830648733540048,-4.5983064873354005,8.65,0.4066666666666667,0.4722222222222222,-0.6844444444444444,0.0003694671490185517,-0.0009060972079871801,0.0016274608414650847
1589995556.512158,-0.23074515596489706,-4.590745155964897,8.532980623859588,0.4066666666666667,0.4722222222222222,-0.6844444444444444,-0.0012533985953505633,8.128390642705367e-05,-8.128390642705367e-05
1589995556.522158,-0.23803388652359023,-4.59803388652359,8.56213554609436,0.4066666666666667,0.4722222222222222,-0.6844444444444444,-0.00284355292709959,0.0008763610723015667,-0.0008763610723015667
1589995556.532158,-0.21751174743024962,-4.6,8.607480420949583,0.4066666666666667,0.4722222222222222,-0.6844444444444444,-0.003272492347489368,0.00027313484424183157,0.0005445610940127928
1589995556.542158,-0.23147781916694884,-4.607159273055649,8.62,0.41143951537043305,0.48654076833352145,-0.6685349487652231,0.0006322853672106675,0.0,0.001871786325436463
1589995556.5521579,-0.23031907642498084,-4.5901595382124905,8.608723694300076,0.4133333333333333,0.4922222222222222,-0.6622222222222223,-0.001056024943862655,-0.001125636621130257,-1.740291931690052e-05
1589995556.5621579,-0.24818693022066968,-4.599093465110334,8.53725227911732,0.4133333333333333,0.4922222222222222,-0.6622222222222223,0.0008930555498856986,-0.003074717114878611,-0.0009919431661910773
