time,acc_x,acc_y,acc_z,mag_x,mag_y,mag_z,gyr_x,gyr_y,gyr_z
1589995579.6949728,-3.96,-0.83,8.9,0.30666666666666664,-0.3244444444444444,-0.6111111111111112,0.002181661564992912,0.002181661564992912,-0.002181661564992912
1589995579.7049727,-3.96,-0.83,8.872663697588528,0.30666666666666664,-0.3244444444444444,-0.6111111111111112,0.0011876855599907644,-0.001794242455015678,0.0008002664500135312
1589995579.7149727,-3.9515337727832267,-0.8469324544335464,8.77920263669936,0.30666666666666664,-0.3244444444444444,-0.6111111111111112,0.001847044251933105,0.0020143529084630084,0.0015124269388732978
1589995579.7249727,-3.9598614144462534,-0.8302771711074931,8.82916848667752,0.30666666666666664,-0.3244444444444444,-0.6111111111111112,3.0234677607216508e-05,0.0011059481213000642,-0.002121192209778479
1589995579.7349727,-3.9409487517032726,-0.8490512482967274,8.887153744890183,0.30666666666666664,-0.3244444444444444,-0.6111111111111112,0.0,5.174637814378438e-05,-0.00010349275628756876
1589995579.7449727,-3.9566103812280082,-0.8333896187719919,8.93152595307002,0.2955930791813279,-0.3290584392300023,-0.6055743173684418,0.0009059557576256247,0.0027178672728768744,0.0009059557576256247
1589995579.7549727,-3.96,-0.823051370074208,8.953897259851585,0.2933333333333333,-0.33,-0.6044444444444445,0.0026067866663424368,0.004788448231335348,-0.0004251251013495242
1589995579.7649727,-3.949846064042695,-0.8298460640426951,8.850307871914609,0.2933333333333333,-0.33,-0.6044444444444445,0.003171741499032641,0.002198453373069033,-0.001090830782496456
1589995579.7749727,-3.9428509006004004,-0.8228509006004002,8.8642981987992,0.2933333333333333,-0.33,-0.6044444444444445,-0.0014065822678368239,0.0029615073342139442,-0.001090830782496456
1589995579.7849727,-3.9579001584786053,-0.8289500792393026,8.887900158478606,0.2933333333333333,-0.33,-0.6044444444444445,-0.004248794541490753,0.00815400331749629,-0.001090830782496456
1589995579.7949727,-3.96,-0.8377036042793415,8.905407208558684,0.2933333333333333,-0.33,-0.6095801806306722,-0.007724654603616685,0.007886313391563933,-0.0019311636509041713
1589995579.8049726,-3.95,-0.8669634120771597,8.934817060385798,0.2933333333333333,-0.33,-0.6111111111111112,-0.004252909677319449,0.0028308385368238684,-0.0013116576878292058
1589995579.8149726,-3.95,-0.8449776348895722,8.824888174447862,0.2933333333333333,-0.33,-0.6111111111111112,-0.0034534842595418274,-0.00036686313428661854,-0.0029105085233844495
1589995579.8249726,-3.96,-0.829188358429633,8.882434924711102,0.2933333333333333,-0.33,-0.6111111111111112,-0.004009177686261828,-0.002181661564992912,-0.0020931252040619127
1589995579.8349726,-3.96,-0.821028559200031,8.906914322399906,0.2933333333333333,-0.33,-0.6111111111111112,-0.0004487936148055531,-0.002181661564992912,-0.0012030291861978442
1589995579.8449726,-3.96,-0.8324997717853687,8.966250342321947,0.2933333333333333,-0.3377777777777778,-0.6044444444444445,-0.0028634681455849222,-0.004636105508673388,-0.001090830782496456
1589995579.8549726,-3.96,-0.8478149818341153,8.943277527248826,0.2933333333333333,-0.3377777777777778,-0.6044444444444445,-0.00035752276134913856,0.00037578525979817864,-0.001090830782496456
1589995579.8649726,-3.95,-0.8335786715278568,8.801192890509286,0.2933333333333333,-0.3377777777777778,-0.6044444444444445,0.0007004582761934631,-0.0024419099025282404,-0.0009607066137287917
1589995579.8749726,-3.95,-0.8586928389965068,8.815228644013974,0.2933333333333333,-0.3377777777777778,-0.6044444444444445,-0.002181661564992912,-0.0045772068490292205,-7.129457301446549e-05
1589995579.8849726,-3.95,-0.8420435058748809,8.881825976500476,0.2933333333333333,-0.3377777777777778,-0.6044444444444445,-0.002181661564992912,-0.007301447610595324,-0.0009793748268698333
1589995579.8949726,-3.95,-0.8318434528163862,8.873686905632772,0.30420872957815165,-0.3314337966349671,-0.5926627651792246,-0.0004021790156387812,-0.007635815477475192,-0.001090830782496456
1589995579.9049726,-3.9584257019198756,-0.8247228942403728,8.883702807679503,0.30666666666666664,-0.33,-0.59,0.001090830782496456,-0.005858067572328875,-0.001090830782496456
1589995579.9149725,-3.9518677864314538,-0.8518677864314534,8.856537252510087,0.30666666666666664,-0.33,-0.59,0.001090830782496456,-0.0020797896182649773,-0.0011927027292243904
1589995579.9249725,-3.969340047654326,-0.8686800953086519,8.920659952345673,0.30666666666666664,-0.33,-0.59,0.0010188411491322544,-0.0011628204158606575,-0.0019656926649003073
1589995579.9349725,-3.960941873736059,-0.8518837474721181,8.929058126263941,0.30666666666666664,-0.33,-0.59,0.0001027424864518216,-0.0020789190785410906,0.0007826033231409907
1589995579.9449725,-3.949475318471338,-0.8594753184713375,8.965277866242038,0.3,-0.3377777777777778,-0.5822222222222222,0.0033297262237365947,-0.002986322966253236,0.0009191291537547766
1589995579.9549725,-3.941126791401274,-0.8511267914012739,8.890141122611466,0.3,-0.3377777777777778,-0.5822222222222222,0.004240409255389637,0.0015670921920119766,-0.0018129199412043513
1589995579.9649725,-3.954116685796549,-0.8429416571017255,8.823533256813805,0.3,-0.3377777777777778,-0.5822222222222222,0.003593377359300525,0.002951607335678211,-0.0014117157943076132
1589995579.9749725,-3.9597022748065562,-0.8201488625967219,8.830446587790165,0.3,-0.3377777777777778,-0.5822222222222222,0.0022303767358529004,-0.003272492347489368,0.0010421156116364675
1589995579.9849725,-3.9466944750267485,-0.8266527624866256,8.849958287459877,0.3,-0.3377777777777778,-0.5822222222222222,0.004358772997707582,-0.003272492347489368,-0.001086280650218214
1589995579.9949725,-3.9474496816218987,-0.83,8.874899363243797,0.304966454414599,-0.3137732481072158,-0.5987770702708857,0.00545415391248228,-0.0057103949573788886,-0.0005563931583998977
1589995580.0049725,-3.95,-0.8378035610692133,8.895607122138427,0.30666666666666664,-0.3055555555555556,-0.6044444444444445,0.0011979715987878881,-0.004842511769500979,-0.0017024729254777567
1589995580.0149724,-3.940606953232962,-0.85,8.823641719397775,0.30666666666666664,-0.3055555555555556,-0.6044444444444445,0.0010577266189938997,-0.002181661564992912,0.0
1589995580.0249724,-3.9558600625500038,-0.85,8.915160375300022,0.30666666666666664,-0.3055555555555556,-0.6044444444444445,0.00022579856040329585,-0.002181661564992912,0.0
1589995580.0349724,-3.9440139150449887,-0.8340139150449885,8.955986084955011,0.30666666666666664,-0.3055555555555556,-0.6044444444444445,0.002615717034079504,0.0013059611471130934,0.0008719056780265013
1589995580.0449724,-3.94,-0.83,8.952535720508799,0.29671429401173255,-0.31467856382257847,-0.6094206307719116,0.0040867189313052235,0.002181661564992912,0.001090830782496456
1589995580.0549724,-3.9596772340660555,-0.830645531867889,8.965158510990832,0.2933333333333333,-0.31777777777777777,-0.6111111111111112,0.005383737309224693,0.003272492347489368,3.5208301628793156e-05
1589995580.0649724,-3.9504111344305755,-0.849177731138849,8.826167016458633,0.2933333333333333,-0.31777777777777777,-0.6111111111111112,0.0033621879660125495,0.003272492347489368,0.0010459829732348653
1589995580.0749724,-3.94,-0.8304265135109687,8.831706054043876,0.2933333333333333,-0.31777777777777777,-0.6111111111111112,-0.0019955599382267338,-0.003179441534106279,0.0009977799691133669
1589995580.0849724,-3.94,-0.8383246398644195,8.863298559457677,0.2933333333333333,-0.31777777777777777,-0.6111111111111112,0.0014506478019294736,-0.0014563376640281747,-0.0007253239009647368
1589995580.0949724,-3.95,-0.83,8.909736762328214,0.28,-0.3244444444444444,-0.6044444444444445,0.004248464027786824,-0.004305893578886323,5.7429551099500156e-05
1589995580.1049724,-3.95,-0.83,8.894770284816074,0.28,-0.3244444444444444,-0.6044444444444445,6.338593673683895e-05,-0.002054889691519234,0.002054889691519234
1589995580.1149724,-3.95,-0.83,8.830274564745682,0.28,-0.3244444444444444,-0.6044444444444445,0.0008450961233152677,-0.0004914693183623766,0.0004914693183623766
1589995580.1249723,-3.9516777712764957,-0.8216777712764953,8.856151828013816,0.28,-0.3244444444444444,-0.6044444444444445,0.0022426670501392285,0.0011518362676427726,-0.0009688198122038227
1589995580.1349723,-3.97542760612295,-0.8454276061229498,8.94323455578415,0.28,-0.3244444444444444,-0.6044444444444445,0.00310623541446321,0.002015404631966754,0.0007583169164441397
1589995580.1449723,-3.94956427184466,-0.8491285436893203,8.94956427184466,0.2933333333333333,-0.33,-0.5966666666666667,0.0011383613509609617,-0.00014259170539351732,9.506113692901155e-05
1589995580.1549723,-3.943048854368932,-0.836097708737864,8.943048854368932,0.2933333333333333,-0.33,-0.5966666666666667,0.0018490831452949246,-0.0022747570883954057,0.001516504725596937
1589995580.1649723,-3.948696465453412,-0.8126070690931765,8.826945949105648,0.2933333333333333,-0.33,-0.5966666666666667,0.005027573229642486,-0.0013752179043896513,0.0012330243434430536
1589995580.1749723,-3.95,-0.8198857699006249,8.859428849503123,0.2933333333333333,-0.33,-0.5966666666666667,0.0022190432775986966,-0.002169200994124317,0.001090830782496456
1589995580.1849723,-3.95,-0.8280040505352493,8.85199594946475,0.2933333333333333,-0.33,-0.5966666666666667,0.0013085550941421948,-0.0030547680358436295,-0.0006553821592049786
1589995580.1949723,-3.931534730136466,-0.83,8.886930539727068,0.2861523950530701,-0.3248707583712405,-0.5966666666666667,-0.0009234176949282555,-0.003272492347489368,-0.001090830782496456
1589995580.2049723,-3.939706702876188,-0.8397067028761881,8.860879891371436,0.2855555555555556,-0.3244444444444444,-0.5966666666666667,-0.0021496678118857453,-9.598125932150023e-05,-3.1993753107166815e-05
1589995580.2149723,-3.950171576415052,-0.83,8.781544187735463,0.2855555555555556,-0.3244444444444444,-0.5966666666666667,0.002181661564992912,0.0021629454814840535,0.001090830782496456
1589995580.2249722,-3.9596906631564615,-0.83,8.867215968408152,0.2855555555555556,-0.3244444444444444,-0.5966666666666667,0.002181661564992912,0.0011245741976056809,0.001090830782496456
1589995580.2349722,-3.9520404840829295,-0.83,8.949595159170704,0.2855555555555556,-0.3244444444444444,-0.5966666666666667,0.002181661564992912,0.0028273277777186357,0.001090830782496456
1589995580.2449722,-3.96,-0.8497670334555962,8.989534066911192,0.3,-0.3244444444444444,-0.5755555555555556,0.002181661564992912,0.001128949844185562,-0.002143542503303806
1589995580.2549722,-3.96,-0.8311194842725352,8.95223896854507,0.3,-0.3244444444444444,-0.5755555555555556,0.002181661564992912,0.004180147944235502,0.0009076555967461341
1589995580.2649722,-3.9530472277088036,-0.8439055445823928,8.866566732505643,0.3,-0.3244444444444444,-0.5755555555555556,0.004456950976670542,0.006638612541663454,-0.0004260288252886306
1589995580.2749722,-3.9299651558346764,-0.8099651558346762,8.830034844165324,0.3,-0.3244444444444444,-0.5755555555555556,0.002177860656180346,0.008753252621659609,0.00108702987368389
1589995580.2849722,-3.9241885992094643,-0.8041885992094644,8.835811400790536,0.3,-0.3244444444444444,-0.5755555555555556,0.0015477360778188638,0.013164124670189983,0.0004569052953224079
1589995580.2949722,-3.9022629028536264,-0.8,8.84,0.30295618285772885,-0.31853207872898665,-0.5755555555555556,-0.002778803529382365,0.023134321783234775,0.0009674085779697052
1589995580.3049722,-3.890059321102933,-0.8,8.850059321102933,0.30666666666666664,-0.3111111111111111,-0.5755555555555556,-0.014768276599037348,0.048093618357540655,0.0032789632760024745
1589995580.3149722,-3.9,-0.8106495843379998,8.806752078310002,0.30666666666666664,-0.3111111111111111,-0.5755555555555556,-0.030529286462440852,0.08294604723398258,0.004944167850819939
1589995580.3249722,-3.906884154460719,-0.826884154460719,8.808189081225033,0.30666666666666664,-0.3111111111111111,-0.5755555555555556,-0.04719041450403111,0.12104299923909408,0.00545415391248228
1589995580.3349721,-3.9825111431118425,-0.8497757663032297,8.882735376808613,0.30666666666666664,-0.3111111111111111,-0.5755555555555556,-0.057021584012271885,0.14024756690634968,-0.0017365176311907862
1589995580.3449721,-4.1139232853867,-0.8913077617955667,9.0039232853867,0.30666666666666664,-0.3229384877894363,-0.5936444845929941,-0.06409386947302555,0.13620111179463426,-0.008869300942249345
1589995580.3549721,-4.1031679994819825,-0.9016459999352479,8.993167999481983,0.30666666666666664,-0.33,-0.6044444444444445,-0.061072997475718385,0.08898081193257312,-0.01090830782496456
1589995580.364972,-4.03935385249562,-0.8620153893717152,8.85338463123905,0.30666666666666664,-0.33,-0.6044444444444445,-0.0461840988591467,0.05655118809296057,-0.006074249862609125
1589995580.374972,-3.98055688687006,-0.8031961085875747,8.80944311312994,0.30666666666666664,-0.33,-0.6044444444444445,-0.038982013740742574,0.03531597333706229,0.0015451257727102955
1589995580.384972,-3.9354932811532857,-0.6795784996905138,8.923520156540144,0.30666666666666664,-0.33,-0.6044444444444445,-0.0475509262164807,0.04025312169908302,0.007036591459584041
1589995580.394972,-3.8502078545703995,-0.530519636425999,9.027505745155205,0.31222222222222223,-0.33,-0.5755555555555556,-0.052019776314318214,0.045497465035706924,0.014554911542516763
1589995580.404972,-3.859798662322072,-0.5544966558051793,8.91241605213514,0.31222222222222223,-0.33,-0.5755555555555556,-0.03632685382752389,0.030850737381365557,0.03181712627799052
1589995580.414972,-3.869389470073744,-0.5784736751843594,8.797326359115074,0.31222222222222223,-0.33,-0.5755555555555556,-0.02063393134072957,0.016204009727024186,0.04907934101346428
1589995580.424972,-3.8269686411149824,-0.58,8.824425087108015,0.31222222222222223,-0.33,-0.5755555555555556,-0.017757356849559033,0.011516436484196032,0.08773016070238049
1589995580.434972,-3.789788588894549,-0.5699295296315164,8.850140940736967,0.31222222222222223,-0.33,-0.5755555555555556,-0.01855181042715933,0.008162013056924471,0.12347143078952819
1589995580.444972,-3.7468731337569863,-0.5468731337569865,8.87,0.31222222222222223,-0.32854145930633183,-0.5793477613590928,-0.019921337880448066,0.004308618730434857,0.1698993372802152
1589995580.454972,-3.445377521830774,-0.6124345076784101,8.946825880758809,0.31222222222222223,-0.3244444444444444,-0.59,-0.030968500332601605,-0.000771481120261533,0.27217320167927284
1589995580.464972,-3.0926915933134134,-1.1140107405313737,8.906221028829847,0.31222222222222223,-0.3244444444444444,-0.59,-0.027696601428888655,0.0022613839148402258,0.3199848109034575
1589995580.474972,-2.7510859944168313,-0.9350289371553074,8.59268604888677,0.31222222222222223,-0.3244444444444444,-0.59,0.003235059330918371,0.010814799555395344,0.3338752500412944
1589995580.484972,-2.5987029258225083,-0.7831171543037514,8.783493747723686,0.31222222222222223,-0.3244444444444444,-0.59,-0.006912400128141073,-0.009094061693133986,0.28533211851257967
1589995580.494972,-2.5231587375986253,-0.7004222326380751,8.924315873759863,0.31222222222222223,-0.32760229235563193,-0.6057892395559374,-0.017453292519943295,-0.007234114336260578,0.21824719548641358
1589995580.504972,-2.4413101969194777,-0.732855527393254,9.097973094170404,0.31222222222222223,-0.33,-0.6177777777777778,-0.010700648012909666,-0.002882821815282309,0.11007131266453114
1589995580.514972,-2.1872927425930957,-1.2396357705898342,9.051761348192445,0.31222222222222223,-0.33,-0.6177777777777778,0.01900933490823941,-0.004363323129985824,0.03603714708763298
1589995580.524972,-2.047023861515861,-1.299979751459086,8.628273315599317,0.31222222222222223,-0.33,-0.6177777777777778,0.07494488641828134,0.04275457266979954,-0.04458776778479975
1589995580.534972,-2.153061831808663,-1.0844020720820016,8.611721591535325,0.31222222222222223,-0.33,-0.6177777777777778,0.07054920733872207,0.055167928232814245,-0.12397346546919463
1589995580.544972,-2.393420552956977,-1.0966841105913954,9.089328022970406,0.2826711331347093,-0.32490498464008394,-0.5984167194100969,-0.008664761959107564,-0.0003845414678999154,-0.256390901974815
1589995580.554972,-2.41,-1.1,9.12,0.28,-0.3244444444444444,-0.5966666666666667,-0.014180800172453925,-0.004363323129985824,-0.2650718801466388
1589995580.564972,-2.452958493027807,-0.9883079181277012,8.724781864144173,0.28,-0.3244444444444444,-0.5966666666666667,0.027056392804210593,0.042497123434405676,-0.3990927573207985
1589995580.574972,-2.548164616159436,-0.9523670767681127,8.801063385855098,0.28,-0.3244444444444444,-0.5966666666666667,0.026121940078694356,0.045369582133152106,-0.4941519167412419
1589995580.584972,-2.5676986532967994,-0.9510998076138284,8.829898268524456,0.28,-0.3244444444444444,-0.5966666666666667,0.023169581597437545,0.043764298882364217,-0.513201542313271
1589995580.594972,-2.6376803984921917,-0.9638401992460959,8.90231960150781,0.29536079698438344,-0.3193241787829833,-0.5885595793693532,0.013081525290604544,0.04060532412580018,-0.6139296385666682
1589995580.604972,-2.65,-0.982859202045201,8.851422393864397,0.32,-0.3111111111111111,-0.5755555555555556,0.026024779678703144,0.05501016114446745,-0.6997750225824974
1589995580.6149719,-2.6559458957533737,-1.0137835830134951,8.770541042466263,0.32,-0.3111111111111111,-0.5755555555555556,0.025767213897989822,0.06214784531345616,-0.7651732261166057
1589995580.6249719,-2.6537484929202297,-1.03,8.679987943361839,0.32,-0.3111111111111111,-0.5755555555555556,0.028089879030686674,0.06504094980325167,-0.830540328852766
1589995580.6349719,-2.702805075871132,-1.053468922609392,8.7966807663087,0.32,-0.3111111111111111,-0.5755555555555556,0.02926323074918317,0.06736989369086374,-0.8882305288319623
1589995580.6449718,-2.7487542384783614,-1.0875084769567225,8.917508476956723,0.32291807949278706,-0.3111111111111111,-0.5882005666909662,0.02836160034490785,0.06728993037585003,-0.9388087255352142
1589995580.6549718,-2.7943696752685514,-1.1386413960571264,9.031652467382804,0.32666666666666666,-0.3111111111111111,-0.6044444444444445,0.0327356086510979,0.07044871358543313,-0.9987991353709383
1589995580.6649718,-2.7951753861641553,-1.1401403089313242,8.916297857614747,0.32666666666666666,-0.3111111111111111,-0.6044444444444445,0.04737078605538837,0.07742602756204625,-1.0399579241415569
1589995580.6749718,-2.797062234849959,-1.1354641341999767,8.75706223484996,0.32666666666666666,-0.3111111111111111,-0.6044444444444445,0.0513139231303128,0.0840952286267359,-1.0807774180205412
1589995580.6849718,-2.868831140230138,-1.1744155701150691,8.833636330268494,0.32666666666666666,-0.3111111111111111,-0.6044444444444445,0.03507658880220486,0.08525480479704182,-1.1346198238860603
1589995580.6949718,-2.882681708504424,-1.2073182914955762,8.852681708504424,0.33051517588790585,-0.3149596203323503,-0.6082929536656837,0.03306210530505027,0.0870185863926115,-1.1841118448964403
1589995580.7049718,-2.9421510231727592,-1.2462367356991852,8.820322448225612,0.3333333333333333,-0.31777777777777777,-0.6111111111111112,0.038484064906498444,0.09091428975637993,-1.2242758974840877
1589995580.7149718,-2.9668427653237184,-1.2797358520144224,8.72447797460417,0.3333333333333333,-0.31777777777777777,-0.6111111111111112,0.036772659803014446,0.0926918024368185,-1.257439751464611
1589995580.7249718,-2.96,-1.3227297481279783,8.699637848876787,0.3333333333333333,-0.31777777777777777,-0.6111111111111112,0.037762794380794946,0.09381144729469522,-1.2886296654297367
1589995580.7349718,-2.96,-1.366274336283186,8.74941150442478,0.3333333333333333,-0.31777777777777777,-0.6111111111111112,0.03974758908332846,0.09428912820815126,-1.3092107611358559
1589995580.7449718,-2.9651554596344507,-1.4077331894516758,8.80515545963445,0.34478991029877926,-0.31462721911228014,-0.6111111111111112,0.04289141928259839,0.09405871796711515,-1.3257423355293692
1589995580.7549717,-3.020978267254038,-1.4768323054331864,8.85512422907489,0.37777777777777777,-0.3055555555555556,-0.6111111111111112,0.052093945509154305,0.0929069387392472,-1.3458463561297453
1589995580.7649717,-3.063290664628758,-1.5232906646287585,8.853418670742483,0.37777777777777777,-0.3055555555555556,-0.6111111111111112,0.04837645520841607,0.09453634059953954,-1.3627786765634258
1589995580.7749717,-3.050590936499838,-1.55587875133355,8.827060624333225,0.37777777777777777,-0.3055555555555556,-0.6111111111111112,0.04581489286485115,0.09560801154137184,-1.3798992701416186
1589995580.7849717,-3.04,-1.5945439515017912,8.82,0.37777777777777777,-0.3055555555555556,-0.6111111111111112,0.044743960951960995,0.09599310885968812,-1.3928715160303362
1589995580.7949717,-3.020786161823485,-1.62,8.816157232364697,0.3935758225006902,-0.2876226399241415,-0.6055604467490068,0.04279486945454431,0.09599310885968812,-1.4037277031695226
1589995580.8049717,-3.008964313133064,-1.6342232348497983,8.819482156566533,0.4188888888888889,-0.2588888888888889,-0.5966666666666667,0.04145156973486533,0.09651028027304932,-1.414064401661446
1589995580.8149717,-2.9746675098419937,-1.6647553307088017,8.774667509841994,0.4188888888888889,-0.2588888888888889,-0.5966666666666667,0.04185395895844223,0.09708393964218458,-1.4229086879283157
1589995580.8249717,-2.8773956500879576,-1.7004173996481688,8.693021749560211,0.4188888888888889,-0.2588888888888889,-0.5966666666666667,0.043394672033096056,0.09736803014742934,-1.432590439161574
1589995580.8349717,-2.884454822898363,-1.7408411171737723,8.73,0.4188888888888889,-0.2588888888888889,-0.5966666666666667,0.04660328115350461,0.10014574114631468,-1.4409602761354265
1589995580.8449717,-2.9113556104044047,-1.7615492690336054,8.730580975887602,0.4194053119000907,-0.2586091597578212,-0.5969463957977343,0.04805992906805251,0.10365004921656613,-1.4486655289140993
1589995580.8549716,-2.969528779938499,-1.836509593312833,8.773961626748669,0.4455555555555555,-0.24444444444444444,-0.6111111111111112,0.05164979108311276,0.10433901081388045,-1.4500434521087278
1589995580.8649716,-2.9541329298831385,-1.85893050918197,8.783468280467446,0.4455555555555555,-0.24444444444444444,-0.6111111111111112,0.050556546704459075,0.1018255934817925,-1.4531316062937205
1589995580.8749716,-2.9716748149182846,-1.917512222377427,8.795024444754855,0.4455555555555555,-0.24444444444444444,-0.6111111111111112,0.047359792055203374,0.10053912595645886,-1.4633521612281022
1589995580.8849716,-2.964945256616129,-1.945054743383871,8.759781026464516,0.4455555555555555,-0.24444444444444444,-0.6111111111111112,0.05019015914848988,0.10363688643959858,-1.4644343539246658
1589995580.8949716,-2.9667787002044483,-2.0047432005451955,8.79507930115854,0.4704128891917752,-0.23450151098995656,-0.6111111111111112,0.048569982296115186,0.10215004136749786,-1.468294896129735
1589995580.9049716,-2.98,-2.066236274138584,8.87,0.49,-0.22666666666666666,-0.6111111111111112,0.03685374483404938,0.09568818427612961,-1.4790609068461016
1589995580.9149716,-2.991416013997667,-2.1199560489918348,8.73871583902683,0.49,-0.22666666666666666,-0.6111111111111112,0.04642315690516589,0.10315115190624444,-1.4830616803867869
1589995580.9249716,-2.988244821507272,-2.161755178492728,8.687020713970913,0.49,-0.22666666666666666,-0.6111111111111112,0.054799764106774486,0.11081505455982245,-1.4854533007782211
1589995580.9349716,-2.9747142269334015,-2.175285773066599,8.725285773066599,0.49,-0.22666666666666666,-0.6111111111111112,0.049414589563090715,0.10665203263836923,-1.4868023565426691
1589995580.9449716,-2.9738753088024965,-2.2071271616174752,8.714498764790015,0.4947364885363845,-0.21159602132362498,-0.6283347057888731,0.04792854593157244,0.10296082416801113,-1.4872250871560135
1589995580.9549716,-2.9711670702179176,-2.280915254237288,8.712082324455206,0.5022222222222222,-0.18777777777777774,-0.6555555555555556,0.04837847726555589,0.10218363958127455,-1.4864479025692772
1589995580.9649715,-2.952171758876961,-2.3278282411230387,8.689116432700247,0.5022222222222222,-0.18777777777777774,-0.6555555555555556,0.0498476339162439,0.10291821790661855,-1.4824858733802226
1589995580.9749715,-2.9414446529080673,-2.34577861163227,8.641782363977486,0.5022222222222222,-0.18777777777777774,-0.6555555555555556,0.05718368272745492,0.10642865512600976,-1.4788513666927656
1589995580.9849715,-2.934205054752114,-2.4052719123966178,8.807887076652959,0.5022222222222222,-0.18777777777777774,-0.6555555555555556,0.051383154844217495,0.10259514758810889,-1.4783632484989406
1589995580.9949715,-2.9019059280136763,-2.4569505151781175,8.762668299219147,0.5022222222222222,-0.18777777777777774,-0.6555555555555556,0.04715520904093248,0.10048117468646638,-1.481181879034464
1589995581.0049715,-2.8679360178851834,-2.467776062598142,8.757936017885184,0.5488888888888889,-0.13666666666666666,-0.6755555555555556,0.05064595545500253,0.10669371957720906,-1.4787162500201214
1589995581.0149715,-2.88,-2.5554467115429946,8.759900730768223,0.5488888888888889,-0.13666666666666666,-0.6755555555555556,0.040317424578858174,0.10196560667997444,-1.4868564995095577
1589995581.0249715,-2.8567152264344777,-2.611642386782761,8.71895363524597,0.5488888888888889,-0.13666666666666666,-0.6755555555555556,0.04023070711717157,0.10434555076092372,-1.4926798395846304
1589995581.0349715,-2.818264434680364,-2.633471130639272,8.685620087876725,0.5488888888888889,-0.13666666666666666,-0.6755555555555556,0.04728436526248608,0.11197692898199649,-1.4939153036603556
1589995581.0449715,-2.7927624184362387,-2.6528729302606266,8.737016557914984,0.5508041757293068,-0.12677101799117413,-0.6739594831885407,0.04908738521234052,0.10986052095571631,-1.4981867739672663
1589995581.0549715,-2.7531376847197553,-2.667844211799388,8.690981896519142,0.5555555555555556,-0.10222222222222224,-0.67,0.04908738521234052,0.10925421240354947,-1.503100792421043
1589995581.0649714,-2.7386166386957562,-2.7413833613042438,8.692463837608887,0.5555555555555556,-0.10222222222222224,-0.67,0.050228516431303084,0.11017390903214204,-1.5126129314589678
1589995581.0749714,-2.71,-2.8131899746221394,8.672392480966604,0.5555555555555556,-0.10222222222222224,-0.67,0.051857958699996806,0.10958499710947867,-1.5209660830513807
1589995581.0849714,-2.714262611010669,-2.862787833032007,8.712787833032007,0.5555555555555556,-0.10222222222222224,-0.67,0.05049996263813148,0.1118729506321932,-1.532421093616839
1589995581.0949714,-2.6798480450742703,-2.8844613283250813,8.721077343349839,0.5555555555555556,-0.07694136171342934,-0.6923066416254056,0.046536588149497515,0.11562806294462433,-1.5448680035838998
1589995581.1049714,-2.6214203758984707,-2.915738872304588,8.744318496406118,0.5555555555555556,-0.045555555555555564,-0.72,0.04238433256430554,0.11422422523379483,-1.5525683393985694
1589995581.1149714,-2.6040021801759714,-2.9559978198240286,8.739018531495756,0.5555555555555556,-0.045555555555555564,-0.72,0.042541211415831386,0.11562687384309393,-1.560759970135011
1589995581.1249714,-2.5849682893023647,-3.0001902641858123,8.63006342139527,0.5555555555555556,-0.045555555555555564,-0.72,0.04962934150307723,0.12381275291385925,-1.568086545341213
1589995581.1349714,-2.525880636773007,-3.0222686623961437,8.697985032028921,0.5555555555555556,-0.045555555555555564,-0.72,0.0537258547888278,0.12772814162385943,-1.5720613639521204
1589995581.1449714,-2.38912132244416,-2.97502090918036,8.7423012397914,0.5534356106573955,-0.0360158035138356,-0.72211994489816,0.06524902589359816,0.13689698236554784,-1.5768438205249171
1589995581.1549714,-2.2449232742882517,-2.871938619430601,8.562831203434154,0.5488888888888889,-0.015555555555555557,-0.7266666666666667,0.06269766156309106,0.12786224660202672,-1.595422180213692
1589995581.1649714,-2.251971813687863,-2.9351549019005803,8.77506094752679,0.5488888888888889,-0.015555555555555557,-0.7266666666666667,0.00847776040088076,0.09232935226702317,-1.6313543323995918
1589995581.1749713,-2.2252350133861016,-3.007617506693051,8.845705040158304,0.5488888888888889,-0.015555555555555557,-0.7266666666666667,0.03304413527645299,0.11311814905290463,-1.6335447327720287
1589995581.1849713,-2.1450010419271486,-2.9849968742185546,8.445036467450196,0.5488888888888889,-0.015555555555555557,-0.7266666666666667,0.058363197532042346,0.13962452165361572,-1.6280643745928574
1589995581.1949713,-2.188597447442364,-3.078970852093842,8.494763194420935,0.5495638534366994,-0.017242966925082096,-0.7266666666666667,0.03340296755212776,0.14205785991453795,-1.63609317899429
1589995581.2049713,-2.2986769155286613,-3.261653855589173,8.994453757461772,0.5511111111111111,-0.021111111111111112,-0.7266666666666667,0.01853573847182771,0.1280962614645686,-1.6481370677569562
1589995581.2149713,-2.251102140077821,-3.345591439688716,8.575591439688715,0.5511111111111111,-0.021111111111111112,-0.7266666666666667,0.03707503566787358,0.13549906304859394,-1.64934054678031
1589995581.2249713,-2.215908609738885,-3.375545165843331,8.595908609738885,0.5511111111111111,-0.021111111111111112,-0.7266666666666667,0.031237636903416504,0.1302551645610813,-1.653213519241726
1589995581.2349713,-2.152017761989343,-3.36,8.612202486678509,0.5511111111111111,-0.021111111111111112,-0.7266666666666667,0.03563703478233981,0.13630385947424453,-1.6482953006899574
1589995581.2449713,-2.091768340270552,-3.3723474895941727,8.645305020811655,0.5662024872817667,-0.021111111111111112,-0.7179776925078044,0.027975808344698715,0.14296200789802252,-1.6393923153101995
1589995581.2549713,-2.0567185161080377,-3.386119752684673,8.59835925805402,0.5877777777777777,-0.021111111111111112,-0.7055555555555556,0.024194222087013814,0.14363170892537033,-1.6312806041110914
1589995581.2649713,-2.001542365658053,-3.3749660997249236,8.601813567858665,0.5877777777777777,-0.021111111111111112,-0.7055555555555556,0.015095989068465734,0.1418227935099747,-1.6258647915791733
1589995581.2749712,-1.9437649388303515,-3.4223534403507534,8.68588218654975,0.5877777777777777,-0.021111111111111112,-0.7055555555555556,0.01963495408493621,0.14903312608497812,-1.6059338677334318
1589995581.2849712,-1.9685438284698733,-3.5190936192168776,8.675274895373501,0.5877777777777777,-0.021111111111111112,-0.7055555555555556,0.018385279629474036,0.14133147070564211,-1.5916598804070312
1589995581.2949712,-1.9476031468531467,-3.552396853146853,8.673634615384614,0.5779240481740481,-0.016317404817404818,-0.7106155788655789,0.01923847905052884,0.13395573643270509,-1.5750782190255597
1589995581.3049712,-1.9502459016393443,-3.5907377049180327,8.641229508196721,0.5466666666666666,-0.0011111111111111113,-0.7266666666666667,0.02836160034490785,0.12757355413655275,-1.5512925108368176
1589995581.3149712,-1.9454173574270557,-3.6663884283819628,8.658057858090185,0.5466666666666666,-0.0011111111111111113,-0.7266666666666667,0.03193700077606459,0.12013540304483739,-1.5196564228445772
1589995581.3249712,-1.8919122020059473,-3.6764341515044605,8.555826823244795,0.5466666666666666,-0.0011111111111111113,-0.7266666666666667,0.03659497843389224,0.11464152660264981,-1.494570670492289
1589995581.3349712,-1.8355400433445896,-3.634155032508442,8.605152462073484,0.5466666666666666,-0.0011111111111111113,-0.7266666666666667,0.03505766628530266,0.11156690230547064,-1.4745856125606243
1589995581.3449712,-1.85,-3.776745420514866,8.603349084102973,0.5414569802842638,-0.007065038405285713,-0.716991534813633,0.035997415822383035,0.10872805870099904,-1.430747959531656
1589995581.3549712,-1.8343513174404016,-3.81,8.6060878293601,0.5311111111111111,-0.01888888888888889,-0.6977777777777778,0.036850919054459315,0.10894155766882987,-1.3911445720765967
1589995581.3649712,-1.7898215844080287,-3.7999107922040145,8.615133811693978,0.5311111111111111,-0.01888888888888889,-0.6977777777777778,0.038454217848247575,0.1030786434154201,-1.357721604198306
1589995581.3749712,-1.682926952141058,-3.7229269521410577,8.621753148614609,0.5311111111111111,-0.01888888888888889,-0.6977777777777778,0.0450466402532995,0.10401469925369354,-1.3166294572517134
1589995581.3849711,-1.5883009554140128,-3.667953025477707,8.615404458598725,0.5311111111111111,-0.01888888888888889,-0.6977777777777778,0.04692691494598847,0.1018558900676836,-1.2841311212803188
1589995581.3949711,-1.6102112081103914,-3.7530016192621796,8.750633624331174,0.5267136018023092,-0.004322139303482587,-0.682111650865171,0.025031509920336516,0.07912555038495045,-1.2605528859056943
1589995581.4049711,-1.5867446998619121,-3.706872390545041,8.600063845341564,0.5133333333333333,0.04,-0.6344444444444445,0.03525704023531588,0.07783426298462642,-1.213690811634138
1589995581.414971,-1.654317275482533,-3.8905287924708882,8.655832668687191,0.5133333333333333,0.04,-0.6344444444444445,0.023362031760112926,0.09714162195266433,-1.1742625459759526
1589995581.424971,-1.5276402447476287,-3.731145125839092,8.64172927268767,0.5133333333333333,0.04,-0.6344444444444445,0.0333671832813678,0.07321310350004782,-1.1118852789309472
1589995581.434971,-1.53811421547771,-3.85811421547771,8.689628185127406,0.5133333333333333,0.04,-0.6344444444444445,0.03316936753006059,0.07649403805900844,-1.0627702139055697
1589995581.444971,-1.4828146438417644,-3.8161231860827938,8.404492744331174,0.5167132805691502,0.05563225596565341,-0.6287407834840033,0.03797979928840864,0.07059697084783356,-1.0127219738185862
1589995581.454971,-1.573359797906893,-3.9673439191627575,8.976174666185493,0.5311111111111111,0.12222222222222222,-0.6044444444444445,0.02100685782979371,0.06028542651111143,-0.9695615773240531
1589995581.464971,-1.4904716814679762,-3.9104716814679765,8.656552961242133,0.5311111111111111,0.12222222222222222,-0.6044444444444445,0.034103105376298654,0.06151398988483558,-0.9012320362079934
1589995581.474971,-1.4014929799360547,-3.82,8.562084240767343,0.5311111111111111,0.12222222222222222,-0.6044444444444445,0.028410781492740164,0.05983283419011526,-0.8534505169655192
1589995581.484971,-1.406024398904332,-3.816024398904332,8.502406411687126,0.5311111111111111,0.12222222222222222,-0.6044444444444445,0.033605572623662185,0.058471191449400495,-0.7993297723134868
1589995581.494971,-1.3548137060297418,-3.7169597474862517,8.68932934170707,0.5311111111111111,0.1370541508935964,-0.6024855104689799,0.030309165101773332,0.05755554884050262,-0.739194730174483
1589995581.504971,-1.3297739348269662,-3.67995191822057,8.59995191822057,0.5311111111111111,0.1811111111111111,-0.5966666666666667,0.03161467771594559,0.04697970330222631,-0.6772243715761465
1589995581.514971,-1.4158429040196883,-3.952471287940935,8.7906706316653,0.5311111111111111,0.1811111111111111,-0.5966666666666667,0.01669367071478195,0.028374128344050554,-0.6328772682631435
1589995581.524971,-1.3901679571173318,-3.8502519356759977,8.572761167361525,0.5311111111111111,0.1811111111111111,-0.5966666666666667,0.03568705854733923,0.04473322272204094,-0.5668443364229244
1589995581.534971,-1.2993538238689089,-3.7267252110540254,8.593920965077066,0.5311111111111111,0.1811111111111111,-0.5966666666666667,0.03490658503988659,0.03985296182760133,-0.5101981207735149
1589995581.544971,-1.3612870591541382,-3.90643529577069,8.44880708163552,0.5313971242564751,0.18683137401839103,-0.5948075812218007,0.03139667567931769,0.0390001509439073,-0.4458476926021997
1589995581.554971,-1.367220266960767,-3.944440533921534,8.827621356861346,0.5333333333333333,0.2255555555555556,-0.5822222222222222,0.013093808536847553,0.009758368333897777,-0.390505902693061
1589995581.564971,-1.3604176330343676,-3.930835266068735,8.283410642749404,0.5333333333333333,0.2255555555555556,-0.5822222222222222,0.026450749016995456,0.014952734076177518,-0.3504350812526173
1589995581.574971,-1.2599705708078215,-3.8413865297254595,8.394453881098162,0.5333333333333333,0.2255555555555556,-0.5822222222222222,0.03210067439150335,0.01901070500154588,-0.2784515024901788
1589995581.584971,-1.2293536085422825,-3.7990304128134236,8.662028792067881,0.5333333333333333,0.2255555555555556,-0.5822222222222222,0.02843211071486997,0.01353258315774324,-0.23413696329090133
1589995581.594971,-1.3525349891582892,-3.98,8.55253498915829,0.5360091552226384,0.2279497119828285,-0.5850388768425433,0.016377728637812942,-0.009940472352459819,-0.18190834326362149
1589995581.604971,-1.3706737300529754,-3.9847161103708277,8.576737300529754,0.5544444444444444,0.24444444444444444,-0.6044444444444445,0.022895888993604233,-0.003272492347489368,-0.11462643006419687
1589995581.614971,-1.3829733126837698,-4.052973312683769,8.65810674926492,0.5544444444444444,0.24444444444444444,-0.6044444444444445,0.008608829777908196,-0.006840211449077052,-0.016035381441543754
1589995581.624971,-1.3920204763894692,-4.051918094442122,8.597672377768491,0.5544444444444444,0.24444444444444444,-0.6044444444444445,0.009806308904494361,-0.015271630954950384,0.058642752894200414
1589995581.634971,-1.3999874634350187,-4.0200501462599245,8.4702005850397,0.5544444444444444,0.24444444444444444,-0.6044444444444445,0.005460991547976407,-0.015271630954950384,0.12642970365588052
1589995581.644971,-1.4165410342166194,-4.068176292770774,8.559246205299717,0.5511739273361347,0.2486234385272847,-0.6044444444444445,0.002181661564992912,-0.023065268907678068,0.22025896180071117
1589995581.654971,-1.4327691375916591,-4.07209210270165,8.708307412774978,0.5344444444444445,0.27,-0.6044444444444445,-7.385304988457783e-05,-0.030204269332363476,0.32429577341981464
1589995581.6649709,-1.4186346593507086,-4.021296753543667,8.604675811614083,0.5344444444444445,0.27,-0.6044444444444445,-0.004653712559144231,-0.033666818696506076,0.40742325226644627
1589995581.6749709,-1.4611721726657403,-4.06234434533148,8.561309561163656,0.5344444444444445,0.27,-0.6044444444444445,-0.006176378847390339,-0.040955099684657895,0.49024250123077906
1589995581.6849709,-1.4426968697191598,-4.02077669590408,8.49578208739036,0.5344444444444445,0.27,-0.6044444444444445,-0.009356197911381045,-0.04829073728044828,0.575752723407124
1589995581.6949708,-1.5169501891043695,-4.142282127625331,8.705041442021404,0.5344444444444445,0.27,-0.6044444444444445,-0.01303791638810502,-0.05639051792924103,0.6383419375114315
1589995581.7049708,-1.454608383381834,-4.008192681567705,8.601807318432295,0.5611111111111111,0.25555555555555554,-0.64,-0.010208463321947516,-0.06130994455093263,0.7563300996765938
1589995581.7149708,-1.5325162528635998,-4.1466955606464,8.4633044393536,0.5611111111111111,0.25555555555555554,-0.64,-0.016818353495347348,-0.06508702465001824,0.8365930517821633
1589995581.7249708,-1.6067823733692082,-4.155518724775521,8.691610768701311,0.5611111111111111,0.25555555555555554,-0.64,-0.02556560204945414,-0.08159916274811455,0.9498749379293656
1589995581.7349708,-1.4952423114225823,-3.9389997809967774,8.461969464693553,0.5611111111111111,0.25555555555555554,-0.64,-0.019839892258727503,-0.08088344902427372,1.0150048867988812
1589995581.7449708,-1.578360289680145,-4.071194327097164,8.659402836451418,0.5634334138000402,0.25250338630724867,-0.6382748608596527,-0.04099558666818086,-0.08412425112842267,1.124256780347825
1589995581.7549708,-1.7259100858316323,-4.082044957084183,8.679168490691326,0.6,0.20444444444444448,-0.6111111111111112,-0.03757605005580626,-0.08935742056972598,1.2004188069350332
1589995581.7649708,-1.7825306410735802,-4.0424571024969875,8.684816153558518,0.6,0.20444444444444448,-0.6111111111111112,-0.044442664087900395,-0.09844814660483055,1.2503948662402056
1589995581.7749708,-1.82,-3.99,8.509494608758509,0.6,0.20444444444444448,-0.6111111111111112,-0.03497268803170584,-0.09945842350289677,1.2950860374703086
1589995581.7849708,-1.754861496113362,-3.8512266656328147,8.689022040436544,0.6,0.20444444444444448,-0.6111111111111112,-0.034182035894515836,-0.09541346954339151,1.3454975321554496
1589995581.7949708,-1.612604760757223,-3.5279235279942163,8.54404369828902,0.6168427629171463,0.1908520392832386,-0.609190445164419,-0.021445060815962872,-0.08493379572919685,1.383672158625597
1589995581.8049707,-1.7849804064998172,-3.752466691049689,8.549913788599195,0.7266666666666667,0.10222222222222224,-0.5966666666666667,-0.049353039754229645,-0.1060770953717708,1.415619877222629
1589995581.8149707,-1.8571324198933357,-3.8455890387200276,8.690739712960154,0.7266666666666667,0.10222222222222224,-0.5966666666666667,-0.06290756277276893,-0.12011192469704401,1.454606412449098
1589995581.8249707,-1.859477302259295,-3.7713727627111537,8.343204929370835,0.7266666666666667,0.10222222222222224,-0.5966666666666667,-0.036068836272660096,-0.1015757007009977,1.502202425426447
1589995581.8349707,-1.9031849055134966,-3.818089056691902,8.854075472432516,0.7266666666666667,0.10222222222222224,-0.5966666666666667,-0.06296933897790495,-0.124403282095053,1.528921102950783
1589995581.8449707,-1.9439989879921373,-3.7936006072047177,8.650005060039312,0.7266666666666667,0.10222222222222224,-0.5966666666666667,-0.0451608359670847,-0.11104690483693778,1.5654285341229646
1589995581.8549707,-2.007267549003183,-3.802732450996817,8.722746691238063,1.0888888888888888,-0.2733333333333333,-0.4244444444444445,-0.053052771664677485,-0.12028789687115905,1.6090721699553219
1589995581.8649707,-2.0353747696431563,-3.7746252303568437,8.617344613838164,1.0888888888888888,-0.2733333333333333,-0.4244444444444445,-0.05995132149869055,-0.12565343563094702,1.6221027640862355
1589995581.8749707,-2.0985637748907235,-3.817127549781447,8.648563774890723,1.0888888888888888,-0.2733333333333333,-0.4244444444444445,-0.06528149067509081,-0.12995968676369893,1.648883672194779
1589995581.8849707,-2.0921979723166584,-3.804395944633317,8.642197972316659,1.0888888888888888,-0.2733333333333333,-0.4244444444444445,-0.05486547057046276,-0.12579327872184767,1.661382896320333
1589995581.8949707,-2.1904066877541797,-3.8002169001355623,8.680108450067781,1.089563689310639,-0.27276999548124714,-0.4246191695536477,-0.05023440881417931,-0.12545145502070745,1.6711290986501106
1589995581.9049706,-2.31401324191045,-3.8661403956855733,8.713070197842788,1.2946590087995613,-0.10155202787219134,-0.4777242076356008,-0.0673133611451628,-0.1272492394766004,1.6639379608265388
1589995581.9149706,-2.260942028985507,-3.862463768115942,8.627173913043478,1.3377777777777775,-0.06555555555555556,-0.4888888888888889,-0.043735990721397756,-0.12445746862613546,1.6629003867778578
1589995581.9249706,-2.2846869338768117,-3.672504528985507,8.555939198369565,1.3377777777777775,-0.06555555555555556,-0.4888888888888889,-0.04632615803968631,-0.12704763594442403,1.6473593828681268
1589995581.9349706,-2.283889766543795,-3.6900333508864316,8.750817974372476,1.3377777777777775,-0.06555555555555556,-0.4888888888888889,-0.05278418526809952,-0.12620492824115262,1.5973186221553106
1589995581.9449706,-2.1448241764671465,-3.5836890761219355,8.595391726639752,1.3377777777777775,-0.06555555555555556,-0.4888888888888889,-0.03761448262393533,-0.11281989649630188,1.5759025713635495
1589995581.9549706,-2.18,-3.5736600862670698,8.619019741198791,0.8011111111111111,0.031111111111111114,-0.6488888888888888,-0.044232111514865106,-0.11592038677377828,1.5109290977124323
1589995581.9649706,-2.18,-3.588673778032323,8.57397866590303,0.8011111111111111,0.031111111111111114,-0.6488888888888888,-0.046688721085332896,-0.11264490734648792,1.4667101254440125
1589995581.9749706,-2.138438926940639,-3.5669268455098933,8.577682886225267,0.8011111111111111,0.031111111111111114,-0.6488888888888888,-0.033395381778328764,-0.10186763525123178,1.37916404277904
1589995581.9849706,-2.237468132568515,-3.55,8.621265933715742,0.8011111111111111,0.031111111111111114,-0.6488888888888888,-0.03764061439117232,-0.09803667847810783,1.2834647896241118
1589995581.9949706,-2.2207604365838116,-3.55,8.629619781708096,0.8011111111111111,0.031111111111111114,-0.6488888888888888,-0.04128566820811376,-0.09712541502387247,1.1941609711090468
1589995582.0049706,-2.290487048000528,-3.576432643000198,8.656432643000198,0.6601370151100547,0.050690846666813394,-0.6596577434445251,-0.039529333691708295,-0.08651164140482089,1.0853345193515747
1589995582.0149705,-2.304318859596803,-3.542046403435524,8.724092806871049,0.6411111111111111,0.05333333333333334,-0.6611111111111111,-0.030766489895988406,-0.07717644051681669,0.916994151644767
1589995582.0249705,-2.2626243588214243,-3.483674102349994,8.607348204699989,0.6411111111111111,0.05333333333333334,-0.6611111111111111,-0.024399059609063637,-0.06717047863736347,0.7860070143137433
1589995582.0349705,-2.2542428769608365,-3.4304242876960838,8.61466716465692,0.6411111111111111,0.05333333333333334,-0.6611111111111111,-0.020448089219719124,-0.04653546278372956,0.605595399882695
1589995582.0449705,-2.343759470707502,-3.4393759470707503,8.713135417778252,0.6411111111111111,0.05333333333333334,-0.6611111111111111,-0.014589241859533593,-0.03872366630348219,0.44838299571771656
1589995582.0549705,-2.1956107030689713,-3.2566627098944037,8.691052006825432,0.6089466742504801,0.054405481228687685,-0.7104299142974119,-0.002602434088804761,-0.021337817629340804,0.2637476525263413
1589995582.0649705,-2.2734364375708283,-3.284256882874475,8.587182187854143,0.6077777777777778,0.054444444444444434,-0.7122222222222222,0.0009844636918293877,-0.008027543057323764,0.05976752462934706
1589995582.0749705,-2.217516165588961,-3.235326644890341,8.307580827944804,0.6077777777777778,0.054444444444444434,-0.7122222222222222,0.00937190237279628,0.0072223454535251305,-0.06299407788298654
1589995582.0849705,-2.328939122649955,-3.2894287583499757,8.755593278699815,0.6077777777777778,0.054444444444444434,-0.7122222222222222,0.011999138607461015,0.002261778019061673,-0.28321132708895813
1589995582.0949705,-2.44720342045044,-3.382088401782488,8.87720342045044,0.6077777777777778,0.054444444444444434,-0.7122222222222222,0.0010406444210712303,0.01861940284457759,-0.4216880115614473
1589995582.1049705,-2.349104706384903,-3.3241628765987388,8.64976731914466,0.6055555555555555,0.024444444444444446,-0.7055555555555556,0.04154923111833732,0.05050927246117846,-0.603076037061851
1589995582.1149704,-2.4463740255499777,-3.467633565976899,8.514083914942248,0.6055555555555555,0.024444444444444446,-0.7055555555555556,0.029015270707285434,0.05166457923199643,-0.7566368455403877
1589995582.1249704,-2.5576468307416023,-3.5874658177217253,8.813664544304315,0.6055555555555555,0.024444444444444446,-0.7055555555555556,0.003805619697597684,0.03952659911622087,-0.8873535544795093
1589995582.1349704,-2.3844553185424484,-3.424207800845646,8.556682977813674,0.6055555555555555,0.024444444444444446,-0.7055555555555556,0.0405065700047678,0.05948269318382356,-1.009266967020399
1589995582.1449704,-2.148195570668759,-3.3397600052314935,8.719395544511292,0.6055555555555555,0.024444444444444446,-0.7055555555555556,0.03853396119217062,0.06972105484628746,-1.119269946055517
1589995582.1549704,-2.1472230540759467,-3.366297405434596,8.712776945924054,0.562200321286455,0.018394876872011804,-0.6984977267210508,0.04312836828397737,0.07585329175887104,-1.2381971774185916
1589995582.1649704,-2.3311682703235093,-3.627911205394348,8.509951511478143,0.5577777777777778,0.017777777777777778,-0.6977777777777778,0.04713886506998739,0.09324797398042438,-1.3726480184645864
1589995582.1749704,-3.373467232366088,-4.701987574816274,7.378675808773392,0.5577777777777778,0.017777777777777778,-0.6977777777777778,0.05337834441830528,0.10087400429503514,-1.4412822912960832
1589995582.1849704,-16.057947881714696,-6.879483207375584,-5.984850261845776,0.5577777777777778,0.017777777777777778,-0.6977777777777778,-0.3952575346673108,1.7953825093875022,-1.5485564322681569
1589995582.1949704,-7.086549079060507,-1.7842078110150696,-1.2634158483051996,0.5577777777777778,0.017777777777777778,-0.6977777777777778,-0.27279529481058906,0.10835614569374874,-1.9762263174818724
1589995582.2049704,-2.4894792310067944,-0.29501428350833847,-0.15771039221741817,0.5455555555555556,0.11555555555555555,-0.64,0.27006635567656506,-0.42862271989869616,-2.0525742655516397
1589995582.2149704,-0.4250364808523779,-0.7402862492279185,0.3685201127239036,0.5455555555555556,0.11555555555555555,-0.64,0.16055939298217697,0.01647009621397799,-1.979275250199751
1589995582.2249703,-0.048774811772758386,-0.5843874058863792,0.12078028747433267,0.5455555555555556,0.11555555555555555,-0.64,0.20608339499816858,-0.03115848748469684,-1.859072066666672
1589995582.2349703,-0.13772015441765606,-0.16975453419768377,-0.1125253113846602,0.5455555555555556,0.11555555555555555,-0.64,0.3455242456717192,0.11279638414373636,-1.629159627201537
1589995582.2449703,-0.2403749421877741,-0.15,0.1253034145096726,0.5455555555555556,0.11555555555555555,-0.64,0.3241715516307091,0.15949404586783422,-1.5061257167621558
1589995582.2549703,2.156439558019162,0.40732498806945416,4.291558679930986,0.5495766593655805,0.16139613898983965,-0.6617139605741346,0.2084332918221333,-0.17846493749801498,-1.3029319582870311
1589995582.2649703,0.8157655319798502,0.49990841092962907,0.24574110822775186,0.5511111111111111,0.17888888888888888,-0.67,0.2561380909323967,-1.0079104921229554,-1.0434956202003436
1589995582.2749703,1.5776860198981737,-0.8038016721939372,7.550082675510299,0.5511111111111111,0.17888888888888888,-0.67,-0.12495426106678645,-0.32858825259021873,-0.6577349388006983
1589995582.2849703,1.1641967692699058,-0.7363991350801322,7.383406257949631,0.5511111111111111,0.17888888888888888,-0.67,0.08848598144514418,1.0084505813654723,-0.4677036184228482
1589995582.2949703,-0.6229954210124649,-1.3588043754769776,6.992180106843042,0.5511111111111111,0.17888888888888888,-0.67,-0.1142257446135773,1.4837077381538624,-0.2814804059669893
1589995582.3049703,-0.4030058624257054,-2.8779765502971784,9.74759376838347,0.535494339299439,0.1832268810587978,-0.6639268109621276,-0.0849045042780085,0.0799136386811059,-0.28660501742760913
1589995582.3149703,-0.4603806348107836,-2.263142911069867,8.1529529082387,0.5311111111111111,0.18444444444444444,-0.6622222222222223,-0.16734392175187018,-0.47588329307821686,-0.16183791829041333
1589995582.3249702,-0.8100265815219101,-2.2037690710623172,7.572408694831545,0.5311111111111111,0.18444444444444444,-0.6622222222222223,-0.06731517822542094,0.1545136805129309,0.042537356252835445
1589995582.3349702,-1.668755336038102,-3.6086371494090668,11.572670312224378,0.5311111111111111,0.18444444444444444,-0.6622222222222223,0.02209473997750371,0.1619882365065011,0.19695104676329464
1589995582.3449702,-0.5237713216215067,-1.3093011187204904,4.148687311242502,0.5311111111111111,0.18444444444444444,-0.6622222222222223,-0.07951970338150587,-0.14869268492471419,0.23763239814536746
1589995582.3549702,-1.22,-2.21,6.21,0.5333333333333333,0.18444444444444444,-0.6555555555555556,-0.07635815477475191,-0.03817907738737596,0.3817907738737596
1589995582.3649702,-1.2493400710188474,-2.274821087134663,6.4924834744605295,0.5333333333333333,0.18444444444444444,-0.6555555555555556,-0.08141941891127139,-0.04093300052048215,0.3947416556348535
1589995582.3749702,-1.5777656378038787,-3.000412455613221,9.654534280251298,0.5333333333333333,0.18444444444444444,-0.6555555555555556,-0.13807396966601823,-0.07175974137232968,0.5397106531543527
1589995582.3849702,-1.1701923700580794,-2.11047023791975,6.870983224741296,0.5333333333333333,0.18444444444444444,-0.6555555555555556,-0.04243281574507024,-0.09044802290211286,0.6743735774454912
1589995582.3949702,-1.2258377310651847,-2.246492231492674,7.1553928476665,0.5333333333333333,0.18444444444444444,-0.6555555555555556,-0.01073409778490491,-0.06414483140325226,0.7438409806347898
1589995582.4049702,-1.5445074471908318,-2.8278880325839557,8.771935470989897,0.5534500215185436,0.1901920696402188,-0.6512448366587248,-0.03218305808599235,-0.07621014363395717,0.8344520958269371
1589995582.4149702,-1.6904686059907834,-3.004686059907834,8.749831509216591,0.5644444444444444,0.19333333333333333,-0.6488888888888888,-0.008794131989257437,-0.06563694076631288,0.9521603016608344
1589995582.4249701,-1.8036164901968679,-3.162309271709811,9.115773179274528,0.5644444444444444,0.19333333333333333,-0.6488888888888888,-0.04195537466810737,-0.06790005516460376,1.0097741812090848
1589995582.4349701,-1.6172182779615312,-2.8087561885099124,8.262778140602945,0.5644444444444444,0.19333333333333333,-0.6488888888888888,-0.05017821599483697,-0.07546098339782349,1.058047878402095
1589995582.4449701,-1.7305865321752125,-2.9585149901933314,8.950320351172131,0.5644444444444444,0.19333333333333333,-0.6488888888888888,-0.0207747892203215,-0.0638381029524871,1.1213300321808932
1589995582.4549701,-1.606573349774575,-2.9347339216215174,8.691036568918346,0.5612864415415377,0.18464882535033975,-0.6473098874374354,-0.029223260404651022,-0.10294141216890344,1.1510281348408793
1589995582.46497,-1.2300849043027773,-1.3794790617355015,2.572873794790617,0.56,0.1811111111111111,-0.6466666666666666,-0.2895117326948696,0.31526720659697904,0.7559881159671621
1589995582.47497,2.224552860246199,-0.37180304127443875,13.267099927588703,0.56,0.1811111111111111,-0.6466666666666666,-0.29148937675264774,-0.39141788870146904,-0.5321455256159002
1589995582.48497,0.6058519779669505,0.46669564346519776,9.990434651977965,0.56,0.1811111111111111,-0.6466666666666666,0.6349785524498897,0.2600720187455169,-0.8262898862191457
1589995582.49497,0.11018107160741114,0.07183915873810715,4.067587381071608,0.56,0.1811111111111111,-0.6466666666666666,0.6487249867544211,0.18400841559377618,-0.7593905726037593
1589995582.50497,-2.5737439376981905,-3.0075617888453645,13.512555027047192,0.5644444444444444,0.14666666666666667,-0.6844444444444444,-0.28602436187017083,-0.15439915155409942,-0.5754782989761145
1589995582.51497,-1.239415619750633,-2.547392765041285,9.547638110109542,0.5644444444444444,0.14666666666666667,-0.6844444444444444,-0.4519931558453356,0.10468543035233016,-0.436545410445079
1589995582.52497,-1.11041214186008,-1.9718387867603568,6.8187183855016915,0.5644444444444444,0.14666666666666667,-0.6844444444444444,0.18449859232762028,0.09710814763598545,-0.24278346669854994
1589995582.53497,-6.438171058755736,-9.169980717657749,9.061731421352423,0.5644444444444444,0.14666666666666667,-0.6844444444444444,0.08342987832161679,0.07787863058120156,-0.18758092375141944
1589995582.54497,-8.224424588108565,-10.82471754754631,8.762451394162001,0.5644444444444444,0.14666666666666667,-0.6844444444444444,-0.08473098267641077,0.013847188448389294,-0.1973989566998914
1589995582.55497,0.2170779247708694,-1.6868460996143142,8.549931157466927,0.5721686780298317,0.16652898160051977,-0.6469267384582774,-0.011929607362377581,-0.07593761967111126,-0.3090675153530445
1589995582.56497,0.24705780511650646,-1.6289842349682255,8.355341575688447,0.5722222222222222,0.16666666666666666,-0.6466666666666666,0.05312018857044232,-0.04075047055485727,-0.3133893782511847
1589995582.57497,-0.8394655926728544,-2.64403033896226,8.276620190538496,0.5722222222222222,0.16666666666666666,-0.6466666666666666,0.12409619609115811,0.028062365617845305,-0.30361085096264306
1589995582.58497,-2.733040603754756,-5.119844695315911,8.495388261710223,0.5722222222222222,0.16666666666666666,-0.6466666666666666,-0.08216875242636591,0.01522536606802357,-0.21434433665614433
1589995582.59497,-2.2626796578381594,-4.215802570788162,8.35194089931842,0.5722222222222222,0.16666666666666666,-0.6466666666666666,0.014858446549183876,0.018112626152646142,-0.17458127683148267
1589995582.60497,-2.5072531219191587,-4.113626560959579,8.492167474531712,0.56,0.18666666666666668,-0.67,0.018164904566313086,0.00545415391248228,-0.11980408437107598
1589995582.61497,-2.317730857706211,-4.018865428853105,8.673075090371343,0.56,0.18666666666666668,-0.67,0.012526630390715544,0.00545415391248228,-0.0521447942639055
1589995582.62497,-2.2298930481283423,-3.9908799222168203,8.791973748176956,0.56,0.18666666666666668,-0.67,0.010608687313486439,-0.0014981025573906114,-0.019396318279334163
1589995582.63497,-2.297361703734471,-3.9953373862477815,8.56625835441604,0.56,0.18666666666666668,-0.67,0.0006157058693032156,0.0020745679564708117,-0.0010172245215622276
1589995582.64497,-2.2898444025326685,-4.088342314428129,8.544248955947731,0.56,0.18666666666666668,-0.67,-0.012694372398649312,-1.697305070434349e-05,0.0
1589995582.65497,-2.2887671450091176,-4.048629984936177,8.577534290018235,0.5707153994555881,0.18471841222019608,-0.6622069822141177,-0.011446242294728133,-0.003959872277663144,0.0
1589995582.66497,-2.307536398918029,-4.0312318005409855,8.641377396213102,0.5722222222222222,0.18444444444444444,-0.6611111111111111,0.006308011553566592,-0.007232709693074349,0.0009564621876961752
1589995582.67497,-2.257748226529692,-4.012582742176564,8.710960402382026,0.5722222222222222,0.18444444444444444,-0.6611111111111111,0.009676610308995704,-0.008585779526499247,0.001090830782496456
1589995582.68497,-2.298019997368767,-4.01,8.575940007893697,0.5722222222222222,0.18444444444444444,-0.6611111111111111,0.009817477042468105,-0.004361505317867468,0.001090830782496456
1589995582.69497,-2.300644995869064,-4.042742514458277,8.572742514458277,0.5722222222222222,0.18444444444444444,-0.6611111111111111,0.00369464115662392,0.0008093982430734219,0.001090830782496456
1589995582.70497,-2.295743799924721,-4.081914599974907,8.598512400150558,0.5745622888582196,0.18444444444444444,-0.6638766444081989,-0.003481342806368912,0.003574499782566384,0.001299681241376
1589995582.7149699,-2.2764452435226503,-4.017408739204418,8.658886891193372,0.5844444444444444,0.18444444444444444,-0.6755555555555556,0.005930698506100584,0.0035551550516191048,0.0005979659286719265
1589995582.7249699,-2.286673054274707,-3.9966682635686768,8.613312573607201,0.5844444444444444,0.18444444444444444,-0.6755555555555556,0.011272266475770561,-1.5677548823233786e-06,-0.0007273947166512287
1589995582.7349699,-2.2563373184467936,-4.0,8.676037940914929,0.5844444444444444,0.18444444444444444,-0.6755555555555556,0.004514644779884552,-0.003952900877269046,0.0002699862770629011
1589995582.7449698,-2.270946259635599,-4.017548396986686,8.658107480728802,0.5844444444444444,0.18444444444444444,-0.6755555555555556,-0.003190388602757406,-0.001172934527228418,0.00045275306194497483
1589995582.7549698,-2.290337494220989,-4.068650023116043,8.614493758668516,0.572634715158987,0.18176041506138593,-0.6760923614321672,-0.008089193597430953,0.002144846656475926,-0.0005270079369897348
1589995582.7649698,-2.308257045121355,-4.067614432317967,8.580550171037629,0.56,0.17888888888888888,-0.6766666666666666,-0.0047435768968114335,0.00019012688341280524,0.001991534681580107
1589995582.7749698,-2.296210403753296,-4.032157802814972,8.583789596246703,0.56,0.17888888888888888,-0.6766666666666666,0.004954705004500444,-0.0017395913797231247,0.0006774499585826934
1589995582.7849698,-2.2734380610412925,-4.02,8.62624775583483,0.56,0.17888888888888888,-0.6766666666666666,0.00910168054156603,-0.005044847568601203,-0.000375034281594383
1589995582.7949698,-2.27,-4.032493197213269,8.66498639442654,0.56,0.17888888888888888,-0.6766666666666666,0.003956858827759883,-0.0017751972627669706,0.0
1589995582.8049698,-2.2839931570762055,-4.046996578538103,8.624027371695178,0.5685513737687922,0.18277587696561257,-0.6510125453602903,-0.0011987941899584693,0.003380455754951381,0.0007632083241516416
1589995582.8149698,-2.30125276640237,-4.066879149603555,8.57749446719526,0.5722222222222222,0.18444444444444444,-0.64,-0.0027954047639902647,0.003135836731991119,-0.000136655615498249
1589995582.8249698,-2.297184754079653,-4.0223313933584395,8.547184754079654,0.5722222222222222,0.18444444444444444,-0.64,0.002319213546581247,-0.0006141913820423956,0.0010060589277800251
1589995582.8349698,-2.2678893298559926,-4.004740446762671,8.6431831273387,0.5722222222222222,0.18444444444444444,-0.64,0.006258120566305895,-0.0029856282188165276,0.0005737282573456809
1589995582.8449697,-2.26,-4.01,8.692363569697093,0.5722222222222222,0.18444444444444444,-0.64,0.0018246878524833775,-0.003946820467845847,-0.0006743281203564799
1589995582.8549697,-2.286999912712037,-4.050499869068056,8.652750152753935,0.5669722391948817,0.18444444444444444,-0.6602499345340278,-0.006244989566922741,0.0007908356544404612,-0.001090830782496456
1589995582.8649697,-2.292137309009147,-4.077862690990853,8.57496116306403,0.5644444444444444,0.18444444444444444,-0.67,-0.007011273186755671,0.0024148058108813797,0.0006245422907195204
1589995582.8749697,-2.296939323799289,-4.059182028602133,8.518364057204266,0.5644444444444444,0.18444444444444444,-0.67,-0.0042740962919862995,-0.0016031524399944819,-0.0011800576204959803
1589995582.8849697,-2.2786331898362033,-4.028633189836203,8.578344970600588,0.5644444444444444,0.18444444444444444,-0.67,0.005273618211000755,-0.004049411489170289,0.00014909586004984918
1589995582.8949697,-2.2759861264081307,-4.0140138735918685,8.645916758448786,0.5644444444444444,0.18444444444444444,-0.67,0.009379631355362066,-0.004363323129985824,-0.00021513940828437618
1589995582.9049697,-2.2840170777988615,-4.018034155597723,8.657948766603417,0.5595346826902804,0.18221273455618806,-0.6641975542905334,0.0076265009831275,-0.0026105422825133404,0.00022375485310790707
1589995582.9149697,-2.29,-4.037518682984945,8.628721975522582,0.5522222222222222,0.17888888888888888,-0.6555555555555556,0.002312920419033155,0.0016403221687621354,0.001771581022802378
1589995582.9249697,-2.29,-4.05,8.570631735809894,0.5522222222222222,0.17888888888888888,-0.6555555555555556,-0.001090830782496456,6.891168678375102e-05,0.0018065660230301348
1589995582.9349697,-2.2841918504583116,-4.032575551374935,8.596465196333508,0.5522222222222222,0.17888888888888888,-0.6555555555555556,0.0014434525412700772,-0.0034488032268761787,0.0028152323959345455
1589995582.9449697,-2.28,-4.010352179007098,8.658943462978703,0.5522222222222222,0.17888888888888888,-0.6555555555555556,0.004324906359796592,-0.004363323129985824,0.0022200783351821437
1589995582.9549696,-2.28,-4.019225512528474,8.702817008352316,0.557206614359234,0.17888888888888888,-0.659115835653421,0.0005607383749051632,0.0012291517701023087,-0.0010063473050365942
1589995582.9649696,-2.2936993671583865,-4.057398734316774,8.600405062732907,0.56,0.17888888888888888,-0.6611111111111111,-0.002181661564992912,0.004363323129985824,-0.002181661564992912
1589995582.9749696,-2.286410495798732,-4.083589504201267,8.536410495798732,0.56,0.17888888888888888,-0.6611111111111111,-0.0036640465151536895,0.003622130654905435,4.191586024825458e-05
1589995582.9849696,-2.284986540120794,-4.065067299396031,8.53,0.56,0.17888888888888888,-0.6611111111111111,-0.0005556931066450026,8.809470340092208e-06,0.002178725074879548
1589995582.9949696,-2.279662915341228,-4.04,8.585131118180117,0.56,0.17888888888888888,-0.6611111111111111,0.005903561381803443,-0.0025207583376853464,0.002144891332783336
1589995583.0049696,-2.2787778855480116,-4.04,8.680611057225994,0.5620864317275569,0.18149692854833493,-0.6616327190430004,0.005787433928472953,0.0004454313864510264,0.0005120873896491607
1589995583.0149696,-2.306091491458607,-4.033908508541393,8.657817017082786,0.5644444444444444,0.18444444444444444,-0.6622222222222223,-0.0033223931971814277,0.002181661564992912,0.00042635214306017033
1589995583.0249696,-2.31,-4.05053491018853,8.540480478994507,0.5644444444444444,0.18444444444444444,-0.6622222222222223,-0.002467472292555816,-0.0008050200549335517,-0.002240011214944848
1589995583.0349696,-2.2829475001158426,-4.026184375144803,8.571157499652472,0.5644444444444444,0.18444444444444444,-0.6622222222222223,0.0011223966887875935,-0.003657146545848945,-0.00032152238577730233
1589995583.0449696,-2.285318449827495,-4.01,8.625318449827494,0.5644444444444444,0.18444444444444444,-0.6622222222222223,0.0038526452261888116,-0.004363323129985824,0.0005338362287644892
1589995583.0549695,-2.278254184927078,-4.01543645376823,8.683491630145845,0.5620282427696753,0.18142419235098306,-0.66161817180353,0.0013029781298790196,-0.0019912226827839613,0.0017790753354013972
1589995583.0649695,-2.2729210305360374,-4.02,8.681236908391886,0.56,0.17888888888888888,-0.6611111111111111,-0.0028863944575072496,0.002114198677543012,0.0018630265624606933
1589995583.0749695,-2.288219534234848,-4.032329301352272,8.602463260356062,0.56,0.17888888888888888,-0.6611111111111111,-0.0019275742033159605,0.002375880251373763,-0.0007023934097347541
1589995583.0849695,-2.2982144988066824,-4.053571002386635,8.521785501193317,0.56,0.17888888888888888,-0.6611111111111111,0.0009738398319273999,0.000701294849725496,-0.0026881884483329283
1589995583.0949695,-2.29,-4.052488843947154,8.582533468158537,0.56,0.17888888888888888,-0.6611111111111111,0.00831941012141375,-0.0030010015884507696,0.0019101708059543136
1589995583.1049695,-2.29,-4.026499411827612,8.660501764517164,0.56,0.1808336600957711,-0.6611111111111111,0.010089863939819105,-0.004308589111897134,0.0024540484623439144
1589995583.1149695,-2.2926453754578753,-4.02,8.677354624542124,0.56,0.18444444444444444,-0.6611111111111111,0.00394789341233865,-0.0016045301688506707,-0.0008022650844253354
1589995583.1249695,-2.288284009546539,-4.023905330151154,8.61532537788385,0.56,0.18444444444444444,-0.6611111111111111,-0.004124503216427332,-0.0004260054344689819,0.0004260054344689819
1589995583.1349695,-2.2832427413069794,-4.038828494204653,8.521171505795346,0.56,0.18444444444444444,-0.6611111111111111,-0.0025650359400242084,-0.0006093111204201107,0.001090830782496456
1589995583.1449695,-2.2926202109277245,-4.047540070309242,8.546898945361377,0.56,0.18444444444444444,-0.6611111111111111,0.001090830782496456,-0.00026833670294563653,0.001090830782496456
1589995583.1549695,-2.27,-4.034837207858717,8.665162792141283,0.5697519407113125,0.1878863058719665,-0.6657002596811405,0.0022171773007649345,-0.002780350559899173,-3.551573577202237e-05
1589995583.1649694,-2.282282958199357,-4.023858520900322,8.688424437299036,0.5788888888888889,0.19111111111111112,-0.67,-0.000747096323703361,-0.0023535287943894593,0.00024903210790112006
1589995583.1749694,-2.295964190887944,-4.055785145327663,8.580716182241124,0.5788888888888889,0.19111111111111112,-0.67,-0.001971307744838575,-0.0004402384811710597,-0.00021035382015433652
1589995583.1849694,-2.2941756226042376,-4.074175622604238,8.534946264374573,0.5788888888888889,0.19111111111111112,-0.67,0.0008151922631557599,-0.0006353410152174053,0.0014505332783731654
1589995583.1949694,-2.29,-4.07,8.57303015066353,0.5788888888888889,0.19111111111111112,-0.67,0.004076820157572277,-0.0015646204306412974,0.001851123403054844
1589995583.2049694,-2.277675452399685,-4.049459087332809,8.618757277734067,0.5679337354663869,0.18335121077017222,-0.6759340414371886,0.006544984694978735,-0.0026297947617517827,0.00044813319675887056
1589995583.2149694,-2.278536730672288,-4.007642179551808,8.653821089775905,0.5522222222222222,0.17222222222222222,-0.6844444444444444,0.005196955600033526,-0.003946506894961973,-0.0002571983124487543
1589995583.2249694,-2.283950632062823,-4.012098735874353,8.583456952691055,0.5522222222222222,0.17222222222222222,-0.6844444444444444,0.0010639047497260612,-0.001723788425778014,-0.001090830782496456
