time,acc_x,acc_y,acc_z,mag_x,mag_y,mag_z,gyr_x,gyr_y,gyr_z
1589995599.850614,-4.02,-0.92,8.89,0.2977777777777777,-0.32666666666666666,-0.6133333333333333,-0.007635815477475192,-0.001090830782496456,-0.011999138607461015
1589995599.860614,-4.01,-0.9070761128865283,8.81,0.2977777777777777,-0.32666666666666666,-0.6133333333333333,-0.006544984694978735,-0.0006812966619219886,-0.004863444764342798
1589995599.870614,-4.076056706584983,-0.907523627743743,8.84302835329249,0.2977777777777777,-0.32666666666666666,-0.6133333333333333,-0.01134876395719445,0.007095554860266098,-0.004853681504705315
1589995599.880614,-4.0790297657269505,-0.8846931250906229,8.79071296890859,0.2977777777777777,-0.3298129774242623,-0.6007480903029508,-0.012182747591833827,0.006439148553851213,-0.0018922164394925786
1589995599.890614,-4.018971270312656,-0.94813407187427,8.835143648436718,0.2977777777777777,-0.3322222222222222,-0.5911111111111111,0.007004299108016298,-0.0016414693782989985,0.0
1589995599.900614,-4.0295566580356965,-0.9313300258929101,8.749622279762022,0.2977777777777777,-0.3322222222222222,-0.5911111111111111,0.009203099101898527,-0.003272492347489368,-0.001422200305872971
1589995599.910614,-4.018450978655566,-0.9287320284592449,8.79492811383698,0.2977777777777777,-0.3322222222222222,-0.5911111111111111,0.012029796385187717,-0.0024889478203166562,-0.002965206092165624
1589995599.920614,-4.00328031025758,-0.892962171803061,8.86015906922726,0.2977777777777777,-0.3322222222222222,-0.5911111111111111,0.008316764636568129,-0.0007156526810214627,-0.00840352344138944
1589995599.930614,-4.015824828129259,-0.9016496562585179,8.885824828129259,0.31887754861678963,-0.3278264366307614,-0.6139691961867073,0.0028648224648155658,0.0017262209651111428,-0.019539412650520272
1589995599.940614,-4.02,-0.9253147051755403,8.951258820702162,0.3244444444444444,-0.32666666666666666,-0.62,0.002181661564992912,0.002181661564992912,-0.03100477915661447
1589995599.950614,-4.02,-0.9440773306278886,8.885536016232669,0.3244444444444444,-0.32666666666666666,-0.62,0.0014138622857788581,0.0014138622857788581,-0.036119152095032296
1589995599.960614,-4.043958084994316,-0.957986028331439,8.865972056662878,0.3244444444444444,-0.32666666666666666,-0.62,-0.0015225908776502941,0.004575392996025456,-0.03970166826502625
1589995599.970614,-4.036878807370692,-0.9665605963146543,8.87,0.3244444444444444,-0.32666666666666666,-0.62,0.0028278887230975326,0.0025915537478591686,-0.0396450889112131
1589995599.980614,-4.009060361286533,-0.9490603612865325,8.835100602144221,0.3244444444444444,-0.32201341361922947,-0.5998359034611054,0.01002247440908324,-0.00043194271637053087,-0.03926990816987242
1589995599.990614,-4.011544576116681,-0.9342277119416591,8.808455423883318,0.3244444444444444,-0.32,-0.5911111111111111,0.015777092307146006,-0.0017204897324439544,-0.042418202919609904
1589995600.000614,-4.027213909297227,-0.9372139092972266,8.771144362811093,0.3244444444444444,-0.32,-0.5911111111111111,0.021691785031860613,-0.005329323294413773,-0.05101938554119641
1589995600.010614,-4.038384477842749,-0.87292417725801,8.709693132943507,0.3244444444444444,-0.32,-0.5911111111111111,0.029309679000646453,-0.009288798652787684,-0.058938336257944236
1589995600.020614,-4.092515593289765,-0.9453378390958684,8.8903690256754,0.3244444444444444,-0.32,-0.5911111111111111,0.021950418051669734,-0.0026567738272755765,-0.05140284917907405
1589995600.030614,-4.109412029837965,-0.9847060149189822,8.995293985081018,0.3244444444444444,-0.32352932338734514,-0.587581787723766,0.0018612194211252153,0.01033057780401828,-0.025538808660078387
1589995600.040614,-4.040995272281561,-0.9431220451759762,8.926244090351952,0.3244444444444444,-0.32666666666666666,-0.5844444444444444,0.008919217717669587,-0.0031787851890420285,-0.0017176716968716737
1589995600.0506139,-3.9974272671675695,-0.9074272671675695,8.847330290057663,0.3244444444444444,-0.32666666666666666,-0.5844444444444444,0.02128706810118357,-0.02157828827972747,0.0
1589995600.0606139,-4.029432119759862,-0.9315456958078895,8.900977815567751,0.3244444444444444,-0.32666666666666666,-0.5844444444444444,0.01344441702073387,-0.012184976981475254,0.0017205508021257646
1589995600.0706139,-4.04,-0.9267903844648031,8.906790384464804,0.3244444444444444,-0.32666666666666666,-0.5844444444444444,0.008026416774817318,-0.006565227972361216,0.002181661564992912
1589995600.0806139,-4.04,-0.927282766379489,8.885434467241023,0.30502373409914035,-0.32666666666666666,-0.5844444444444444,0.00813383784467411,-0.004659727337634593,0.002181661564992912
1589995600.0906138,-4.0176663182768335,-0.9225554394256112,8.783220712532946,0.2977777777777777,-0.32666666666666666,-0.5844444444444444,0.011974948594652769,-0.007611625464666946,0.0029937371486631927
1589995600.1006138,-4.017345473689248,-0.9053090526215033,8.691236210486013,0.2977777777777777,-0.32666666666666666,-0.5844444444444444,0.009884901865057501,-0.003919044972621692,0.0024712254662643757
1589995600.1106138,-4.027640866873065,-0.907640866873065,8.692922600619195,0.2977777777777777,-0.32666666666666666,-0.5844444444444444,0.003725710585913591,0.004486252667084495,0.0005146830069735601
1589995600.1206138,-4.03,-0.9149172569660382,8.759007083592458,0.2977777777777777,-0.32666666666666666,-0.5844444444444444,-0.0015730651198068023,0.0070813742213786945,0.0010727790527999184
1589995600.1306138,-4.033503655699568,-0.92,8.858540212695248,0.3071208596432923,-0.32433089620028804,-0.5918410509213101,-0.008129480754332803,0.008782384123982558,0.001799472016157123
1589995600.1406138,-4.04,-0.9375770939828272,8.951971367478533,0.3244444444444444,-0.32,-0.6055555555555555,-0.014048651149122527,0.009949626065799504,0.001090830782496456
1589995600.1506138,-4.0430025062656645,-0.9569974937343358,8.946972431077695,0.3244444444444444,-0.32,-0.6055555555555555,-0.0142890630771829,0.007416555756281668,0.0014183534084189508
1589995600.1606138,-4.035837162247607,-0.9452790540825359,8.884162837752392,0.3244444444444444,-0.32,-0.6055555555555555,-0.0058194348523360855,0.0007584959394962816,0.0016666862520658345
1589995600.1706138,-4.02,-0.9443259850987018,8.8956740149013,0.3244444444444444,-0.32,-0.6055555555555555,0.003450289637638955,-0.004688167660574867,0.0001470472404394563
1589995600.1806138,-4.015277744622949,-0.9358332338688501,8.8805554892459,0.32129627419307777,-0.32,-0.6024073853041889,0.005514748389359634,-0.005514748389359634,-0.001090830782496456
1589995600.1906137,-4.01,-0.92,8.842375082697865,0.31777777777777777,-0.32,-0.5988888888888889,0.002103264868204281,-0.002103264868204281,0.0004158747253579058
1589995600.2006137,-4.015684463932594,-0.9029466082022183,8.756101968876278,0.31777777777777777,-0.32,-0.5988888888888889,0.0023309884304293198,-0.00047075195853002417,0.00047075195853002417
1589995600.2106137,-4.02,-0.9159868877747783,8.738980331662168,0.31777777777777777,-0.32,-0.5988888888888889,0.0004377626348884738,0.0028347297126008943,0.0021260472844506707
1589995600.2206137,-4.02,-0.9239803246253618,8.79009837687319,0.31777777777777777,-0.32,-0.5988888888888889,-0.00043418606256733416,0.0030500336901275803,0.001959202907631124
1589995600.2306137,-4.026736421192935,-0.9334728423858714,8.843682105964678,0.30954437409752306,-0.32,-0.603379836350846,-0.0029393182404462985,0.0036513206852160614,-0.0003788283377266933
1589995600.2406137,-4.03,-0.94,8.898371288074095,0.3055555555555556,-0.32,-0.6055555555555555,-0.006037586417796316,0.0018519281982700858,-0.00025369913859121004
1589995600.2506137,-4.0513409919363745,-0.9471136639787915,8.874431680106042,0.3055555555555556,-0.32,-0.6055555555555555,-0.00576900433053853,0.001866811146936661,-0.002327941093320615
1589995600.2606137,-4.041796902905889,-0.9317969029058896,8.87213539806274,0.3055555555555556,-0.32,-0.6055555555555555,-0.00346850404777953,0.00019601170029016207,0.0006988073819161316
1589995600.2706137,-4.03,-0.9236012961441263,8.883601296144127,0.3055555555555556,-0.32,-0.6055555555555555,-0.0006102996886334223,-0.0014836712515863284,0.0024868114093096233
1589995600.2806137,-4.03,-0.9302682206434103,8.88946355871318,0.30627081060464956,-0.3197913839440143,-0.605376741793282,0.002298694898726067,-0.002357211565592645,0.0011200891159297449
1589995600.2906137,-4.019287827492604,-0.94,8.853931741238906,0.3322222222222222,-0.31222222222222223,-0.5988888888888889,0.007129243070902738,-0.0069738711321996405,0.0010131448131449072
1589995600.3006136,-4.01,-0.9345927949807731,8.769706334750051,0.3322222222222222,-0.31222222222222223,-0.5988888888888889,0.00704598090925099,-0.0025049810713612705,0.0017695037046726056
1589995600.3106136,-4.006044303797468,-0.9220886075949367,8.729778481012659,0.3322222222222222,-0.31222222222222223,-0.5988888888888889,0.006976484213371321,0.0,0.0019779937923116117
1589995600.3206136,-4.010321845393382,-0.9168812302622547,8.787524921049018,0.3322222222222222,-0.31222222222222223,-0.5988888888888889,0.005008625250445488,0.00037531288957567206,0.0
1589995600.3306136,-4.03,-0.93,8.863463345966432,0.32918067737472173,-0.3152637670697227,-0.5932403056006738,-0.001279727002027407,0.000664255115153987,-0.00042657566734246894
1589995600.3406136,-4.024428772919605,-0.93,8.883286318758815,0.3244444444444444,-0.32,-0.5844444444444444,-0.0050956721461611594,0.0018231797986717918,-0.001090830782496456
1589995600.3506136,-4.02,-0.935151621063844,8.828787031489247,0.3244444444444444,-0.32,-0.5844444444444444,-0.005983030011358923,0.0038344470311091803,3.3078584743168786e-05
1589995600.3606136,-4.033634622206456,-0.94,8.82635899255055,0.3244444444444444,-0.32,-0.5844444444444444,-0.0059499227661660185,0.005354860837353301,0.0005950619288127172
1589995600.3706136,-4.039596020913701,-0.9452019895431492,8.890807958172596,0.3244444444444444,-0.32,-0.5844444444444444,-0.004275188565422009,0.008814780824535462,0.0011348980647783637
1589995600.3806136,-4.018198795588335,-0.9381987955883349,8.892298193382503,0.32051070964055606,-0.32721184714046203,-0.592967536519536,-0.001538005712854043,0.0076900285642702145,0.0002506940085763049
1589995600.3906136,-4.016581490798358,-0.9168370184032835,8.833929564411493,0.31777777777777777,-0.3322222222222222,-0.5988888888888889,-0.003962547885523006,0.00832587101550883,0.0003450277690168189
1589995600.4006135,-4.033493342855685,-0.91,8.776266642860787,0.31777777777777777,-0.3322222222222222,-0.5988888888888889,-0.008397944661634325,0.011289372417044126,0.001090830782496456
1589995600.4106135,-4.047025296651984,-0.9451264832599224,8.795126483259923,0.31777777777777777,-0.3322222222222222,-0.5988888888888889,-0.008284795073637307,0.008167433685384022,-0.0004418511863343408
1589995600.4206135,-4.05,-0.9547909990491953,8.836045004754023,0.31777777777777777,-0.3322222222222222,-0.5988888888888889,-0.004226532327560572,0.0025674876867450127,-0.0005226169241773526
1589995600.4306135,-4.05,-0.9534862754377662,8.863486275437765,0.31777777777777777,-0.33028540253457433,-0.6012130725140664,0.0008106374993918884,-0.0033725927207624695,-0.0011408809691330066
1589995600.4406135,-4.041202782693599,-0.9512027826935986,8.8743986086532,0.31777777777777777,-0.32666666666666666,-0.6055555555555555,0.0058027644457058075,-0.007635815477475192,-0.002792678575582707
1589995600.4506135,-4.015467970178069,-0.9206239602374253,8.836403910534207,0.31777777777777777,-0.32666666666666666,-0.6055555555555555,0.0039370188696941245,-0.006579016446680601,-0.0011248625341983211
1589995600.4606135,-4.0,-0.9,8.810083487387441,0.31777777777777777,-0.32666666666666666,-0.6055555555555555,-0.0021907686262100092,-0.0010726166600622611,-0.001643076469657507
1589995600.4706135,-4.009533592658332,-0.9047667963291666,8.858600777975,0.31777777777777777,-0.32666666666666666,-0.6055555555555555,-0.009563091299731761,0.006392353249336931,-0.0011925850795909934
1589995600.4806135,-4.031358363046139,-0.9213583630461392,8.89378612101538,0.31777777777777777,-0.3241425859897469,-0.6110243970222151,-0.0144456274849838,0.009404475307484813,0.0006778290475131642
1589995600.4906135,-4.032979827265236,-0.9513467818231757,8.87730643635365,0.31777777777777777,-0.32,-0.62,-0.009376743721460058,0.004394549646724667,0.0012377418894991374
1589995600.5006135,-4.024463484816821,-0.9555365151831787,8.806438182198145,0.31777777777777777,-0.32,-0.62,-0.0031367500502028074,-0.0013436225352006354,0.002181661564992912
1589995600.5106134,-4.03,-0.9472258994933993,8.753870502533003,0.31777777777777777,-0.32,-0.62,0.0007882233598625614,-0.004665930552619719,0.0018790541423590174
1589995600.5206134,-4.025643075247486,-0.9312861504949724,8.811784623762568,0.31777777777777777,-0.32,-0.62,-0.0009505335274125526,-0.0035530868576571745,0.001090830782496456
1589995600.5306134,-4.024380887834632,-0.92,8.857523551338529,0.3148571858880229,-0.3253544184645506,-0.6107514590157762,-0.002181661564992912,0.0003428114089079003,0.0015687115129645747
1589995600.5406134,-4.03,-0.92,8.893824224144197,0.3111111111111111,-0.3322222222222222,-0.5988888888888889,-0.004192313463742284,0.0036896504890549416,0.0006736726409308823
1589995600.5506134,-4.034483262680895,-0.9244832626808946,8.856200847829264,0.3111111111111111,-0.3322222222222222,-0.5988888888888889,-0.005566888507311251,0.005943202006316021,-0.0015798788763301981
1589995600.5606134,-4.034153527874564,-0.9358464721254355,8.825078832752613,0.3111111111111111,-0.3322222222222222,-0.5988888888888889,-0.004363323129985824,0.007182735871321993,-0.0015439103886496551
1589995600.5706134,-4.03,-0.9354694928684627,8.859061014263075,0.3111111111111111,-0.3322222222222222,-0.5988888888888889,-0.0038691214660457694,0.0061532104856550284,-0.0015850324464365103
1589995600.5806134,-4.040205055179779,-0.9334016850599265,8.87,0.31337890115106204,-0.3322222222222222,-0.6083380140553513,-0.004014624902634578,0.0028790580196954045,-0.0006973964547024925
1589995600.5906134,-4.046780817649259,-0.9355936058830862,8.843561635298517,0.31777777777777777,-0.3322222222222222,-0.6266666666666667,-0.00305083874121181,-0.00048066303425409396,0.0007396724622306299
1589995600.6006134,-4.019701236263736,-0.9351493818681319,8.784253090659341,0.31777777777777777,-0.3322222222222222,-0.6266666666666667,0.0005617104252587348,-0.001090830782496456,0.0005943004932797483
1589995600.6106133,-4.0044946634410135,-0.94,8.793032019353921,0.31777777777777777,-0.3322222222222222,-0.6266666666666667,0.0004902917238418681,0.00011024733481271982,0.001581122506338324
1589995600.6206133,-4.0143434620447564,-0.94,8.839124616059674,0.31777777777777777,-0.3322222222222222,-0.6266666666666667,-0.0005215429975329973,0.0042200887676944404,4.7744787430461285e-05
1589995600.6306133,-4.03,-0.9441909349682505,8.876763739873002,0.31498382113227746,-0.3270999683721383,-0.6117655645573317,-0.002005150956658145,0.007178655390394347,-0.00017651060833476706
1589995600.6406133,-4.03,-0.9387791060540592,8.89438955302703,0.3111111111111111,-0.32,-0.5911111111111111,-0.001436477868985323,0.007768994347314766,0.001090830782496456
1589995600.6506133,-4.041374377959949,-0.941374377959949,8.850189677140179,0.3111111111111111,-0.32,-0.5911111111111111,0.0012407521610461648,0.005004389776833153,0.001090830782496456
1589995600.6606133,-4.05,-0.940205056007835,8.829794943992166,0.3111111111111111,-0.32,-0.5911111111111111,0.004852818169863496,4.473628109644525e-05,0.0005565994615223393
1589995600.6706133,-4.05,-0.9266051238874189,8.843394876112582,0.3111111111111111,-0.32,-0.5911111111111111,0.008376462550748285,-0.0025519851016294584,0.0007406470732730929
1589995600.6806133,-4.041403995030106,-0.9257306699799293,8.841403995030106,0.3149315577643973,-0.32,-0.5933397049921948,0.008879798359702824,-0.003897611469332888,0.002494221125914672
1589995600.6906133,-4.029293966623877,-0.9260590500641849,8.815353016688062,0.3244444444444444,-0.32,-0.5988888888888889,0.00502426296225582,-0.003933432179759364,0.002258677859007424
1589995600.7006133,-4.04,-0.9152055418587202,8.7839722907064,0.3244444444444444,-0.32,-0.5988888888888889,-0.00013452683195006683,8.968455463337788e-05,0.005633523021749036
1589995600.7106133,-4.045464252447918,-0.92,8.80917827203126,0.3244444444444444,-0.32,-0.5988888888888889,-0.00863700964365773,0.0069501213838092345,0.014585936861284426
1589995600.7206132,-4.045495296070835,-0.92,8.88153292750415,0.3244444444444444,-0.32,-0.5988888888888889,-0.012107195447564428,0.01090830782496456,0.02345799301440497
1589995600.7306132,-4.052749447077409,-0.9263747235387045,8.93274944707741,0.32231953659820956,-0.31752094084605936,-0.5988888888888889,-0.009865246125076004,0.01021293335837219,0.03188624176047761
1589995600.7406132,-4.067104140779796,-0.9432239648050508,8.943880175974746,0.31777777777777777,-0.31222222222222223,-0.5988888888888889,-0.00587741545195785,0.007671606244661243,0.036736566599776026
1589995600.7506132,-4.045080528453386,-0.944919471546613,8.843953130105971,0.31777777777777777,-0.31222222222222223,-0.5988888888888889,-0.002181661564992912,0.00434575454682158,0.032672217725400944
1589995600.7606132,-4.0450777250961245,-0.9252331752883731,8.784922274903876,0.31777777777777777,-0.31222222222222223,-0.5988888888888889,-0.0037924722605101116,0.003272492347489368,0.028915494228898577
1589995600.7706132,-4.035716922947828,-0.8757353835826218,8.781433845895656,0.31777777777777777,-0.31222222222222223,-0.5988888888888889,-0.008257421287870496,0.0018708586597952603,0.0306976564910647
1589995600.7806132,-4.011983959580104,-0.8011743353281664,8.795222456587855,0.31057136160981935,-0.3194286383901806,-0.6040935227879699,-0.01396438375433331,0.0003930490293744588,0.04010453872738148
1589995600.7906132,-3.9544573268921095,-0.6946575415995706,8.852771336553944,0.2977777777777777,-0.3322222222222222,-0.6133333333333333,-0.018382050323054344,0.0001620729793854101,0.06334289821777703
1589995600.8006132,-3.92,-0.624948217726397,8.850207129094413,0.2977777777777777,-0.3322222222222222,-0.6133333333333333,-0.01639635315626718,-0.0016305976039412942,0.09798271905136578
1589995600.8106132,-3.939392190592457,-0.5679449901041378,8.876541257421897,0.2977777777777777,-0.3322222222222222,-0.6133333333333333,-0.010551537577362644,-0.00683545322141676,0.14210321185306904
1589995600.8206131,-3.9183762376237627,-0.4543564356435643,8.964079207920792,0.2977777777777777,-0.3322222222222222,-0.6133333333333333,-0.006886274325938023,-0.014010155356974282,0.19428452257596285
1589995600.8306131,-3.6736592998585573,-0.38019978783592645,9.030820190947665,0.2977777777777777,-0.3322222222222222,-0.6133333333333333,-0.008504121409044418,-0.013201231815421086,0.25171809402623985
1589995600.8406131,-3.045624588427291,-0.8925541844418359,9.096181750508203,0.31777777777777777,-0.3322222222222222,-0.5988888888888889,5.955891723367999e-05,-0.017611980961717982,0.35455998093120084
1589995600.850613,-2.0003754717383426,-1.5424619944137652,8.838317519882304,0.31777777777777777,-0.3322222222222222,-0.5988888888888889,0.026281553664218617,-0.007327854231637459,0.3672610548424537
1589995600.860613,-2.1083984327664904,-1.262947449206285,8.51,0.31777777777777777,-0.3322222222222222,-0.5988888888888889,0.04904186967336895,0.01686604072573912,0.3102569137379193
1589995600.870613,-2.2964928792909474,-1.065706720083418,8.535759679499492,0.31777777777777777,-0.3322222222222222,-0.5988888888888889,0.03084007276628567,0.02858420848719653,0.20214582345168697
1589995600.880613,-2.391836150100258,-1.065265539959897,8.703783443139502,0.31777777777777777,-0.3308087463000095,-0.5988888888888889,-0.0008326060449842614,0.004621547867498018,0.0780956722909793
1589995600.890613,-2.28,-1.099427457268851,8.893568643172127,0.31777777777777777,-0.32666666666666666,-0.5988888888888889,0.0006486783730454701,0.004834218228884126,-0.0004180212718375388
1589995600.900613,-2.296070802016583,-0.9875008771767835,8.634644235563517,0.31777777777777777,-0.32666666666666666,-0.5988888888888889,0.03101087017113491,0.026920159051629495,-0.035841418821780054
1589995600.910613,-2.367011084964082,-0.9416091776071339,8.635631347535298,0.31777777777777777,-0.32666666666666666,-0.5988888888888889,0.01947201849864803,0.021264985468490795,-0.0491124132532691
1589995600.920613,-2.5898478518286825,-0.9533164279809647,9.056531423847717,0.31777777777777777,-0.32666666666666666,-0.5988888888888889,-0.007285113831769882,-0.003639790784072046,-0.07886838893094697
1589995600.930613,-2.6576095277259353,-0.9523904722740644,9.083366652959224,0.3203142870197563,-0.32666666666666666,-0.6043846589131756,0.003213798039419065,0.004043868747790138,-0.0977010407624252
1589995600.940613,-2.6793232142112506,-0.9306767857887495,9.002707143154998,0.3244444444444444,-0.32666666666666666,-0.6133333333333333,0.015050153323493177,0.016723312435814063,-0.11699763986094082
1589995600.950613,-2.698162357936805,-0.9281623579368053,8.886538778568752,0.3244444444444444,-0.32666666666666666,-0.6133333333333333,0.01498262278435116,0.01963495408493621,-0.1409385522361051
1589995600.960613,-2.693159983387938,-0.9357899958469844,8.763159983387938,0.3244444444444444,-0.32666666666666666,-0.6133333333333333,0.009817477042468105,0.01963495408493621,-0.16901987820331257
1589995600.970613,-2.676877389683371,-0.9277075367722096,8.730830147088838,0.3244444444444444,-0.32666666666666666,-0.6133333333333333,0.0100675459881296,0.019885023030597703,-0.19244316350291937
1589995600.980613,-2.6939986121127184,-0.922000462629094,8.708001850516375,0.3244444444444444,-0.32666666666666666,-0.6133333333333333,0.010690091203459614,0.020507568245927716,-0.20987442953215985
1589995600.990613,-2.750683347421809,-0.93,8.73,0.3111111111111111,-0.3388888888888889,-0.62,0.008652104619686768,0.024865483076563843,-0.25793790215442636
1589995601.000613,-2.756789029724181,-0.933210970275819,8.736421940551638,0.3111111111111111,-0.3388888888888889,-0.62,0.007285552955620744,0.022517140693638013,-0.3092353371919299
1589995601.010613,-2.763876731580004,-0.9423127885966673,8.770815097370006,0.3111111111111111,-0.3388888888888889,-0.62,0.008058701291769641,0.024250563314387182,-0.3504306481175003
1589995601.020613,-2.8137629728824907,-0.9490592567793773,8.855051891529962,0.3111111111111111,-0.3388888888888889,-0.62,0.013397826889001499,0.02549958466281052,-0.3881798212590209
1589995601.030613,-2.847320792079208,-0.9440188118811881,9.002679207920792,0.3146833883388339,-0.33799581958195823,-0.6161300330033004,0.016800846108353088,0.03032919986921681,-0.4345416224665239
1589995601.040613,-2.8307097029702972,-0.9689354455445545,9.019290297029702,0.3368315071507151,-0.33245878987898786,-0.5921362376237624,0.019518829207971836,0.035765166068454285,-0.47078139712810707
1589995601.050613,-2.7929562632087976,-0.975912526417595,8.928612315076835,0.3377777777777778,-0.3322222222222222,-0.5911111111111111,0.02541158628835029,0.039791468842034994,-0.536251115416169
1589995601.060613,-2.8,-0.9924373194146705,8.822688041755988,0.3377777777777778,-0.3322222222222222,-0.5911111111111111,0.02609131534510498,0.044519465647957855,-0.5754061377249712
1589995601.070613,-2.7923294890873014,-1.0174431630291005,8.7374431630291,0.3377777777777778,-0.3322222222222222,-0.5911111111111111,0.023694569760577416,0.05398372383008637,-0.6316097131017965
1589995601.080613,-2.784957278431125,-1.0137393196077813,8.737478639215563,0.3367390778867274,-0.3311835223311718,-0.5925652909585817,0.01881916109818412,0.05276777405320593,-0.6789477715537849
1589995601.090613,-2.8631942260968986,-1.0365971130484493,8.750208660854652,0.3322222222222222,-0.32666666666666666,-0.5988888888888889,0.016710897752721898,0.05634062262203719,-0.7382875874350798
1589995601.1006129,-2.9000446059805056,-1.0550223029902528,8.71,0.3322222222222222,-0.32666666666666666,-0.5988888888888889,0.020456726490054967,0.05999569303730508,-0.7903628581317941
1589995601.1106129,-2.936605738861636,-1.073302869430818,8.749634433169815,0.3322222222222222,-0.32666666666666666,-0.5988888888888889,0.024708882255276888,0.06107655453101587,-0.8466754964724638
1589995601.1206129,-2.9537228206277337,-1.0818614103138668,8.8411684618832,0.3322222222222222,-0.32666666666666666,-0.5988888888888889,0.028970745445674507,0.06326818538479445,-0.8944100862168922
1589995601.1306129,-2.9666863960191012,-1.0883431980095506,8.880059188057302,0.3322222222222222,-0.32666666666666666,-0.5988888888888889,0.031091905508892095,0.06326818538479445,-0.9283486472283735
1589995601.1406128,-3.01,-1.1246314878424797,8.959193195034215,0.3588888888888889,-0.32666666666666666,-0.62,0.03817907738737596,0.06755111163375078,-0.9933524703373093
1589995601.1506128,-3.003613890993182,-1.1478712969977272,8.87445556397273,0.3588888888888889,-0.32666666666666666,-0.62,0.0379468719112088,0.0740144843319312,-1.043465997451666
1589995601.1606128,-2.98,-1.142322045742129,8.780464409148426,0.3588888888888889,-0.32666666666666666,-0.62,0.03703758742540191,0.07765162227515872,-1.0845864360308863
1589995601.1706128,-2.98,-1.181929026043929,8.788385805208785,0.3588888888888889,-0.32666666666666666,-0.62,0.03617349715910322,0.08110798334035345,-1.1269268590795214
1589995601.1806128,-2.958423381997931,-1.240525539334023,8.769474460665977,0.35970639451959147,-0.32526522844260514,-0.62,0.03370109936079713,0.08296046691802716,-1.1849829759512045
1589995601.1906128,-2.934315438556156,-1.2485615204812814,8.761438479518718,0.3722068096375489,-0.30383594538324965,-0.62,0.03194792024019902,0.0838370564783262,-1.2235529166043628
1589995601.2006128,-2.9260991318958274,-1.2874544945393447,8.795933912069449,0.3744444444444445,-0.3,-0.62,0.033963601386689565,0.0856022659872716,-1.276603755153951
1589995601.2106128,-3.0016055926711203,-1.3797401688202584,8.745596271552586,0.3744444444444445,-0.3,-0.62,0.03579392964649069,0.09200841489657555,-1.3077193355705703
1589995601.2206128,-3.027562909477246,-1.4097483620910145,8.799748362091014,0.3744444444444445,-0.3,-0.62,0.04690572364734761,0.09596565942197169,-1.3578647287063563
1589995601.2306128,-3.0178666910264607,-1.4431999634603088,8.835333272433848,0.37728885640916343,-0.2986963111828372,-0.6192888970088203,0.0473711394667301,0.09926560120717748,-1.3879875895430627
1589995601.2406127,-3.0132319287858746,-1.4885247003002247,8.87470722848565,0.4011111111111111,-0.2877777777777778,-0.6133333333333333,0.05155772268196209,0.10013162892106348,-1.4278311251667493
1589995601.2506127,-3.0449150922590604,-1.5467798769879193,8.843050307530202,0.4011111111111111,-0.2877777777777778,-0.6133333333333333,0.05235987755982988,0.10364744833266112,-1.4568878680037576
1589995601.2606127,-3.012450300075019,-1.5837748499624906,8.76,0.4011111111111111,-0.2877777777777778,-0.6133333333333333,0.051742219179071326,0.10887719212272608,-1.4862894696762556
1589995601.2706127,-2.9784323527526757,-1.6156764724732424,8.761567647247324,0.4011111111111111,-0.2877777777777778,-0.6133333333333333,0.04789035870090654,0.10799224746714917,-1.5107772133697088
1589995601.2806127,-2.96877965097623,-1.7018305235356552,8.770610174511885,0.4048399553504088,-0.28567606557017367,-0.615028262533014,0.04151812944889123,0.10819192660922686,-1.5298513594141563
1589995601.2906127,-2.9521016346645843,-1.734203269329168,8.78,0.4622222222222222,-0.2533333333333333,-0.6411111111111111,0.04277165329593077,0.111150113425354,-1.5571848984002776
1589995601.3006127,-2.967816869643663,-1.7852819124943617,8.758168696436625,0.4622222222222222,-0.2533333333333333,-0.6411111111111111,0.045438489820823276,0.11041205161163156,-1.5860910831656239
1589995601.3106127,-2.9511954785600194,-1.864212433959946,8.69760904287996,0.4622222222222222,-0.2533333333333333,-0.6411111111111111,0.049437190881626146,0.11246527019112357,-1.6112253515666146
1589995601.3206127,-2.922635245901639,-1.9517568306010928,8.764392076502732,0.4622222222222222,-0.2533333333333333,-0.6411111111111111,0.05521228083957916,0.11729381519691194,-1.6332833462012968
1589995601.3306127,-2.946601011926274,-1.9740787856884712,8.81,0.46433714813476284,-0.25068967594265745,-0.6422441071356865,0.06247397226791068,0.1233380328385027,-1.6610816350035917
1589995601.3406126,-2.893587519599865,-2.0748873628009448,8.79717503919973,0.4933333333333334,-0.21444444444444444,-0.6577777777777778,0.06654067773228381,0.12435470920459595,-1.6987071101422133
1589995601.3506126,-2.871620682163806,-2.17,8.759525852704758,0.4933333333333334,-0.21444444444444444,-0.6577777777777778,0.06562663594907964,0.12504024054199908,-1.7304196711649404
1589995601.3606126,-2.832033645788069,-2.1859327084238624,8.725310902807955,0.4933333333333334,-0.21444444444444444,-0.6577777777777778,0.061598024975721664,0.12849619599194984,-1.7721874754808065
1589995601.3706126,-2.8046668320618577,-2.2379997519072132,8.734666832061858,0.4933333333333334,-0.21444444444444444,-0.6577777777777778,0.059850253443426364,0.13133601268121087,-1.8107788959736804
1589995601.3806126,-2.769960874372714,-2.2900652093788096,8.700052167503047,0.49334637520909536,-0.21442053433888084,-0.6577777777777778,0.05890130563492297,0.13417432021899547,-1.8533599109562435
1589995601.3906126,-2.707312108559499,-2.398063674321503,8.774624217118998,0.5133333333333333,-0.17777777777777778,-0.6577777777777778,0.053743911814657055,0.13759128033071882,-1.9201428554692173
1589995601.4006126,-2.690472940420748,-2.448581178737755,8.740945880841497,0.5133333333333333,-0.17777777777777778,-0.6577777777777778,0.055580780110395335,0.13850971447858795,-1.9697382994541504
1589995601.4106126,-2.6388733029407345,-2.5074177980395103,8.61,0.5133333333333333,-0.17777777777777778,-0.6577777777777778,0.06427963068977442,0.1488804681249895,-2.0434665497291564
1589995601.4206126,-2.596848354290867,-2.535434430472755,8.61,0.5133333333333333,-0.17777777777777778,-0.6577777777777778,0.06809980632478342,0.15499274914100392,-2.0900726924762663
1589995601.4306126,-2.56,-2.703713859354598,8.75,0.5141586354121329,-0.17172556253324767,-0.6612165364394427,0.07048836876408283,0.1592507813568816,-2.17734917849898
1589995601.4406126,-2.56,-2.73,8.75,0.52,-0.1288888888888889,-0.6855555555555556,0.07526732399225547,0.16689710972195776,-2.239475596465224
1589995601.4506125,-2.5413914905004016,-2.7486085094995985,8.768608509499598,0.52,-0.1288888888888889,-0.6855555555555556,0.08034200773689043,0.17197179346659275,-2.309506232141187
1589995601.4606125,-2.583956922807248,-2.8379138456144966,8.664503385262604,0.52,-0.1288888888888889,-0.6855555555555556,0.07496753016450172,0.17139227234440071,-2.376118363019997
1589995601.4706125,-2.5281526790324502,-2.9,8.7063053580649,0.52,-0.1288888888888889,-0.6855555555555556,0.07139029727179975,0.18156420630394182,-2.4524456948923365
1589995601.4806125,-2.5188703645007924,-2.9019768621236133,8.691412044374008,0.5209727416798733,-0.12694340552914246,-0.6865596759992957,0.0686607272384999,0.17905027847636082,-2.4981747083393127
1589995601.4906125,-2.4649846972721225,-2.995025504546463,8.717477045908185,0.5544444444444444,-0.06,-0.7211111111111111,0.0673596354534874,0.1862613035913761,-2.5500982863358463
1589995601.5006125,-2.4147458028411535,-3.0805083943176923,8.639491605682307,0.5544444444444444,-0.06,-0.7211111111111111,0.07095945807940818,0.19294145771907206,-2.5800366294726724
1589995601.5106125,-2.3877524834437085,-3.1329966887417218,8.59149834437086,0.5544444444444444,-0.06,-0.7211111111111111,0.07643987678287768,0.19752209363998427,-2.6031024124003115
1589995601.5206125,-2.3617117135761587,-3.167717715231788,8.608858857615893,0.5544444444444444,-0.06,-0.7211111111111111,0.07738674589525867,0.19846896275236525,-2.620146056423169
1589995601.5306125,-2.2811450132058857,-3.248854986794114,8.698711860143378,0.5544444444444444,-0.06,-0.7211111111111111,0.07529854938353911,0.2028320747617735,-2.6395450778155127
1589995601.5406125,-2.2879606205883913,-3.3420393794116086,8.75286217205937,0.5666666666666667,-0.006666666666666667,-0.7566666666666667,0.07800514001709141,0.2023598492216874,-2.64733507822693
1589995601.5506124,-2.273120632618041,-3.356879367381959,8.700922214163143,0.5666666666666667,-0.006666666666666667,-0.7566666666666667,0.08205211893957527,0.20640682814417124,-2.6465256824424332
1589995601.5606124,-2.217219552697594,-3.468848001978589,8.570814224640499,0.5666666666666667,-0.006666666666666667,-0.7566666666666667,0.0792201065613413,0.20682888543335623,-2.6328549683855447
1589995601.5706124,-2.120894251492775,-3.5355347489665405,8.652320248736883,0.5666666666666667,-0.006666666666666667,-0.7566666666666667,0.06790438001038408,0.2035958207045113,-2.6215392418345873
1589995601.5806124,-2.08829110123694,-3.65914555061847,8.66943036707898,0.5668565443070066,-0.006191972565816687,-0.7566666666666667,0.06859806467228233,0.2028945255443408,-2.584212620204148
1589995601.5906124,-2.0379212201272967,-3.633960610063648,8.6526404067091,0.5724531977636337,0.007799661075750904,-0.7566666666666667,0.06493506355060995,0.2028945255443408,-2.553077110669933
1589995601.6006124,-1.9788657455502459,-3.638865745550246,8.573194473301475,0.5733333333333334,0.01,-0.7566666666666667,0.055857104921532924,0.19101911490377732,-2.508325004195933
1589995601.6106124,-1.9716036429115589,-3.631603642911559,8.529621857469353,0.5733333333333334,0.01,-0.7566666666666667,0.05031189734878305,0.19181128741417017,-2.4766381037802194
1589995601.6206124,-1.915418939626111,-3.59,8.57847297987537,0.5733333333333334,0.01,-0.7566666666666667,0.04892081315659676,0.19450102339585668,-2.4106019069420728
1589995601.6306124,-1.8640024517315354,-3.59,8.56133415057718,0.5733333333333334,0.01,-0.7566666666666667,0.04705125689915478,0.19824013591074063,-2.360123887991139
1589995601.6406124,-1.7844066167890726,-3.633728922140618,8.608135538929691,0.5988888888888889,0.03666666666666667,-0.7422222222222222,0.04028681393400215,0.19525871006686565,-2.286177589550476
1589995601.6506124,-1.7543864430621798,-3.654210167703365,8.6,0.5988888888888889,0.03666666666666667,-0.7422222222222222,0.04334628792326378,0.19296241980171414,-2.222520762568225
1589995601.6606123,-1.7178162183010317,-3.680545945424742,8.59454054575258,0.5988888888888889,0.03666666666666667,-0.7422222222222222,0.035025691854860944,0.17841982106952137,-2.1541089527764865
1589995601.6706123,-1.685462154083502,-3.6886344614791247,8.513655385208756,0.5988888888888889,0.03666666666666667,-0.7422222222222222,0.03679033231422836,0.1713612592320517,-2.0852879748611577
1589995601.6806123,-1.6316049211334571,-3.7020987697166357,8.620987697166356,0.5988888888888889,0.03666666666666667,-0.7422222222222222,0.031149276908120527,0.15565212058848077,-2.0235180178642427
1589995601.6906123,-1.51430242951166,-3.6632558706427236,8.645465182416512,0.5962919928134847,0.03147287451585818,-0.7768475032276121,0.029820266322607064,0.14107233133413377,-1.924479262290945
1589995601.7006123,-1.5568390817751128,-3.7419037374407798,8.680129311331335,0.5955555555555555,0.03,-0.7866666666666666,0.030543261909900768,0.12960119757685887,-1.8327712491472175
1589995601.7106123,-1.51,-3.8243299467048804,8.431546524546347,0.5955555555555555,0.03,-0.7866666666666666,0.03719320747492955,0.11397120572988167,-1.7206036957119657
1589995601.7206123,-1.51,-3.88511005200702,8.593626805352054,0.5955555555555555,0.03,-0.7866666666666666,0.03866655880441734,0.12133796237732059,-1.6491461562318082
1589995601.7306123,-1.4769343479857147,-3.9017335869964285,8.59386869597143,0.5955555555555555,0.03,-0.7866666666666666,0.031154376181260303,0.11353399988644648,-1.5405318436741409
1589995601.7406123,-1.4925490877853227,-3.9676472633559685,8.58,0.5429410173898025,0.03,-0.6989757697237449,0.03437187894209328,0.11044483184552367,-1.4492789779580995
1589995601.7506123,-1.4076955750484157,-4.05,8.586927433397888,0.5255555555555556,0.03,-0.67,0.027354560818182768,0.09465090430987756,-1.3283059948024099
1589995601.7606122,-1.3872179276449623,-4.05,8.559623903526617,0.5255555555555556,0.03,-0.67,0.028099149089542617,0.09241713949579801,-1.267249756550902
1589995601.7706122,-1.357903107982468,-4.108741864789481,8.515032540842077,0.5255555555555556,0.03,-0.67,0.03108512764592637,0.08562666677074918,-1.1640323882540007
1589995601.7806122,-1.323085237083278,-4.087851142249967,8.598595431000133,0.5255555555555556,0.03,-0.67,0.021969830360048657,0.07651136948487146,-1.1116194288602037
1589995601.7906122,-1.2998520362965977,-4.08,8.610443891110206,0.5011111111111111,0.13666666666666666,-0.6111111111111112,0.030486770733073612,0.06974860873482785,-1.0139238562896689
1589995601.8006122,-1.2793674518089575,-4.0796204710853745,8.668102355426873,0.5011111111111111,0.13666666666666666,-0.6111111111111112,0.022893646371661542,0.0610313235767454,-0.9393577303799906
1589995601.8106122,-1.2026230252623025,-3.969824573982457,8.449602064960207,0.5011111111111111,0.13666666666666666,-0.6111111111111112,0.02544291561552655,0.05405680365628818,-0.8590803531336735
1589995601.8206122,-0.9443060836501901,-3.2389475828354155,7.791865833785986,0.5011111111111111,0.13666666666666666,-0.6111111111111112,0.07957894968292961,0.014634522970768248,-0.7885348203528207
1589995601.8306122,-0.8873492667028788,-3.3284511523240474,7.710498952432684,0.5011111111111111,0.13666666666666666,-0.6111111111111112,0.2863839220172197,-0.13359050011861562,-0.7326175960735921
1589995601.8406122,-0.6213151796060254,-2.7599188876013905,7.166952491309385,0.505466074417407,0.19676516029354962,-0.5997882065147419,0.07877239208016126,-0.004784866659490572,-0.6296318252521578
1589995601.8506122,-1.1777477266883283,-3.7686743495640385,9.640587437761518,0.5066666666666667,0.21333333333333332,-0.5966666666666667,-0.20998794728716857,0.04522341314744804,-0.5048735313942935
1589995601.8606122,-0.9980752260713818,-3.4676438338211524,7.202002315320432,0.5066666666666667,0.21333333333333332,-0.5966666666666667,-0.02428908123616115,0.28718411279710165,-0.34661992767864447
1589995601.8706121,-1.0896898344327466,-4.0081700231532045,9.1533934734175,0.5066666666666667,0.21333333333333332,-0.5966666666666667,0.04666550356196189,-0.043604162811049396,-0.34362184663083656
1589995601.8806121,-1.1074534446764093,-4.088540501043841,9.491615448851773,0.5066666666666667,0.21333333333333332,-0.5966666666666667,-0.09493299896916635,-0.012358179069190435,-0.2941109342309559
1589995601.8906121,-1.0550056459647958,-3.8861180117347502,8.602826082143253,0.4933333333333334,0.2644444444444444,-0.5822222222222222,0.08707829338403111,0.04053905410054049,-0.2022259222331076
1589995601.900612,-1.1385851876453006,-3.988270784899812,9.317895494298682,0.4933333333333334,0.2644444444444444,-0.5822222222222222,-0.0071318813630771305,-0.011124590115615632,-0.17284855591411685
1589995601.910612,-1.060888334612433,-3.866937409397118,8.354289460220006,0.4933333333333334,0.2644444444444444,-0.5822222222222222,-0.018315250688784725,-0.0033693946215292477,-0.1263259623761373
1589995601.920612,-1.09363903419891,-4.132911227359128,8.669461488917165,0.4933333333333334,0.2644444444444444,-0.5822222222222222,0.026138640852180102,0.0031724519731673876,-0.055252857373898755
1589995601.930612,-1.126583565043907,-4.159266852035126,8.755117269114159,0.4933333333333334,0.2644444444444444,-0.5822222222222222,0.006013972170228903,-0.007608620535020756,-0.022190901682121768
1589995601.940612,-1.1397631819731247,-4.138894849207915,8.639763181973125,0.4955555555555556,0.2911111111111111,-0.5966666666666667,0.028206603308768487,-0.004466654487412066,0.046210996401651744
1589995601.950612,-1.1171885035612408,-4.033546349952457,8.617188503561241,0.4955555555555556,0.2911111111111111,-0.5966666666666667,0.013431510838783753,-0.014316716134068559,0.08396956604716829
1589995601.960612,-1.180119883489192,-4.1227097961060855,8.557410087383106,0.4955555555555556,0.2911111111111111,-0.5966666666666667,0.021156096958421453,-0.01649718092775485,0.15622813916756026
1589995601.970612,-1.1805248031988005,-4.225276771210797,8.720553542421593,0.4955555555555556,0.2911111111111111,-0.5966666666666667,0.005336524652792857,-0.019463212639734967,0.22569688256863132
1589995601.980612,-1.1720853777239228,-4.150853777239228,8.540049065374149,0.4955555555555556,0.2911111111111111,-0.5966666666666667,0.008680079935274386,-0.021361656807051634,0.2834656000708916
1589995601.990612,-1.2244832365936065,-4.238966473187213,8.728364160097028,0.5091763647039572,0.2956513808272449,-0.6027203596215118,0.0001597784064373102,-0.029245614600722038,0.3460852968016864
1589995602.000612,-1.2226288970834729,-4.235257794166946,8.71226818638954,0.5155555555555555,0.2977777777777777,-0.6055555555555555,0.0055890907407562295,-0.03372016486196788,0.44234866712729326
1589995602.010612,-1.0080629248880781,-3.814277275742,8.651091444204942,0.5155555555555555,0.2977777777777777,-0.6055555555555555,-0.009460302761629954,-0.04181839798569448,0.5187785280338442
1589995602.020612,-1.1558613252817167,-3.995986412896965,8.35511079959023,0.5155555555555555,0.2977777777777777,-0.6055555555555555,0.005361756481129397,-0.04363323129985824,0.6170542781097047
1589995602.030612,-1.2579456255531087,-4.022205437444689,8.42132931321904,0.5155555555555555,0.2977777777777777,-0.6055555555555555,-0.01787183083680681,-0.05893781908842745,0.6892963059668817
1589995602.040612,-1.3923508723940523,-4.173526308591079,8.78824563802974,0.5244444444444445,0.31555555555555553,-0.6133333333333333,-0.014757791066413482,-0.06358873588143865,0.8058627123980346
1589995602.050612,-1.4251310056466266,-4.222696508469941,8.624344971766867,0.5244444444444445,0.31555555555555553,-0.6133333333333333,-0.022803246207818297,-0.06805843318221909,0.878271808670678
1589995602.060612,-1.43,-4.22374443860571,8.593744438605711,0.5244444444444445,0.31555555555555553,-0.6133333333333333,-0.02195114953571573,-0.0714518428695518,0.9449819109662505
1589995602.070612,-1.4227848722986247,-4.191139489194499,8.561139489194499,0.5244444444444445,0.31555555555555553,-0.6133333333333333,-0.022299881546693268,-0.08016909748393526,1.0430131757490058
1589995602.080612,-1.4653785717860182,-4.174327678526748,8.606723214732524,0.5244444444444445,0.31555555555555553,-0.6133333333333333,-0.022907446432425576,-0.08599691090535026,1.1192799418953159
1589995602.090612,-1.5060634427347837,-4.151809671795649,8.692444099143486,0.5480244995241584,0.3041023859454088,-0.6133333333333333,-0.032167312408634595,-0.09232580737201679,1.2060844588888826
1589995602.100612,-1.51,-4.120882489549466,8.675392475615421,0.5633333333333334,0.2966666666666667,-0.6133333333333333,-0.033313151314409886,-0.0969876749656057,1.2794051774153996
1589995602.110612,-1.5415973251638833,-4.078402674836117,8.523610699344468,0.5633333333333334,0.2966666666666667,-0.6133333333333333,-0.03916009564322916,-0.10248318729134524,1.346626953749907
1589995602.120612,-1.5828789664655991,-4.094659224849199,8.572197416163997,0.5633333333333334,0.2966666666666667,-0.6133333333333333,-0.03965830029899813,-0.10452555905509692,1.3912598087716308
1589995602.130612,-1.604113476638981,-4.092943261680509,8.575886523361019,0.5633333333333334,0.2966666666666667,-0.6133333333333333,-0.04542807407621048,-0.10856860881112106,1.4207684145709318
1589995602.140612,-1.7071061113770545,-4.010549545236955,8.631794798149036,0.6624011843341666,0.25547013456731027,-0.6192185522046699,-0.04510765437188168,-0.1111368757181295,1.4531903563165527
1589995602.1506119,-1.7463676450323826,-4.114259795140324,8.613632354967617,0.6755555555555556,0.25,-0.62,-0.047600325968680954,-0.11030598518586307,1.4811867149809297
1589995602.1606119,-1.7584870857248658,-4.104538742825403,8.61,0.6755555555555556,0.25,-0.62,-0.0461449595573701,-0.11202550390461602,1.5040624411386534
1589995602.1706119,-1.8017198878231566,-4.066624089741475,8.468152381401268,0.6755555555555556,0.25,-0.62,-0.04490470610725518,-0.1132657573547309,1.532103183865193
1589995602.1806118,-1.845267261928811,-4.017679285685427,8.588122500101006,0.6755555555555556,0.25,-0.62,-0.04934053587351217,-0.11652405057373641,1.5562158800006625
1589995602.1906118,-1.9320300157977883,-4.036015007898894,8.640996248025276,0.9076522731262067,0.19397665437949796,-0.6660191767596981,-0.04734041885253676,-0.11780972450961726,1.5907695805922957
1589995602.2006118,-1.9754555393586006,-4.0754555393586,8.737502733236152,0.9333333333333332,0.18777777777777774,-0.6711111111111111,-0.05367402255226344,-0.12167732388385487,1.6159424696291882
1589995602.2106118,-1.964455707916211,-3.9478735172877935,8.625645663329689,0.9333333333333332,0.18777777777777774,-0.6711111111111111,-0.051998110280255846,-0.12386866686931435,1.6408359312109877
1589995602.2206118,-1.96,-3.838061497667066,8.558027332296474,0.9333333333333332,0.18777777777777774,-0.6711111111111111,-0.05388480453704868,-0.12784238621754962,1.664592866634417
1589995602.2306118,-1.9851094374106444,-3.8451094374106445,8.544978112517871,0.9333333333333332,0.18777777777777774,-0.6711111111111111,-0.05399373617964881,-0.12707462349905985,1.6810227620134053
1589995602.2406118,-2.040247650789242,-3.911590519835208,8.60427625792714,1.1664923081670755,0.05712473061868978,-0.7694159761761484,-0.05633777684299834,-0.12585797834433132,1.7016305799365157
1589995602.2506118,-2.1357992538512343,-3.969822388033059,8.679467164099178,1.55,-0.15777777777777774,-0.9311111111111112,-0.058866113334632826,-0.12764657601217325,1.720872744458555
1589995602.2606118,-2.1577914582531745,-3.932239322816468,8.600030781069643,1.55,-0.15777777777777774,-0.9311111111111112,-0.05369498056834132,-0.12690110026169718,1.7244830098608037
1589995602.2706118,-2.1281835683033545,-3.8981835683033546,8.54227535245503,1.55,-0.15777777777777774,-0.9311111111111112,-0.05191353314903182,-0.12609002635879085,1.7125563680255278
1589995602.2806118,-2.1596356297239456,-3.8503643702760546,8.575297862541651,1.55,-0.15777777777777774,-0.9311111111111112,-0.051742223774308295,-0.12777167834063208,1.68149766919214
1589995602.2906117,-2.1751670289440566,-3.8274164855279715,8.676748369751744,1.0951222209510734,-0.17755507251903543,-0.7967903176600695,-0.046414968350222865,-0.11900987548036068,1.5785705708326605
1589995602.3006117,-2.2020971399312415,-3.8219757150171896,8.70802428498281,0.9366666666666666,-0.18444444444444444,-0.75,-0.04472406208235469,-0.11562806294462433,1.5489797111449677
1589995602.3106117,-2.163601462522852,-3.796800731261426,8.563071297989032,0.9366666666666666,-0.18444444444444444,-0.75,-0.04303696365092507,-0.11225386608176509,1.4798086754563529
1589995602.3206117,-2.166113822774619,-3.693317063352287,8.608626025260405,0.9366666666666666,-0.18444444444444444,-0.75,-0.035511418954863115,-0.09808164938495349,1.2767260663552926
1589995602.3306117,-2.2314301386257105,-3.7109534257504735,8.616348858083175,0.9366666666666666,-0.18444444444444444,-0.75,-0.03158209138452515,-0.08671218087668671,1.1485041493430805
1589995602.3406117,-2.3145366379310346,-3.7377909482758622,8.656745689655173,0.7219827586206896,-0.031222461685823738,-0.7110452586206897,-0.029693401289485964,-0.07950369698807144,1.0048420494878747
1589995602.3506117,-2.2899988426595685,-3.6999988426595687,8.676666859556738,0.6611111111111111,0.012222222222222223,-0.7,-0.027270706439282963,-0.06981291758725944,0.8842975242134421
1589995602.3606117,-2.282353117956424,-3.6552937640871526,8.655293764087153,0.6611111111111111,0.012222222222222223,-0.7,-0.02483242264724727,-0.05736475015378131,0.7539553553817112
1589995602.3706117,-2.2550938211509775,-3.598112585381173,8.56320640653215,0.6611111111111111,0.012222222222222223,-0.7,-0.015621395649597122,-0.0455060653700186,0.6016431490490791
1589995602.3806117,-2.28193917660851,-3.595727191228191,8.608635956140956,0.6611111111111111,0.012222222222222223,-0.7,-0.01600213628070882,-0.03911125965457794,0.4807328344150853
1589995602.3906116,-2.327795164357511,-3.590512089106221,8.656614506927465,0.6511506233209574,0.026513356877660054,-0.702165323432642,-0.015383351467039808,-0.030045172157328076,0.35403121966243495
1589995602.4006116,-2.34,-3.5897370530091974,8.694342632522995,0.6355555555555555,0.048888888888888885,-0.7055555555555556,-0.008726646259971648,-0.01586007094695845,0.1591170046787026
1589995602.4106116,-2.317304751267291,-3.554609502534582,8.614088839247358,0.6355555555555555,0.048888888888888885,-0.7055555555555556,0.001176024113649414,-0.004278129798832865,0.011593228467501202
1589995602.4206116,-2.340582533972822,-3.5858738009592326,8.572354366506795,0.6355555555555555,0.048888888888888885,-0.7055555555555556,0.004363323129985824,0.005581243110363062,-0.13825754263014126
1589995602.4306116,-2.35,-3.5871728925880637,8.634135537059683,0.6355555555555555,0.048888888888888885,-0.7055555555555556,0.006462153672285127,0.016730747827438837,-0.2650910280973394
1589995602.4406116,-2.3452492451660634,-3.58,8.650996980664255,0.6223590143501763,0.05416750537104059,-0.7187520967609348,0.010226950283951097,0.025962431340290568,-0.3826739779697554
1589995602.4506116,-2.346841806924217,-3.6278926484695213,8.643683613848435,0.6077777777777778,0.06,-0.7333333333333333,0.016075270830290932,0.03352856335023423,-0.5485116117338558
1589995602.4606116,-2.355564732107061,-3.622176339464695,8.611046875250574,0.6077777777777778,0.06,-0.7333333333333333,0.021095401167180367,0.04401185665797927,-0.6665005294893119
1589995602.4706116,-2.3758422356115774,-3.6316844712231546,8.606403726019296,0.6077777777777778,0.06,-0.7333333333333333,0.028030556810945045,0.054725286431067444,-0.7887056149098519
1589995602.4806116,-2.3550634643675803,-3.6699818673235485,8.639981867323549,0.6077777777777778,0.06,-0.7333333333333333,0.032722945506729446,0.06271386913680718,-0.9003789455903665
1589995602.4906116,-2.329581504464961,-3.694372256697442,8.654790752232481,0.5950024384911625,0.05574155357112827,-0.7301394985116795,0.03381575425739013,0.06919927851673134,-1.0078724163131267
1589995602.5006115,-2.225921691911975,-3.6898685338668193,8.586184624178337,0.5811111111111111,0.05111111111111112,-0.7266666666666667,0.04186776267417164,0.07602800621840332,-1.1287080810334582
1589995602.5106115,-2.162698556893688,-3.7165072155315615,8.579205772425249,0.5811111111111111,0.05111111111111112,-0.7266666666666667,0.04581489286485115,0.08491152745735442,-1.2371044859875444
1589995602.5206115,-2.1431948859096157,-3.7580085234839737,8.61240681878718,0.5811111111111111,0.05111111111111112,-0.7266666666666667,0.04764804644016678,0.09337697451743524,-1.3240246221059893
1589995602.5306115,-2.0543413903492027,-3.78,8.64513172193016,0.5811111111111111,0.05111111111111112,-0.7266666666666667,0.051288204955486465,0.10202620497518645,-1.423453341586838
1589995602.5406115,-1.8899568965517242,-3.78,8.652496408045977,0.5319208971902938,0.06194963282247766,-0.6666379310344828,0.057543282883696846,0.10990316044352672,-1.5593825693616632
1589995602.5506115,-1.7715089536516855,-3.7726257461376402,8.672122761587078,0.5155555555555555,0.06555555555555556,-0.6466666666666666,0.05970926856590914,0.11769999030344265,-1.6748390764422998
1589995602.5606115,-13.92622702659974,-9.889772736255484,0.24976127425793315,0.5155555555555555,0.06555555555555556,-0.6466666666666666,-0.5681474493709742,1.367230341679527,-2.714836550922527
1589995602.5706115,-5.653018079404017,-5.577823203416008,-1.8957938887374697,0.5155555555555555,0.06555555555555556,-0.6466666666666666,-0.19602510945373808,-0.02059536483383928,-4.661727536362647
1589995602.5806115,1.1805580731789194,-1.014203172205438,0.11,0.5155555555555555,0.06555555555555556,-0.6466666666666666,0.15062049277859335,-0.9661469062235348,-5.287145989512402
1589995602.5906115,-0.3240488358886996,-1.2391303642410967,0.20945647765068548,0.5348943150987444,0.13020226602850116,-0.6466666666666666,0.12854016506169968,-0.528901875065602,-5.138429592104298
1589995602.6006114,-0.46174317041442114,-0.9090373536517375,-0.027935328005946836,0.5544444444444444,0.1955555555555556,-0.6466666666666666,0.1906551649563449,-0.19156598129266836,-4.857439674767994
1589995602.6106114,0.854963013465144,-2.638290097153571,5.415283961138573,0.5544444444444444,0.1955555555555556,-0.6466666666666666,0.18750559355978808,-0.1308495681148532,-4.631484048801226
1589995602.6206114,3.0695735857914093,-1.4886706830451453,13.7891393474689,0.5544444444444444,0.1955555555555556,-0.6466666666666666,0.9216746007158252,1.2678953807653819,-4.211497681222463
1589995602.6306114,0.7041237590576817,0.5280708334663389,13.637672295463977,0.5544444444444444,0.1955555555555556,-0.6466666666666666,0.5587620246563736,1.9329404642098083,-3.621802013036158
1589995602.6406114,-0.22974751567364704,-0.2921307629973984,14.910550176994924,0.5196152552091478,0.2588813541651858,-0.6435003767361851,-0.098821908915086,0.8134023720900707,-3.039706629990663
1589995602.6506114,1.2485368858770984,-1.2826481265538712,10.823212470572706,0.4811111111111111,0.3288888888888889,-0.64,0.24192239220926331,-0.5105378223887562,-2.642474918208109
1589995602.6606114,0.7656656767076793,-1.3456139159949088,6.550392023759016,0.4811111111111111,0.3288888888888889,-0.64,0.31055919981341995,-0.23670620711998042,-2.3343972197807306
1589995602.6706114,1.1407243409265422,-2.052835935500384,9.544386997696442,0.4811111111111111,0.3288888888888889,-0.64,0.0032772387317490104,0.2805961862636468,-2.052954979820368
1589995602.6806114,0.0864795971887129,-2.421568026854086,10.761737123675653,0.4811111111111111,0.3288888888888889,-0.64,-0.2769813081348323,0.5973065765931092,-1.7968012003916696
1589995602.6906114,-0.24615574348132485,-2.9102943568059847,10.684142136932834,0.4665023520837474,0.3607625449485915,-0.6406640345012438,-0.10756075225275785,0.3222547234706143,-1.5879465614864507
1589995602.7006114,-0.06352383433185727,-2.4306116176087524,7.787146131805158,0.4566666666666666,0.38222222222222224,-0.6411111111111111,0.04158102597464271,0.08354405583154337,-1.3796487900178533
1589995602.7106113,-0.20459792993630574,-2.296616242038217,6.891457006369427,0.4566666666666666,0.38222222222222224,-0.6411111111111111,-0.005920970429673236,0.12121466247361196,-1.1760098153304637
1589995602.7206113,-0.2644561257896436,-3.2038382441093742,9.25653940148476,0.4566666666666666,0.38222222222222224,-0.6411111111111111,0.03257256831096221,0.0936530059720197,-1.0120361019719502
1589995602.7306113,-0.24530659514811656,-3.2446304197651266,9.148246576455769,0.4566666666666666,0.38222222222222224,-0.6411111111111111,0.05058641871237974,0.06311253288803567,-0.8944524959133198
1589995602.7406113,-0.17069422991472885,-2.7624358350436937,7.769707158121919,0.43973337188990685,0.40015159316232085,-0.6485816823361522,0.025392022941864937,0.05931808126200343,-0.8042093107011301
1589995602.7506113,0.010603549846071994,-2.7353278096613587,7.16442248489225,0.4188888888888889,0.4222222222222222,-0.6577777777777778,0.02719415311734837,0.0533848712672397,-0.7193342240319285
1589995602.7606113,-0.03965083600647232,-3.1782431089789083,8.221440940187925,0.4188888888888889,0.4222222222222222,-0.6577777777777778,0.023381625095734066,0.04862549995524461,-0.6842457256140692
1589995602.7706113,-0.18797592036887947,-3.4793932518480566,9.321176535167973,0.4188888888888889,0.4222222222222222,-0.6577777777777778,0.006129665824266114,0.053927662385701416,-0.6706047700287303
1589995602.7806113,-0.18925863950527466,-3.3196529647144417,8.766340487449982,0.4188888888888889,0.4222222222222222,-0.6577777777777778,0.054606933418367885,0.05501985393938126,-0.6728653774392864
1589995602.7906113,-0.3674973835140453,-3.410580231925315,9.577025578766694,0.42207541991692366,0.42880771968016074,-0.6590523901889916,-0.009190661480842688,0.047627479435741145,-0.6482089420556802
1589995602.8006113,-0.23573620020791602,-3.196503207484977,8.50687162453409,0.4355555555555555,0.4566666666666666,-0.6644444444444444,0.0021414734991959256,0.04020012498259386,-0.5402590107124631
1589995602.8106112,-0.21520463796718886,-3.35,8.687660293573455,0.4355555555555555,0.4566666666666666,-0.6644444444444444,0.005926277638845123,0.034536587940378914,-0.47342688365018415
1589995602.8206112,-0.24137689069078433,-3.3867794583918083,8.715274182649827,0.4355555555555555,0.4566666666666666,-0.6644444444444444,0.019598043079197595,0.031132590625180572,-0.4200971403669469
1589995602.8306112,-0.24936434010950972,-3.426613695009126,8.807298445465417,0.4355555555555555,0.4566666666666666,-0.6644444444444444,0.01986030823205337,0.026479987614637126,-0.3448519166440901
1589995602.8406112,-0.0059055756854686225,-3.6519955654101994,8.64541128116381,0.4242386987062775,0.4598102380136883,-0.6606721588280184,0.016517376108483327,0.013606212977520422,-0.2159217268875417
1589995602.8506112,-6.0234856588472345,-21.339578098957688,7.2537881539341775,0.4155555555555556,0.4622222222222222,-0.6577777777777778,-0.3722144524113817,0.0842786244702024,-0.3809829691630917
1589995602.8606112,-4.889078809493171,-15.578295494236814,9.478022868908212,0.4155555555555556,0.4622222222222222,-0.6577777777777778,-0.6430380385055565,-0.04078097260271715,-0.39382165660550483
1589995602.8706112,-0.057343386391138396,-0.5587815321604765,10.090734431722982,0.4155555555555556,0.4622222222222222,-0.6577777777777778,-0.1666526044139197,-0.20283106382610008,-0.20360214908741237
1589995602.8806112,0.5758397786936149,0.6435595325467172,12.639384632755604,0.4155555555555556,0.4622222222222222,-0.6577777777777778,0.9298904722493775,0.07091077506122367,-0.056993799146220006
1589995602.8906112,0.4158700723116398,0.38064730580825734,11.826138325169115,0.42324611875696555,0.4740538579166991,-0.6577777777777778,0.9934895930476224,-0.010889987363956966,0.07708791980488952
1589995602.9006112,0.27992813862017646,-1.9722177102157967,8.550472414159668,0.43,0.4844444444444445,-0.6577777777777778,-0.18634451095182747,-0.18324948298506877,0.2781954545924874
1589995602.9106112,-0.030875607585404197,-2.8742269688049107,11.817437529951393,0.43,0.4844444444444445,-0.6577777777777778,-0.6904722868724391,0.16256440483122875,0.4773074330591595
1589995602.9206111,-0.3917812566109583,-3.262388407023482,11.92996192088005,0.43,0.4844444444444445,-0.6577777777777778,-0.34382446271897543,0.15484535647129619,0.6286540644513519
1589995602.9306111,0.08795315682281057,-3.885844082371577,9.736405295315683,0.43,0.4844444444444445,-0.6577777777777778,0.14342696838826477,-0.05204255170083483,0.7601883456800387
1589995602.9406111,2.124103899403023,-9.827293280833228,8.922212625428681,0.4240424846286653,0.47894519948628933,-0.6664849156281901,-0.052679450937173716,-0.049009633672379774,0.6887888383679199
1589995602.950611,2.372476208972616,-13.101168382210139,9.323777432511168,0.4155555555555556,0.4711111111111111,-0.6788888888888889,-0.20797217441377536,-0.10236471310945516,-0.02231425820345101
1589995602.960611,-0.9147334007658405,-2.5104739541940613,8.818477349902464,0.4155555555555556,0.4711111111111111,-0.6788888888888889,0.05159670583218707,0.07432320092608133,-1.2303388659123324
1589995602.970611,-2.568798133464851,-5.842932964072992,7.126766948670284,0.4155555555555556,0.4711111111111111,-0.6788888888888889,0.3160051816324819,0.2507305529206053,-1.170092908501882
1589995602.980611,-4.711653825479305,-9.056187063250313,8.62604282386669,0.4155555555555556,0.4711111111111111,-0.6788888888888889,-0.03328177294619494,0.05263673866060148,-0.6326352379831127
1589995602.990611,0.17225327833528292,-3.244320014775596,8.117767653758541,0.41858072195202045,0.4711111111111111,-0.671704118697285,-0.14537464163265995,-0.09977297217077785,0.5720375587237496
1589995603.000611,1.4011771674744211,-3.6574022617124395,9.127882606354335,0.4244444444444445,0.4711111111111111,-0.6577777777777778,-0.030241917703427587,-0.18187526783957092,0.5725349600333562
1589995603.010611,-1.4301902193717657,-3.6647540266744407,8.276345747394505,0.4244444444444445,0.4711111111111111,-0.6577777777777778,0.033535831862144136,0.08739199439809574,-0.2486281685688224
1589995603.020611,-1.5211963328967733,-5.527872365757828,8.024194546969877,0.4244444444444445,0.4711111111111111,-0.6577777777777778,-0.035003005181918415,0.043849007733009746,-0.1979045494169094
1589995603.030611,-0.9845482107950692,-5.410451190808633,8.053945426257629,0.4244444444444445,0.4711111111111111,-0.6577777777777778,-0.05501134441176705,-0.03583971163936285,0.041579769658479426
1589995603.040611,-0.47480233055729293,-4.5129698146746104,8.317657263241054,0.4244444444444445,0.47471513582116304,-0.6601804609178125,0.013386097684609972,-0.019956361186359087,0.035721467484271685
1589995603.050611,-0.02,-4.49,8.97,0.4244444444444445,0.4777777777777778,-0.6622222222222223,0.022907446432425576,0.001090830782496456,-0.04145156973486533
1589995603.060611,-0.1437849982716903,-4.376978914621501,8.760103698582787,0.4244444444444445,0.4777777777777778,-0.6622222222222223,0.016449562294224125,0.003439152287296984,-0.017968354686860043
1589995603.070611,-0.343659486812055,-4.477725583269894,8.314631454032511,0.4244444444444445,0.4777777777777778,-0.6622222222222223,-0.0021463198395378844,0.0014810063624163183,0.0016140690578406317
1589995603.080611,-0.32432213209733485,-4.6071610660486675,8.395840092699885,0.4244444444444445,0.4777777777777778,-0.6622222222222223,-0.011298883389033393,-0.0012210226371860678,0.001090830782496456
1589995603.090611,-0.19,-4.604113343304095,8.68818464772222,0.430855778774854,0.47136644344736833,-0.6622222222222223,-0.005537711224129104,0.0013987361688973918,0.000741146740272108
1589995603.100611,-0.2096818857220046,-4.666895853032555,8.503104146967445,0.4444444444444444,0.4577777777777778,-0.6622222222222223,0.002589673240898988,0.002829779786904389,0.00030670866861628706
1589995603.110611,-0.2649004815790098,-4.5241043342110885,8.552786515787725,0.4444444444444444,0.4577777777777778,-0.6622222222222223,0.006653542452020289,-0.0005562711669523833,2.1711551408310718e-05
1589995603.120611,-0.2474506488254972,-4.5624835496084994,8.511472080285262,0.4444444444444444,0.4577777777777778,-0.6622222222222223,-0.002598798175474086,-0.00040995877310783804,-0.0015007895556042941
1589995603.130611,-0.2177450647523888,-4.580980259009555,8.633529611485667,0.4444444444444444,0.4577777777777778,-0.6622222222222223,-0.010205143392730098,-0.001513258534713156,-0.002392875441101262
1589995603.140611,-0.24340640169902913,-4.701758002123786,8.46472599362864,0.441147645293959,0.4599756438781014,-0.6660684878977886,-0.012766211740389158,-0.0029128673477836,-0.002373429848224948
1589995603.150611,-0.21159283980582524,-4.661991049757281,8.584026850728154,0.42524086434735714,0.47058016450916934,-0.6846263990021575,0.004585394566592356,-0.0011777067170854485,0.0019644717285204304
1589995603.160611,-0.23756479762346824,-4.56,8.584092833271445,0.4244444444444445,0.4711111111111111,-0.6855555555555556,0.01226477797885395,-0.0002656393713929357,0.0
1589995603.170611,-0.23190189158107627,-4.560475472895269,8.68001506919935,0.4244444444444445,0.4711111111111111,-0.6855555555555556,0.012156380543233494,-0.001090830782496456,5.186604704022091e-05
1589995603.180611,-0.25196643795649815,-4.616887261313106,8.508853699269604,0.4244444444444445,0.4711111111111111,-0.6855555555555556,-0.005758122111174274,-0.001090830782496456,-8.946309321023675e-05
1589995603.190611,-0.22560244614621783,-4.669186546195802,8.551596330780674,0.4263119264931838,0.4711111111111111,-0.6830655794905699,-0.00497445520134313,-0.0007852647468178031,-0.0012649634579569528
1589995603.2006109,-0.2282266792434096,-4.597848880504394,8.588866603782952,0.4311111111111111,0.4711111111111111,-0.6766666666666666,0.00030445567488433106,-0.00042809002311644165,0.0006627407593800144
1589995603.2106109,-0.227351611781652,-4.5622830676004575,8.63662097054587,0.4311111111111111,0.4711111111111111,-0.6766666666666666,0.008069156986361431,-0.0006176389760626012,0.0
1589995603.2206109,-0.23799222229191494,-4.560038888540426,8.60401555541617,0.4311111111111111,0.4711111111111111,-0.6766666666666666,0.003053477774650432,0.001309845355335392,0.0004366151184451306
1589995603.2306108,-0.2226417199673222,-4.644716560065356,8.610941080359456,0.4311111111111111,0.4711111111111111,-0.6766666666666666,-0.002079005622503208,0.0021198245638531267,-6.183700113978545e-05
1589995603.2406108,-0.22634388216421175,-4.626343882164211,8.536093529726314,0.4311111111111111,0.46948616985076075,-0.6759896078081873,-0.010243606845012536,-0.0012237709784868607,-0.0026077913675373447
1589995603.2506108,-0.2072842289865965,-4.598178942753351,8.572715771013403,0.4311111111111111,0.4577777777777778,-0.6711111111111111,-0.0038649816714157906,-0.0017843685047262896,0.002380308095126223
1589995603.2606108,-0.24,-4.570350624518884,8.543929875096223,0.4311111111111111,0.4577777777777778,-0.6711111111111111,0.007559321073815734,0.0012860486178979103,0.0019864437295914576
1589995603.2706108,-0.24293832177461336,-4.560568252422294,8.555876643549228,0.4311111111111111,0.4577777777777778,-0.6711111111111111,0.010975588331826063,0.0029519711634265816,0.0006410423681255726
1589995603.2806108,-0.2499815284378096,-4.609870699064667,8.56996305687562,0.4311111111111111,0.4577777777777778,-0.6711111111111111,0.0032926416961274445,0.0021836764998567197,0.0021776316952652965
1589995603.2906108,-0.22887548802170207,-4.606747071869787,8.59437744010851,0.4303614364589125,0.459277127082175,-0.6701115449081796,-0.00522197972683518,-0.0002453304562426731,0.0009681655543751194
1589995603.3006108,-0.22118756529867845,-4.652874608207929,8.555937826493393,0.42523615464356346,0.46952769071287315,-0.6632778358210476,-0.011092335658644882,-0.0019225750081883024,0.00012954327840230477
1589995603.3106108,-0.25810676680378913,-4.587572932784844,8.578640600822734,0.4244444444444445,0.4711111111111111,-0.6622222222222223,0.00035480715171323936,-0.0019751418601058127,0.0012973504873835552
1589995603.3206108,-0.25019209721855307,-4.619231611125788,8.531152583311318,0.4244444444444445,0.4711111111111111,-0.6622222222222223,0.006398302803518009,-0.001111785338419417,0.002160707009069951
1589995603.3306108,-0.2259639118731931,-4.585963911873193,8.614036088126806,0.4244444444444445,0.4711111111111111,-0.6622222222222223,0.00547383693228408,-0.00032528093276875677,-0.0012058187666866417
1589995603.3406107,-0.24,-4.6,8.598089193630646,0.42720449808906774,0.4711111111111111,-0.6613729749469536,-0.0030154081278258122,-0.0004655208603717804,0.0008823941417882308
1589995603.3506107,-0.23517647482532594,-4.604823525174674,8.59,0.4388888888888889,0.4711111111111111,-0.6577777777777778,-0.0057557372338765764,0.002181661564992912,-0.00026308248703405305
1589995603.3606107,-0.22007058993013037,-4.61992941006987,8.59,0.4388888888888889,0.4711111111111111,-0.6577777777777778,-0.003284042597797441,0.002181661564992912,-0.0010869806990604317
1589995603.3706107,-0.2577995252806872,-4.587559905056137,8.524640569663175,0.4388888888888889,0.4711111111111111,-0.6577777777777778,0.006785019250971899,0.001889349985590228,-0.000798519203093772
1589995603.3806107,-0.22,-4.58,8.57220901526927,0.4388888888888889,0.4711111111111111,-0.6577777777777778,0.01075770395904432,0.0042127192640655856,-0.00312188848156913
1589995603.3906107,-0.22,-4.58,8.62334186705678,0.4388888888888889,0.4711111111111111,-0.6577777777777778,0.007271623413628999,0.0007266387186502634,0.0003641920638461928
1589995603.4006107,-0.22829483948270876,-4.596589678965417,8.625115481551873,0.4213775610920593,0.4711111111111111,-0.6577777777777778,-0.0026892857067628397,-0.001995657406857025,0.001276834940632343
1589995603.4106107,-0.23,-4.641244805781391,8.53416320385426,0.4177777777777778,0.4711111111111111,-0.6577777777777778,-0.0038858013619661467,0.00015917392267322572,0.0018633137196464606
1589995603.4206107,-0.23,-4.590726287262872,8.500484191508582,0.4177777777777778,0.4711111111111111,-0.6577777777777778,-0.0011304436076602841,0.0010776265074418467,2.6408550109218495e-05
1589995603.4306107,-0.23,-4.582223476297968,8.554435665914221,0.4177777777777778,0.4711111111111111,-0.6577777777777778,0.006543753508993977,-0.000605743504501418,-0.000848287143498937
1589995603.4406106,-0.22901189957012025,-4.582964301289639,8.645059497850601,0.41986376757419064,0.4711111111111111,-0.6605225011941105,0.0016427363824375013,0.0013064008555186202,-0.00010778503651108212
1589995603.4506106,-0.22,-4.612570773820107,8.602570773820107,0.4388888888888889,0.4711111111111111,-0.6855555555555556,-0.0035529202692702482,0.0027116365039276074,-0.0005299749389346953
1589995603.4606106,-0.22266646172763602,-4.62,8.595334460498002,0.4388888888888889,0.4711111111111111,-0.6855555555555556,-0.0036361584967723086,0.0009453978558537529,0.0007999649292110499
1589995603.4706106,-0.24280497756017952,-4.608780089759282,8.525244798041616,0.4388888888888889,0.4711111111111111,-0.6855555555555556,0.002008757542553143,0.0006119511733711248,-0.0013968063691820183
1589995603.4806106,-0.25,-4.577174074152498,8.598477777542508,0.4388888888888889,0.4711111111111111,-0.6855555555555556,0.004671583820336634,0.001873400874642102,-0.001411009839115887
1589995603.4906106,-0.2495533618444323,-4.562233190777838,8.649553361844433,0.43973253873829454,0.4711111111111111,-0.6855555555555556,0.006350102035486459,-4.8720664873069145e-05,0.0031263303528701607
1589995603.5006106,-0.24414656881853464,-4.618293137637069,8.619267155907327,0.4577777777777778,0.4711111111111111,-0.6855555555555556,0.0005985398468437665,-0.0013169910279463338,0.00045232049089975583
1589995603.5106106,-0.2583638120095588,-4.646727624019118,8.548180939952205,0.4577777777777778,0.4711111111111111,-0.6855555555555556,-0.004829472433408796,-0.0020924213536967,0.0020031811424004882
1589995603.5206106,-0.23840725728623818,-4.622036286431191,8.461149198996331,0.4577777777777778,0.4711111111111111,-0.6855555555555556,-0.003320875461524822,0.003842099295755323,0.0001737412780768337
1589995603.5306106,-0.2303117158849643,-4.581558579424821,8.51781798880525,0.4577777777777778,0.4711111111111111,-0.6855555555555556,0.001977643995365607,0.0011928395673101084,0.0010568278542252385
1589995603.5406106,-0.23,-4.561045466044201,8.65,0.4560353343707758,0.4707045409828106,-0.6836388678078534,0.006259878059211373,-0.000862745473882566,0.00522606860386839
1589995603.5506105,-0.23022254607280568,-4.580445092145611,8.649109815708778,0.4244444444444445,0.4633333333333333,-0.6488888888888888,0.0010180027504744227,0.003272492347489368,0.0010422787611484338
1589995603.5606105,-0.2419527991658646,-4.607811196663458,8.582660811677895,0.4244444444444445,0.4633333333333333,-0.6488888888888888,-0.002181661564992912,0.002420422970625959,-0.0008778134382806037
1589995603.5706105,-0.24883937159345945,-4.638259057390189,8.475222827829434,0.4244444444444445,0.4633333333333333,-0.6488888888888888,-0.0019284517264140616,-0.001090830782496456,0.0
1589995603.5806105,-0.2323617769255353,-4.595829338446788,8.576532438478747,0.4244444444444445,0.4633333333333333,-0.6488888888888888,0.002696921359345664,-0.001090830782496456,0.00025762989717637616
1589995603.5906105,-0.24118530332209917,-4.550790202214733,8.630790202214733,0.4250151460439737,0.4633333333333333,-0.6492400898732146,0.004449520820008564,-0.001047731937485086,0.001090830782496456
1589995603.6006105,-0.26234400061101354,-4.57,8.65,0.4388888888888889,0.4633333333333333,-0.6577777777777778,0.005501059719443671,0.0,0.0008820457873894432
1589995603.6106105,-0.23030932559382877,-4.57,8.65,0.4388888888888889,0.4633333333333333,-0.6577777777777778,0.0011330085174417574,0.0,8.435546989060162e-06
1589995603.6206105,-0.24,-4.614469377659049,8.504469377659047,0.4388888888888889,0.4633333333333333,-0.6577777777777778,-0.00666074853165685,-0.0002437667364545855,0.0008470640460418704
1589995603.6306105,-0.24,-4.628183682732882,8.522724475900677,0.4388888888888889,0.4633333333333333,-0.6577777777777778,-0.0029257657599826774,-0.0011403631521402688,4.953236964381298e-05
1589995603.6406105,-0.24,-4.5999786493620025,8.565032025956995,0.4388888888888889,0.4633333333333333,-0.6577777777777778,0.002458444998918891,-0.0019095361176976358,0.0008187053352011798
1589995603.6506104,-0.24,-4.570050051523627,8.649824819667305,0.4311305755925217,0.4710916466297005,-0.7065443184978,0.006539524920710389,-0.0010935606696306293,2.7298871341733394e-06
1589995603.6606104,-0.24,-4.593572071903028,8.618570570795962,0.4311111111111111,0.4711111111111111,-0.7066666666666667,-0.0003118530754328075,-0.002805040225099342,0.0017142094426028857
1589995603.6706104,-0.2216423472052934,-4.629178826397353,8.484105868013234,0.4311111111111111,0.4711111111111111,-0.7066666666666667,-0.0019129331319307518,0.0031829162031353146,-8.95761443540534e-05
1589995603.6806104,-0.23624899878112485,-4.621875500609438,8.52062249695281,0.4311111111111111,0.4711111111111111,-0.7066666666666667,0.0004770746432868449,0.002386246944729449,-0.0008862454027599189
1589995603.6906104,-0.24985520075877332,-4.600289598482453,8.608841606070186,0.4311111111111111,0.4711111111111111,-0.7066666666666667,0.006466008960172637,-0.0010434453416127971,-0.001090830782496456
1589995603.7006104,-0.2566613153938282,-4.56,8.646677369212345,0.4311111111111111,0.4633333333333333,-0.6577777777777778,0.00690742748918334,-0.001090830782496456,0.0009087337854234931
1589995603.7106104,-0.23788514733785976,-4.566344557986421,8.644047504743616,0.4311111111111111,0.4633333333333333,-0.6577777777777778,0.002349713793766513,-0.001090830782496456,0.00023069463843071382
1589995603.7206104,-0.23,-4.591882421302612,8.51752968521045,0.4311111111111111,0.4633333333333333,-0.6577777777777778,-0.0019121920235030845,-0.001090830782496456,0.0004748098517414845
1589995603.7306104,-0.23343467226743678,-4.6,8.556869344534874,0.4311111111111111,0.4633333333333333,-0.6577777777777778,-0.004704824665060893,-0.001090830782496456,-0.001994329253137565
1589995603.7406104,-0.24811674105189463,-4.6,8.58623348210379,0.4311111111111111,0.4633333333333333,-0.6577777777777778,-0.0015016941488975007,-0.001090830782496456,-0.0011935466240967172
1589995603.7506104,-0.22569886602267955,-4.57189962200756,8.61430113397732,0.4311111111111111,0.4633333333333333,-0.6766666666666666,0.002388878181088312,0.0008836141664010561,-0.00020721661609539982
1589995603.7606103,-0.24909724269139044,-4.58,8.581875184222515,0.4311111111111111,0.4633333333333333,-0.6766666666666666,0.0029770657090828815,0.0,-0.0009923552363609604
1589995603.7706103,-0.2362296280572655,-4.585655557914102,8.50754074388547,0.4311111111111111,0.4633333333333333,-0.6766666666666666,-0.0004112837776595756,0.0002056418888297878,0.0
1589995603.7806103,-0.22103560092883937,-4.608964399071161,8.542071201857677,0.4311111111111111,0.4633333333333333,-0.6766666666666666,-0.002181661564992912,0.0013167638568084357,0.00011296653715598988
1589995603.7906103,-0.22679866444991,-4.60320133555009,8.55359732889982,0.4311111111111111,0.4633333333333333,-0.6766666666666666,-0.002181661564992912,0.002574069274861689,0.0007416192461826164
1589995603.8006103,-0.23773545763837026,-4.584529084723259,8.614148203468593,0.4371275781631769,0.4590358568675721,-0.6723691902009054,0.002037376089322897,-0.00010273777596327919,-0.0005967842792298677
1589995603.8106103,-0.25438654600658506,-4.572806726996708,8.644386546006585,0.4388888888888889,0.4577777777777778,-0.6711111111111111,0.005626485433157032,0.0028324910269496503,0.0012631623031712084
