time,acc_x,acc_y,acc_z,mag_x,mag_y,mag_z,gyr_x,gyr_y,gyr_z
1589995609.792424,-3.94,-0.87,8.81,0.31222222222222223,-0.33,-0.6055555555555555,-0.002181661564992912,0.002181661564992912,0.001090830782496456
1589995609.802424,-3.9649821657868456,-0.87,8.810107005278926,0.31222222222222223,-0.33,-0.6055555555555555,0.003272492347489368,0.005442481447267951,-0.0005434699803791731
1589995609.812424,-3.96,-0.8800596929051746,8.86011938581035,0.31222222222222223,-0.33,-0.6055555555555555,0.0021751500791468044,0.002730332699164194,0.0
1589995609.822424,-3.96,-0.89,8.930625442530093,0.3203472932455703,-0.319374907123314,-0.6018055227755488,0.002931623818807445,0.0008181016324080494,-0.001840793036310989
1589995609.832424,-3.9491289702484877,-0.8845644851242439,8.964564485124244,0.32666666666666666,-0.3111111111111111,-0.5988888888888889,0.003177477740947386,-0.002276676171534894,-0.0014937242639317114
1589995609.842424,-3.951420343442244,-0.8914203434422441,8.920028797952146,0.32666666666666666,-0.3111111111111111,-0.5988888888888889,0.0003130122389707003,-0.0007809599127930867,0.0024915324346962814
1589995609.852424,-3.95415608801956,-0.9,8.919219559902201,0.32666666666666666,-0.3111111111111111,-0.5988888888888889,-0.001090830782496456,0.0004533588746500675,0.001175963590753881
1589995609.862424,-3.9471218969473614,-0.8942437938947222,8.93712189694736,0.32666666666666666,-0.3111111111111111,-0.5988888888888889,-0.001090830782496456,0.0,-0.0007768784419949032
1589995609.872424,-3.941288783811974,-0.8825775676239482,8.931288783811974,0.32666666666666666,-0.3111111111111111,-0.5988888888888889,-0.001090830782496456,0.0,-0.0001405845054084509
1589995609.8824239,-3.9664134868777303,-0.88,8.942826973755459,0.31222222222222223,-0.3244444444444444,-0.5911111111111111,-0.0003912278915599542,0.003663720239049322,8.285289218340659e-05
1589995609.8924239,-3.96,-0.8675005816207833,8.823754943776658,0.31222222222222223,-0.3244444444444444,-0.5911111111111111,0.0002726442506387032,0.0016363730637155055,-0.0019087635344125658
1589995609.9024239,-3.953654006291636,-0.8663459937083642,8.791729968541821,0.31222222222222223,-0.3244444444444444,-0.5911111111111111,0.0024753118390189524,-0.0006922405282612479,-0.00228660154520208
1589995609.9124238,-3.9403823729561718,-0.8844264405657428,8.838852881131485,0.31222222222222223,-0.3244444444444444,-0.5911111111111111,0.0027479321657904415,-0.0016153909641953826,-0.0016153909641953826
1589995609.9224238,-3.9446952329941083,-0.8755079450098197,8.909187287984288,0.30950088277886884,-0.3271657838877978,-0.5878455037790871,0.0011129940645975267,-0.0005786603143998338,-0.0011129940645975267
1589995609.9324238,-3.96,-0.8719018392761686,8.939049080361915,0.30666666666666664,-0.33,-0.5844444444444444,0.0,0.0004935507706030907,0.0005972800118933653
1589995609.9424238,-3.972075782016004,-0.89,8.893772653951988,0.30666666666666664,-0.33,-0.5844444444444444,-0.0019758952118661493,-0.0006586317372887163,0.00043219904520773965
1589995609.9524238,-3.9553732811486215,-0.9023133594256891,8.876156679712844,0.30666666666666664,-0.33,-0.5844444444444444,-0.00260090277261514,-0.001762420357370684,-0.0006715895748742282
1589995609.9624238,-3.944007886596186,-0.9019842268076282,8.908055206173302,0.30666666666666664,-0.33,-0.5844444444444444,-0.002181661564992912,-0.002618854172180362,0.00022074703906589405
1589995609.9724238,-3.95,-0.8850855925354493,8.95,0.30803177985126406,-0.3286348868154026,-0.5860825802659614,-0.0016455828709866821,-0.003004453000486253,0.0016455828709866821
1589995609.9824238,-3.95,-0.8785732591198494,8.94142674088015,0.31222222222222223,-0.3244444444444444,-0.5911111111111111,-0.0004675987477125119,-0.000778865321855376,-0.0009351974954250238
1589995609.9924238,-3.9548088235294117,-0.8851911764705882,8.872294117647058,0.31222222222222223,-0.3244444444444444,-0.5911111111111111,0.00048285303754622556,0.0021399533291915768,-0.002181661564992912
1589995610.0024238,-3.9548906331374156,-0.8953281005877539,8.825328100587754,0.31222222222222223,-0.3244444444444444,-0.5911111111111111,-4.772029611694933e-05,0.0004857650211020411,4.772029611694933e-05
1589995610.0124238,-3.9535352189038995,-0.8993943432883026,8.847070437807798,0.31222222222222223,-0.3244444444444444,-0.5911111111111111,-0.0010247638840219383,-0.0014103964443455963,0.0010247638840219383
1589995610.0224237,-3.953672514897557,-0.8705087723463355,8.869491227653665,0.3104645874715436,-0.3223352827436301,-0.5935717997620612,0.0007457200062198297,0.00034511077627662624,-0.001090830782496456
1589995610.0324237,-3.9567650621613004,-0.8583825310806503,8.898382531080651,0.30666666666666664,-0.31777777777777777,-0.5988888888888889,-0.0004571961469003316,0.00017643848869579272,-0.0006336346355961243
1589995610.0424237,-3.9714738601441333,-0.8657369300720665,8.867369300720666,0.30666666666666664,-0.31777777777777777,-0.5988888888888889,-0.0020208883635614034,-0.001090830782496456,-0.0009300575810649473
1589995610.0524237,-3.96,-0.8636026028185217,8.835218219729652,0.30666666666666664,-0.31777777777777777,-0.5988888888888889,-0.003272492347489368,-0.0022697797979620497,-0.001788678559837714
1589995610.0624237,-3.955572992098557,-0.8788540158028856,8.897708031605772,0.30666666666666664,-0.31777777777777777,-0.5988888888888889,-0.0027895806981644844,-0.0029145881820111736,-0.001090830782496456
1589995610.0724237,-3.95,-0.9028518944594945,8.915716035180168,0.30666666666666664,-0.31777777777777777,-0.5955569162512422,-0.0017143534953325012,-0.0001562146431756345,-0.001090830782496456
1589995610.0824237,-3.943780464941882,-0.8951218597675291,8.91,0.30666666666666664,-0.31777777777777777,-0.5911111111111111,0.00026606127634568586,0.005839952988443953,-0.00041238475307538505
1589995610.0924237,-3.9752296458063197,-0.8917432152687732,8.863027138924908,0.30666666666666664,-0.31777777777777777,-0.5911111111111111,0.0017313238175294646,0.009367139295004658,0.0006404930350330086
1589995610.1024237,-3.982896880540515,-0.8828968805405146,8.864206238918971,0.30666666666666664,-0.31777777777777777,-0.5911111111111111,0.0009378876194515266,0.002976720341990486,0.0017127177552671486
1589995610.1124237,-3.9656145159521983,-0.8656145159521982,8.885614515952199,0.30666666666666664,-0.31777777777777777,-0.5911111111111111,0.0004783820995489337,0.0006886310323006902,0.0012248973658950447
1589995610.1224236,-3.9637163303846537,-0.8637163303846536,8.891148991153962,0.3116217738462048,-0.32025533136754686,-0.6018471766667771,0.0006854420243457503,0.0035525456136844126,-0.0008107775163014112
1589995610.1324236,-3.952619077636854,-0.8757936407877153,8.904206359212285,0.32,-0.3244444444444444,-0.62,-0.003159940856983417,0.005973590593373013,-0.0002856970508028614
1589995610.1424236,-3.94,-0.8904522509102946,8.832060369083084,0.32,-0.3244444444444444,-0.62,-0.0060242357644485775,0.009296728111937946,0.0005207489305301582
1589995610.1524236,-3.9493204459007756,-0.893786369399483,8.78864089180155,0.32,-0.3244444444444444,-0.62,-0.008578390554010511,0.012189783878005176,0.000338900976505296
1589995610.1624236,-3.969974920057684,-0.88,8.83012539971158,0.32,-0.3244444444444444,-0.62,-0.01308996938995747,0.017475178898424634,0.0010880949851862886
1589995610.1724236,-3.9574607513668054,-0.8825392486331946,8.895235491799168,0.31661433515574056,-0.3227516120223147,-0.616332196418719,-0.013920936562007675,0.027287895009315215,-0.0005539781147001363
1589995610.1824236,-3.95,-0.8784730274766827,8.909261406604486,0.30666666666666664,-0.31777777777777777,-0.6055555555555555,-0.017200726834608535,0.03473458739570925,-0.001762529016412064
1589995610.1924236,-3.9395983469539377,-0.8652008265230312,8.813192561292718,0.30666666666666664,-0.31777777777777777,-0.6055555555555555,-0.02308270063503691,0.04882675790033571,-0.001090830782496456
1589995610.2024236,-3.9252571849011173,-0.874742815098883,8.807942520791064,0.30666666666666664,-0.31777777777777777,-0.6055555555555555,-0.0283054913035215,0.06391014383620008,-0.001090830782496456
1589995610.2124236,-3.94154640384841,-0.8979553365403419,8.885910673080684,0.30666666666666664,-0.31777777777777777,-0.6055555555555555,-0.029452431127404314,0.07504428580809137,-0.004616352867988345
1589995610.2224236,-3.9969094865742107,-0.9164724107406315,8.939854308055473,0.30854549850824564,-0.3219112078292515,-0.6006705927674503,-0.02908352335797712,0.07890872410917202,-0.01127721559439175
1589995610.2324235,-3.974715515255586,-0.8347155152555861,8.82953447950914,0.31222222222222223,-0.33,-0.5911111111111111,-0.033843965595240805,0.08456477584754094,-0.008161482932227949
1589995610.2424235,-3.8929998515659787,-0.8385003216070457,8.767000148434022,0.31222222222222223,-0.33,-0.5911111111111111,-0.046633056430823334,0.10908318619391183,-0.005345076231445946
1589995610.2524235,-3.9842159437033926,-0.943124251654238,8.903513286419495,0.31222222222222223,-0.33,-0.5911111111111111,-0.05608403182421427,0.11907983604082185,-0.013319913448404105
1589995610.2624235,-4.132475128980996,-0.9716500859873305,9.022475128980997,0.31222222222222223,-0.33,-0.5911111111111111,-0.0443795992020862,0.07691367418885649,-0.02424188983650444
1589995610.2724235,-4.065593294620357,-0.9079664731017859,8.913729593513752,0.31222222222222223,-0.32877591517232146,-0.5896422093178969,-0.013237931317067212,0.021853665890158535,-0.02558833010528391
1589995610.2824235,-4.052426819733404,-0.834853639466809,8.76092068880032,0.31222222222222223,-0.3244444444444444,-0.5844444444444444,-0.004961273717198787,0.008000972012800861,-0.018576054217429208
1589995610.2924235,-4.068423692290089,-0.8668473845801788,8.832906615305403,0.31222222222222223,-0.3244444444444444,-0.5844444444444444,-0.0232836487761287,0.017598406567478436,-0.011596101814027334
1589995610.3024235,-4.063478470939321,-0.9367392354696603,8.862825351712377,0.31222222222222223,-0.3244444444444444,-0.5844444444444444,-0.04223420245543774,0.026938823415241023,0.0006876403795870794
1589995610.3124235,-4.032473899751976,-0.93,8.91,0.31222222222222223,-0.3244444444444444,-0.5844444444444444,-0.032882284482393456,0.023233556829015477,0.005892763901798932
1589995610.3224235,-3.9619077314667517,-0.912685332484887,8.903074132993956,0.31222222222222223,-0.32329013327677025,-0.5880997631420793,-0.02490023427427672,0.021438868203645586,0.008537772536829882
1589995610.3324234,-3.7593138326954616,-0.8219054127938764,8.866402405686166,0.31222222222222223,-0.31777777777777777,-0.6055555555555555,-0.024586932207991467,0.020027390746982503,0.007145269649917327
1589995610.3424234,-3.497403236888312,-0.7217054737002825,8.807131842125353,0.31222222222222223,-0.31777777777777777,-0.6055555555555555,-0.033037790964766126,0.027241164986247,-0.0025579436392512696
1589995610.3524234,-3.2994532852394087,-0.6583778909399534,8.74351757550039,0.31222222222222223,-0.31777777777777777,-0.6055555555555555,-0.04192342213360274,0.03841500358674467,-0.019664772749441114
1589995610.3624234,-2.892239838117129,-0.6150749494116029,8.962089939293923,0.31222222222222223,-0.31777777777777777,-0.6055555555555555,-0.04203786368876678,0.03603011867250563,-0.0470846463836998
1589995610.3724234,-2.7505902412479593,-0.5619016869218211,8.901901686921821,0.31222222222222223,-0.31626958502126284,-0.6040473627990406,-0.018712229566326743,0.01949189755387418,-0.07087895112944466
1589995610.3824234,-2.621704795021962,-0.5094317349926794,8.920169747437775,0.31222222222222223,-0.3111111111111111,-0.5988888888888889,-0.007964272531813093,0.017843737670541288,-0.10333750042890028
1589995610.3924234,-2.4491264113007163,-0.8406088570397484,8.893414961076456,0.31222222222222223,-0.3111111111111111,-0.5988888888888889,0.011846089374354652,0.03132366397046185,-0.12684896461938558
1589995610.4024234,-2.294716663864133,-1.0214999159239952,8.622066588195729,0.31222222222222223,-0.3111111111111111,-0.5988888888888889,0.05322527854046186,0.05867943245294413,-0.15255269410339875
1589995610.4124234,-2.29,-0.88,8.49,0.31222222222222223,-0.3111111111111111,-0.5988888888888889,0.06763150851478028,0.07308566242726255,-0.1679879405044542
1589995610.4224234,-2.2972862703258055,-0.9601489735838619,8.628439136190307,0.31222222222222223,-0.3111111111111111,-0.5988888888888889,0.023917024729394373,0.03016598743797457,-0.2172660858625256
1589995610.4324234,-2.37325255533744,-1.03162627766872,8.932193867190144,0.32666666666666666,-0.3111111111111111,-0.6055555555555555,-0.012264886931173512,0.005214840126110452,-0.2791107608197386
1589995610.4424233,-2.48107674447531,-1.0633848832870352,8.664000580455243,0.32666666666666666,-0.3111111111111111,-0.6055555555555555,0.042307491313651566,0.03416811806295545,-0.2730769291125796
1589995610.4524233,-2.516564126394052,-1.02,8.60282063197026,0.32666666666666666,-0.3111111111111111,-0.6055555555555555,0.02740499446538772,0.0369502369110841,-0.270492477833377
1589995610.4624233,-2.6011201077026636,-1.0328673910952977,8.797204346571787,0.32666666666666666,-0.3111111111111111,-0.6055555555555555,-0.002921588690060082,0.013440873047386757,-0.2781618495365963
1589995610.4724233,-2.735333866133866,-1.0559996003996004,8.9559996003996,0.32474054834054833,-0.3111111111111111,-0.6065926961926962,0.0005820524850619446,0.015344469246161233,-0.27772547363395605
1589995610.4824233,-2.768854745254745,-1.030858941058941,8.930858941058942,0.31263578643578643,-0.3111111111111111,-0.6131106449106448,0.017950715715725842,0.022657590606440774,-0.2749830531238512
1589995610.4924233,-2.7342980514532456,-1.0242980514532458,8.86495681991364,0.31222222222222223,-0.3111111111111111,-0.6133333333333333,0.01752515301145686,0.024385840972925368,-0.28268773451656626
1589995610.5024233,-2.749517399034798,-1.0395173990347981,8.811689103378207,0.31222222222222223,-0.3111111111111111,-0.6133333333333333,0.010054373237295251,0.021895581048204833,-0.2909886009323014
1589995610.5124233,-2.7371879990418395,-1.0452080006387736,8.817604000319387,0.31222222222222223,-0.3111111111111111,-0.6133333333333333,0.010294824383850395,0.023691535494364948,-0.3093530644087045
1589995610.5224233,-2.76,-1.03,8.807354588243378,0.3150146012986567,-0.3136095555479209,-0.6114227581757729,0.014550206810825026,0.0258913691222648,-0.3242479229264807
1589995610.5324233,-2.7801492537313433,-1.0340298507462686,8.798059701492537,0.3333333333333333,-0.33,-0.5988888888888889,0.009377888518178489,0.02267951164205318,-0.3491309746246866
1589995610.5424232,-2.8214226024671705,-1.0438075341557236,8.783347260909935,0.3333333333333333,-0.33,-0.5988888888888889,0.007895971167477662,0.02238713505242063,-0.36797054543628127
1589995610.5524232,-2.8495608015371947,-1.05,8.759121603074389,0.3333333333333333,-0.33,-0.5988888888888889,0.007587906357189868,0.025089107997418484,-0.3847279023792517
1589995610.5624232,-2.8602745505808955,-1.047568637645224,8.819450898838209,0.3333333333333333,-0.33,-0.5988888888888889,0.010082697532467393,0.025619548977417063,-0.4067001889361822
1589995610.5724232,-2.836399512179868,-1.0425598048719473,8.88383970730792,0.3333333333333333,-0.3275824065098276,-0.5997421571795379,0.01090830782496456,0.027131153864836176,-0.42944676560519385
1589995610.5824232,-2.873111846134999,-1.0737763077300013,8.903111846135,0.3333333333333333,-0.3111111111111111,-0.6055555555555555,0.015040903473747593,0.02956115340164651,-0.45693609265905444
1589995610.5924232,-2.86,-1.1,8.859931288489337,0.3333333333333333,-0.3111111111111111,-0.6055555555555555,0.022579447671367207,0.037309410866616516,-0.4800948645870449
1589995610.6024232,-2.86,-1.107670582788356,8.795752937091267,0.3333333333333333,-0.3111111111111111,-0.6055555555555555,0.020561519476145217,0.03994237356110757,-0.5069668100347927
1589995610.6124232,-2.855052347239632,-1.142473826380184,8.815052347239632,0.3333333333333333,-0.3111111111111111,-0.6055555555555555,0.016081188744767317,0.03817907738737596,-0.5415118305389364
1589995610.6224232,-2.840242227361805,-1.1498788863190974,8.800242227361807,0.3333333333333333,-0.3111111111111111,-0.6055555555555555,0.018504488943046772,0.03817907738737596,-0.5657448325217308
1589995610.6324232,-2.883895947761722,-1.1577918955234434,8.81,0.37777777777777777,-0.3111111111111111,-0.5911111111111111,0.02048491803403307,0.04599900800599998,-0.6174379430217871
1589995610.6424232,-2.8827048894680223,-1.1748634070213184,8.792978075425385,0.37777777777777777,-0.3111111111111111,-0.5911111111111111,0.02128610024126276,0.0474660390211777,-0.6517535505769101
1589995610.6524231,-2.863639600600009,-1.1875735995999939,8.748492401400021,0.37777777777777777,-0.3111111111111111,-0.5911111111111111,0.019899633309635043,0.046079572089549985,-0.6787896557436506
1589995610.6624231,-2.888408088301493,-1.2115919116985072,8.807959558492538,0.37777777777777777,-0.3111111111111111,-0.5911111111111111,0.021246736752557057,0.05104646913671096,-0.7312576647126386
1589995610.6724231,-2.8808558258458326,-1.2191441741541675,8.845720870770837,0.37777777777777777,-0.3111111111111111,-0.5911111111111111,0.02371820886179498,0.05516558931877417,-0.7642106261691443
1589995610.682423,-2.9043241177220027,-1.2656758822779972,8.874324117722002,0.3911111111111111,-0.2977777777777777,-0.6133333333333333,0.02836160034490785,0.05577982454615589,-0.8306533957245095
1589995610.692423,-2.8965856005131223,-1.286585600513122,8.838047998289593,0.3911111111111111,-0.2977777777777777,-0.6133333333333333,0.028601059536939116,0.05890486225480863,-0.875325555777034
1589995610.702423,-2.927995021024665,-1.3126650070082218,8.770660028032886,0.3911111111111111,-0.2977777777777777,-0.6133333333333333,0.03032455263144538,0.06152122676693183,-0.925307063895667
1589995610.712423,-2.944495640348772,-1.326880449564035,8.798623910087194,0.3911111111111111,-0.2977777777777777,-0.6133333333333333,0.03272492347489368,0.06917266366818854,-0.9688676157255516
1589995610.722423,-2.910943924486041,-1.3688200943924487,8.79023598112151,0.3911111111111111,-0.2977777777777777,-0.6133333333333333,0.03272492347489368,0.07191760700333663,-1.0100417657527734
1589995610.732423,-2.9371361366914455,-1.3880907577942971,8.79904537889715,0.38407581641332894,-0.29375760937904505,-0.6253938385295315,0.03272492347489368,0.07791501828897819,-1.0615217218500175
1589995610.742423,-2.947478912839738,-1.4199156513589501,8.812268041237113,0.38333333333333336,-0.2933333333333333,-0.6266666666666667,0.03545660093584076,0.0785490173491567,-1.1310269256137901
1589995610.752423,-2.9406149909692956,-1.3973798916315472,8.733074954846478,0.38333333333333336,-0.2933333333333333,-0.6266666666666667,0.0369540763888265,0.0817452235792077,-1.1721210882652873
1589995610.762423,-2.936341772840133,-1.5158535259256574,8.793658227159867,0.38333333333333336,-0.2933333333333333,-0.6266666666666667,0.035757945875333014,0.08157283874018417,-1.222395429064158
1589995610.772423,-2.8831310147344,-1.5386581365424,8.8468689852656,0.38333333333333336,-0.2933333333333333,-0.6266666666666667,0.03907474204114478,0.08488963490599594,-1.2547341916808228
1589995610.782423,-2.896172793862791,-1.5808639693139543,8.82222242761744,0.4033333333333333,-0.27111111111111114,-0.6344444444444445,0.04279826444677282,0.09079481887661689,-1.3076905483349803
1589995610.792423,-2.922947912553398,-1.6543159708511326,8.76,0.4033333333333333,-0.27111111111111114,-0.6344444444444445,0.04534409347877387,0.09404684698773386,-1.3411480377843248
1589995610.802423,-2.96811752880784,-1.6693725096026133,8.76,0.4033333333333333,-0.27111111111111114,-0.6344444444444445,0.04370167988397727,0.09486805378513215,-1.3657842417062738
1589995610.812423,-2.924850983477577,-1.7213859952793076,8.75,0.4033333333333333,-0.27111111111111114,-0.6344444444444445,0.04667894070008808,0.09847714768769374,-1.4024409883035258
1589995610.822423,-2.9710509834775767,-1.7345859952793077,8.75,0.4033333333333333,-0.27111111111111114,-0.6344444444444445,0.04451909575074509,0.1013569409534844,-1.4197197478982697
1589995610.832423,-2.9208386581469648,-1.8289217252396166,8.809281150159745,0.4483430954916578,-0.2535463258785942,-0.6487158324458644,0.042555469576257506,0.10146033183106612,-1.4515951831481817
1589995610.842423,-3.002460001226016,-1.8847600073560964,8.768019984061791,0.4488888888888889,-0.2533333333333333,-0.6488888888888888,0.047979101672274545,0.10715230843331489,-1.4866976399972525
1589995610.852423,-3.008185873338489,-1.9381635699767972,8.676349443315287,0.4488888888888889,-0.2533333333333333,-0.6488888888888888,0.050972210996474955,0.11116579455435234,-1.509108832655332
1589995610.862423,-2.9930976491537313,-2.006060578808209,8.72915822796194,0.4488888888888889,-0.2533333333333333,-0.6488888888888888,0.048503406087383696,0.11034285958465526,-1.5313280768371533
1589995610.872423,-2.9701966550812466,-2.04970501737813,8.789508362296884,0.4488888888888889,-0.2533333333333333,-0.6488888888888888,0.049076659341532616,0.11017390903214204,-1.5661326792822896
1589995610.882423,-2.9870806994499635,-2.067080699449963,8.798540349724982,0.483050287788815,-0.22012086218062737,-0.6726120825693931,0.05188220812432901,0.11203712430680106,-1.5915864098728072
1589995610.892423,-2.949754986034204,-2.1422051256921644,8.777304846376243,0.4888888888888889,-0.21444444444444444,-0.6766666666666666,0.05555218927450969,0.12209286700679352,-1.6272305030303114
1589995610.902423,-2.939425495169734,-2.231723514490798,8.674021533811862,0.4888888888888889,-0.21444444444444444,-0.6766666666666666,0.05229720880447517,0.11896322404746838,-1.6610963515931052
1589995610.912423,-2.928598657396308,-2.2712107408295372,8.737197314792615,0.4888888888888889,-0.21444444444444444,-0.6766666666666666,0.05188049783690589,0.12167287648843442,-1.6978609829110793
1589995610.922423,-2.920218772476624,-2.3382498201870052,8.72043754495325,0.4888888888888889,-0.21444444444444444,-0.6766666666666666,0.05553691240657334,0.13172801655501992,-1.7271122994684192
1589995610.9324229,-2.9145930367684656,-2.3708139264630685,8.76,0.4955555555555556,-0.1688888888888889,-0.6788888888888889,0.052730434495565665,0.13054997698854987,-1.771055273739665
1589995610.9424229,-2.8578478316653837,-2.4929130100076984,8.734173979984604,0.4955555555555556,-0.1688888888888889,-0.6788888888888889,0.05158680687594517,0.12755842630875475,-1.8131551898294902
1589995610.9524229,-2.85,-2.54,8.671751628646987,0.4955555555555556,-0.1688888888888889,-0.6788888888888889,0.05832176933239398,0.13686158567213882,-1.8563428082678588
1589995610.9624228,-2.826522302717806,-2.5380435252264837,8.731848741916435,0.4955555555555556,-0.1688888888888889,-0.6788888888888889,0.06540236829292365,0.145222694377546,-1.8932671536639007
1589995610.9724228,-2.6815392259941526,-2.5259616021661793,8.496251242240499,0.4955555555555556,-0.1688888888888889,-0.6788888888888889,0.07858170187885756,0.16630962811504024,-1.9176489207978784
1589995610.9824228,-2.575551457176442,-2.623345628470674,8.535018442706011,0.5242626745751873,-0.12391440242479926,-0.6970700642679889,0.08226648621541724,0.13162154965552447,-1.9804093209837446
1589995610.9924228,-2.7277419354838712,-2.7973548387096776,9.016645161290322,0.5288888888888889,-0.11666666666666667,-0.7,0.014131536846792796,0.12529775001010907,-2.074302703141406
1589995611.0024228,-2.69,-2.82,8.76,0.5288888888888889,-0.11666666666666667,-0.7,0.0643590161672909,0.14835298641951802,-2.103121748653167
1589995611.0124228,-2.6640579958819495,-2.8718840082361017,8.587053305879662,0.5288888888888889,-0.11666666666666667,-0.7,0.08039474026987536,0.17665132307113765,-2.1333066410815613
1589995611.0224228,-2.6407730384751376,-2.9523191154254125,8.795361769149176,0.5294901410362179,-0.11271558112707546,-0.702748581244933,0.056301573607448696,0.15842343971140632,-2.1966964185934152
1589995611.0324228,-2.644537163138129,-3.001851347447485,8.720880070983451,0.5366666666666666,-0.06555555555555556,-0.7355555555555555,0.05365265902080759,0.16412451958338392,-2.2415712061528392
1589995611.0424228,-2.6244347797272893,-3.0700173964908792,8.661095647563663,0.5366666666666666,-0.06555555555555556,-0.7355555555555555,0.06035993585239585,0.17150326139533742,-2.267114404168278
1589995611.0524228,-2.589689017015425,-3.1325597693722353,8.60550242722468,0.5366666666666666,-0.06555555555555556,-0.7355555555555555,0.06263404070404101,0.17301933129643418,-2.283033138129794
1589995611.0624228,-2.589000557103064,-3.2239977715877437,8.62499721448468,0.5366666666666666,-0.06555555555555556,-0.7355555555555555,0.06544984694978735,0.1811869322021442,-2.3065607780309993
1589995611.0724227,-2.5775929944203346,-3.2652954122752633,8.670481401115932,0.5379504029758214,-0.06453926431080803,-0.7365718468003031,0.06544984694978735,0.18227376610810572,-2.3216029814460506
1589995611.0824227,-2.5207550026329644,-3.3773959978936285,8.681848999473408,0.5633333333333334,-0.04444444444444445,-0.7566666666666667,0.0648447632870637,0.18435040224190105,-2.328841362618643
1589995611.0924227,-2.486244240389679,-3.405004607688257,8.688751151922064,0.5633333333333334,-0.04444444444444445,-0.7566666666666667,0.06258603918012014,0.18435040224190105,-2.3326059027968817
1589995611.1024227,-2.446976020372073,-3.4603892857984957,8.584341326542642,0.5633333333333334,-0.04444444444444445,-0.7566666666666667,0.05866807962332947,0.1870056290698523,-2.330065169294111
1589995611.1124227,-2.3950911950863265,-3.5749088049136737,8.606545073218232,0.5633333333333334,-0.04444444444444445,-0.7566666666666667,0.05727856392180165,0.1883567470048799,-2.319701398182403
1589995611.1224227,-2.3715285944346656,-3.5984714055653346,8.637961874087113,0.5633333333333334,-0.04444444444444445,-0.7566666666666667,0.054708282911151374,0.18664322633111305,-2.306849993129151
1589995611.1324227,-2.315723511232068,-3.6,8.703322570229256,0.5683589341451789,-0.03439324282075332,-0.7425949843934991,0.04664734382963834,0.1855452893949959,-2.289241109195241
1589995611.1424227,-2.2627893652102227,-3.626909727947238,8.527725680131905,0.5688888888888889,-0.03333333333333333,-0.7411111111111112,0.051067674738610826,0.1940788727083613,-2.263665780760925
1589995611.1524227,-2.1417666941467437,-3.5750428689200326,8.657392827699917,0.5688888888888889,-0.03333333333333333,-0.7411111111111112,0.029379454278270274,0.17427658446196337,-2.2485783230493843
1589995611.1624227,-2.0838569339507678,-3.5607713867901536,8.614628320740922,0.5688888888888889,-0.03333333333333333,-0.7411111111111112,0.02223734187788443,0.1804047479296832,-2.22295095905697
1589995611.1724226,-2.070135334520478,-3.5895939964385652,8.540947341643347,0.5688888888888889,-0.03333333333333333,-0.7411111111111112,0.04226190910170484,0.18645825027645796,-2.1778887501064146
1589995611.1824226,-2.099013310796535,-3.7320621170504964,8.632488907669554,0.5988888888888889,0.006666666666666667,-0.7644444444444445,0.030870995138869702,0.176059120306488,-2.1350738946901338
1589995611.1924226,-2.147317383293977,-3.9722355139216856,8.585528972156629,0.5988888888888889,0.006666666666666667,-0.7644444444444445,0.0332126369549885,0.17186355015434523,-2.09780085968928
1589995611.2024226,-2.09,-4.02504753282028,8.494038026256225,0.5988888888888889,0.006666666666666667,-0.7644444444444445,0.04352311121633777,0.1607822353083527,-2.0488587195153647
1589995611.2124226,-2.09,-4.066324325388234,8.527059460310587,0.5988888888888889,0.006666666666666667,-0.7644444444444445,0.04262259129762088,0.15537911579605135,-2.006534283335671
1589995611.2224226,-2.0314436781609193,-4.121236781609195,8.57391724137931,0.5988888888888889,0.006666666666666667,-0.7644444444444445,0.044937714456305726,0.1469135913180169,-1.969230921518278
1589995611.2324226,-1.960202517697342,-4.191244490450114,8.673328435955655,0.5366666666666666,-0.03333333333333333,-0.7333333333333333,0.04517870846365296,0.14210320133976373,-1.8993621128538818
1589995611.2424226,-1.827152397488981,-4.0651970081474555,8.561286229464404,0.5366666666666666,-0.03333333333333333,-0.7333333333333333,0.04823418565814,0.13675611624941142,-1.864224125117281
1589995611.2524226,-1.895763129284906,-4.233026336225068,8.496973663774932,0.5366666666666666,-0.03333333333333333,-0.7333333333333333,0.04317106040011001,0.12749515272358586,-1.7975943767749119
1589995611.2624226,-1.8306212420403365,-4.279556255685474,8.450443744314525,0.5366666666666666,-0.03333333333333333,-0.7333333333333333,0.036065182816481016,0.12546490198540616,-1.7458229829513292
1589995611.2724226,-1.7773683988259887,-4.315087734116008,8.739473806457061,0.5366666666666666,-0.03333333333333333,-0.7333333333333333,0.040781763380107056,0.12257493145245804,-1.690787689836276
1589995611.2824225,-1.6780845858775637,-4.228084585877564,8.560817089400345,0.5248826392150723,0.027943609414957472,-0.6736275942452551,0.04839293487329584,0.12371557322592093,-1.6384186553888127
1589995611.2924225,-1.630018502072232,-4.259870485494375,8.75946343990527,0.52,0.05333333333333334,-0.6488888888888888,0.04364735914080975,0.10802252141204527,-1.5697983361100816
1589995611.3024225,-1.59,-4.270293142390312,8.400586284780625,0.52,0.05333333333333334,-0.6488888888888888,0.028415961031219003,0.09602188804655873,-1.513852485672406
1589995611.3124225,-1.5878797161887068,-4.366554538806649,8.600795106429235,0.52,0.05333333333333334,-0.6488888888888888,0.04681899099051058,0.10567566843596529,-1.4382372213624492
1589995611.3224225,-1.388928790244481,-4.043259284147282,8.67540170365832,0.52,0.05333333333333334,-0.6488888888888888,0.03868067370703053,0.0930160637727741,-1.384886030281858
1589995611.3324225,-1.4166236142956308,-4.2151149582448095,8.494929005658513,0.5022222222222222,0.13444444444444445,-0.6255555555555555,0.052842592955008115,0.10529179936559754,-1.296847320397718
1589995611.3424225,-1.5243694240239811,-4.237934480051388,10.341847120119905,0.5022222222222222,0.13444444444444445,-0.6255555555555555,0.03500655126105035,0.0699266052699878,-1.250581241668954
1589995611.3524225,-1.0431604342581424,-3.208603404369388,7.940630612518429,0.5022222222222222,0.13444444444444445,-0.6255555555555555,0.13783731042224334,-0.1062972271378538,-1.1974823359178346
1589995611.3624225,-1.3804583835946924,-4.126803377563329,10.142436670687575,0.5022222222222222,0.13444444444444445,-0.6255555555555555,0.17974101716218444,0.07460414098335533,-1.054396508025353
1589995611.3724225,-1.1943280992452503,-3.8029348486162924,9.455882059512449,0.5022222222222222,0.13444444444444445,-0.6255555555555555,-0.15810034065381146,0.2701762243959392,-0.9460825673855655
1589995611.3824224,-1.1512849645520669,-3.9695716784826445,8.007692293527299,0.5366666666666666,0.20777777777777776,-0.6111111111111112,0.04100055374076915,-0.03505056948052621,-0.8874404266043545
1589995611.3924224,-1.1744557591382008,-3.9618480802872664,8.68736893472056,0.5366666666666666,0.20777777777777776,-0.6111111111111112,0.013197596152366382,0.08037383020466105,-0.79981898450757
1589995611.4024224,-1.20583203125,-4.32598046875,8.784613281250001,0.5366666666666666,0.20777777777777776,-0.6111111111111112,0.028997776266105987,0.01999075240657079,-0.717649901900479
1589995611.4124224,-1.1274738451086956,-4.062412024456522,8.307340692934783,0.5366666666666666,0.20777777777777776,-0.6111111111111112,0.020450224115753785,0.047187509248600504,-0.6539317858705808
1589995611.4224224,-1.1081775602726154,-4.133551205452307,8.475279971177232,0.5366666666666666,0.20777777777777776,-0.6111111111111112,0.012101091837289923,0.02817813038233106,-0.5941256182868744
1589995611.4324224,-1.201436111594455,-4.315079171741778,8.861383330433268,0.51,0.2533333333333333,-0.5755555555555556,0.01908665992792013,0.03256826800146052,-0.5230332088466756
1589995611.4424224,-1.2176544283974247,-4.4853714981729595,8.764073429615452,0.51,0.2533333333333333,-0.5755555555555556,0.012894656204784537,0.030799124080564632,-0.47968918278472644
1589995611.4524224,-1.1333101221333803,-4.344501142254635,8.3165506106669,0.51,0.2533333333333333,-0.5755555555555556,0.015437829055016181,0.02108686317912406,-0.43387561945657743
1589995611.4624224,-1.1775507216063585,-4.589503092598679,8.740405772850869,0.51,0.2533333333333333,-0.5755555555555556,0.016362461737446838,0.022754775102900568,-0.3653458813522887
1589995611.4724224,-1.1559092431016484,-4.567878990802198,8.60742520631044,0.51,0.2533333333333333,-0.5755555555555556,0.025998072776845738,0.015899729312862734,-0.3247042064137242
1589995611.4824224,-1.1314408352668213,-4.530480278422274,8.56,0.5111111111111111,0.28444444444444444,-0.5966666666666667,0.019949295577247252,0.012103919104898029,-0.26500076101673586
1589995611.4924223,-1.157981438515081,-4.5393271461716935,8.56,0.5111111111111111,0.28444444444444444,-0.5966666666666667,0.025739556979092706,0.014034006238846514,-0.22350388763684345
1589995611.5024223,-1.194098548174219,-4.591147822261329,8.687869555653322,0.5111111111111111,0.28444444444444444,-0.5966666666666667,0.018740789582539642,0.005811757325406713,-0.18129228477806375
1589995611.5124223,-1.1644604926068625,-4.536028886692352,8.631813083735098,0.5111111111111111,0.28444444444444444,-0.5966666666666667,0.02133005138586276,0.004363323129985824,-0.13421463299387054
1589995611.5224223,-1.1455085903943771,-4.51,8.541611675126903,0.5111111111111111,0.28444444444444444,-0.5966666666666667,0.018987952148734676,0.0019136392026790133,-0.09331288523654914
1589995611.5324223,-1.1432510354256302,-4.51325103542563,8.538271743938237,0.5136396942199346,0.2952812291965454,-0.5919707266074229,0.012762268365548324,-0.0018000966859492565,-0.04447263894329524
1589995611.5424223,-1.1445340980686087,-4.558261313519737,8.63080688261748,0.5188888888888888,0.31777777777777777,-0.5822222222222222,0.010413714450554926,-0.006253679387923478,0.024953953899945643
1589995611.5524223,-1.1482429102288283,-4.5817570897711715,8.622971640915315,0.5188888888888888,0.31777777777777777,-0.5822222222222222,0.0010175255885074511,-0.007827484238475547,0.09783380313413034
1589995611.5624223,-1.15,-4.599341860625258,8.513948836248451,0.5188888888888888,0.31777777777777777,-0.5822222222222222,-0.0017941206811893833,-0.01396542456571154,0.14315674240179552
1589995611.5724223,-1.1622843634686346,-4.646853090405904,8.572843634686347,0.5188888888888888,0.31777777777777777,-0.5822222222222222,-0.0015116534742448291,-0.016783284429195213,0.19268415067563566
1589995611.5824223,-1.1766781238309016,-4.543115647212869,8.65,0.5270510402377686,0.31777777777777777,-0.5874163185351456,-0.002547771391310583,-0.020733283563889218,0.24294539489381617
1589995611.5924222,-1.154072850777428,-4.48,8.572218552332284,0.5311111111111111,0.31777777777777777,-0.59,-0.0023297545983440183,-0.025735659679861623,0.2990646186649101
1589995611.6024222,-1.159006949436856,-4.552055595494847,8.523972202252576,0.5311111111111111,0.31777777777777777,-0.59,-0.00021665002457058784,-0.027162444550126105,0.3447328499074541
1589995611.6124222,-1.1862474828136935,-4.612494965627387,8.59874244844108,0.5311111111111111,0.31777777777777777,-0.59,-0.006680697850452163,-0.03204269659844866,0.38724126668716397
1589995611.6224222,-1.1828209914140322,-4.5769259484841935,8.595641982828065,0.5311111111111111,0.31777777777777777,-0.59,-0.006852707122137195,-0.03585735689624566,0.41384300729285006
1589995611.6324222,-1.2091298532155303,-4.5988398042873735,8.61912985321553,0.5397421787305275,0.323172195039913,-0.612656552500968,-0.007604176047548863,-0.036029055252309365,0.4539272534032323
1589995611.6424222,-1.1774356537578206,-4.429037182228558,8.60371782687891,0.54,0.3233333333333333,-0.6133333333333333,-0.0094119250421173,-0.03954963495166726,0.4824061345529748
1589995611.6524222,-1.238320784910412,-4.44978068679661,8.625620294341406,0.54,0.3233333333333333,-0.6133333333333333,-0.010749057233275565,-0.04129231914317633,0.5175711764734435
1589995611.6624222,-1.2155060590544462,-4.453101211810889,8.567910906298003,0.54,0.3233333333333333,-0.6133333333333333,-0.013918472032406565,-0.04671935709788883,0.5450841763716174
1589995611.6724222,-1.2123984560474168,-4.433468725270111,8.564796912094833,0.54,0.3233333333333333,-0.6133333333333333,-0.013919169203755227,-0.047734923461145363,0.5728148710562331
1589995611.6824222,-1.234197226271915,-4.416295839407873,8.595802773728085,0.5525916788157452,0.31913610706141826,-0.6117010786720329,-0.013143754512087965,-0.0469595087694781,0.6053297337785958
1589995611.6924222,-1.256522665997868,-4.459567997993605,8.58,0.6,0.3033333333333333,-0.6055555555555555,-0.019587829976268574,-0.05269207174821694,0.657252596650019
1589995611.7024221,-1.2350194331983806,-4.411712010796221,8.521712010796222,0.6,0.3033333333333333,-0.6055555555555555,-0.021634103908479845,-0.05345070834232633,0.7051945430536641
1589995611.7124221,-1.2921721282961107,-4.487040979614555,8.522434425659222,0.6,0.3033333333333333,-0.6055555555555555,-0.021138422936341952,-0.05684167191026217,0.7435093657951953
1589995611.7224221,-1.3521679473106478,-4.528916026344676,8.585419868276619,0.6,0.3033333333333333,-0.6055555555555555,-0.023748469781334408,-0.06011393622036933,0.787276733259017
1589995611.732422,-1.38635304973114,-4.46276432594101,8.621823475134429,0.7090203315409335,0.28062076426230553,-0.6300851301522655,-0.02796377978335723,-0.06376228532496497,0.8411077581127809
1589995611.742422,-1.3813680246001285,-4.363680246001287,8.550944196801028,0.7333333333333333,0.27555555555555555,-0.6355555555555555,-0.02741999789691468,-0.06530061861528406,0.8722064099820721
1589995611.752422,-1.4118353887753083,-4.302246916837038,8.611629624744443,0.7333333333333333,0.27555555555555555,-0.6355555555555555,-0.026402594011190186,-0.0706589002571146,0.8863552249593086
1589995611.762422,-1.4845335309373842,-4.338400148203038,8.662266765468692,0.7333333333333333,0.27555555555555555,-0.6355555555555555,-0.02617993877991494,-0.07023495259352394,0.8899070272602326
1589995611.772422,-1.4735504128387023,-4.323550412838702,8.577426444935456,0.7333333333333333,0.27555555555555555,-0.6355555555555555,-0.03339294474488162,-0.06981317007977318,0.885790114938128
1589995611.782422,-1.5187475558299888,-4.410710095708552,8.630710095708553,0.9860410734909038,0.21867300149794744,-0.6598005785965032,-0.023356037541497905,-0.06798220887132231,0.878995530801002
1589995611.792422,-1.5085583563535911,-4.2584668508287296,8.514202923572745,1.0344444444444445,0.20777777777777776,-0.6644444444444444,-0.029301826670267515,-0.06841114867867434,0.8648648971234477
1589995611.802422,-1.5354735573143248,-4.2396629802400545,8.545136537554379,1.0344444444444445,0.20777777777777776,-0.6644444444444444,-0.026533619749594856,-0.06562668743462731,0.8487398750879344
1589995611.812422,-1.5830148506376787,-4.226985149362322,8.560191089617394,1.0344444444444445,0.20777777777777776,-0.6644444444444444,-0.029760455671738458,-0.06363874386018885,0.8356597579670323
1589995611.822422,-1.6059468461275237,-4.293255845785331,8.585681076765143,1.0344444444444445,0.20777777777777776,-0.6644444444444444,-0.02948142206755735,-0.06261948510332718,0.8279695548549632
1589995611.832422,-1.6248306886962212,-4.394492066088664,8.590225748405038,1.3074389734082195,0.08693512914190159,-0.7534285766217714,-0.027810028620926738,-0.0610988364852673,0.8209055708231792
1589995611.842422,-1.6490988372093023,-4.44,8.615494186046512,1.586666666666667,-0.03666666666666667,-0.8444444444444444,-0.02836160034490785,-0.06049195762294664,0.8109787794509334
1589995611.852422,-1.6757876027549432,-4.476837739761534,8.59632452047693,1.586666666666667,-0.03666666666666667,-0.8444444444444444,-0.02836160034490785,-0.05993841694867367,0.7964223159489254
1589995611.862422,-1.6939587973273942,-4.478329621380846,8.57750556792873,1.586666666666667,-0.03666666666666667,-0.8444444444444444,-0.02663424915035333,-0.05804118665753136,0.7852159533558286
1589995611.872422,-1.697212058051567,-4.4076964644125365,8.616544696618805,1.586666666666667,-0.03666666666666667,-0.8444444444444444,-0.024302394504638405,-0.05733143526924846,0.7744698982700712
1589995611.882422,-1.6824911215858462,-4.319964486343385,8.66515981145477,1.1653351556502587,-0.0458441847284102,-0.7743615792456755,-0.024270016425800272,-0.05644758753995398,0.7300026672501558
1589995611.892422,-1.6999314789292854,-4.303356173690238,8.643561736902381,1.0255555555555556,-0.048888888888888885,-0.7511111111111111,-0.02399827721492203,-0.05563236990731925,0.7199483164476609
1589995611.902422,-1.7606364733369277,-4.154420139156333,8.565693085830187,1.0255555555555556,-0.048888888888888885,-0.7511111111111111,-0.02330782941700976,-0.05770371330105607,0.7054489126915031
1589995611.912422,-1.79,-4.07,8.56936406362019,1.0255555555555556,-0.048888888888888885,-0.7511111111111111,-0.019704323982816747,-0.05089705613078655,0.6353807628602653
1589995611.922422,-1.8349821885000102,-4.076426026928573,8.612130134642864,1.0255555555555556,-0.048888888888888885,-0.7511111111111111,-0.017843152504155906,-0.04659461283327637,0.5815032138402353
1589995611.932422,-1.8363849108189039,-4.024898125244109,8.63,0.7815329673508946,0.08055678514082369,-0.7222482243342158,-0.014877285898929416,-0.0406628796228234,0.5287540907301447
1589995611.942422,-1.8887562531117381,-4.0519687522226695,8.646787500889069,0.7155555555555555,0.11555555555555555,-0.7144444444444444,-0.013265184035904825,-0.04201675657951971,0.4862732715525454
1589995611.952422,-1.8615305519700716,-4.036918331182043,8.565367214334156,0.7155555555555555,0.11555555555555555,-0.7144444444444444,-0.014768515713825217,-0.03666748838382468,0.44975171046882123
1589995611.962422,-1.8284474948524365,-4.0731050102951265,8.561552505147564,0.7155555555555555,0.11555555555555555,-0.7144444444444444,-0.01370428855129201,-0.03569025624171577,0.41640182887186344
1589995611.972422,-1.838117994701447,-4.09,8.618314652537192,0.7155555555555555,0.11555555555555555,-0.7144444444444444,-0.015725124901616934,-0.03270347143280871,0.38382227114415773
1589995611.9824219,-1.9017966527196652,-4.085291213389121,8.640582426778243,0.6778852626685262,0.14956345885634587,-0.6961324965132497,-0.013857749951595773,-0.029515964033230042,0.34712754907371696
1589995611.9924219,-1.9901005097798183,-3.9896984706605445,8.648060305867892,0.6355555555555555,0.18777777777777774,-0.6755555555555556,-0.012444242053401035,-0.02573483533397492,0.29464818775142193
1589995612.0024219,-1.994278333050991,-3.9824055564966967,8.618075554802642,0.6355555555555555,0.18777777777777774,-0.6755555555555556,-0.009607552636417622,-0.023426621272917492,0.2599738215954763
1589995612.0124218,-1.9533281972265022,-4.02555469953775,8.571109399075501,0.6355555555555555,0.18777777777777774,-0.6755555555555556,-0.0035145256798152376,-0.021452725257925295,0.2352538778402006
1589995612.0224218,-1.9148552994237034,-4.00456589827111,8.601157604610373,0.6355555555555555,0.18777777777777774,-0.6755555555555556,-0.0038968296601722867,-0.021879753187076873,0.21691748187392534
1589995612.0324218,-1.9440189297415362,-3.9695886421550783,8.660411357844922,0.6128762690611981,0.20516523075678517,-0.6816033652873842,-0.011740230099930003,-0.018803031809970762,0.2049415705693751
1589995612.0424218,-1.9673207505518764,-4.069811258278146,8.648037748344372,0.6022222222222222,0.21333333333333332,-0.6844444444444444,-0.008590810135378655,-0.016362461737446838,0.18982514468239733
1589995612.0524218,-1.9581196564162864,-4.086239312832573,8.574658110289574,0.6022222222222222,0.21333333333333332,-0.6844444444444444,-0.004601068021816368,-0.014418545064284471,0.17183381631226094
1589995612.0624218,-1.9248093653295966,-4.0574046826647985,8.548892976002803,0.6022222222222222,0.21333333333333332,-0.6844444444444444,-0.003959460340716832,-0.015150873369639863,0.13917687482223817
1589995612.0724218,-1.9357953894300701,-4.092992315716783,8.598693084145106,0.6022222222222222,0.21333333333333332,-0.6844444444444444,-0.003425376302092352,-0.013548621253766423,0.1052796831873828
1589995612.0824218,-1.9713151177873551,-4.146054646637935,8.651315117787355,0.6022222222222222,0.21041084936143306,-0.6872208042177497,-0.002181661564992912,-0.009387105752951427,0.07151041861097242
1589995612.0924218,-1.9840598233276487,-4.144358939965892,8.65594017667235,0.6022222222222222,0.19111111111111112,-0.7055555555555556,-0.0008530874878040098,-0.0052164106177898335,-0.0005966574949002948
1589995612.1024218,-1.9770097340930675,-4.080407961380184,8.593708847736625,0.6022222222222222,0.19111111111111112,-0.7055555555555556,0.0029801883723759616,-0.0013831347576098623,-0.06746412003050829
1589995612.1124218,-1.908415900769633,-4.006742509153403,8.530316819846073,0.6022222222222222,0.19111111111111112,-0.7055555555555556,0.007142239612317358,0.004467002182166613,-0.14013499513213615
1589995612.1224217,-1.8988353043815434,-4.091068243505235,8.571068243505234,0.6022222222222222,0.19111111111111112,-0.7055555555555556,0.008726646259971648,0.011448462569505808,-0.2011579305520047
1589995612.1324217,-1.9378857483285894,-4.128942874164294,8.653171377507116,0.599765083147621,0.18128255481270641,-0.7108793568838582,0.00912869470088912,0.017855340960860767,-0.2698465664174125
1589995612.1424217,-1.8859849255039438,-4.1473735319894836,8.65861139351446,0.5955555555555555,0.16444444444444445,-0.72,0.010836682021086704,0.02058253325967695,-0.3393528866089328
1589995612.1524217,-1.8325346719589073,-4.152534671958907,8.556290450618725,0.5955555555555555,0.16444444444444445,-0.72,0.015404833032756977,0.026313140857721535,-0.41325132183228025
1589995612.1624217,-1.7842684413484264,-4.097835551685533,8.504268441348426,0.5955555555555555,0.16444444444444445,-0.72,0.021663608958755715,0.03818567203547016,-0.4774211499497968
1589995612.1724217,-1.7491167848699765,-4.111324822695035,8.583974468085106,0.5955555555555555,0.16444444444444445,-0.72,0.02172027182478948,0.03793821782452686,-0.5383265900156301
1589995612.1824217,-1.687152585929971,-4.14,8.680711853517506,0.5574689652710854,0.14361584038262484,-0.6884595424206732,0.026061604839905612,0.04148853814076105,-0.6170108239447482
1589995612.1924217,-1.6326590397678282,-4.122659039767829,8.69578032007739,0.5244444444444445,0.12555555555555556,-0.6611111111111111,0.024067671404677277,0.04845685010503052,-0.7137687695850131
1589995612.2024217,-1.5188424402317295,-4.014792884923981,8.622644219000735,0.5244444444444445,0.12555555555555556,-0.6611111111111111,0.029578701310185196,0.05448748266969433,-0.8128585459152526
1589995612.2124217,-1.3017942122186494,-3.6278135048231515,8.673099678456593,0.5244444444444445,0.12555555555555556,-0.6611111111111111,0.04692887311089897,0.0560932546816602,-0.9112975731699267
1589995612.2224216,-1.9184539503183573,-4.947840552416824,7.123152183660658,0.5244444444444445,0.12555555555555556,-0.6611111111111111,0.049717466915332145,0.06334957460648193,-0.9763683853759038
1589995612.2324216,-3.4188674640956918,-7.144425731087731,4.337691723006761,0.5238069012725972,0.13357038400163576,-0.6581966280398092,-0.036894186338057015,0.17373133018228382,-1.269806452837482
1589995612.2424216,-5.872837963695152,-5.371144850369902,-0.36678545697365883,0.5166666666666667,0.22333333333333333,-0.6255555555555555,-0.8565197476890345,0.46651083369686874,-5.760134314301715
1589995612.2524216,-0.32192239160562264,-2.283747772718274,-0.1968342902395565,0.5166666666666667,0.22333333333333333,-0.6255555555555555,-0.6345364605451859,-1.0414683031936889,-9.191951003999202
1589995612.2624216,-0.4521511521699418,-2.738081369555573,0.9124998042746418,0.5166666666666667,0.22333333333333333,-0.6255555555555555,-0.10735156692770753,0.271604424719173,-8.77254350815511
1589995612.2724216,-0.6351914959446617,-2.8160138345598797,2.2728628256978056,0.5166666666666667,0.22333333333333333,-0.6255555555555555,0.6080714443156419,1.3980130364095202,-8.21244858029634
1589995612.2824216,-1.9956162682396772,-4.160449342854186,12.941287384870126,0.49876633665643294,0.27461535984913815,-0.6424883001598307,1.4150716587967844,1.7805445388719283,-7.657418510196375
1589995612.2924216,-1.952113514871022,-3.20980662289671,10.515328454059484,0.4755555555555556,0.3411111111111111,-0.6644444444444444,1.9536766791071267,0.8230069546239323,-6.798327629741548
1589995612.3024216,-0.47374670619235837,-0.7175782279314888,-1.18566534914361,0.4755555555555556,0.3411111111111111,-0.6644444444444444,1.0552538359504948,0.13521612855224968,-6.0606200773319765
1589995612.3124216,0.4503393032570091,-1.233800347615809,4.225660092193759,0.4755555555555556,0.3411111111111111,-0.6644444444444444,-0.2754540205957494,0.4611007581271192,-5.496437969187026
1589995612.3224216,0.06479428473059046,-3.1324572980623935,15.320695472542607,0.4755555555555556,0.3411111111111111,-0.6644444444444444,-1.1700810232219856,0.5233314979577836,-4.862587434409666
1589995612.3324215,-0.9766454989532449,-3.4576046755059315,14.923508374040475,0.40473532604481666,0.41895483445762577,-0.6720532294332014,-0.5130448545638375,0.3431012592350208,-4.18418005550063
1589995612.3424215,0.20604677977268984,-3.145325317081206,10.820650634162412,0.3411111111111111,0.4888888888888889,-0.6788888888888889,0.6020476743995916,0.34730697335556865,-3.5764907693711314
1589995612.3524215,0.5862789773958258,-10.957027514985196,6.720986495269734,0.3411111111111111,0.4888888888888889,-0.6788888888888889,0.8267893108596066,0.3866839144680106,-2.740976324119922
1589995612.3624215,-0.039445353159851315,-9.70468996282528,6.682398513011154,0.3411111111111111,0.4888888888888889,-0.6788888888888889,-0.13434444829777203,0.04702899969116878,-0.06816548843091086
1589995612.3724215,-0.20402766065103728,0.5987249114521842,8.702795581042334,0.3411111111111111,0.4888888888888889,-0.6788888888888889,-0.19361961216818777,-0.24060987566113448,1.296071541731771
1589995612.3824215,0.05347713406403542,-0.6992743372388099,5.388767345175747,0.3228705553455837,0.5071294446544163,-0.6742679480949553,0.061334185578907276,-0.38370916598258065,1.5880769922955915
1589995612.3924215,0.2483132383388138,-2.151611557666545,9.65808762635489,0.2577777777777778,0.5722222222222222,-0.6577777777777778,-0.18421081017702368,-0.039787391863152076,1.8481893737814619
1589995612.4024215,0.06722950851430676,-2.639921734245142,10.180254363703288,0.2577777777777778,0.5722222222222222,-0.6577777777777778,-0.1931730950333136,-0.09407951115637342,2.027970314469145
1589995612.4124215,-0.15999566912083152,-2.638475530532698,8.775461238631442,0.2577777777777778,0.5722222222222222,-0.6577777777777778,0.005789576110651395,-0.1627033873935814,2.1759499391114123
1589995612.4224215,-0.09271209084836338,-2.665370323981296,8.529097778891115,0.2577777777777778,0.5722222222222222,-0.6577777777777778,-0.07453227018340888,-0.16897124575766403,2.3508032075179734
1589995612.4324214,0.04732538538091273,-2.918313463452282,9.4131482421756,0.269395418531231,0.5682286582132227,-0.6523320086745966,-0.1445716893164421,-0.2006366739787182,2.4799355807730845
1589995612.4424214,-0.1226988133358448,-3.574903371633076,8.529263138067433,0.2933333333333333,0.56,-0.6411111111111111,-0.06737730323240984,-0.18065624801235497,2.6242642338629873
1589995612.4524214,-0.45453199265601674,-7.174396952590127,8.50018068257863,0.2933333333333333,0.56,-0.6411111111111111,-0.09638608046658792,-0.20460295533332765,2.8887720727311654
1589995612.4624214,-0.4418250656776387,-8.00004017926132,8.584367176634213,0.2933333333333333,0.56,-0.6411111111111111,-0.16808942097595211,-0.2447287541999706,3.3770640962070755
1589995612.4724214,2.9961907875259057,-6.1181160564492245,8.741357445968617,0.30939519666217086,0.5508217923835215,-0.6453724217901904,-0.15190498195193822,-0.32778407339841253,3.994554330239711
1589995612.4824214,8.268557929537156,-10.464326458107173,7.147746965360703,0.3375650788951391,0.5347247168218252,-0.6528460640152637,-0.20213679484560432,-0.3402009260238132,4.103483991907998
1589995612.4924214,10.18,-12.04,6.57,0.3477777777777778,0.5288888888888889,-0.6555555555555556,-0.2203478180642841,-0.3447025272688801,4.14297531192154
1589995612.5024214,3.3491740405647246,-4.61027614833963,5.569953519586399,0.3477777777777778,0.5288888888888889,-0.6555555555555556,-0.14084289629346547,-0.010042275163806347,0.638595581775224
1589995612.5124214,-2.7628774783934924,-1.1266853075749872,4.963797661413319,0.3477777777777778,0.5288888888888889,-0.6555555555555556,0.4662539067299481,0.39117513508443824,-1.6485347956609722
1589995612.5224214,-2.1787907501795916,-1.6048378544795268,5.742227790510724,0.3477777777777778,0.5288888888888889,-0.6555555555555556,0.6458079628613702,0.3167999206652953,-0.8545725931522675
1589995612.5324214,-0.3337627118644068,-0.23762711864406766,7.120474576271187,0.36133333333333334,0.516482109227872,-0.6569340866290019,0.14669640272270984,0.006748359925613671,-0.06909211244388566
1589995612.5424213,-0.6483940182054617,-3.3929730169050716,8.95034622886866,0.4133333333333333,0.4688888888888889,-0.6622222222222223,-0.3430832145053643,-0.09659127492678042,0.27099165851211776
1589995612.5524213,-0.7233481927710843,-3.7830662650602407,9.334632530120482,0.4133333333333333,0.4688888888888889,-0.6622222222222223,-0.11470571951913514,-0.0731755573977719,0.6718035141717137
1589995612.5624213,0.6007452265602734,-3.7181604445711027,7.987418067825591,0.4133333333333333,0.4688888888888889,-0.6622222222222223,0.15094281578656787,-0.04621559986930767,1.0629810239535944
1589995612.5724213,2.15854180309976,-8.093041548424653,7.277451793640399,0.4133333333333333,0.4688888888888889,-0.6622222222222223,-0.012299726264691169,-0.09207149956980946,0.8366621302671866
1589995612.5824213,1.0154889519107175,-11.044640197498623,9.05182665823353,0.4133333333333333,0.4699320135020868,-0.6622222222222223,-0.1994865834969295,-0.1129695899482927,0.1755530933468239
1589995612.5924213,-1.874219712879127,-3.6330932626433023,7.671548180534995,0.4133333333333333,0.4755555555555556,-0.6622222222222223,0.06046808469265754,0.1453386777615547,-0.35059380963897446
1589995612.6024213,0.29468020104464376,-4.383797181432936,8.331715778062483,0.4133333333333333,0.4755555555555556,-0.6622222222222223,0.03705943585788936,-0.01667808992089117,0.10302647871726481
1589995612.6124213,0.16446548854901338,-5.716440684681829,8.578505824550282,0.4133333333333333,0.4755555555555556,-0.6622222222222223,-0.06688493905182516,-0.05327367201277941,0.09698746867354477
1589995612.6224213,-0.2654268113816369,-4.436620709885597,8.46307128190085,0.4133333333333333,0.4755555555555556,-0.6622222222222223,0.021786856992618422,0.012468237442057613,-0.017851674545231677
1589995612.6324213,-0.17893042507062612,-4.678176532422311,8.673962617436436,0.4171907233427501,0.4736268605508472,-0.666079612231639,0.0021268369444942727,0.0076084031672258735,-0.0029569103653119063
1589995612.6424212,-0.23497595620329956,-4.5899839708022,8.5899679416044,0.4266666666666667,0.4688888888888889,-0.6755555555555556,-0.0065414876665028775,0.0005427926198913341,-0.0016353719166257194
1589995612.6524212,-0.25102215868477484,-4.585170359780796,8.554488920657612,0.4266666666666667,0.4688888888888889,-0.6755555555555556,0.0024046619965826096,-0.0016548295430438254,-0.0005268320219490865
1589995612.6624212,-0.24819186928232476,-4.5316850936842625,8.624821681913799,0.4266666666666667,0.4688888888888889,-0.6755555555555556,0.006991781853946085,-0.0016033734296510575,-0.0005782881353418544
1589995612.6724212,-0.22,-4.48,8.7,0.4266666666666667,0.4688888888888889,-0.6755555555555556,0.00545415391248228,-0.001090830782496456,-0.001090830782496456
1589995612.6824212,-0.22017671594639288,-4.659293136214429,8.580044178986599,0.42663230523264584,0.4689527029806419,-0.6755604643318442,-0.006559442234534986,0.0010860116026443726,-4.819179852083462e-06
1589995612.6924212,-0.25768790290632765,-4.5075143155544355,8.585375805812655,0.4188888888888889,0.4833333333333333,-0.6766666666666666,-0.009628319041325726,-0.0003152633352372982,-0.000901672781354077
1589995612.7024212,-0.2168850420433461,-4.605080336346768,8.500655126130038,0.4188888888888889,0.4833333333333333,-0.6766666666666666,-0.004506249479798533,-0.004774575507422212,0.0011622939574028105
1589995612.7124212,-0.21,-4.566443810577175,8.504665715865762,0.4188888888888889,0.4833333333333333,-0.6766666666666666,0.002017959160401367,-0.002599839294022246,-0.0006423954135183745
1589995612.7224212,-0.21287170639899622,-4.60702634880803,8.611486825595986,0.4188888888888889,0.4833333333333333,-0.6766666666666666,0.006998185877982675,-0.00031325457383171436,0.00046432163483302725
1589995612.7324212,-0.22320006878170406,-4.562800275126816,8.641600034390853,0.4179999808939711,0.481022172546547,-0.6743555058798804,-0.0008726833832971818,-0.0012653674591558924,-0.0009162941058370196
1589995612.7424212,-0.23725822554041148,-4.6272582255404116,8.628065804323292,0.4133333333333333,0.4688888888888889,-0.6622222222222223,-0.0057532351104004524,-0.002181661564992912,-0.00029908119791817277
1589995612.7524211,-0.22695001614697335,-4.612375040367433,8.562375040367433,0.4133333333333333,0.4688888888888889,-0.6622222222222223,-0.005047827372129353,-0.0018489599376930491,-0.0012571815961463875
1589995612.7624211,-0.2118999605296207,-4.5747499013240525,8.524749901324052,0.4133333333333333,0.4688888888888889,-0.6622222222222223,0.0023398514034320183,-0.0002072535431238559,-0.002078034793430984
1589995612.7724211,-0.22588372564935066,-4.550193790584415,8.601573660714285,0.4133333333333333,0.4688888888888889,-0.6622222222222223,0.0034864306492918893,0.0015187073861014986,0.0006629541788914135
1589995612.782421,-0.2474496056091148,-4.519351446099912,8.684049079754601,0.4133333333333333,0.46718862596163213,-0.6608997955010225,0.0033432386033217408,0.002808817562642058,-0.0007198909546186076
1589995612.792421,-0.22,-4.62,8.592308611319341,0.4133333333333333,0.4488888888888889,-0.6466666666666666,-0.008067338608660013,-0.0026131846961777332,0.0006833535603804402
1589995612.802421,-0.23540524419631143,-4.635405244196312,8.5153382005583,0.4133333333333333,0.4488888888888889,-0.6466666666666666,-0.00578585620825966,-0.002852379482959084,-0.002852379482959084
1589995612.812421,-0.2429150966651407,-4.631525161108568,8.488474838891433,0.4133333333333333,0.4488888888888889,-0.6466666666666666,0.0010834553727616487,-0.001871049257098897,-0.001560436949204882
1589995612.822421,-0.2006729838504254,-4.561009475775638,8.562018951551277,0.4133333333333333,0.4488888888888889,-0.6466666666666666,0.006544984694978735,-0.0010174196324797553,-7.341115001670071e-05
1589995612.832421,-0.22350044782314263,-4.586499552176857,8.623500447823142,0.41450014927438084,0.44956953152116663,-0.6499726451663013,0.005876765353327565,0.0007089911586957873,-0.0019907417530925777
1589995612.842421,-0.2598055911385728,-4.550453620676663,8.65941677341572,0.4266666666666667,0.4566666666666666,-0.6844444444444444,-0.0011332442165834255,-0.0032442167247647216,0.0
1589995612.852421,-0.2264296031363918,-4.627140793727216,8.541436825091134,0.4266666666666667,0.4566666666666666,-0.6844444444444444,-0.00607793595565413,0.0003118910215859252,-0.0007789397609105307
1589995612.862421,-0.22680856275105318,-4.633191437248946,8.517234251004213,0.4266666666666667,0.4566666666666666,-0.6844444444444444,-0.0025297933641486095,-0.0018335297658372144,-0.0006962635983113951
1589995612.872421,-0.23713800991231415,-4.599966069386199,8.590033930613801,0.4266666666666667,0.4566666666666666,-0.6844444444444444,-0.000154246716442217,-0.0026481029701198753,0.0015572721876234194
1589995612.882421,-0.22857959570435882,-4.551420404295641,8.642840808591282,0.42477279427247844,0.45745578016424504,-0.6812879904541307,0.0017168353462102307,-0.001400714928351577,0.00015494207292756043
1589995612.892421,-0.22,-4.574285369095082,8.65285731545246,0.4133333333333333,0.4622222222222222,-0.6622222222222223,-0.0022595498086144424,-0.003272492347489368,-7.78882436215302e-05
1589995612.902421,-0.22,-4.610700681379503,8.582929699309318,0.4133333333333333,0.4622222222222222,-0.6622222222222223,-0.0059196741489789305,-0.0028834045927410915,-0.002181661564992912
1589995612.912421,-0.22618677295669692,-4.623813227043303,8.50165370534844,0.4133333333333333,0.4622222222222222,-0.6622222222222223,-0.005689721186504921,-0.002181661564992912,-0.0025190976842669925
1589995612.922421,-0.2369931104568619,-4.602482776142155,8.556013779086276,0.4133333333333333,0.4622222222222222,-0.6622222222222223,0.001746832317140806,-0.0020176611813318246,-0.0027804911965061056
1589995612.932421,-0.22445653311015795,-4.571141332775395,8.581086933779684,0.4133333333333333,0.4622222222222222,-0.6622222222222223,0.004481889212527284,-0.001333896957485205,-0.000729198524966247
1589995612.942421,-0.22106512072476417,-4.579467439637618,8.656804637825708,0.43333333333333335,0.4755555555555556,-0.6844444444444444,0.005163687294070359,5.809332368238409e-05,0.0009746441351316877
1589995612.952421,-0.2384956156755184,-4.570752192162241,8.604513152973444,0.43333333333333335,0.4755555555555556,-0.6844444444444444,0.00041025718246240784,0.0010087793460039744,-0.0009267279095114928
1589995612.962421,-0.23585158339804987,-4.613777375097075,8.490371041504876,0.43333333333333335,0.4755555555555556,-0.6844444444444444,-0.005227892886080952,-0.0004525220528026544,-0.0013170918088977832
1589995612.972421,-0.22137475191992406,-4.592062127879886,8.526563120200189,0.43333333333333335,0.4755555555555556,-0.6844444444444444,-0.004438304215613287,-0.0020316993937379846,-0.002106680479365448
1589995612.982421,-0.22969204448246366,-4.58907613344739,8.630615911035074,0.43271742229826066,0.47535025187719804,-0.6837600988499192,-0.0009900525750459706,-0.002248847036626569,0.0010572380466796275
1589995612.992421,-0.22114933398509104,-4.563448001955273,8.647701332029818,0.41563200130351535,0.4696551115456163,-0.6647762977446467,0.001805542897900923,-0.004112577351924497,0.00012537288903066322
1589995613.002421,-0.2322147845769893,-4.594429569153979,8.623422585076128,0.4133333333333333,0.4688888888888889,-0.6622222222222223,-0.0026648526036285765,-0.0006076397438607916,-0.0015740218211321205
1589995613.012421,-0.23891284213215802,-4.611087157867842,8.53108715786784,0.4133333333333333,0.4688888888888889,-0.6622222222222223,-0.004363323129985824,0.0009722402557289323,-0.003272492347489368
