time,acc_x,acc_y,acc_z,mag_x,mag_y,mag_z,gyr_x,gyr_y,gyr_z
1589995672.2783866,-3.78,-0.71,8.75,0.31555555555555553,-0.3144444444444445,-0.6077777777777778,0.001090830782496456,-0.003272492347489368,0.001090830782496456
1589995672.2883866,-3.8359322862646317,-0.7845763816861757,8.824576381686175,0.31555555555555553,-0.3144444444444445,-0.6077777777777778,-0.0077221089364728004,0.0021508551718763275,0.0024466676623378803
1589995672.2983866,-3.8632673592575864,-0.789604155545518,8.822871514803104,0.30283834526432973,-0.31818480041245206,-0.6077777777777778,-0.010886717859163087,0.003985319558619356,0.004741326701352292
1589995672.3083866,-3.914153721464271,-0.82,8.84099959475888,0.2966666666666667,-0.32,-0.6077777777777778,-0.012452239330975346,0.0032472955267671072,0.0129557336959342
1589995672.3183866,-3.88177842959418,-0.82,8.735779896181086,0.2966666666666667,-0.32,-0.6077777777777778,-0.008920642834555067,-0.002932998341968385,0.01825312844056462
1589995672.3283865,-3.8634413183783445,-0.8282793408108277,8.821072748919105,0.2966666666666667,-0.32,-0.6077777777777778,-0.0033078303708336037,-0.002369356365966361,0.017640987320916745
1589995672.3383865,-3.86,-0.83,8.847975438347412,0.2966666666666667,-0.32,-0.6077777777777778,0.0012982798963111792,-0.003921632295644958,0.016583307154617272
1589995672.3483865,-3.861486363175504,-0.8092568184122478,8.9,0.3111111111111111,-0.32,-0.6144444444444445,0.00521094830661087,-0.00529201684190134,0.015433768025531324
1589995672.3583865,-3.8790828527456918,-0.7990828527456917,8.893579969219841,0.3111111111111111,-0.32,-0.6144444444444445,0.001781480582160239,-0.0030724018560730317,0.017253202028526957
1589995672.3683865,-3.871989379154053,-0.791989379154053,8.84392565407837,0.3111111111111111,-0.32,-0.6144444444444445,-0.001313631157273802,-0.001524845986356011,0.015705646158809938
1589995672.3783865,-3.85082709478022,-0.82,8.89917290521978,0.3111111111111111,-0.32,-0.6144444444444445,-0.0077260375221057795,-0.004092656996094061,0.019815398174197387
1589995672.3883865,-3.858028846153846,-0.82,8.891971153846155,0.3111111111111111,-0.32,-0.6144444444444445,-0.008511626730729558,-0.0017358893702227253,0.02138657659144494
1589995672.3983865,-3.86119919828065,-0.8223983965613001,8.857601603438699,0.31555555555555553,-0.32666666666666666,-0.6,-0.0075050032375902,0.0004367695830714964,0.017453292519943295
1589995672.4083865,-3.8710725921301625,-0.8453629606508125,8.830346670828538,0.31555555555555553,-0.32666666666666666,-0.6,-0.006193979741185323,-0.004246321478721353,0.016868284263620942
1589995672.4183865,-3.8792551551922587,-0.8862757759612946,8.75670360326967,0.31555555555555553,-0.32666666666666666,-0.6,-0.0035162422408293553,-0.0033537423119360307,0.012405388429694329
1589995672.4283864,-3.8538332189430338,-0.89,8.776166781056967,0.31555555555555553,-0.32666666666666666,-0.6,0.002436213703667446,-0.008029747390120046,0.006290432556304203
1589995672.4383864,-3.861527035809965,-0.8611824104750884,8.843398696954806,0.31555555555555553,-0.32666666666666666,-0.6,0.00767340826984631,-0.007469241710726807,0.0029393448139925977
1589995672.4483864,-3.87,-0.8278943600350012,8.89,0.3041224511441678,-0.32666666666666666,-0.6047077488752773,0.01288908853231056,-0.0058847244591967345,0.0004305705467144551
1589995672.4583864,-3.86,-0.82,8.89859451779054,0.2966666666666667,-0.32666666666666666,-0.6077777777777778,0.013038864614679777,-0.00431221835470813,-5.110477527769396e-05
1589995672.4683864,-3.86,-0.82,8.848931383577053,0.2966666666666667,-0.32666666666666666,-0.6077777777777778,0.011233062096168978,-0.0025064158361973315,-0.0018569072937884925
1589995672.4783864,-3.8598019562179786,-0.8196039124359571,8.880792175128086,0.2966666666666667,-0.32666666666666666,-0.6077777777777778,0.0032508891221182694,-2.1603225371098885e-05,-0.002181661564992912
1589995672.4883864,-3.851987703772706,-0.8039754075454122,8.912049184909176,0.2966666666666667,-0.32666666666666666,-0.6077777777777778,0.0023984864111681273,-0.0008740059363212404,-0.002181661564992912
1589995672.4983864,-3.863401898395149,-0.813401898395149,8.899897152407277,0.30634581550760764,-0.322199367201617,-0.6122450772428275,0.0014507013993269916,-0.0025527511138282964,-0.0043745420619906725
1589995672.5083864,-3.8502374837148707,-0.82,8.801068676716918,0.3111111111111111,-0.32,-0.6144444444444445,1.2952727326125861e-05,-0.0021946142923190376,-0.0043762758573119495
1589995672.5183864,-3.8573438134053175,-0.8126561865946823,8.748593306162777,0.3111111111111111,-0.32,-0.6144444444444445,0.005607600406401443,-0.0013805757926498487,-0.005164408902328887
1589995672.5283864,-3.8697309335514953,-0.8098654667757477,8.791345332242523,0.3111111111111111,-0.32,-0.6144444444444445,0.006574335291435326,-0.0011201813789530463,-0.004348647831757529
1589995672.5383863,-3.8544803199709117,-0.802240159985456,8.867598400145441,0.3111111111111111,-0.32,-0.6144444444444445,0.008237919166001233,-0.0027837652535189538,-0.0035168558944745753
1589995672.5483863,-3.8603367813326916,-0.7901683906663459,8.880673562665384,0.3111111111111111,-0.32666666666666666,-0.6,0.006434773261577602,-0.0010357250657958893,-0.001090830782496456
1589995672.5583863,-3.8805474489795917,-0.8008211734693877,8.916989030612244,0.3111111111111111,-0.32666666666666666,-0.6,2.985870993925248e-05,0.0021219441451144068,-0.001031113362617951
1589995672.5683863,-3.8974506179712725,-0.8283004119808485,8.815948558067031,0.3111111111111111,-0.32666666666666666,-0.6,0.0007200381967259203,0.00018539629288526785,0.001090830782496456
1589995672.5783863,-3.87,-0.81,8.880150774174185,0.3111111111111111,-0.32666666666666666,-0.6,-0.0033218330806112396,0.0021158739208304166,0.0010579369604152083
1589995672.5883863,-3.87,-0.81,8.8875558341131,0.3111111111111111,-0.32666666666666666,-0.6,-0.005745133278890693,-0.0011151930102088555,-0.0005575965051044277
1589995672.5983863,-3.879159332420627,-0.81,8.880840667579374,0.290757039065273,-0.30834800182541233,-0.62137177564813,-0.003547600169517371,-0.0011825333898391236,-0.002089958957650244
1589995672.6083863,-3.8601967654452953,-0.8296064691094087,8.808425876437635,0.2888888888888889,-0.30666666666666664,-0.6233333333333333,-0.0053682987906182355,-0.002160197784526901,-0.001133758343428478
1589995672.6183863,-3.8684995150147476,-0.813000969970505,8.74200387988202,0.2888888888888889,-0.30666666666666664,-0.6233333333333333,-0.001745540866731318,-0.0012545083035551715,-0.0029451373053719374
1589995672.6283863,-3.878655667506297,-0.8273113350125945,8.764622670025188,0.2888888888888889,-0.30666666666666664,-0.6233333333333333,0.0045742903528575565,-0.006755951917850469,-0.0013841186357046967
1589995672.6383862,-3.8581882100579965,-0.8227294033526654,8.813623579884007,0.2888888888888889,-0.30666666666666664,-0.6233333333333333,0.00545415391248228,-0.00604961735146958,0.0004953673435091556
1589995672.6483862,-3.856177114820169,-0.8323542296403381,8.879416918561352,0.3026158107114869,-0.30666666666666664,-0.6137244880575147,0.004106516513911178,-0.000737423017483421,-0.0009306253153601978
1589995672.6583862,-3.842281869483432,-0.831140934741716,8.918859065258284,0.3111111111111111,-0.30666666666666664,-0.6077777777777778,0.004238866456277467,-0.0007174607613713848,-0.00024891334741671423
1589995672.6683862,-3.846702318830563,-0.823297681169437,8.839572174033245,0.3111111111111111,-0.30666666666666664,-0.6077777777777778,0.003632213560537453,0.0011024979258486575,-0.0014622191388967423
1589995672.6783862,-3.8588641563578547,-0.8111358436421453,8.808864156357854,0.3111111111111111,-0.30666666666666664,-0.6077777777777778,0.0013386334242874451,0.0041155204881948345,-0.006049379411396757
1589995672.6883862,-3.8672492474636737,-0.8172492474636739,8.846246237318368,0.3111111111111111,-0.30666666666666664,-0.6077777777777778,-0.002072250130827468,0.0012002422166619,-0.007335754923309717
1589995672.6983862,-3.87,-0.8294958012596221,8.869495801259621,0.2973949537361014,-0.3193277350128295,-0.6077777777777778,-0.003272492347489368,-0.0020716624636928846,-0.00659998424562875
1589995672.7083862,-3.860853206865402,-0.83,8.888293586269196,0.2966666666666667,-0.32,-0.6077777777777778,-0.0012769716450200153,-0.0011839012137582357,-0.0035517036412747076
1589995672.7183862,-3.86,-0.8398060123329907,8.742909815005138,0.2966666666666667,-0.32,-0.6077777777777778,-2.116077185983613e-05,-0.003230170803769696,-0.0075511723900358475
1589995672.7283862,-3.86,-0.84,8.789980237839337,0.2966666666666667,-0.32,-0.6077777777777778,0.003894284425117362,-0.0009359216924189509,-0.006856958592451719
1589995672.7383862,-3.86,-0.8271538558626782,8.854961504480627,0.2966666666666667,-0.32,-0.6077777777777778,0.008256747804757663,0.0,-0.010048227060322963
1589995672.7483861,-3.8667317061347166,-0.8065365877305669,8.886731706134718,0.2966666666666667,-0.32,-0.6025420063396649,0.010551792269515007,0.0,-0.011264823380414112
1589995672.7583861,-3.8793899300514716,-0.8,8.918169790154415,0.2966666666666667,-0.32,-0.6,0.00885974287583782,-0.0020485649491267417,-0.00885974287583782
1589995672.7683861,-3.850513335948225,-0.8098288880172584,8.792224455775642,0.2966666666666667,-0.32,-0.6,0.0033658194565037002,-0.002181661564992912,-0.006582315538584469
1589995672.778386,-3.85,-0.8192258309846553,8.826903323938621,0.2966666666666667,-0.32,-0.6,-0.0027657999118135884,-0.002181661564992912,-0.002519456522110099
1589995672.788386,-3.8635901963554176,-0.82,8.857180392710834,0.2966666666666667,-0.32,-0.6,-0.004754952799955416,-0.0006992011125268639,-0.00366412201745896
1589995672.798386,-3.875073350675935,-0.82,8.87,0.3000489004506233,-0.32676446756791333,-0.6,-0.007114404038795012,0.0005534167087709108,-0.0038099064212149133
1589995672.808386,-3.8581622164689517,-0.8272792611770161,8.87,0.3033333333333333,-0.3333333333333333,-0.6,-0.007932602043399592,0.001884874999068512,-0.0016844039143452557
1589995672.818386,-3.840806553577073,-0.811613107154146,8.778065535770729,0.3033333333333333,-0.3333333333333333,-0.6,-0.006632966041939123,0.0011788121294568435,-8.79813469603875e-05
1589995672.828386,-3.84,-0.8178325946817083,8.816995568090249,0.3033333333333333,-0.3333333333333333,-0.6,-0.0014185634636034693,-0.0006179762946286328,-0.0017088070771250888
1589995672.838386,-3.850510633995079,-0.830510633995079,8.856276584987699,0.3033333333333333,-0.3333333333333333,-0.6,0.0028663307763464796,-0.001090830782496456,-0.001608395409723616
1589995672.848386,-3.8550144623617038,-0.8350144623617036,8.904927688191481,0.3033333333333333,-0.3372109737186749,-0.5966763082411358,0.006541829497111944,-0.001090830782496456,-0.0021785063671261205
1589995672.858386,-3.8616082614897973,-0.83,8.895175215530609,0.3033333333333333,-0.3411111111111111,-0.5933333333333334,0.007002683029258244,-0.001723963230713403,-0.003905624795706315
1589995672.868386,-3.87,-0.8208800606647849,8.797040485318279,0.3033333333333333,-0.3411111111111111,-0.5933333333333334,0.003560491526572879,-0.0001919994527223405,-0.0033684920738505384
1589995672.878386,-3.8633700425871704,-0.8067400851743413,8.823149787064146,0.3033333333333333,-0.3411111111111111,-0.5933333333333334,0.0003796276944674254,-0.0028928646530219427,-0.003272492347489368
1589995672.888386,-3.8761559093053863,-0.8053853031017956,8.856155909305386,0.3033333333333333,-0.3411111111111111,-0.5933333333333334,-0.0016782762221476753,-0.0031884322506833852,-0.003272492347489368
1589995672.898386,-3.8791167016072676,-0.8208832983927323,8.875441649196366,0.30998423790666974,-0.32962318502989363,-0.6048212594145509,-0.0033688452551815778,-0.00396243710027591,-0.0014917168122063694
1589995672.908386,-3.87,-0.8473113079809663,8.862688692019033,0.31555555555555553,-0.32,-0.6144444444444445,-0.004363323129985824,-0.002621597767845075,0.0009441853815457351
1589995672.918386,-3.8434654649130873,-0.8588448450289708,8.762706704681321,0.31555555555555553,-0.32,-0.6144444444444445,-0.0024336772851833925,-0.004111307409795343,0.00012600786009524028
1589995672.928386,-3.867757255275425,-0.8322427447245752,8.80551451055085,0.31555555555555553,-0.32,-0.6144444444444445,0.0008461852842116383,-0.0013354762807812736,-0.0010092822830681835
1589995672.938386,-3.87,-0.7952960877930593,8.865526259531105,0.31555555555555553,-0.32,-0.6144444444444445,0.0018479526966641664,0.0019376568741743857,0.0011805349600066755
1589995672.948386,-3.8642918702184534,-0.78,8.895708129781546,0.30477353263485624,-0.32,-0.6144444444444445,0.000313680462134143,0.003272492347489368,0.000313680462134143
1589995672.958386,-3.865210376957969,-0.78,8.9,0.2966666666666667,-0.32,-0.6144444444444445,-0.002227558697329087,-0.0007060553544248399,4.5897132336174826e-05
1589995672.968386,-3.862822343553129,-0.8158882822343553,8.799512809743804,0.2966666666666667,-0.32,-0.6144444444444445,-0.0064043357868618055,-0.004363323129985824,0.001090830782496456
1589995672.978386,-3.866847977684798,-0.8368479776847977,8.801087866108787,0.2966666666666667,-0.32,-0.6144444444444445,-0.008382813963117814,-0.0036163246443432022,-0.00040316618878878793
1589995672.988386,-3.865924740163326,-0.8522257795100222,8.828150519673349,0.2966666666666667,-0.32,-0.6144444444444445,-0.009171188147623206,-0.0028279504598378103,0.00024279488045821735
1589995672.998386,-3.86,-0.8640969234515788,8.84590307654842,0.2976505127580702,-0.3209838460914035,-0.6157562392329825,-0.009173551281423034,-0.0020206801247316442,0.0018596986844703766
1589995673.008386,-3.872634468611421,-0.83,8.873682765694289,0.3033333333333333,-0.32666666666666666,-0.6233333333333333,-0.0026977404561175887,0.0023546860379594073,-0.0006891033640911727
1589995673.018386,-3.8873450584195837,-0.8079648247412494,8.818584591062915,0.3033333333333333,-0.32666666666666666,-0.6233333333333333,0.001312833964498489,0.0035621015476541757,0.002114055546830137
1589995673.0283859,-3.87836658586612,-0.8116334141338802,8.82326682826776,0.3033333333333333,-0.32666666666666666,-0.6233333333333333,0.0009126529407163151,0.003272492347489368,0.0026379880353510697
1589995673.0383859,-3.8749733588272783,-0.82,8.854920076481836,0.3033333333333333,-0.32666666666666666,-0.6233333333333333,0.0016275278703587659,0.003272492347489368,0.0010966429847537346
1589995673.0483859,-3.8749894043915414,-0.8250105956084584,8.880021191216917,0.3033333333333333,-0.3339041936566622,-0.608301546507958,0.0027259211546545644,0.0027259211546545644,-0.0005465711928348039
1589995673.0583858,-3.862021023802811,-0.83,8.858084095211245,0.3033333333333333,-0.3411111111111111,-0.5933333333333334,0.0013112902801229096,0.002181661564992912,-0.001090830782496456
1589995673.0683858,-3.8733638551600587,-0.83,8.796544579359765,0.3033333333333333,-0.3411111111111111,-0.5933333333333334,-0.0010958249047159526,0.0007238911068513062,-0.001090830782496456
1589995673.0783858,-3.8638402300030803,-0.83,8.850798849984598,0.3033333333333333,-0.3411111111111111,-0.5933333333333334,-0.002181661564992912,-0.001762757455070256,-0.001090830782496456
1589995673.0883858,-3.8476121311307727,-0.8361939344346135,8.888581803303842,0.3033333333333333,-0.3411111111111111,-0.5933333333333334,-0.0028573149995970433,-0.0028573149995970433,0.0016117829559200694
1589995673.0983858,-3.8473315394102476,-0.8326684605897522,8.885336921179505,0.2927433319629754,-0.325633416800588,-0.6039233347036912,-0.0008732516859541089,-0.0008732516859541089,0.0024727454603109484
1589995673.1083858,-3.875757104795737,-0.8214142984014209,8.862828596802842,0.2888888888888889,-0.32,-0.6077777777777778,0.002809664277917715,0.0018731095186118095,0.0012451068056870073
1589995673.1183858,-3.863538290182529,-0.82,8.818845725456322,0.2888888888888889,-0.32,-0.6077777777777778,0.005068186327631512,0.003977355545135056,0.001090830782496456
1589995673.1283858,-3.86,-0.82,8.85950963814677,0.2888888888888889,-0.32,-0.6077777777777778,0.010854817644558071,0.007063654996023719,0.00019072016048382406
1589995673.1383858,-3.8739671062339855,-0.8293114041559905,8.883967106233985,0.2888888888888889,-0.32,-0.6077777777777778,0.011491280293380021,0.004588665592989231,0.0010157166281619871
1589995673.1483858,-3.887537147537148,-0.8391790491790492,8.897537147537149,0.2907132240465574,-0.3205473005473006,-0.6065919599252932,0.011176963352887226,0.0008221752545737883,0.002092109722352023
1589995673.1583858,-3.8541199207768977,-0.8064796831075901,8.858239841553795,0.3111111111111111,-0.32666666666666666,-0.5933333333333334,0.010973714462414911,-0.004747330133024124,0.001090830782496456
1589995673.1683857,-3.8566971017500173,-0.79,8.789726084249844,0.3111111111111111,-0.32666666666666666,-0.5933333333333334,0.005073943888756774,-0.005814444220735761,0.001090830782496456
1589995673.1783857,-3.86,-0.7957384474734043,8.782953789893618,0.3111111111111111,-0.32666666666666666,-0.5933333333333334,0.0007686222883980182,-0.0023243163386180926,0.0017167982972692934
1589995673.1883857,-3.8552837495874135,-0.8,8.847162504125867,0.3111111111111111,-0.32666666666666666,-0.5933333333333334,-0.0026342201208997924,0.0010289262256022243,0.0016671984521917998
1589995673.1983857,-3.85380781482268,-0.8076156296453599,8.90761562964536,0.30814947736013776,-0.3220126707722801,-0.5907947901182133,-0.004363323129985824,0.003012397889518032,0.0006754626202338959
1589995673.2083857,-3.870267036100068,-0.8302670361000682,8.935400554150101,0.3033333333333333,-0.3144444444444445,-0.5866666666666667,-0.0026833832765422996,0.003243363227690141,0.0005599799511478414
1589995673.2183857,-3.8644904963727607,-0.8244904963727605,8.841433474609325,0.3033333333333333,-0.3144444444444445,-0.5866666666666667,0.003138730211961838,0.0038734859627762293,-0.0006009936152868614
1589995673.2283857,-3.86,-0.8264811643835616,8.842405821917808,0.3033333333333333,-0.3144444444444445,-0.5866666666666667,0.006484279214788437,0.0029493524067840822,-0.00038384542089558516
1589995673.2383857,-3.86,-0.8116373886441036,8.873771958516922,0.3033333333333333,-0.3144444444444445,-0.5866666666666667,0.007635815477475192,0.0011801364792913768,-0.0010015250857015351
1589995673.2483857,-3.8649753552797264,-0.7949753552797266,8.880049289440548,0.307203054106454,-0.3277120585237153,-0.5866666666666667,0.007635815477475192,0.0,-0.0016389344956947113
1589995673.2583857,-3.87,-0.810350734396389,8.844123164009027,0.3111111111111111,-0.3411111111111111,-0.5866666666666667,0.005377635537269979,0.0,0.0006028041726574538
1589995673.2683856,-3.8639230710290398,-0.82,8.7592307102904,0.3111111111111111,-0.3411111111111111,-0.5866666666666667,-4.195824479451531e-05,-0.0006628901184567766,0.002181661564992912
1589995673.2783856,-3.8525179363730766,-0.82,8.764892381761541,0.3111111111111111,-0.3411111111111111,-0.5866666666666667,-0.0013654950329083952,-0.0035393303787500064,0.0013654950329083952
1589995673.2883856,-3.8542913402033565,-0.8242913402033563,8.822913402033564,0.3111111111111111,-0.3411111111111111,-0.5866666666666667,-0.0015589433816950255,-0.003895210530787254,0.0006227181832978864
1589995673.2983856,-3.860290028149791,-0.8302900281497909,8.880580056299582,0.3113850265859137,-0.340901646336262,-0.5869728074914461,-0.002197480146672038,-0.003272492347489368,-1.581858167912629e-05
1589995673.3083856,-3.860762867647059,-0.8355721507352941,8.915190716911765,0.33,-0.32666666666666666,-0.6077777777777778,-0.0006494353302960287,-0.003797103750928036,-4.160797561912036e-05
1589995673.3183856,-3.850038319515084,-0.82,8.854789242667039,0.33,-0.32666666666666666,-0.6077777777777778,0.002181661564992912,-0.0032683123368269767,-0.0005516854072418152
1589995673.3283856,-3.86,-0.796673305639333,8.827214476754111,0.33,-0.32666666666666666,-0.6077777777777778,0.000909387751867813,0.0007869773322989851,-0.0017575702939512123
1589995673.3383856,-3.862928857685238,-0.774644288426191,8.864142284629523,0.33,-0.32666666666666666,-0.6077777777777778,-0.0014103195945573699,0.004815176288360452,-0.002049297218679198
1589995673.3483856,-3.87,-0.8158230640738756,8.844176935926123,0.31900087897156826,-0.3227846239507496,-0.616835877448251,-0.003452057073039464,0.0013668990854195403,-0.00817450965412548
1589995673.3583856,-3.8760425442291493,-0.8502127211457455,8.815829823083403,0.3111111111111111,-0.32,-0.6233333333333333,-0.0037041838050106066,-0.003295696624876087,-0.0161814224247663
1589995673.3683856,-3.875691583393811,-0.8613831667876216,8.778457916969055,0.3111111111111111,-0.32,-0.6233333333333333,-0.0018625663101343496,-0.004984178566697274,-0.020574904776506222
1589995673.3783855,-3.8660131292564768,-0.8539868707435231,8.793855578178754,0.3111111111111111,-0.32,-0.6233333333333333,0.001739600533147827,-0.00479822326327278,-0.019642114983494333
1589995673.3883855,-3.8559707721035967,-0.8479123163107899,8.87208768368921,0.3111111111111111,-0.32,-0.6233333333333333,0.0030447613842587607,-0.0023775098391191326,-0.014604379409810754
1589995673.3983855,-3.8556109644523198,-0.8281296785158934,8.910573536325174,0.3119423651040474,-0.3175062380211912,-0.6204239443580564,0.0008868103576936617,0.002793722839401295,-0.010162954784235867
1589995673.4083855,-3.8727669379715315,-0.82,8.989150406957297,0.31555555555555553,-0.30666666666666664,-0.6077777777777778,0.0007890046712359618,0.004665149241246318,-0.001787159229374931
1589995673.4183855,-3.8660701291431767,-0.8230350645715885,8.927509095997761,0.31555555555555553,-0.30666666666666664,-0.6077777777777778,0.0031748841234588584,0.003272492347489368,-9.760822403050932e-05
1589995673.4283855,-3.875053253721709,-0.83,8.839893492556582,0.31555555555555553,-0.30666666666666664,-0.6077777777777778,0.004914547601126315,0.004351704970201297,0.0016420552536369473
1589995673.4383855,-3.866088366061504,-0.8339116339384957,8.846088366061505,0.31555555555555553,-0.30666666666666664,-0.6077777777777778,0.003936630058988924,0.00545415391248228,0.0023709099954871563
1589995673.4483855,-3.8696617075128095,-0.8303382924871906,8.84,0.31412419147958376,-0.31525485112249724,-0.6031258445308695,0.003272492347489368,0.005805463511363939,0.004012013531104164
1589995673.4583855,-3.903706059336558,-0.7997204554975816,8.829720455497581,0.3111111111111111,-0.3333333333333333,-0.5933333333333334,-9.148072449469396e-05,0.004676110766098701,0.004020041919041381
1589995673.4683855,-3.8654032641796725,-0.78,8.768892986296155,0.3111111111111111,-0.3333333333333333,-0.5933333333333334,-0.011669647086368157,0.0004502479835727782,0.017625227092032153
1589995673.4783854,-3.813605137939104,-0.8119743103044801,8.784764034426273,0.3111111111111111,-0.3333333333333333,-0.5933333333333334,-0.015969202193534794,-0.002092713715753231,0.031062937450005816
1589995673.4883854,-3.825110321816812,-0.8501470957557493,8.8502941915115,0.3111111111111111,-0.3333333333333333,-0.5933333333333334,-0.015263608126033086,-0.0027230655417824923,0.027222632588907624
1589995673.4983854,-3.8483857134465134,-0.8658071432767432,8.894192856723258,0.30785000032635584,-0.3305380955178288,-0.6119682521033635,-0.009607102992128216,-0.0008095524108951992,0.016609457405139524
1589995673.5083854,-3.854717053062975,-0.8652829469370249,8.9,0.3033333333333333,-0.32666666666666666,-0.6377777777777778,-0.00039109177688827863,0.001090830782496456,0.007450627140243252
1589995673.5183854,-3.8676645130413974,-0.8523354869586025,8.858782802903406,0.3033333333333333,-0.32666666666666666,-0.6377777777777778,0.0053931606622206535,0.0030177302408331006,0.00564792276887692
1589995673.5283854,-3.874207394443229,-0.828414788886458,8.853170422227084,0.3033333333333333,-0.32666666666666666,-0.6377777777777778,0.008267690722693769,0.004363323129985824,0.00780873518541589
1589995673.5383854,-3.8625949232951307,-0.7940822315329562,8.87,0.3033333333333333,-0.32666666666666666,-0.6377777777777778,0.011553836225718383,0.003959438849164862,0.008726646259971648
1589995673.5483854,-3.852603266844668,-0.75,8.866095099732998,0.3033333333333333,-0.32753442228155594,-0.6319927403451826,0.015510544654682015,0.0038404370693325834,0.008868632440432452
1589995673.5583854,-3.8737054373876574,-0.7611163121629718,8.836294562612343,0.3033333333333333,-0.3333333333333333,-0.5933333333333334,0.0065838729104122536,0.006827414444461229,0.009009076009454142
1589995673.5683854,-3.8739328790584118,-0.7891006814123821,8.796630834821267,0.3033333333333333,-0.3333333333333333,-0.5933333333333334,-0.0008946299027674722,0.004130513455639661,0.0059812649064219185
1589995673.5783854,-3.8643836905585003,-0.8275347622340017,8.772604286702006,0.3033333333333333,-0.3333333333333333,-0.5933333333333334,-0.005932340372697414,-0.001778287978794349,0.0017034751047777777
1589995673.5883853,-3.8730658555426807,-0.8408024333719583,8.846131711085361,0.3033333333333333,-0.3333333333333333,-0.5933333333333334,-0.0058761187748500665,-0.004116422072224942,0.0007563978224321216
1589995673.5983853,-3.8768679808558026,-0.8231320191441974,8.878792114865185,0.3033333333333333,-0.33124532057053496,-0.5978573609860631,-0.005388273998143478,-0.00040753020372468645,0.0
1589995673.6083853,-3.87,-0.8077204567340762,8.915544091346815,0.3033333333333333,-0.32666666666666666,-0.6077777777777778,-0.0056915585483206885,0.001090830782496456,0.0
1589995673.6183853,-3.852185301016419,-0.7978146989835809,8.838741204065675,0.3033333333333333,-0.32666666666666666,-0.6077777777777778,-0.005863535285115821,-0.0015002121551299966,0.0
1589995673.6283853,-3.8519194894452626,-0.8159597447226313,8.807879234167894,0.3033333333333333,-0.32666666666666666,-0.6077777777777778,-0.0069857081775484865,-0.003272492347489368,0.0006501072999267047
1589995673.6383853,-3.86,-0.8293423030391904,8.834013454558786,0.3033333333333333,-0.32666666666666666,-0.6077777777777778,-0.005525897521522814,-0.001743861587305485,7.174360904053391e-05
1589995673.6483853,-3.867960420531849,-0.8479604205318491,8.865920841063698,0.3033333333333333,-0.329320140177283,-0.6077777777777778,-0.0047974967178737145,-0.0013025207636636717,-0.0006566571946085653
1589995673.6583853,-3.88,-0.8499244614798377,8.88496223073992,0.3033333333333333,-0.3333333333333333,-0.6077777777777778,-0.0038055477772790084,-0.004371563104291549,-0.0005495353784010905
1589995673.6683853,-3.88,-0.8242863187961176,8.83809685012298,0.3033333333333333,-0.3333333333333333,-0.6077777777777778,0.0006751662955955828,-0.006596885056717678,-0.0016621963546141548
1589995673.6783853,-3.8685012249603687,-0.7812530624009224,8.834496325118893,0.3033333333333333,-0.3333333333333333,-0.6077777777777778,0.0007638487926430724,-0.007008654588763617,-0.0009273397875697641
1589995673.6883852,-3.86,-0.7816830620640315,8.886019674476838,0.3033333333333333,-0.3333333333333333,-0.6077777777777778,-0.002509983875990057,-0.0032336274768270004,0.0009461020623290671
1589995673.6983852,-3.8509180067149673,-0.8372459798550981,8.941191317665076,0.3033333333333333,-0.3356879241850085,-0.6013867454660881,-0.004693553724710483,0.0017512919719457742,0.001190969780818935
1589995673.7083852,-3.808110546226399,-0.878110546226399,8.977491740700799,0.3033333333333333,-0.3411111111111111,-0.5866666666666667,-0.0013608356287776093,0.003954712061440146,-0.0017730504964472344
1589995673.7183852,-3.7651060365530995,-0.8394826393128993,8.946352831033499,0.3033333333333333,-0.3411111111111111,-0.5866666666666667,0.009147624264972213,0.005692860563139704,-0.00462516336788144
1589995673.7283852,-3.753371422860379,-0.9440357130959123,8.890421427857547,0.3033333333333333,-0.3411111111111111,-0.5866666666666667,0.01930614584560423,0.010816366529041714,-0.019726895380859054
1589995673.7383852,-3.581583745767127,-0.8947705875786105,8.861984519778215,0.3033333333333333,-0.3411111111111111,-0.5866666666666667,0.000743200267805143,0.015577654594634855,-0.014309842373084905
1589995673.7483852,-3.247113817792774,-0.6296646366554193,8.792919718541684,0.30111856362987954,-0.33852721312374834,-0.5984787717517535,0.0076723979434341495,0.021095492205924642,0.03228205120448378
1589995673.7583852,-2.6489315870454457,-0.7623623672458438,8.933203737756594,0.2966666666666667,-0.3333333333333333,-0.6222222222222222,-0.008744289824622675,0.010075171333600884,0.12389937424029576
1589995673.7683852,-1.990658160298293,-0.6060903773133103,8.701851674477474,0.2966666666666667,-0.3333333333333333,-0.6222222222222222,0.014499582622933428,0.0036630689492883756,0.24005027507008153
1589995673.7783852,-1.901146328390209,-0.5718048954797214,8.667707343219583,0.2966666666666667,-0.3333333333333333,-0.6222222222222222,0.02918370904719954,0.007295254871912513,0.29357715754226243
1589995673.7883852,-1.9746593491316344,-0.7848111102093815,8.72803035221555,0.2966666666666667,-0.3333333333333333,-0.6222222222222222,0.01138345483984478,-0.007036686275378097,0.2969662646105208
1589995673.7983851,-2.110572693318578,-0.979140960022133,8.770572693318577,0.2966666666666667,-0.3299045511135703,-0.6073641659365826,0.0022441327150763994,-0.006513749119936992,0.26609903260706946
1589995673.8083851,-2.13,-0.95,8.79,0.2966666666666667,-0.32666666666666666,-0.5933333333333334,0.004363323129985824,-0.00545415391248228,0.2454369260617026
1589995673.8183851,-2.2226510963700017,-0.9227496775382348,8.82815045144647,0.2966666666666667,-0.32666666666666666,-0.5933333333333334,0.0031743035070158987,-0.00783219315842213,0.1895530037821161
1589995673.828385,-2.333257725262921,-0.8722852289475657,8.90988658789438,0.2966666666666667,-0.32666666666666666,-0.5933333333333334,0.00157701905711617,-0.00860819202671462,0.10903885206593816
1589995673.838385,-2.35598778071884,-0.85802443856232,8.9299389035942,0.2966666666666667,-0.32666666666666666,-0.5933333333333334,0.004154487391107047,-0.002821497949658549,0.059929047197158546
1589995673.848385,-2.343590660421211,-0.8721364465262631,8.904272893052527,0.2980909643508421,-0.32524236898249126,-0.5978436093332221,0.008959696423572189,0.005295523784387987,0.013986910237180574
1589995673.858385,-2.3249276328788775,-0.8898552657577554,8.89536183560561,0.3033333333333333,-0.32,-0.6144444444444445,0.00874243431664382,0.00980168898579593,-0.06823290954043938
1589995673.868385,-2.3646335375014447,-0.9,8.795785276782619,0.3033333333333333,-0.32,-0.6144444444444445,0.00817552017480835,0.01576565010096299,-0.1376188988813222
1589995673.878385,-2.409724495230717,-0.887034006359044,8.739448990461435,0.3033333333333333,-0.32,-0.6144444444444445,0.009080238884701854,0.021432970116893074,-0.1974863928985905
1589995673.888385,-2.430079643944718,-0.8599601780276411,8.780039821972359,0.3033333333333333,-0.32,-0.6144444444444445,0.00980878923581435,0.022911790335752455,-0.24777931204978998
1589995673.898385,-2.4816075384751723,-0.84,8.816250553865242,0.3051389504294712,-0.32154767179668964,-0.6165080068400306,0.006720339940255246,0.02635529402519145,-0.3470796187424732
1589995673.908385,-2.524326912642431,-0.84,8.87,0.3111111111111111,-0.32666666666666666,-0.6233333333333333,0.012324286676025543,0.03195924076096175,-0.442573042911281
1589995673.918385,-2.544062583578497,-0.84,8.845390478737631,0.3111111111111111,-0.32666666666666666,-0.6233333333333333,0.016481785029781967,0.035349744162275494,-0.5129718548526919
1589995673.928385,-2.5710291331896267,-0.842058266379254,8.806174799137763,0.3111111111111111,-0.32666666666666666,-0.6233333333333333,0.021062567916192834,0.03907716551740309,-0.569860646155919
1589995673.938385,-2.5925209749684295,-0.8750251699621153,8.882537754943172,0.3111111111111111,-0.32666666666666666,-0.6233333333333333,0.025364103707165072,0.04772521954269343,-0.6583465790230278
1589995673.948385,-2.6287994533534,-0.9185593440240801,8.94783901603612,0.3111111111111111,-0.32666666666666666,-0.6233333333333333,0.02932147180361091,0.050099640400560926,-0.7105838378961128
1589995673.958385,-2.6081095083299473,-0.93,8.905945245835026,0.31555555555555553,-0.3333333333333333,-0.6144444444444445,0.02703468514732518,0.058728505368345486,-0.8123787724149626
1589995673.968385,-2.636069191251382,-0.9500864890642273,8.835723234994473,0.31555555555555553,-0.3333333333333333,-0.6144444444444445,0.025527327209089238,0.06502106223147747,-0.8782319938299773
1589995673.978385,-2.67055822741326,-0.98,8.747038818275506,0.31555555555555553,-0.3333333333333333,-0.6144444444444445,0.026947754744647074,0.06878323246187848,-0.9419587989509478
1589995673.988385,-2.6940968018463565,-0.9861452027695351,8.766145202769534,0.31555555555555553,-0.3333333333333333,-0.6144444444444445,0.02813815446671814,0.07246812200959762,-0.9994913814597268
1589995673.998385,-2.705159907682163,-1.0027398615232443,8.782739861523243,0.31555555555555553,-0.3333333333333333,-0.6144444444444445,0.027534755646932467,0.07669191374809735,-1.032678316547939
1589995674.008385,-2.7007655876942347,-1.0284688246115308,8.817703236917296,0.3473629757198585,-0.31589055453355436,-0.6226528109384581,0.03230736016310788,0.07652518009946624,-1.1036073659243983
1589995674.018385,-2.7,-1.054019101393561,8.811993632868813,0.35,-0.3144444444444445,-0.6233333333333333,0.03709171933622696,0.08247166898061849,-1.1484585969406655
1589995674.028385,-2.68,-1.088500232162204,8.770200278594645,0.35,-0.3144444444444445,-0.6233333333333333,0.04456046278994809,0.08763735519575241,-1.2202580827643714
1589995674.038385,-2.718372493251934,-1.1464453542508286,8.841927139001106,0.35,-0.3144444444444445,-0.6233333333333333,0.04699449037032317,0.09094304905186464,-1.2738567385954382
1589995674.048385,-2.82,-1.191583622366974,8.899208188816514,0.35096776922426187,-0.31413651787308844,-0.6239051969658517,0.041624316137439846,0.09507502447976618,-1.3097631320409269
1589995674.058385,-2.82,-1.2270653920988073,8.881467303950597,0.37265107294927113,-0.3072372848696764,-0.6367180582579026,0.04549477680153331,0.09894548514385963,-1.3513705841799315
1589995674.068385,-2.7956113908725633,-1.2921943045637183,8.840251258926534,0.3744444444444445,-0.30666666666666664,-0.6377777777777778,0.04509680837556822,0.0987868782143222,-1.4073014385282792
1589995674.0783849,-2.780892741213833,-1.2995536293930834,8.774017335462249,0.3744444444444445,-0.30666666666666664,-0.6377777777777778,0.04268847495688967,0.09718132260186983,-1.4370042173586481
1589995674.0883849,-2.715683089500861,-1.386475365748709,8.79,0.3744444444444445,-0.30666666666666664,-0.6377777777777778,0.041537993666804725,0.10129823576122263,-1.4854611134441396
1589995674.0983849,-2.7006432874354562,-1.4090350688468158,8.79,0.3744444444444445,-0.30666666666666664,-0.6377777777777778,0.04563946343070397,0.10457941157234202,-1.5149916957442142
1589995674.1083848,-2.7068808195517082,-1.4649534435863327,8.819357541344875,0.3955555555555556,-0.27555555555555555,-0.6233333333333333,0.05235987755982988,0.11235557059713497,-1.5926129424448257
1589995674.1183848,-2.7,-1.532625285231507,8.808436786921233,0.3955555555555556,-0.27555555555555555,-0.6233333333333333,0.05281894588544074,0.11281463892274582,-1.599269433166183
1589995674.1283848,-2.714116453249577,-1.6011746798743658,8.718232906499154,0.3955555555555556,-0.27555555555555555,-0.6233333333333333,0.056466371842861664,0.11723199796738229,-1.6515796597333747
1589995674.1383848,-2.7429591458296736,-1.6488774374890203,8.78775487497804,0.3955555555555556,-0.27555555555555555,-0.6233333333333333,0.0596729003012147,0.12120466943133192,-1.7126709737215442
1589995674.1483848,-2.748735627233969,-1.678850609362215,8.835057491064124,0.4011749900712478,-0.27372923933795557,-0.6240357626477948,0.05821525388794036,0.11931432031223463,-1.743473604194055
1589995674.1583848,-2.738504683075583,-1.7434890728236405,8.87,0.44,-0.2611111111111111,-0.6288888888888889,0.05366819337309198,0.12244490392806014,-1.7773405378618983
1589995674.1683848,-2.71,-1.8200071918097978,8.809956849141212,0.44,-0.2611111111111111,-0.6288888888888889,0.05817790323472796,0.12871881683933273,-1.8147856108544453
1589995674.1783848,-2.6978126532614026,-1.844874938695439,8.697312408043159,0.44,-0.2611111111111111,-0.6288888888888889,0.05837308893563183,0.13143146721875149,-1.8400678252066636
1589995674.1883848,-2.6618840151336016,-1.8750721210688106,8.727536060534407,0.44,-0.2611111111111111,-0.6288888888888889,0.056312172349331405,0.13246481295384116,-1.8647988242422684
1589995674.1983848,-2.6697200311076545,-1.9408399066770359,8.760279968892345,0.4405599377846906,-0.2596179436852695,-0.6292932884000544,0.05469423846777864,0.12999210232862526,-1.8866266804396046
1589995674.2083848,-2.681644181931006,-1.9916441819310058,8.784429454620671,0.46,-0.20777777777777776,-0.6433333333333333,0.06038919536917666,0.1379278571395433,-1.9134617474456217
1589995674.2183847,-2.710099336007989,-2.0547516599800275,8.777822842025964,0.46,-0.20777777777777776,-0.6433333333333333,0.06243651745100653,0.1409871696682838,-1.929636310726101
1589995674.2283847,-2.6807063893901435,-2.128234026524641,8.682295765517965,0.46,-0.20777777777777776,-0.6433333333333333,0.06644435882088413,0.14178873794225935,-1.9424614031097094
1589995674.2383847,-2.6568568290931616,-2.1665697551635295,8.770283413349853,0.46,-0.20777777777777776,-0.6433333333333333,0.07274279566927988,0.1409351773756179,-1.9695726661062094
1589995674.2483847,-2.674572486519211,-2.261053261435792,8.900198234474214,0.46,-0.20777777777777776,-0.6433333333333333,0.07467527411452955,0.14995341012011626,-1.982455855741207
1589995674.2583847,-2.514023588018649,-2.2140825580652717,8.778047176037298,0.5188888888888888,-0.18222222222222226,-0.6733333333333333,0.10250593038361633,0.1723986839920467,-2.0057709359700344
1589995674.2683847,-2.567598620484108,-2.4015951716943778,8.885197240968216,0.5188888888888888,-0.18222222222222226,-0.6733333333333333,0.02945431215040438,0.11493141098192,-2.060316144250833
1589995674.2783847,-2.5287232375048982,-2.468723237504898,8.903318015033308,0.5188888888888888,-0.18222222222222226,-0.6733333333333333,0.05410537779452675,0.13651647567799507,-2.096149773518301
1589995674.2883847,-2.4913688504150193,-2.4313688504150193,8.64930818282213,0.5188888888888888,-0.18222222222222226,-0.6733333333333333,0.09240785417551953,0.1731890594470307,-2.109188914413958
1589995674.2983847,-2.4936216063804078,-2.6151027148956736,8.674237895754452,0.5197393413715011,-0.17315072907435755,-0.6751759803789934,0.065961648970029,0.15759143469973128,-2.1580536422721375
1589995674.3083847,-2.4513846370740353,-2.648892290340772,8.834738379118665,0.5253709372790175,-0.11308037272751685,-0.6873777715119455,0.054904036263129244,0.14653382199283155,-2.196755286746286
1589995674.3183846,-2.4,-2.686475008774284,8.673869975432005,0.5255555555555556,-0.1111111111111111,-0.6877777777777778,0.075986181860771,0.16652513680797684,-2.2386187548197536
1589995674.3283846,-2.3810788796442046,-2.7436514004447443,8.610746820578168,0.5255555555555556,-0.1111111111111111,-0.6877777777777778,0.07641699853107728,0.16721395023482588,-2.269548108324522
1589995674.3383846,-2.32,-2.831113497052278,8.736672392925469,0.5255555555555556,-0.1111111111111111,-0.6877777777777778,0.07381303910841107,0.16641266041297806,-2.302987646179093
1589995674.3483846,-2.3186217969722787,-2.8713782030277213,8.827932695458419,0.5260915233996694,-0.10743590303718752,-0.6887731466311321,0.07718501723269446,0.17347880334981625,-2.32817027603775
1589995674.3583846,-2.280934395039109,-2.8963552016536305,8.736447983463698,0.5333333333333333,-0.057777777777777775,-0.7022222222222222,0.08350457866728636,0.18178127577913464,-2.356480028402951
1589995674.3683846,-2.224675340105745,-2.9355410998237588,8.656190419612269,0.5333333333333333,-0.057777777777777775,-0.7022222222222222,0.06667762830875122,0.16689710972195776,-2.3819588682167265
1589995674.3783846,-2.171583174102074,-3.0112024036997034,8.792344714906815,0.5333333333333333,-0.057777777777777775,-0.7022222222222222,0.05166908754199241,0.1695203476592066,-2.400352369079653
1589995674.3883846,-2.1070840200054457,-3.0185420100027227,8.592915979994554,0.5333333333333333,-0.057777777777777775,-0.7022222222222222,0.07710843800710313,0.18760043111316557,-2.4060995490657113
1589995674.3983846,-2.0950626961493817,-3.0125313480746905,8.604937303850617,0.5333333333333333,-0.057777777777777775,-0.7022222222222222,0.07120748445825402,0.1830108005751718,-2.4139674871308436
1589995674.4083846,-2.052050720956586,-3.114360517369388,8.704873197608535,0.5259543068526695,0.0012544340675324228,-0.7085471020627911,0.06561762116571897,0.18418262802596944,-2.423490450275262
1589995674.4183846,-2.0121417390332077,-3.1578582609667922,8.649426782453133,0.5255555555555556,0.004444444444444445,-0.7088888888888889,0.07453517736534676,0.18682821962796273,-2.4213481813210636
1589995674.4283845,-1.9792759713581407,-3.2009653715224795,8.57096537152248,0.5255555555555556,0.004444444444444445,-0.7088888888888889,0.06991847577709975,0.18655839023122564,-2.41701774976883
1589995674.4383845,-1.948948080106311,-3.2405259599468446,8.610613619937984,0.5255555555555556,0.004444444444444445,-0.7088888888888889,0.07414780654474011,0.18762289458939044,-2.4062101484187415
1589995674.4483845,-1.8316058564334508,-3.2991970717832744,8.67906325041382,0.5255555555555556,0.004444444444444445,-0.7088888888888889,0.07094779380301659,0.18762289458939044,-2.3880767428823075
1589995674.4583845,-1.8101563736659072,-3.3396872526681856,8.68,0.5685500792794234,0.057360781335358615,-0.7441664468161651,0.06441018932979391,0.18654059266731116,-2.3672648463652353
1589995674.4683845,-1.8066730876088164,-3.4333269123911836,8.705012039266531,0.5688888888888889,0.057777777777777775,-0.7444444444444445,0.05926829741160704,0.18580519349329716,-2.338198146185609
1589995674.4783845,-1.744523800703834,-3.495476199296166,8.58848212631969,0.5688888888888889,0.057777777777777775,-0.7444444444444445,0.060963156293261,0.1824154757299892,-2.31531755128328
1589995674.4883845,-1.6969836632482709,-3.525661221082757,8.62144625963908,0.5688888888888889,0.057777777777777775,-0.7444444444444445,0.054226014218064444,0.18278628409926706,-2.2730660563134464
1589995674.4983845,-1.6219604102074887,-3.500653470069163,8.629782176643612,0.5688888888888889,0.057777777777777775,-0.7444444444444445,0.05240739924428875,0.18005836163860353,-2.2403309867854837
1589995674.5083845,-1.5482365766722281,-3.525879531321098,8.635883892006675,0.6,0.057777777777777775,-0.7888888888888889,0.043505150095626464,0.18114218833503049,-2.1817910732281613
1589995674.5183845,-1.508810181531176,-3.6103966061562747,8.588016969218627,0.6,0.057777777777777775,-0.7888888888888889,0.035867626761245434,0.1775891024450263,-2.144635091954444
1589995674.5283844,-1.475959636676341,-3.6264645813178547,8.540808072664731,0.6,0.057777777777777775,-0.7888888888888889,0.03307751168976704,0.17226311658072171,-2.0887206248173453
1589995674.5383844,-1.4224797123281014,-3.705013525114599,8.558773668950549,0.6,0.057777777777777775,-0.7888888888888889,0.03585774241201917,0.16948303790670088,-2.030018381892295
1589995674.5483844,-1.3817167986782644,-3.7321888008811572,8.606330401542024,0.6,0.057777777777777775,-0.7888888888888889,0.029187926262996065,0.1598488590247786,-1.9944460290975048
1589995674.5583844,-1.355852621211443,-3.6910368446971393,8.696889465908582,0.6233333333333333,0.08333333333333333,-0.7944444444444444,0.02095198928989421,0.14613113352471382,-1.9221419974135805
1589995674.5683844,-1.3308161346644583,-3.697295966333886,8.678112100998343,0.6233333333333333,0.08333333333333333,-0.7944444444444444,0.022317517800444685,0.13930349097196143,-1.883224434862892
1589995674.5783844,-1.32,-3.7419803341086912,8.611227532247833,0.6233333333333333,0.08333333333333333,-0.7944444444444444,0.023823315246530495,0.13360624136974222,-1.809627602376931
1589995674.5883844,-1.2674536177237512,-3.841273191138124,8.643819573414374,0.6233333333333333,0.08333333333333333,-0.7944444444444444,0.03244715625780011,0.12338252394476845,-1.7275751711788172
1589995674.5983844,-1.2517172228787965,-3.849141388560602,8.667424165681805,0.6233333333333333,0.08333333333333333,-0.7944444444444444,0.0307305818675606,0.11737451357893017,-1.6717865034960326
1589995674.6083844,-1.2235536839125203,-3.8940771934791325,8.61710736782504,0.5704407011583741,0.023584248839397824,-0.7836700193717676,0.03535133785520976,0.11383404815993536,-1.5983855416377624
1589995674.6183844,-1.183123831775701,-3.87,8.619194592790388,0.5633333333333334,0.015555555555555557,-0.7822222222222223,0.028468753715831983,0.10657995657188028,-1.5150847296585148
1589995674.6283844,-1.134125,-3.87,8.542196428571428,0.5633333333333334,0.015555555555555557,-0.7822222222222223,0.02923231705879342,0.104289266542996,-1.4601081689652917
1589995674.6383843,-1.0690456284260756,-3.842863114721773,8.559543715739244,0.5633333333333334,0.015555555555555557,-0.7822222222222223,0.033607542679234874,0.09547257991429997,-1.36487361335603
1589995674.6483843,-1.0607751311274993,-3.867674606617502,8.642248688725008,0.5633333333333334,0.015555555555555557,-0.7822222222222223,0.03180320007126671,0.09096172339437955,-1.3008194507731599
1589995674.6583843,-1.0587966842776462,-3.9487966842776463,8.696016578611768,0.51,0.10222222222222224,-0.6433333333333333,0.03176535407549778,0.08713520121661593,-1.2147238411439851
1589995674.6683843,-1.0434599260172628,-3.935094944512947,8.708934648581998,0.51,0.10222222222222224,-0.6433333333333333,0.032992452750650214,0.08510551471419392,-1.1416683391196278
1589995674.6783843,-0.9688806999191669,-3.88,8.405891303314155,0.51,0.10222222222222224,-0.6433333333333333,0.033799675252940795,0.07162050204763439,-1.0683554463416671
1589995674.6883843,-0.9585990352912444,-3.8814009647087557,8.74758456465991,0.51,0.10222222222222224,-0.6433333333333333,0.017967087938423772,0.060683389980580905,-1.0058513813709584
1589995674.6983843,-0.9457943582855048,-3.894205641714495,8.542709732568078,0.51,0.10222222222222224,-0.6433333333333333,0.03263321056809813,0.0669688711075842,-0.9569643059387105
1589995674.7083843,-0.9581705242334322,-3.972682096933729,8.749813649851632,0.49485789647213985,0.19307484338938347,-0.616077546983185,0.019448941001946704,0.0480101061950549,-0.8813253692460633
1589995674.7183843,-0.9511625148279953,-3.905270858046659,9.072789756471984,0.4933333333333334,0.20222222222222225,-0.6133333333333333,0.03509264002856025,0.09793809772123799,-0.7775593442428453
1589995674.7283843,-0.5547767857142858,-3.248075892857143,7.662611607142857,0.4933333333333334,0.20222222222222225,-0.6133333333333333,0.07762527160334826,0.19541941281607272,-0.6879168496844972
1589995674.7383842,-0.6398883928571428,-3.4097879464285716,7.620055803571429,0.4933333333333334,0.20222222222222225,-0.6133333333333333,0.13518753543523598,-0.07382343413953135,-0.6730620719214293
1589995674.7483842,-0.8745681086378272,-3.8302678613094403,10.268664893368799,0.4933333333333334,0.20222222222222225,-0.6133333333333333,-0.16965363488425964,-0.08910248316358237,-0.6367937600553137
1589995674.7583842,-0.6533469237230839,-3.4034829642074205,8.718244790919707,0.4933333333333334,0.2525895725059814,-0.6021405888258313,0.03206598650033721,0.02226779661731297,-0.5260698339508216
1589995674.7683842,-0.6296847357677477,-3.4825901564980724,8.250698571104559,0.4933333333333334,0.26222222222222225,-0.6,0.03792845103612422,0.04616126689422175,-0.4225003609557088
1589995674.7783842,-0.693105012474484,-3.5650365162168294,8.713666591063733,0.4933333333333334,0.26222222222222225,-0.6,0.000570824400402771,-0.0015734782514223097,-0.3962116607305715
1589995674.7883842,-0.7029129235339888,-3.685435382330056,8.798934002970928,0.4933333333333334,0.26222222222222225,-0.6,0.02759831972663984,0.027577023178859596,-0.3114387857028657
1589995674.7983842,-0.7279110094451003,-3.8674660566706023,9.268442665289257,0.4933333333333334,0.26222222222222225,-0.6,0.00750501559394828,0.009357001083276348,-0.2593075896487847
1589995674.8083842,-0.6830888921432233,-3.698985868053013,8.203587903639159,0.4888888888888889,0.2888888888888889,-0.5866666666666667,0.02072578486743266,0.010510099077352633,-0.16888308150023937
1589995674.8183842,-0.7675461301896463,-3.944679651460789,8.848534085084571,0.4888888888888889,0.2888888888888889,-0.5866666666666667,0.02072578486743266,-0.00037782106677190265,-0.1337067241115293
1589995674.8283842,-0.7434494749287155,-3.868278739828917,8.530348424786146,0.4888888888888889,0.2888888888888889,-0.5866666666666667,0.025954171173773383,-0.002557940908562174,-0.07124151432991876
1589995674.8383842,-0.7799115028861534,-3.9557876069267683,8.63973450865846,0.4888888888888889,0.2888888888888889,-0.5866666666666667,0.023567737024480204,-0.006535331157384142,-0.04021787038910742
1589995674.8483841,-0.7165023317788141,-3.8881279147235177,8.504630246502332,0.4888888888888889,0.2888888888888889,-0.5866666666666667,0.020903108458991047,-0.004629308517323401,0.011459173736445116
1589995674.8583841,-0.7667317237318079,-3.9745528728863464,8.844244132245311,0.5155555555555555,0.3422222222222222,-0.6077777777777778,0.009320835653146085,-0.008845484138606535,0.06062356080998453
1589995674.8683841,-0.7402681500799192,-3.9304469167998657,8.47375410111887,0.5155555555555555,0.3422222222222222,-0.6077777777777778,0.014132049112203126,-0.009807726830417945,0.10103775386606369
1589995674.878384,-0.7201782682512733,-3.9203820033955856,8.430713073005093,0.5155555555555555,0.3422222222222222,-0.6077777777777778,0.0021983296075098356,-0.0163707957587053,0.144095227558806
1589995674.888384,-0.7824874787775892,-4.053901740237691,8.679949915110358,0.5155555555555555,0.3422222222222222,-0.6077777777777778,0.008024227168237618,-0.019283744539069194,0.18099257877674862
1589995674.898384,-0.7575342164326894,-4.013184878757206,8.620719095189896,0.5155555555555555,0.3422222222222222,-0.6077777777777778,0.0025290779436808863,-0.023176421694245213,0.22262664292214207
1589995674.908384,-0.7677843481966864,-4.053353044590059,8.706706089180118,0.5247770694353189,0.3369527857195003,-0.6077777777777778,0.00303080222845454,-0.024644934363574723,0.25906238328131453
1589995674.918384,-0.7521614993228156,-4.076080749661408,8.585130495259708,0.5311111111111111,0.3333333333333333,-0.6077777777777778,0.0013266137822637086,-0.02964417201900166,0.3115656523615396
1589995674.928384,-0.7811081043332518,-4.1052355179999305,8.582216208666503,0.5311111111111111,0.3333333333333333,-0.6077777777777778,-0.002562399178102119,-0.034196491870499335,0.3575477938981913
1589995674.938384,-0.81,-4.062871185446009,8.599722711267606,0.5311111111111111,0.3333333333333333,-0.6077777777777778,-0.0021665378107461517,-0.03672967759546293,0.4132931538704417
1589995674.948384,-0.8040062879366119,-3.9880440155562824,8.621955984443717,0.5311111111111111,0.3333333333333333,-0.6077777777777778,-0.005013706154594986,-0.03970349685294519,0.45920889359434264
1589995674.958384,-0.7920162099265738,-4.047821690807688,8.665967580146852,0.5408690767564097,0.3439783867645682,-0.6201970067808851,-0.006764919080166903,-0.0431933625294819,0.5110978802163507
1589995674.968384,-0.79,-4.020525328330207,8.655864379522916,0.5433333333333333,0.3466666666666667,-0.6233333333333333,-0.009628898684196805,-0.045175188294467275,0.5446777428793621
1589995674.978384,-0.7806473480857042,-4.056115911485774,8.593884088514226,0.5433333333333333,0.3466666666666667,-0.6233333333333333,-0.012948739946182201,-0.04581489286485115,0.5797180537453077
1589995674.988384,-0.793971151836109,-4.101913455508327,8.603971151836108,0.5433333333333333,0.3466666666666667,-0.6233333333333333,-0.01766201813688534,-0.04505288474036317,0.5913189126889546
1589995674.998384,-0.8214332937048743,-4.069988981355293,8.660011018644706,0.5433333333333333,0.3466666666666667,-0.6233333333333333,-0.01651760787912762,-0.04550339863380684,0.6018282996546821
1589995675.008384,-0.83,-3.9733693646762607,8.589436521890127,0.6230601559428804,0.3497628539524743,-0.6233333333333333,-0.017551387024770253,-0.048854567624610976,0.6005206600533368
1589995675.018384,-0.8874338438068415,-4.00563867863639,8.55820483482955,0.6577777777777778,0.3511111111111111,-0.6233333333333333,-0.022124157861388105,-0.052863241914048224,0.595286065031606
1589995675.028384,-0.856873886454471,-4.011374777290894,8.534124331872682,0.6577777777777778,0.3511111111111111,-0.6233333333333333,-0.020084848901331557,-0.04968724496753431,0.5860349838672865
1589995675.038384,-0.8953842877899695,-4.055384287789969,8.666152863369907,0.6577777777777778,0.3511111111111111,-0.6233333333333333,-0.016664559395157603,-0.050077516775600045,0.5718135890957264
1589995675.048384,-0.9077398341088408,-3.974861824802751,8.664520331782319,0.6577777777777778,0.3511111111111111,-0.6233333333333333,-0.012141037088777062,-0.04848964613536906,0.5578402252996372
1589995675.058384,-0.93,-3.97,8.650039062500001,0.9955555555555556,0.4444444444444444,-0.7533333333333333,-0.02180383247669674,-0.04581489286485115,0.5366631786417916
1589995675.068384,-0.93,-3.97,8.669778802710843,0.9955555555555556,0.4444444444444444,-0.7533333333333333,-0.015344017598555429,-0.04581489286485115,0.5237435488855089
1589995675.078384,-0.9178312280856183,-3.890902982556519,8.59698736851371,0.9955555555555556,0.4444444444444444,-0.7533333333333333,-0.014607927405481088,-0.043823782216443265,0.5209439614004217
1589995675.088384,-0.9322549699069852,-3.934583622104687,8.627892394674449,0.9955555555555556,0.4444444444444444,-0.7533333333333333,-0.0172153509522129,-0.0407216700495064,0.5198423626242648
1589995675.098384,-0.95,-4.0253110433232795,8.644066870030162,0.9955555555555556,0.4444444444444444,-0.7533333333333333,-0.020191679330575207,-0.04038335866115042,0.5253368104615604
1589995675.108384,-0.9758736117023334,-4.096921945745134,8.682795557447466,1.2502668885363055,0.19605777210204284,-1.032768339718535,-0.019032360941476707,-0.04145156973486533,0.5386108799230573
1589995675.118384,-0.9784692368099056,-4.063876947239622,8.663111565644575,1.487777777777778,-0.03555555555555556,-1.2933333333333332,-0.017453292519943295,-0.043213051179245066,0.556487950215543
1589995675.1283839,-1.032300469483568,-4.003145539906103,8.606291079812205,1.487777777777778,-0.03555555555555556,-1.2933333333333332,-0.021038182415471555,-0.04687499601967165,0.5801068828943828
1589995675.1383839,-1.033845624207284,-4.0461543757927165,8.535639789816996,1.487777777777778,-0.03555555555555556,-1.2933333333333332,-0.015677090325708354,-0.04668194422862275,0.6030758090796348
1589995675.1483839,-1.01,-4.088409237280339,8.645683135523047,1.487777777777778,-0.03555555555555556,-1.2933333333333332,-0.014924580366499492,-0.04715365037869613,0.6170631723045432
1589995675.1583838,-1.0298027262911644,-4.027390003599065,8.723596364945115,1.0015108321836323,0.02972009777457861,-0.9295499170215744,-0.01457310273117611,-0.04871660187703586,0.612391409986069
1589995675.1683838,-1.0495128696022122,-3.9138970431823017,8.71,0.7511111111111111,0.06333333333333334,-0.7422222222222222,-0.017240741786744666,-0.04597430591475012,0.5858543284506929
1589995675.1783838,-1.0322746040415074,-3.927725395958493,8.523883342435827,0.7511111111111111,0.06333333333333334,-0.7422222222222222,-0.010685899879731585,-0.046781663242024256,0.5508483362170418
1589995675.1883838,-1.0562475886541713,-3.9649967848722287,8.578742765962513,0.7511111111111111,0.06333333333333334,-0.7422222222222222,-0.009817477042468105,-0.0430881666246443,0.49783236999125724
1589995675.1983838,-1.08004169549543,-3.9365971741742833,8.636763956156003,0.7511111111111111,0.06333333333333334,-0.7422222222222222,-0.012003686880451652,-0.039627454066717055,0.4478783919763954
1589995675.2083838,-1.10831891223733,-3.90168108776267,8.687478368355995,0.6177901387172091,0.22616810877626697,-0.7035489630545254,-0.011091686052924408,-0.03118508570776024,0.35957234416550665
1589995675.2183838,-1.0923080858636416,-3.926537871204538,8.716537871204538,0.6055555555555555,0.2411111111111111,-0.7,-0.008013475143780938,-0.027648429228717145,0.289742854542812
1589995675.2283838,-1.0231134414594754,-3.679175405473033,8.594587702736517,0.6055555555555555,0.2411111111111111,-0.7,-0.002163671703131036,-0.02362267371284863,0.22580088017825342
1589995675.2383838,-1.0514069732790305,-3.602395351147313,8.549296513360485,0.6055555555555555,0.2411111111111111,-0.7,-0.00033803076478354467,-0.016885046290722284,0.17424246319530462
1589995675.2483838,-1.0920374191389695,-3.6340748382779386,8.760374191389694,0.6055555555555555,0.2411111111111111,-0.7,-0.005609122204831696,-0.016584709688810366,0.10550670205350793
1589995675.2583838,-1.0596180670873465,-3.6298090335436735,8.658281301893059,0.5876080298165984,0.2508326875530462,-0.7097215764419351,0.003376648391982139,-0.008643321424377431,0.05496323524930831
1589995675.2683837,-1.0937986990756592,-3.6379328996918865,8.731396097226977,0.5788888888888889,0.25555555555555554,-0.7144444444444444,-0.002032321191860309,-0.009253762880818533,-0.003765961637455413
1589995675.2783837,-1.0922091231160307,-3.608836492464122,8.485110185945038,0.5788888888888889,0.25555555555555554,-0.7144444444444444,0.005226035980184629,-0.001318948714794108,-0.035921936908528435
1589995675.2883837,-1.1053560012587158,-3.6972546746385335,8.619865350535783,0.5788888888888889,0.25555555555555554,-0.7144444444444444,0.001493855892152644,-0.0022593289913158433,-0.05926731024431564
1589995675.2983837,-1.1361722270855623,-3.7414833187433127,8.787655545828876,0.5788888888888889,0.25555555555555554,-0.7144444444444444,0.0026931421205959255,-0.002366950365352764,-0.08520222016379299
1589995675.3083837,-1.115173069608216,-3.714826930391784,8.641380753138076,0.5898465829846583,0.26651324965132495,-0.7393482946621022,0.004288222189844378,0.004137605387240266,-0.12394061672801499
1589995675.3183837,-1.1330290042273368,-3.689294661030218,8.706763347424456,0.5911111111111111,0.2677777777777778,-0.7422222222222222,0.007459283464392697,0.011062188917031148,-0.13072316188649222
1589995675.3283837,-1.1230597911815519,-3.696940208818448,8.696119582363103,0.5911111111111111,0.2677777777777778,-0.7422222222222222,0.006878756135863534,0.010010152516443948,-0.1350703415555847
1589995675.3383837,-1.0441590953402222,-3.731946968219926,8.662684343926692,0.5911111111111111,0.2677777777777778,-0.7422222222222222,0.013434296751404489,0.009231844045259636,-0.1390407071623379
1589995675.3483837,-1.0256298877523164,-3.7287402244953674,8.671259775504632,0.5911111111111111,0.2677777777777778,-0.7422222222222222,0.01452008527877888,0.011045728014913408,-0.1598924812048939
1589995675.3583837,-0.9602756536304712,-3.5912781297793317,8.696090233777584,0.5458200827001352,0.2212948801980919,-0.6730938104370483,0.016015256440316202,0.013754310837676255,-0.204291569075445
1589995675.3683836,-0.7424113597617558,-3.4295716351237617,8.810856729752476,0.5066666666666667,0.1811111111111111,-0.6133333333333333,0.025420224892185213,0.020084902067772206,-0.2689558535447794
1589995675.3783836,-1.5619878555449025,-3.4237909875359542,1.2965356343879835,0.5066666666666667,0.1811111111111111,-0.6133333333333333,-1.3650318948371114,1.2859019352092202,-5.804535034973252
1589995675.3883836,0.11422499578343759,-7.26699563886948,0.08056260993181208,0.5066666666666667,0.1811111111111111,-0.6133333333333333,-1.7653220252796344,-0.4446095957453542,-14.841360515531603
1589995675.3983836,-0.5337879875568319,-8.621700167504187,4.23403565446279,0.5066666666666667,0.1811111111111111,-0.6133333333333333,-1.769166018908541,0.04910728850192303,-15.846267964423543
1589995675.4083836,-1.2358096654275093,-8.089879553903346,5.75448029739777,0.48454473358116484,0.28943230070218917,-0.6079935563816604,-1.1788508510166897,1.5971936207047066,-15.12310424663227
1589995675.4183836,-1.241846704394141,-6.582266977363515,3.4201539613848206,0.4744444444444445,0.3388888888888889,-0.6055555555555555,-0.5037443117903204,2.7574716995791224,-14.16961715973983
1589995675.4283836,-16.20827713044923,-17.25137236289423,10.756579653052992,0.4744444444444445,0.3388888888888889,-0.6055555555555555,0.3386448816258788,3.614160719319903,-12.779571819825208
1589995675.4383836,-1.6118717014792239,-1.4790324339056973,0.6392638568844617,0.4744444444444445,0.3388888888888889,-0.6055555555555555,1.5411048853696747,1.2880741726683471,-6.79183495220443
1589995675.4483836,0.11385786997763558,0.07113750289195675,5.796350350890721,0.4744444444444445,0.3388888888888889,-0.6055555555555555,2.0774205152459517,0.5466582333844664,-4.310364670916558
1589995675.4583836,1.0000300208307806,5.268993383163828,13.525365457664503,0.2766761290146905,0.5774809391550599,-0.57108217947147,3.254689991792303,0.3325362420012657,-3.2225943577824254
1589995675.4683836,0.5821807970488883,1.6548714069591526,1.578675937247425,0.23222222222222225,0.6311111111111111,-0.5633333333333334,2.6916838344035225,0.021056676007121355,-2.7798336228481664
1589995675.4783835,0.13893781623524237,0.583186551294273,-1.70079746278507,0.23222222222222225,0.6311111111111111,-0.5633333333333334,1.5788204162782555,0.017085536083591646,-2.3754140134883324
1589995675.4883835,0.9432964529775464,1.3672046859746176,5.961392775789131,0.23222222222222225,0.6311111111111111,-0.5633333333333334,0.07126571793593195,0.1543665771407261,-1.8354791569781066
1589995675.4983835,0.8287422340009558,0.0022240083416606993,19.76852369987401,0.23222222222222225,0.6311111111111111,-0.5633333333333334,-1.3962236630712805,0.18797148935937144,-1.3587732674711173
1589995675.5083835,0.8215377411500281,-0.490473871511519,6.958025847536991,0.1406006812206475,0.6065527599148127,-0.6086718278495765,-1.1482375486831757,0.00030592569613374643,-0.9705925173816667
1589995675.5183835,1.3836031084154663,-0.6503582259287338,7.782617513267628,0.12444444444444445,0.6022222222222222,-0.6166666666666667,-0.20322491743032045,-0.012641314576080045,-0.7961625708765794
1589995675.5283835,1.3463823316437364,-0.633792903692976,8.06028530050688,0.12444444444444445,0.6022222222222222,-0.6166666666666667,0.594768493676522,0.18551358646369998,-0.5994954797263206
1589995675.5383835,1.1380730177075162,-0.8780730177075164,6.1976957526726375,0.12444444444444445,0.6022222222222222,-0.6166666666666667,0.36131330418218305,0.21565349057975491,-0.3402541736385127
1589995675.5483835,5.11263323066194,-4.927112221770209,9.424515604114605,0.12444444444444445,0.6022222222222222,-0.6166666666666667,-0.2638773992026161,-0.12297473567792759,-0.10727829754720522
1589995675.5583835,14.671776743046195,-14.31433341502267,8.554442470285505,0.08223229724026196,0.6206900366240521,-0.6237020245340305,-0.26453191155779054,-0.056938800500153486,0.1266876782620268
1589995675.5683835,11.564748346946715,-11.443371450797354,9.073702061454687,0.07111111111111111,0.6255555555555555,-0.6255555555555555,-0.1252831245753695,-0.05030948905749913,0.12071954001818089
1589995675.5783834,-1.3846684134441631,0.9250084327189496,8.131680219250693,0.07111111111111111,0.6255555555555555,-0.6255555555555555,0.30165088184248695,0.18274648282065542,0.060569427189380666
1589995675.5883834,0.39875882486905023,-1.4231746754725574,9.587699840583012,0.07111111111111111,0.6255555555555555,-0.6255555555555555,0.13147703180404335,0.17200992874599777,0.1787568823378496
1589995675.5983834,1.7160925698402787,-2.8721160547040223,10.010506556023284,0.07111111111111111,0.6255555555555555,-0.6255555555555555,-0.22656829328963662,-0.12307776334307423,0.28983070034061176
1589995675.6083834,7.4582350433423334,-7.745124698024725,8.226690351001848,0.05997706566876666,0.6229861604534761,-0.640115461134006,-0.1505167826658122,-0.07122619665329122,0.4675549220598674
1589995675.6183834,3.102679189322788,-4.405396276157521,8.152404020431701,0.05666666666666665,0.6222222222222222,-0.6444444444444445,0.08022728788389838,-0.1107949043120111,0.47475313818665993
1589995675.6283834,1.8624754759068212,-3.622475475906821,8.779807609439558,0.05666666666666665,0.6222222222222222,-0.6444444444444445,0.032825100401333684,0.0688723973099154,0.49395074646437054
1589995675.6383834,2.977553072103245,-4.510155475544749,8.845298092209857,0.05666666666666665,0.6222222222222222,-0.6444444444444445,-0.11267676022761193,-0.029284465833905732,0.5522646058226699
1589995675.6483834,2.1740095662213426,-4.010263895761174,8.542497113640113,0.05666666666666665,0.6222222222222222,-0.6444444444444445,-0.039879283703488685,-0.06511160484668768,0.6152112893908216
1589995675.6583834,1.7634040385664909,-3.7403878479170456,8.69863561942878,0.0704324783215087,0.6243957714308814,-0.6212599195520789,-0.004639076896650753,-0.05392307756092823,0.6903470544876438
1589995675.6683834,2.0415388071436595,-3.8786712344153655,8.714404133438167,0.07777777777777778,0.6255555555555555,-0.6088888888888889,-0.033342811786263964,-0.06061358134867536,0.7248152130378355
1589995675.6783834,2.1574743106379835,-3.8515605825386263,8.21225881570193,0.07777777777777778,0.6255555555555555,-0.6088888888888889,-0.03670298423603372,-0.06562008009696338,0.7977982490479028
1589995675.6883833,1.8733181837310104,-3.8253566468880194,8.768108403821067,0.07777777777777778,0.6255555555555555,-0.6088888888888889,-0.027379471632560444,-0.06751784874886431,0.8793850580367845
1589995675.6983833,1.7776182732111176,-3.7526688350088704,8.564104376108812,0.07777777777777778,0.6255555555555555,-0.6088888888888889,-0.017858660978678227,-0.06183462344041723,0.9509666979933915
1589995675.7083833,1.7451321489107916,-3.708303722769791,8.524911168309373,0.09075871401566674,0.6298825343015185,-0.6197063357537964,-0.02349610745360327,-0.07235284930631995,1.0271998542743908
1589995675.7183833,1.7950525021949078,-3.8491455662862157,8.965787532923617,0.10444444444444444,0.6344444444444445,-0.6311111111111111,-0.04583780126899278,-0.0896394744635178,1.1091770430775052
1589995675.7283833,1.80432691908067,-3.9686538381613397,8.79682681517809,0.10444444444444444,0.6344444444444445,-0.6311111111111111,-0.050584653714178675,-0.09599310885968812,1.1927369368018308
1589995675.7383833,1.6123795830337886,-3.901938482078669,8.828676697134641,0.10444444444444444,0.6344444444444445,-0.6311111111111111,-0.04887592962006753,-0.09668508678264026,1.2767955851687942
1589995675.7483833,1.4162458752855571,-3.7921055080802097,8.583650478043827,0.10444444444444444,0.6344444444444445,-0.6311111111111111,-0.03273263008038809,-0.09644475285953129,1.3673504790000066
1589995675.7583833,1.377184784590144,-3.8999049036884,8.980785380081425,0.11879196964479823,0.629158514107472,-0.6273354465847022,-0.03520330400433001,-0.1026652588251426,1.4827470206054205
1589995675.7683833,1.3514567178836672,-3.883641794709168,8.764698528960452,0.12555555555555556,0.6266666666666667,-0.6255555555555555,-0.045345347090091186,-0.11982531876580323,1.5958281224889934
1589995675.7783833,1.342668427321216,-4.007357982497022,8.785713324012221,0.12555555555555556,0.6266666666666667,-0.6255555555555555,-0.06279770070831922,-0.1331548457472059,1.7203604624458115
1589995675.7883832,1.2062171952391512,-3.884055592518666,8.37063477982307,0.12555555555555556,0.6266666666666667,-0.6255555555555555,-0.06303239110609113,-0.13784758790183615,1.8597577532105665
1589995675.7983832,1.0454299082976144,-3.8247963592274457,8.47823511330453,0.12555555555555556,0.6266666666666667,-0.6255555555555555,-0.05836191505937455,-0.14070729815878621,1.9681054953213422
1589995675.8083832,0.9297357611824444,-3.8537886089459557,8.813260131310845,0.1435682122822716,0.6217131860668198,-0.6314096689917382,-0.0542772545945443,-0.14687770649452458,2.0927562278390597
1589995675.8183832,0.8631825286557833,-3.850454150746787,8.770908301493574,0.17,0.6144444444444445,-0.64,-0.06425955695214491,-0.15985615507411768,2.2337228754611798
1589995675.8283832,0.7778404613947444,-3.841408553673693,8.659554445392144,0.17,0.6144444444444445,-0.64,-0.0854740195239901,-0.1757825004152865,2.3596076948815425
1589995675.8383832,0.683299952396904,-3.853450166610836,8.393450166610837,0.17,0.6144444444444445,-0.64,-0.09127527870712154,-0.19102083853500787,2.5211118571487496
1589995675.8483832,0.6124632308980031,-3.932463230898003,8.575689345928495,0.17,0.6144444444444445,-0.64,-0.09353205478768727,-0.19764724208756096,2.6504257132482523
1589995675.8583832,0.4734167844136202,-3.85,8.731316643117276,0.18760366707131818,0.6173783889563308,-0.6450296191632338,-0.07895130109530654,-0.20618640358883447,2.81275917539631
1589995675.8683832,0.35937519367833903,-3.808750387356678,8.729375193678338,0.21666666666666667,0.6222222222222222,-0.6533333333333333,-0.080980537539363,-0.2147709161109298,2.9568872327456877
1589995675.8783832,0.31508937686781874,-3.8295233233716335,8.535983145546005,0.21666666666666667,0.6222222222222222,-0.6533333333333333,-0.0964572783853865,-0.22738947063118117,3.0926899521256597
1589995675.8883832,0.24880689655172414,-3.933269592476489,8.509617554858934,0.21666666666666667,0.6222222222222222,-0.6533333333333333,-0.11169690029831217,-0.23866543155157477,3.215526770354839
1589995675.8983831,0.14395568254229274,-3.9190717178153713,8.644419823634607,0.21666666666666667,0.6222222222222222,-0.6533333333333333,-0.10953989124748316,-0.24328057946625556,3.3569903300404906
1589995675.9083831,0.019898678414096913,-4.023038074260541,8.860303964757708,0.2662531990769876,0.5987004055660443,-0.6476118103629117,-0.09769700850959079,-0.2518355513338819,3.497764144127354
1589995675.9183831,-0.10918946186516526,-4.028522122597757,8.790917937285405,0.3033333333333333,0.5811111111111111,-0.6433333333333333,-0.10169298503995389,-0.26448030418633967,3.613718214417979
1589995675.928383,-0.2189652158076853,-3.9421835731196504,8.516091786559825,0.3033333333333333,0.5811111111111111,-0.6433333333333333,-0.1137974697021278,-0.27481410555909236,3.7237949670701287
1589995675.938383,-0.28583056270779694,-4.114950128740345,8.602475064370173,0.3033333333333333,0.5811111111111111,-0.6433333333333333,-0.132345672548762,-0.2881569005124098,3.8726902515800123
1589995675.948383,-0.5621613945744786,-3.82381921457252,8.00165781999804,0.3033333333333333,0.5811111111111111,-0.6433333333333333,-0.1785471952984983,-0.3209738009530272,3.8065510910215345
1589995675.958383,-1.7517044319010453,-2.5208466794501314,9.382795527587977,0.3314454317119939,0.5554224694892316,-0.6501190122523204,-0.33928667189576756,-0.3351272148368887,1.8839743541148066
1589995675.968383,-3.823804356694134,-2.8096739278235567,11.505802670582797,0.36777777777777776,0.5222222222222223,-0.6588888888888889,-0.031003166443936914,0.11397266767865749,-1.1430055175550329
1589995675.978383,-2.3677094791329667,-2.6409662460908017,9.036006686077862,0.36777777777777776,0.5222222222222223,-0.6588888888888889,0.5978940803135385,0.4054648486044198,-1.174534429188756
1589995675.988383,-0.9807936660268713,-3.251332053742802,9.581439059500958,0.36777777777777776,0.5222222222222223,-0.6588888888888889,0.3422581032025373,0.16937461464504425,-0.4368332890743632
1589995675.998383,-0.8305760038240917,-4.57046171562663,10.465312011124631,0.36777777777777776,0.5222222222222223,-0.6588888888888889,-0.2598393812288963,-0.09360375239318694,0.027731784457908068
1589995676.008383,-0.5128332658395611,-3.919747082428303,8.849387033832787,0.3788222132230526,0.5155955609550573,-0.6566800017998339,-0.3113632158345778,-0.13582736724810868,0.32594520142532657
1589995676.018383,0.5953996889580092,-4.370686625194401,8.119080093312597,0.4011111111111111,0.5022222222222222,-0.6522222222222223,0.00352318833331116,-0.061575531553945545,0.721076596825062
1589995676.028383,3.3945146156622155,-9.650295922049802,8.819112233850595,0.4011111111111111,0.5022222222222222,-0.6522222222222223,0.011958198007901447,-0.07425640611082243,1.061694460036805
1589995676.038383,-0.2551860455959366,-6.982380202386108,9.160261054455251,0.4011111111111111,0.5022222222222222,-0.6522222222222223,-0.1442145555987479,-0.10219010320148394,0.7879148011120922
1589995676.048383,-1.8467881074105326,-2.170484439370626,8.219334392217204,0.4011111111111111,0.5022222222222222,-0.6522222222222223,0.051791207499346445,0.029961434958557777,-0.09626404335294333
1589995676.058383,-0.9657955844841235,-4.041413492831383,6.916906500131938,0.40330406270462565,0.49846287663334016,-0.6600541921990598,0.1680551039794958,0.07612514549026843,-0.20951094339241733
1589995676.068383,-0.08583448244682054,-5.16599611185207,8.742606189388972,0.4088888888888889,0.4888888888888889,-0.68,-0.11235557059713497,-0.05781403147231216,0.1014472627721704
1589995676.078383,-0.19248818379844643,-4.148572191854013,8.386404175742879,0.4088888888888889,0.4888888888888889,-0.68,-0.014069704094239868,-0.01599025849235681,0.034529226004241825
1589995676.088383,-0.09480830882547758,-4.415575073523567,8.341942876824842,0.4088888888888889,0.4888888888888889,-0.68,0.05289287974012291,0.016496420370223013,-0.02042454412753492
1589995676.098383,-0.05782464784759182,-4.643895774171102,8.579578169371674,0.4088888888888889,0.4888888888888889,-0.68,-0.0020860218021809874,-0.0008535366734347798,0.00047458821812335224
1589995676.108383,-0.06575250687727394,-4.74115382908865,8.516722424349988,0.4103047199297976,0.4858212549669201,-0.6771683379181827,-0.005715003699609117,-0.0024133263773284913,-0.0012550023156505947
1589995676.118383,-0.05680905053922605,-4.59404525269613,8.651415380277719,0.4155555555555556,0.4744444444444445,-0.6666666666666666,0.004463817655447363,-0.0030249082832306392,0.001686493436475454
1589995676.128383,-0.06800131926121372,-4.698001319261214,8.559995602462621,0.4155555555555556,0.4744444444444445,-0.6666666666666666,0.0028359681557251753,-0.0013090928783785524,0.0013088530299215392
1589995676.138383,-0.06017985202048948,-4.656247011952191,8.572494023904381,0.4155555555555556,0.4744444444444445,-0.6666666666666666,0.0013825053992391053,-0.0003701498648402886,0.0014217430232879248
1589995676.148383,-0.07237189409368636,-4.606185947046844,8.556281059063137,0.4155555555555556,0.4744444444444445,-0.6666666666666666,-0.0044647415112912476,-0.0006747821457589584,-0.002181661564992912
1589995676.158383,-0.05649181322013341,-4.603508186779867,8.6379017586416,0.41321676436897786,0.47873222828650364,-0.6615992857624149,-0.001090830782496456,-0.0011480514390676772,-0.001798977751970353
1589995676.168383,-0.05785531198592142,-4.621782967978882,8.595348903936646,0.4088888888888889,0.4866666666666667,-0.6522222222222223,0.0019082548596283022,-0.0028440515414715453,0.00019449163555701194
1589995676.1783829,-0.07209684383674309,-4.648387375346972,8.612256810938625,0.4088888888888889,0.4866666666666667,-0.6522222222222223,0.005858794154016536,-0.002181661564992912,0.0019529313846721789
1589995676.1883829,-0.07728259184622539,-4.662336847000465,8.489021857076423,0.4088888888888889,0.4866666666666667,-0.6522222222222223,0.003272492347489368,-0.001737026695581281,0.0007944075362220353
1589995676.1983829,-0.05640931439747034,-4.582316170422767,8.595637257589882,0.4088888888888889,0.4866666666666667,-0.6522222222222223,0.00053071107763504,0.001090830782496456,-0.00030746470539521936
1589995676.2083828,-0.04749535637542339,-4.62497213825254,8.58502786174746,0.4088888888888889,0.4849969042502823,-0.6516656347500941,-0.003816894657011491,0.00027118807303495667,0.0005444023095221231
1589995676.2183828,-0.04,-4.618793854870342,8.61060307256483,0.4088888888888889,0.48,-0.65,-0.0017584862543502193,-0.0030280121862782967,-0.000244480161211071
1589995676.2283828,-0.047893324816352605,-4.656320025550942,8.566844458639412,0.4088888888888889,0.48,-0.65,0.0006312255546876647,-0.00292827618233239,0.001377840172027143
1589995676.2383828,-0.06569675962875972,-4.6158194422274414,8.542909721113721,0.4088888888888889,0.48,-0.65,0.0026376896756240553,0.00015200937021038116,0.0007734294465637996
1589995676.2483828,-0.06309818248241848,-4.631410905105489,8.587883642341767,0.4088888888888889,0.48,-0.65,-0.001090830782496456,-0.00041491221817378213,-0.00041491221817378213
1589995676.2583828,-0.06666533033996153,-4.596669339320077,8.639995991019886,0.4088888888888889,0.48074103770223076,-0.651852594255577,-0.0014545868139591532,0.0007270747510337587,0.0008483267615213245
1589995676.2683828,-0.042661967514557156,-4.644676064970886,8.562661967514558,0.4088888888888889,0.4866666666666667,-0.6666666666666666,-0.0032018206872320124,-0.0018912859543044592,-0.00021970395043109734
1589995676.2783828,-0.05,-4.63,8.536906759210314,0.4088888888888889,0.4866666666666667,-0.6666666666666666,0.0018049562872978061,-0.001090830782496456,0.0026329006368173637
1589995676.2883828,-0.05410959931969386,-4.63,8.535205592516633,0.4088888888888889,0.4866666666666667,-0.6666666666666666,0.00481161087415068,-0.001090830782496456,0.0023759168591596562
1589995676.2983828,-0.06,-4.619413660782809,8.6,0.4088888888888889,0.4866666666666667,-0.6666666666666666,0.0027596428176679334,-0.001090830782496456,0.0007059006260944065
1589995676.3083827,-0.06,-4.612752250853772,8.607651350512263,0.4088888888888889,0.4866666666666667,-0.6629826830866881,-0.003016294431637592,-0.0016472526935929098,0.0002782109555482268
1589995676.3183827,-0.05139432297660146,-4.645697161488301,8.604182968929805,0.4088888888888889,0.4866666666666667,-0.6522222222222223,-0.00545415391248228,-0.002803125477422088,0.00015209704236189558
1589995676.3283827,-0.04265204895910835,-4.64,8.559391804163567,0.4088888888888889,0.4866666666666667,-0.6522222222222223,-0.003139804599455822,-0.0016030742367362976,-0.0008015371183681488
1589995676.3383827,-0.04877091630560054,-4.64,8.534916334777597,0.4088888888888889,0.4866666666666667,-0.6522222222222223,0.0021999144849970467,-0.00026814446562308035,-0.00013407223281154017
1589995676.3483827,-0.05,-4.5934319496076,8.621143983202533,0.4088888888888889,0.4866666666666667,-0.6522222222222223,0.004705418657292901,-0.0012156199916946858,0.0030229139290929084
1589995676.3583827,-0.05,-4.615087773647253,8.628362591215751,0.4088888888888889,0.4866666666666667,-0.6522222222222223,-1.914923926315485e-05,-0.0020030479744540287,0.0014480579635742226
1589995676.3683827,-0.05115740361790947,-4.627685192764181,8.603472210853727,0.4155555555555556,0.4933333333333334,-0.6733333333333333,-0.0019291552661552286,-0.0031462391980705265,0.0
1589995676.3783827,-0.05974032086436932,-4.610519358271262,8.62922096259311,0.4155555555555556,0.4933333333333334,-0.6733333333333333,-5.66531989436036e-05,-0.0022099881644647135,0.0
1589995676.3883827,-0.06331318358226508,-4.630060449253205,8.523252734329061,0.4155555555555556,0.4933333333333334,-0.6733333333333333,0.003272492347489368,-0.0007360125091542592,0.0007294185185367928
1589995676.3983827,-0.06739689877684678,-4.6152062024463065,8.563015506115766,0.4155555555555556,0.4933333333333334,-0.6733333333333333,0.003840400936323312,0.002181661564992912,0.0002839542944169721
1589995676.4083827,-0.05925973917405116,-4.6314805216518975,8.603701304129745,0.4155555555555556,0.4923463188987349,-0.6722640676958517,0.004808154475665284,0.0021009116353907877,0.001090830782496456
1589995676.4183826,-0.05049385554255142,-4.649012288914897,8.647530722287243,0.4155555555555556,0.48065847405673523,-0.6596022357836854,-0.0028415220851521128,0.0011447020652886129,0.001090830782496456
1589995676.4283826,-0.04740504737151002,-4.63,8.57664542634359,0.4155555555555556,0.48,-0.6588888888888889,-0.004080257709358128,-0.001090830782496456,0.0005246999412410638
1589995676.4383826,-0.0380410447761194,-4.635876865671642,8.51195895522388,0.4155555555555556,0.48,-0.6588888888888889,-0.002204048017618772,-0.0008771419165223368,-0.0008771419165223368
1589995676.4483826,-0.03554202420654251,-4.648915951586915,8.547710121032711,0.4155555555555556,0.48,-0.6588888888888889,0.0024839320950847655,-0.0003022705300918534,0.0009068115902755603
1589995676.4583826,-0.05110617137588092,-4.6188938286241195,8.623318514127643,0.41395775245706096,0.4814748951678412,-0.6588888888888889,0.002669169453725686,-0.0007288370462382465,0.0029104986112311586
1589995676.4683826,-0.06,-4.617282656394754,8.646358671802624,0.4011111111111111,0.4933333333333334,-0.6588888888888889,-0.0029760761423670923,0.0017844542763058217,-0.00039720728868709024
1589995676.4783826,-0.0547209186220669,-4.632639540688967,8.605685971043435,0.4011111111111111,0.4933333333333334,-0.6588888888888889,-0.0029236770123975157,0.000227043111943471,-0.001090830782496456
1589995676.4883826,-0.04076085871193211,-4.639619570644034,8.514945581627558,0.4011111111111111,0.4933333333333334,-0.6588888888888889,0.0008833387564699206,-0.002057166349376991,-0.001090830782496456
1589995676.4983826,-0.06274660508083141,-4.63,8.580986420323326,0.4011111111111111,0.4933333333333334,-0.6588888888888889,0.0019896551933560763,-0.0013904389194496626,0.0015824452910864985
1589995676.5083826,-0.06920161818073652,-4.628403236361473,8.611596763638527,0.40270787474963804,0.49280107878715773,-0.6595098525260938,0.004102053290594383,-0.002181661564992912,8.708994646381367e-05
1589995676.5183825,-0.06,-4.61,8.616458128321197,0.4211111111111111,0.4866666666666667,-0.6666666666666666,0.000795392972899342,-0.0030679749937842535,0.00020451735370511433
1589995676.5283825,-0.05392199965420999,-4.619117000518685,8.552648998443946,0.4211111111111111,0.4866666666666667,-0.6666666666666666,-0.0006630069873211843,-0.004128139937839911,-0.0018501580713323198
1589995676.5383825,-0.04591929794373226,-4.634080702056267,8.507757893831197,0.4211111111111111,0.4866666666666667,-0.6666666666666666,-0.0005674234630451322,-0.001413678402886012,-0.0007679831621069
1589995676.5483825,-0.05605101822079314,-4.621974490889603,8.557897963558414,0.4211111111111111,0.4866666666666667,-0.6666666666666666,0.0026263417148478982,-0.002181661564992912,-0.0002153835442138233
1589995676.5583825,-0.04194607673695126,-4.628053923263049,8.595838230210854,0.4205705342397358,0.4866666666666667,-0.6679640511579675,0.00010614202048833472,-0.0019693775240162423,-0.0007724047210314517
1589995676.5683825,-0.06,-4.610099375,8.65,0.4155555555555556,0.4866666666666667,-0.68,0.0010854107170459267,0.0,0.0021762414995423825
1589995676.5783825,-0.05609138921669149,-4.63,8.624594029908495,0.4155555555555556,0.4866666666666667,-0.68,0.00021318164796152518,0.0,0.0008776491345349308
1589995676.5883825,-0.040230064340027294,-4.630230064340028,8.520460128680055,0.4155555555555556,0.4866666666666667,-0.68,0.001090830782496456,-3.7644189608475866e-05,1.2548063202825288e-05
1589995676.5983825,-0.05560861280487805,-4.641217225609757,8.568782774390245,0.4155555555555556,0.4866666666666667,-0.68,0.0025279088815863947,-0.0027934663144593887,0.0008513177659814663
1589995676.6083825,-0.039346283895776706,-4.61,8.601307432208447,0.4155555555555556,0.4866666666666667,-0.6795641892638512,0.007528851430050127,-0.0010551761000214342,3.5654682475021735e-05
1589995676.6183825,-0.03148500596162066,-4.607128748509595,8.642871251490405,0.4155555555555556,0.4866666666666667,-0.6666666666666666,0.0034237082769789894,-0.0006264099020045564,0.001090830782496456
1589995676.6283824,-0.06,-4.604410278464681,8.619128050747232,0.4155555555555556,0.4866666666666667,-0.6666666666666666,0.00012865728076535987,-0.001941118189560138,0.0006097440316309079
1589995676.6383824,-0.05856884285678373,-4.62,8.515724628572865,0.4155555555555556,0.4866666666666667,-0.6666666666666666,-0.0031163773208483683,-0.0014030608357784554,-0.0009347157558554564
1589995676.6483824,-0.051152542870135397,-4.622305085740271,8.555762714350678,0.4155555555555556,0.4866666666666667,-0.6666666666666666,-0.002181661564992912,-0.002895323575222217,0.0002514458481781008
1589995676.6583824,-0.057305159085241524,-4.634610318170483,8.586525795426208,0.4155555555555556,0.4866666666666667,-0.6666666666666666,-0.002181661564992912,-0.0008818846271248359,0.0015937384802430215
1589995676.6683824,-0.04088782584019135,-4.6208878258401915,8.647780435399522,0.4155555555555556,0.5004699035598618,-0.6528634297734716,0.004072782803192874,0.0,-0.0009455606190999807
1589995676.6783824,-0.05394701833535774,-4.63,8.578158944993927,0.4155555555555556,0.5011111111111111,-0.6522222222222223,-0.001090830782496456,-0.0009473131458535845,0.00014351763664287147
1589995676.6883824,-0.07820695239747816,-4.63,8.505379142807566,0.4155555555555556,0.5011111111111111,-0.6522222222222223,-0.001090830782496456,-6.519705064374302e-05,0.001025633731852713
1589995676.6983824,-0.07199608489594066,-4.621996084895941,8.516007830208117,0.4155555555555556,0.5011111111111111,-0.6522222222222223,-0.001090830782496456,0.0008730916975996258,0.0019639224800960817
1589995676.7083824,-0.05161370308091316,-4.629193148459543,8.60273833613589,0.4155555555555556,0.5011111111111111,-0.6522222222222223,-8.801384972347199e-05,0.001090830782496456,0.001178844632219928
1589995676.7183824,-0.05,-4.615741679122161,8.61,0.4195162002438442,0.49081343492156077,-0.6625198984117725,0.0031106830640517213,0.001090830782496456,0.001090830782496456
1589995676.7283823,-0.05,-4.61,8.639856377521943,0.4211111111111111,0.4866666666666667,-0.6666666666666666,0.0032777146081601595,-0.0010803862611548736,5.222260670791198e-06
1589995676.7383823,-0.058672307596590555,-4.592655384806819,8.561949231630686,0.4211111111111111,0.4866666666666667,-0.6666666666666666,0.0013804883311616006,-0.0020368327906603394,0.0028380060244916506
1589995676.7483823,-0.04,-4.64,8.581307402607921,0.4211111111111111,0.4866666666666667,-0.6666666666666666,-0.004648554131953087,-0.002559414842571208,-0.001090830782496456
1589995676.7583823,-0.04,-4.64,8.5897999514052,0.4211111111111111,0.4866666666666667,-0.6666666666666666,-0.006501340861938057,0.0020725519823912176,-0.001090830782496456
1589995676.7683823,-0.04366392609370263,-4.628168036953149,8.604504110859446,0.4155555555555556,0.4933333333333334,-0.6733333333333333,-0.000491322277326033,0.000199836168390141,0.0
1589995676.7783823,-0.058624600952363964,-4.620687699523818,8.582063098571455,0.4155555555555556,0.4933333333333334,-0.6733333333333333,0.0019566124220862582,0.0010158144015275713,0.0
1589995676.7883823,-0.038406123769778394,-4.614781628690665,8.506375504920886,0.4155555555555556,0.4933333333333334,-0.6733333333333333,0.0036678634278197687,0.000395371080330401,-0.0018339317139098843
1589995676.7983823,-0.03209361535448492,-4.637906384645515,8.544885102493797,0.4155555555555556,0.4933333333333334,-0.6733333333333333,-7.6126002512646e-05,-0.003348618350002014,-7.6126002512646e-05
1589995676.8083823,-0.052629749314531925,-4.617370250685468,8.592802748400574,0.4155555555555556,0.4933333333333334,-0.6733333333333333,-0.0008228409050823165,-0.0040953332525716845,-0.0008228409050823165
1589995676.8183823,-0.05024699865801023,-4.629506002683979,8.58074099597403,0.42747589052909857,0.4933333333333334,-0.6798353342279932,-0.001090830782496456,-0.00010777349575714912,0.0010369440346178814
1589995676.8283823,-0.05139187909475678,-4.618608120905243,8.606081209052432,0.42777777777777776,0.4933333333333334,-0.68,0.0028170009788671692,-0.003907831761363625,0.002181661564992912
1589995676.8383822,-0.059497903098003596,-4.610502096901997,8.525020969019964,0.42777777777777776,0.4933333333333334,-0.68,0.00016431082694813538,-0.0012551416094445911,0.002181661564992912
1589995676.8483822,-0.0762090550200946,-4.638104527510047,8.58,0.42777777777777776,0.4933333333333334,-0.68,-0.002181661564992912,-0.001090830782496456,0.001090830782496456
1589995676.8583822,-0.0612917452075257,-4.630645872603763,8.58,0.42777777777777776,0.4933333333333334,-0.68,-0.002181661564992912,-0.001090830782496456,0.001090830782496456
1589995676.8683822,-0.05026305088191939,-4.610526101763839,8.59947389823616,0.421286478365724,0.4868420339212796,-0.6735087005879462,-0.0011195251824325063,-0.003215103547617268,0.001090830782496456
1589995676.8783822,-0.04255032096616255,-4.6312751604830815,8.614698074203025,0.4211111111111111,0.4866666666666667,-0.6733333333333333,0.00041729529227043185,-0.00176436627272248,0.0
1589995676.8883822,-0.05558885244882416,-4.637794426224412,8.536466885307055,0.4211111111111111,0.4866666666666667,-0.6733333333333333,0.002550720017245898,0.00036905845225298616,0.0
1589995676.8983822,-0.06,-4.629824787942204,8.560876060288978,0.4211111111111111,0.4866666666666667,-0.6733333333333333,-1.9112670610786804e-05,0.002143436223771338,0.001071718111885669
1589995676.9083822,-0.06,-4.6204868980564155,8.607565509717924,0.4211111111111111,0.4866666666666667,-0.6733333333333333,-0.00103771844370892,0.00010622467757507182,5.311233878753591e-05
1589995676.9183822,-0.05773777324524453,-4.631131113377378,8.591131113377378,0.4011111111111111,0.4933333333333334,-0.68,0.001214216111550172,-0.0005972894662815916,0.0009674454534427399
1589995676.9283822,-0.041506916740065285,-4.638995388839956,8.596483860939847,0.4011111111111111,0.4933333333333334,-0.68,0.002181661564992912,0.0032176993085986207,0.00010958607778149464
1589995676.9383821,-0.07102218608433036,-4.62102218608433,8.53306655825299,0.4011111111111111,0.4933333333333334,-0.68,0.0020701583603702054,0.001847151951124792,0.002181661564992912
1589995676.9483821,-0.0791421767917296,-4.62914217679173,8.557426530375189,0.4011111111111111,0.4933333333333334,-0.68,0.0011844047786485797,-0.0008101087940400853,0.002181661564992912
1589995676.9583821,-0.061224285499774767,-4.63,8.578775714500225,0.4011111111111111,0.4933333333333334,-0.68,-0.0009572819515246192,-0.001090830782496456,0.0008162530756455288
1589995676.9683821,-0.05755896363425119,-4.637558963634251,8.605117927268502,0.406990305048862,0.48325471515433177,-0.6699213818209984,-0.002181661564992912,-0.0002662757608952079,0.0008245550216012481
1589995676.978382,-0.04870446540725598,-4.631295534592744,8.589635723258047,0.4088888888888889,0.48,-0.6666666666666666,0.0002826418027108376,0.0006668680784301995,0.0005255471770747807
1589995676.988382,-0.04278060902160637,-4.634438781956787,8.52834182706482,0.4088888888888889,0.48,-0.6666666666666666,0.002030002869250133,-0.002788296347964028,-0.00296917495600381
1589995676.998382,-0.05932824459762338,-4.600447836934918,8.580447836934917,0.4088888888888889,0.48,-0.6666666666666666,0.0010664050667890989,-0.0063495789693198785,-0.0010664050667890989
1589995677.008382,-0.03272254408593056,-4.61818497060938,8.59818497060938,0.4088888888888889,0.48,-0.6666666666666666,9.899449652122434e-05,0.0013897055928231176,-9.899449652122434e-05
1589995677.018382,-0.04868721461187214,-4.62,8.612458143074582,0.4165021985455775,0.48,-0.6576691188905801,0.0,0.0015021752670679885,0.00203845889377477
1589995677.028382,-0.06,-4.626639622772346,8.573522640593579,0.4211111111111111,0.48,-0.6522222222222223,0.0,-0.0010819806887753492,0.001823951366641498
1589995677.038382,-0.06641772630489723,-4.636417726304897,8.517911368475515,0.4211111111111111,0.48,-0.6522222222222223,0.002100196022105737,-0.002181661564992912,0.001090830782496456
1589995677.048382,-0.05098109310454402,-4.649509453447728,8.557056720686369,0.4211111111111111,0.48,-0.6522222222222223,0.002235171892939493,-0.001144341110443037,5.351032794658102e-05
1589995677.058382,-0.05,-4.636420029022735,8.60752989842043,0.4211111111111111,0.48,-0.6522222222222223,-4.035599011854504e-05,0.001131186772615001,0.0007406725183704857
1589995677.068382,-0.05,-4.63,8.62172300623564,0.41099478539911755,0.49103599168581125,-0.6696958757247566,-0.001090830782496456,0.0003759016480542432,0.0001879508240271216
1589995677.078382,-0.05746539896497774,-4.63,8.62,0.4088888888888889,0.4933333333333334,-0.6733333333333333,-0.0002764820830349665,-0.001628697398922979,0.0
1589995677.088382,-0.04076976871119602,-4.629230231288804,8.515388380978372,0.4088888888888889,0.4933333333333334,-0.6733333333333333,0.0010068620419389322,-8.396874055752381e-05,-0.00016793748111504762
1589995677.098382,-0.04792385890700689,-4.622076141092993,8.565467012349048,0.4088888888888889,0.4933333333333334,-0.6733333333333333,0.00022647186130427194,-0.000864358921192184,-0.001728717842384368
1589995677.108382,-0.05,-4.62,8.603350414389919,0.4088888888888889,0.4933333333333334,-0.6733333333333333,0.0,-0.0019398758091821728,0.00036547351506423936
1589995677.118382,-0.04174498630947976,-4.62,8.626510027381041,0.4244816925265382,0.47774052969568404,-0.6733333333333333,0.0,-0.00038069695628308205,0.00019034847814154102
1589995677.128382,-0.041672990144354896,-4.620836495072178,8.637452573917338,0.42777777777777776,0.4744444444444445,-0.6733333333333333,-0.0009995833250826807,0.0020904141075791366,0.0
1589995677.138382,-0.060267191875088985,-4.629465616249822,8.502137535000712,0.42777777777777776,0.4744444444444445,-0.6733333333333333,-2.9146112218001268e-05,0.001090830782496456,2.9146112218001268e-05
1589995677.148382,-0.06965700965700966,-4.610342990342991,8.58,0.42777777777777776,0.4744444444444445,-0.6733333333333333,-0.0010534163400731677,0.0011095380037081002,0.0011095380037081002
1589995677.158382,-0.054138084138084144,-4.625861915861916,8.58,0.42777777777777776,0.4744444444444445,-0.6733333333333333,0.0006394358266582068,0.0019559640870737876,0.0019559640870737876
1589995677.168382,-0.059884632688476123,-4.620115367311524,8.639307796130858,0.4091068049217673,0.4799359070491534,-0.6733333333333333,1.2584621470410453e-05,0.0011034154039668664,2.5169242940820905e-05
1589995677.178382,-0.06972656889575002,-4.6394531377915,8.59136715552125,0.4088888888888889,0.48,-0.6733333333333333,0.0,-0.004214189597281879,0.0
1589995677.188382,-0.06021619676064787,-4.630216196760648,8.511729574085182,0.4088888888888889,0.48,-0.6733333333333333,-0.0010672473743373843,-9.43336326362865e-05,0.0
1589995677.198382,-0.06843895217337666,-4.63,8.526877904346753,0.4088888888888889,0.48,-0.6733333333333333,0.0007502629780504679,0.0,0.0009205468802734619
1589995677.208382,-0.06416563343920377,-4.624165633439204,8.588343665607962,0.4088888888888889,0.48,-0.6733333333333333,0.0017272614465849074,-0.0019092919922653545,-0.0008184612097688986
1589995677.218382,-0.053297802747527614,-4.606595605495055,8.636702197252474,0.4088888888888889,0.48,-0.6778014648349816,0.0014505652576569065,-0.001810299732817357,1.162735701510471e-05
1589995677.2283819,-0.05,-4.62503413097292,8.62122440177031,0.4088888888888889,0.48,-0.68,0.0017735307994541903,0.000957269268376747,0.00040813076553872164
1589995677.2383819,-0.05800145533927597,-4.64,8.537986901946516,0.4088888888888889,0.48,-0.68,0.002181661564992912,0.002181661564992912,0.0008728233788852851
1589995677.2483819,-0.053582407521524024,-4.633582407521524,8.571340739827807,0.4088888888888889,0.48,-0.68,0.000781560079985048,0.000781560079985048,0.001790881525000388
1589995677.2583818,-0.057583930327293156,-4.63,8.615167860654585,0.4088888888888889,0.48,-0.68,0.00165455693066396,0.00082727846533198,-0.00030017383100302804
1589995677.2683818,-0.06,-4.623041536843359,8.626958463156642,0.4274447906399324,0.4946900888862428,-0.6707220491244782,0.002181661564992912,0.001849881363509638,-0.0003317802014832738
1589995677.2783818,-0.05038906651055974,-4.640129688836853,8.578832800468321,0.4355555555555555,0.5011111111111111,-0.6666666666666666,-0.001076683924957888,-2.8293715077135978e-05,-0.001034243352342184
1589995677.2883818,-0.07871999819876616,-4.649573332732922,8.493840005403701,0.4355555555555555,0.5011111111111111,-0.6666666666666666,-4.654217888122635e-05,-0.0020885772072304592,0.0030863236319644627
1589995677.2983818,-0.049758743579888895,-4.620482512840223,8.551206282100557,0.4355555555555555,0.5011111111111111,-0.6666666666666666,0.0021290275790864935,0.003140907382723322,0.0
1589995677.3083818,-0.04243143146640579,-4.635137137067188,8.587842842667971,0.4355555555555555,0.5011111111111111,-0.6666666666666666,0.0005304560578171858,-0.0008555214204499471,0.0
1589995677.3183818,-0.0464597547482943,-4.633540245251705,8.612919509496589,0.42909580080726123,0.49429248109902263,-0.6666666666666666,0.001409299865363414,-0.0018293365986520585,0.0003523249663408535
1589995677.3283818,-0.05612760464687443,-4.623872395353126,8.63225520929375,0.4194279509086812,0.4840875284282992,-0.6666666666666666,0.0035184975193487014,-0.0013020371851557365,0.0008796243798371754
1589995677.3383818,-0.041302844394868934,-4.638697155605131,8.537165644171779,0.4155555555555556,0.48,-0.6666666666666666,0.001304008198105356,0.004008027437304324,0.002110602426456612
1589995677.3483818,-0.06,-4.639973391606144,8.570106433575424,0.4155555555555556,0.48,-0.6666666666666666,0.0,-0.001087928256987403,0.001087928256987403
1589995677.3583817,-0.06,-4.634581914004756,8.591672343980976,0.4155555555555556,0.48,-0.6666666666666666,0.0,-0.0004998092839139555,0.0004998092839139555
1589995677.3683817,-0.054969447661647824,-4.635030552338352,8.615030552338352,0.4138787047761049,0.48,-0.6666666666666666,0.0,0.0,0.0005487481343634074
1589995677.3783817,-0.044865272914089205,-4.645134727085911,8.63,0.4088888888888889,0.48,-0.6666666666666666,-0.0010614378919869476,-0.0010614378919869476,0.0011202236730059644
1589995677.3883817,-0.04373640963077254,-4.6462635903692275,8.561100505938498,0.4088888888888889,0.48,-0.6666666666666666,-0.002181661564992912,-0.00013190640988241598,0.0
1589995677.3983817,-0.04603803213389762,-4.631885903598308,8.550190160669487,0.4088888888888889,0.48,-0.6666666666666666,-0.001523014433257083,-0.00022646348097520204,-0.000658647131735829
1589995677.4083817,-0.0567436621505854,-4.6334873243011705,8.576743662150585,0.4088888888888889,0.48,-0.6666666666666666,-0.0018264502085579364,0.0003804080696265047,-0.0018264502085579364
1589995677.4183817,-0.06,-4.633996588971006,8.616020466173962,0.4128911629082181,0.48,-0.6666666666666666,-0.0008719204549118913,0.001090830782496456,0.00043782065516912924
1589995677.4283817,-0.04556036422809265,-4.63,8.611120728456186,0.4155555555555556,0.48,-0.6666666666666666,0.0,-0.0004842891363068952,-0.0009685782726137904
1589995677.4383817,-0.05908154844517799,-4.642721032296786,8.542755354664466,0.4155555555555556,0.48,-0.6666666666666666,-0.0006938246807232513,0.00029681857895004667,-0.0007940122035464093
1589995677.4483817,-0.04284469255793406,-4.65,8.519051769147355,0.4155555555555556,0.48,-0.6666666666666666,-0.001090830782496456,0.001090830782496456,-0.0009873948421986877
1589995677.4583817,-0.0702418153340719,-4.65,8.58804408450166,0.4155555555555556,0.48,-0.6666666666666666,-0.001090830782496456,-0.0005586043717524922,-0.00191554835962093
1589995677.4683816,-0.07045451570680629,-4.65,8.629090968586388,0.42085860238510764,0.48,-0.6793939790575917,-4.957997241124279e-05,0.0009916708376739704,-0.0032229123750781253
1589995677.4783816,-0.05482856661865659,-4.627242849927985,8.622414283309327,0.4211111111111111,0.48,-0.68,0.0,0.0002633574551482717,-0.0007900723654448156
1589995677.4883816,-0.05860173006280365,-4.628601730062804,8.542584429434767,0.4211111111111111,0.48,-0.68,0.0009383031935231395,-0.0009383031935231395,0.0009383031935231395
1589995677.4983816,-0.06,-4.63,8.539278610065557,0.4211111111111111,0.48,-0.68,-0.0009334479131620219,-7.869143466721702e-05,-0.0009334479131620219
1589995677.5083816,-0.06729002146924298,-4.651870064407729,8.5910301502847,0.4211111111111111,0.48,-0.68,-0.001090830782496456,0.0015904359647420556,0.0004996051822455997
1589995677.5183816,-0.06414640913456408,-4.654146409134564,8.615853590865434,0.4211111111111111,0.47674800507475784,-0.68,-0.00045230307208069887,0.002181661564992912,-0.0008247523487508153
1589995677.5283816,-0.06,-4.627315623320795,8.58219270553466,0.4211111111111111,0.4744444444444445,-0.68,0.0008248272121140418,-0.0002928200713492135,0.0011176472834632553
1589995677.5383816,-0.06,-4.646898477288592,8.525169204519013,0.4211111111111111,0.4744444444444445,-0.68,0.00011277454820721611,-0.00011277454820721611,-0.0017305633721640475
1589995677.5483816,-0.06,-4.637948546927108,8.544102906145785,0.4211111111111111,0.4744444444444445,-0.68,-0.001971914397858291,-0.000657304799286097,-0.002838966364279009
1589995677.5583816,-0.06517957196656562,-4.635179571966566,8.565179571966565,0.4211111111111111,0.4744444444444445,-0.68,-0.002707488693360819,-0.001090830782496456,-0.0021424850392322697
