time,acc_x,acc_y,acc_z,mag_x,mag_y,mag_z,gyr_x,gyr_y,gyr_z
1589995714.4803972,-3.85,-0.88,9.0,0.3055555555555556,-0.31555555555555553,-0.5822222222222222,0.0,-0.004363323129985824,-0.001090830782496456
1589995714.4903972,-3.858104770922301,-0.88,9.040523854611505,0.3055555555555556,-0.31555555555555553,-0.5822222222222222,0.0008840933607128143,-0.0025951364085601953,-0.0019749241432092703
1589995714.5003972,-3.8308976175789002,-0.8991023824211001,8.9317952351578,0.3055555555555556,-0.31555555555555553,-0.5822222222222222,-0.0031745774588919635,-0.0004895744429870224,-0.001090830782496456
1589995714.5103972,-3.837890331938447,-0.8921096680615528,8.945780663876894,0.3055555555555556,-0.31555555555555553,-0.5822222222222222,-0.002411790651232057,-0.004303508481286555,-0.001090830782496456
1589995714.5203972,-3.8255334387039412,-0.89,8.964466561296058,0.3055555555555556,-0.31555555555555553,-0.5822222222222222,-0.005337775640715395,-0.0015090113178291755,-0.00030180226356583517
1589995714.5303972,-3.82,-0.89,8.963260102172818,0.3055555555555556,-0.31555555555555553,-0.5874643649766981,-0.006544984694978735,0.0007352088020772447,-0.0014704176041544894
1589995714.5403972,-3.849071190808547,-0.8803096030638176,8.950309603063817,0.3055555555555556,-0.31555555555555553,-0.59,-0.004430868040459315,0.0021478891097561664,0.0009895134167862193
1589995714.5503972,-3.8496687937520835,-0.9003312062479166,8.852318443735415,0.3055555555555556,-0.31555555555555553,-0.59,-0.0020732745738181488,0.0011269597795547104,0.003272492347489368
1589995714.5603971,-3.8402529919709134,-0.909494016058173,8.922529919709135,0.3055555555555556,-0.31555555555555553,-0.59,0.0010356364965770776,0.002071272993154155,0.003272492347489368
1589995714.5703971,-3.8481955385547644,-0.8936089228904711,9.001955385547644,0.3055555555555556,-0.31555555555555553,-0.59,-0.0006971583644382552,-0.0013943167288765104,0.003272492347489368
1589995714.5803971,-3.826851552085317,-0.89,9.043148447914684,0.3012688059417254,-0.3198423051693857,-0.5839985505406378,0.0005925718543270122,-0.002181661564992912,0.0007473883922541657
1589995714.5903971,-3.843466244317632,-0.9056441628784215,9.065644162878423,0.3,-0.3211111111111111,-0.5822222222222222,-0.0006156826609205986,-0.002181661564992912,0.0
1589995714.600397,-3.859622250138771,-0.9003777498612288,8.925666247918432,0.3,-0.3211111111111111,-0.5822222222222222,0.0010084185471540316,-0.002181661564992912,0.0010496246648252438
1589995714.610397,-3.830476444100131,-0.9,8.998729482399652,0.3,-0.3211111111111111,-0.5822222222222222,-0.0021296895759367693,-0.002181661564992912,-0.0010561827897923612
1589995714.620397,-3.83,-0.8939788537261193,8.981936561178358,0.3,-0.3211111111111111,-0.5822222222222222,-0.001524856394846621,-0.003495271905285494,-0.0004340256123501649
1589995714.630397,-3.8355824226038613,-0.8955824226038612,8.981164845207722,0.29627838493075914,-0.3211111111111111,-0.5902857215389107,-0.001699778624216042,-0.00010068823794872304,0.0
1589995714.640397,-3.857927856066649,-0.8820721439333511,8.927252503766729,0.2933333333333333,-0.3211111111111111,-0.5966666666666667,-0.0002260358388262618,0.002294679484406043,0.000977812863083325
1589995714.650397,-3.821010346926354,-0.8702525867315886,8.832273280584298,0.2933333333333333,-0.3211111111111111,-0.5966666666666667,-0.0010632778442897593,0.0011183837207031527,0.0032173864710759743
1589995714.660397,-3.8341198986189418,-0.8911798479284125,8.886479594475768,0.2933333333333333,-0.3211111111111111,-0.5966666666666667,-0.0003207097795329155,0.0034011937913870777,0.0017322503415622868
1589995714.670397,-3.846757431790417,-0.9,8.964059454323333,0.2933333333333333,-0.3211111111111111,-0.5966666666666667,0.0014742429215213403,0.0006777158261824733,0.0003537093217357858
1589995714.680397,-3.8370232507840383,-0.9,8.996488374607981,0.30558915203729736,-0.3211111111111111,-0.5923410835946793,0.002181661564992912,-0.001090830782496456,-0.0007077718750754013
1589995714.690397,-3.84,-0.89,9.02930709674903,0.31222222222222223,-0.3211111111111111,-0.59,-0.0021747902904888194,-0.00325187852397709,0.0021747902904888194
1589995714.700397,-3.84,-0.89,8.939330499054156,0.31222222222222223,-0.3211111111111111,-0.59,-0.001282524449853664,-0.0005750810020716244,0.001282524449853664
1589995714.710397,-3.8306363377878876,-0.8993636622121126,9.004272959909013,0.31222222222222223,-0.3211111111111111,-0.59,-0.002112247880283584,-0.001021417097787128,0.002112247880283584
1589995714.720397,-3.83,-0.8925717011842622,9.039713195262951,0.31222222222222223,-0.3211111111111111,-0.59,-0.002181661564992912,0.0005297726194612917,0.002181661564992912
1589995714.730397,-3.8599164195200864,-0.89,9.029832839040171,0.3,-0.3288888888888889,-0.5966666666666667,0.0010953893905117419,0.001090830782496456,0.0
1589995714.740397,-3.8410690212995413,-0.89,8.992138042599084,0.3,-0.3288888888888889,-0.5966666666666667,0.002123355497958692,0.001090830782496456,0.0
1589995714.750397,-3.84,-0.89,8.841944990176817,0.3,-0.3288888888888889,-0.5966666666666667,0.002181661564992912,-0.0009279562452278298,0.0020187870277242857
1589995714.760397,-3.847435243102191,-0.8751295137956177,8.889481944817529,0.3,-0.3288888888888889,-0.5966666666666667,0.004614839180357287,-0.0002797715773749977,0.002181661564992912
1589995714.770397,-3.85,-0.87,8.934185794569707,0.3,-0.3288888888888889,-0.5966666666666667,0.004398849543851406,0.0005276521843154365,-0.0004565993565842706
1589995714.780397,-3.845451184608046,-0.87,8.982744076959772,0.2934294888782884,-0.3288888888888889,-0.5936341230720306,0.002280094776801902,0.000594631997152723,-0.002280094776801902
1589995714.790397,-3.854810345732123,-0.8922155185981848,9.002594827133938,0.2855555555555556,-0.3288888888888889,-0.59,-0.00214028542230654,-0.0016155581024014979,-0.001090830782496456
1589995714.800397,-3.8401406530763986,-0.9198593469236013,8.920562612305595,0.2855555555555556,-0.3288888888888889,-0.59,-2.3014305808293205e-05,-0.003264820912219937,-0.002173990129723481
1589995714.810397,-3.8469110849720844,-0.9061778300558307,8.947644339888338,0.2855555555555556,-0.3288888888888889,-0.59,-0.0007538824227998569,-0.003272492347489368,-0.0006738967193931982
1589995714.820397,-3.8374458454574847,-0.9,9.003939540898804,0.2855555555555556,-0.3288888888888889,-0.59,0.0002786150398228905,-0.0025877694363296948,-0.0006847229111596732
1589995714.830397,-3.8246676399211283,-0.8946676399211285,9.03,0.2932578534472589,-0.3217790754503935,-0.6024421735173668,-0.001235850224458862,-0.001018321061515253,-0.001090830782496456
1589995714.840397,-3.82674978570872,-0.89,9.003000857165121,0.3,-0.31555555555555553,-0.6133333333333333,-0.0025362049448567564,-0.0007362874026326114,-0.001090830782496456
1589995714.8503969,-3.8433868525896413,-0.8833065737051793,8.923065737051793,0.3,-0.31555555555555553,-0.6133333333333333,0.0007388966121117425,0.0018297273946081985,-0.00036069123822029235
1589995714.8603969,-3.840423578310977,-0.8704235783109767,8.89,0.3,-0.31555555555555553,-0.6133333333333333,0.0032262871214482373,0.0011832412345787174,-0.0010446255564553252
1589995714.8703969,-3.84,-0.8846396743710664,8.941238860298734,0.3,-0.31555555555555553,-0.6133333333333333,0.0016755516025210046,0.0018893011549806376,-0.0002923604100122743
1589995714.8803968,-3.84936320754717,-0.9087264150943396,8.98808962264151,0.3052017819706499,-0.32075733752620544,-0.5914858490566037,0.0021121982840320527,0.0001389265619217185,0.0010213675015355967
1589995714.8903968,-3.8569341286307055,-0.9030658713692946,8.948395228215768,0.3055555555555556,-0.3211111111111111,-0.59,0.0006688693729602231,-0.0022691882880490335,-0.00042196140953623283
1589995714.9003968,-3.8508163265306123,-0.9,8.884081632653062,0.3055555555555556,-0.3211111111111111,-0.59,-0.0020035667433608373,-0.00026714223244811213,-0.001090830782496456
1589995714.9103968,-3.842068766194937,-0.8841375323898745,8.919656169025314,0.3055555555555556,-0.3211111111111111,-0.59,-0.00045133476944511533,-0.0008651633977738983,-0.001955994180270354
1589995714.9203968,-3.84,-0.8847586310869893,8.972827679782903,0.3055555555555556,-0.3211111111111111,-0.59,-0.0010381722544464988,-0.0021290030369429547,-0.0016625754377696624
1589995714.9303968,-3.84,-0.895398879151465,9.02,0.3073551819393772,-0.3211111111111111,-0.5879004358855413,-0.0012982720295834564,-0.0035669555259591865,-0.0007963676040266374
1589995714.9403968,-3.8316137556291636,-0.8932275112583274,9.028386244370836,0.31222222222222223,-0.3211111111111111,-0.5822222222222222,-0.0025683586212018796,-0.002533728428136656,0.0
1589995714.9503968,-3.8525016454257166,-0.89,8.917491772871418,0.31222222222222223,-0.3211111111111111,-0.5822222222222222,-0.001636126515009892,0.00027288718372630184,0.0008181829162397379
1589995714.9603968,-3.8491372114496767,-0.9008627885503232,8.907156971375809,0.31222222222222223,-0.3211111111111111,-0.5822222222222222,-0.0004983575757743274,-9.411563094780125e-05,-0.0012790620443920585
1589995714.9703968,-3.8347162162162163,-0.8994324324324324,8.935283783783783,0.31222222222222223,-0.3211111111111111,-0.5822222222222222,0.001729114199822085,0.000638283417325629,-0.002119749547607978
1589995714.9803967,-3.8402755662054573,-0.89,8.965688915513644,0.30594270954110947,-0.3211111111111111,-0.5862182757465667,0.003272492347489368,0.0027421067612175636,-0.001090830782496456
1589995714.9903967,-3.8435169589739626,-0.8770339179479255,9.009449123078111,0.3,-0.3211111111111111,-0.59,0.003272492347489368,0.003272492347489368,-0.001090830782496456
1589995715.0003967,-3.84,-0.8819230280475628,8.960384859762186,0.3,-0.3211111111111111,-0.59,0.0019718917460043494,0.0013215914452618406,0.0008600701197310715
1589995715.0103967,-3.84,-0.8972216315307058,8.95610815765353,0.3,-0.3211111111111111,-0.59,-0.00048468481221171584,-0.002363273392062258,-0.0009693696244234317
1589995715.0203967,-3.833166361756284,-0.9,8.983667276487433,0.3,-0.3211111111111111,-0.59,-0.001090830782496456,-0.004017926642758432,-0.002181661564992912
1589995715.0303967,-3.8381210986267167,-0.9081210986267166,9.006242197253433,0.3,-0.3111853239006797,-0.6017304757941462,0.0015667925284171943,-0.00259157425604339,-0.002181661564992912
1589995715.0403967,-3.8274826210429116,-0.9037413105214559,8.97870655260728,0.3,-0.3088888888888889,-0.6044444444444445,0.0008162273367363763,-0.00013351022260810847,-0.0008162273367363763
1589995715.0503967,-3.827618072872083,-0.8847638542558338,8.899055417023336,0.3,-0.3088888888888889,-0.6044444444444445,0.0016620056784338799,0.001090830782496456,-0.0008310028392169399
1589995715.0603967,-3.8381574900736726,-0.8963149801473458,8.90447247022102,0.3,-0.3088888888888889,-0.6044444444444445,0.0030715056930200758,0.001980674910523619,-0.001980674910523619
1589995715.0703967,-3.84,-0.8867052136417092,8.943236965895728,0.3,-0.3088888888888889,-0.6044444444444445,0.0025473742371724863,6.3072340422665706e-06,-0.0029067796753097937
1589995715.0803967,-3.84,-0.8850354782467664,8.980141912987065,0.3,-0.3122458743867331,-0.6005279613636262,0.0016323760973765032,-0.0021894017177292733,-0.0021739214122565506
1589995715.0903966,-3.8462814884122642,-0.8962814884122643,9.031407442061322,0.3,-0.31555555555555553,-0.5966666666666667,-0.000964781493501346,-0.003272492347489368,-0.001090830782496456
1589995715.1003966,-3.8419895593117253,-0.8919895593117255,8.937853830364157,0.3,-0.31555555555555553,-0.5966666666666667,-0.00043405450816652764,-0.00414629587590256,-0.001090830782496456
1589995715.1103966,-3.84,-0.89,8.959739088145897,0.3,-0.31555555555555553,-0.5966666666666667,-0.0009042821407141441,-0.004363323129985824,-0.001090830782496456
1589995715.1203966,-3.84,-0.9031591842888914,8.989738776433338,0.3,-0.31555555555555553,-0.5966666666666667,-0.0018085529472397798,-0.0007747123062692043,-0.002526275111983104
1589995715.1303966,-3.84,-0.9056170565481673,9.004382943451832,0.3,-0.3179905241399071,-0.5937447043654448,-0.002181661564992912,-0.0008215890715837187,-0.0018381774569292372
1589995715.1403966,-3.8443821773082223,-0.9,8.983706936150666,0.3,-0.3211111111111111,-0.59,-0.002181661564992912,-0.0013604067866228196,-0.00047802139021663713
1589995715.1503966,-3.842833149345529,-0.9071668506544709,8.892665194764232,0.3,-0.3211111111111111,-0.59,-0.0013998794342477386,-0.0004727334789938907,-0.001090830782496456
1589995715.1603966,-3.832904856225668,-0.9029048562256676,8.89838057509733,0.3,-0.3211111111111111,-0.59,0.0012310495880874905,-0.001090830782496456,-0.001090830782496456
1589995715.1703966,-3.8439013353233515,-0.8814648862355313,8.94243644908782,0.3,-0.3211111111111111,-0.59,0.00015979429985729524,-0.001090830782496456,-0.001090830782496456
1589995715.1803966,-3.850820718927243,-0.8630597603575856,8.995298801787929,0.3,-0.3194112442457858,-0.5876201863885445,-0.0015141254079695764,-0.0004232946254731204,-0.0004232946254731204
1589995715.1903965,-3.8424214593864967,-0.8886321890797448,9.005157081227006,0.3,-0.31555555555555553,-0.5822222222222222,0.0,0.00041334526938045573,-0.0002641402437355445
1589995715.2003965,-3.85,-0.9156264494598111,8.91968097743085,0.3,-0.31555555555555553,-0.5822222222222222,-0.0017045812091887036,-0.0008522906045943518,-0.00023854017790210416
1589995715.2103965,-3.8387902618041223,-0.903185392706183,8.928024345489694,0.3,-0.31555555555555553,-0.5822222222222222,-0.0009588688162139134,0.000743358340672042,0.0
1589995715.2203965,-3.826318737518874,-0.89,8.961043787443378,0.3,-0.31555555555555553,-0.5822222222222222,0.0016062537731446522,0.002181661564992912,-0.0008031268865723261
1589995715.2303965,-3.8303939617083946,-0.89,8.983464653902798,0.30423457699230894,-0.3174803632793323,-0.5849169530355097,0.003229517791625185,0.0029375317905666713,-0.001047856226632273
1589995715.2403965,-3.845390701500137,-0.8761721045004113,8.994609298499864,0.31222222222222223,-0.3211111111111111,-0.59,0.0020964237203694963,0.004363323129985824,8.523784462341586e-05
1589995715.2503965,-3.84,-0.8865367139863927,8.920389858040823,0.31222222222222223,-0.3211111111111111,-0.59,0.003996168959555901,0.002192293293786224,0.001803875665769677
1589995715.2603965,-3.834596168881939,-0.894596168881939,8.912422986708366,0.31222222222222223,-0.3211111111111111,-0.59,0.0025949235318878747,0.0005013642497971396,0.0015040927493914192
1589995715.2703965,-3.8441178723730243,-0.89,8.94941191491535,0.31222222222222223,-0.3211111111111111,-0.59,0.0016041711080914916,0.0010266806511900711,-0.0005133403255950356
1589995715.2803965,-3.8394705768486257,-0.8968431410504581,9.014745128403664,0.3076601281885835,-0.3173093660830788,-0.5945620940336388,0.0014351906743124265,0.003674603346353883,0.001895052780225486
1589995715.2903965,-3.8373938334904465,-0.9,9.003030832547767,0.3055555555555556,-0.31555555555555553,-0.5966666666666667,-0.0005222534519100477,0.0011371546611728166,0.003272492347489368
1589995715.3003964,-3.84,-0.8791242668121675,8.927372800436503,0.3055555555555556,-0.31555555555555553,-0.5966666666666667,-0.0003317677035474376,0.0037953153947450917,0.000995303110642313
1589995715.3103964,-3.84,-0.880992245973871,8.9,0.3055555555555556,-0.31555555555555553,-0.5966666666666667,-0.0011990680277071274,0.003655551870921589,0.0005995340138535637
1589995715.3203964,-3.84,-0.8780055652624086,8.931985159300243,0.3055555555555556,-0.31555555555555553,-0.5966666666666667,-0.0017455316106459284,0.002181661564992912,0.001090830782496456
1589995715.3303964,-3.8496864709110867,-0.8793729418221734,8.98,0.3028648691913648,-0.3182462419197463,-0.5966666666666667,-0.001090830782496456,0.0011250315006359236,0.0016191458146749501
1589995715.3403964,-3.855556913119572,-0.8955569131195721,8.98,0.3,-0.3211111111111111,-0.5966666666666667,-0.003029493157887245,0.0024233279692384858,0.0016969959711452148
1589995715.3503964,-3.846905179818501,-0.8992844605444972,8.94905179818501,0.3,-0.3211111111111111,-0.5966666666666667,-0.004778968888428194,0.004778968888428194,0.000753238270469413
1589995715.3603964,-3.8357440206148152,-0.92,8.91404783508148,0.3,-0.3211111111111111,-0.5966666666666667,-0.004201003012095378,0.004665258344398382,-0.0009285106646060096
1589995715.3703964,-3.83301317715959,-0.9109604685212299,8.98109224011713,0.3,-0.3211111111111111,-0.5966666666666667,-0.006440213832121096,0.006873671334858341,-0.00020954172571527796
1589995715.3803964,-3.84394609929078,-0.8821078014184397,9.04183829787234,0.29736926713947986,-0.31891883372734436,-0.5857052797478329,-0.007865740944537566,0.008066268135192234,0.0017806071836835766
1589995715.3903964,-3.840319370121681,-0.879680629878319,9.026117795425884,0.2933333333333333,-0.31555555555555553,-0.5688888888888889,-0.006016988241717473,0.008198649806710385,-0.0016536651117316499
1589995715.4003963,-3.8003812154696135,-0.8998729281767957,8.950508287292818,0.2933333333333333,-0.31555555555555553,-0.5688888888888889,-0.006531123309344803,0.011405208366494023,-0.002167800179358979
1589995715.4103963,-3.695095911243217,-0.9050063940828812,8.885031970414406,0.2933333333333333,-0.31555555555555553,-0.5688888888888889,-0.009814687097495072,0.023442399530024936,-0.0049066460625042775
1589995715.4203963,-3.4262577658457674,-0.9283525220713511,8.836372898273874,0.2933333333333333,-0.31555555555555553,-0.5688888888888889,-0.01870016277210968,0.04709799461081721,-0.018916106229714732
1589995715.4303963,-3.1381948035434237,-0.9552129869028949,8.81,0.29652467539807004,-0.3251295817497657,-0.5821861474919585,-0.036101399140733174,0.08942375813146326,-0.05831184756331965
1589995715.4403963,-3.0114619619722056,-0.8771929429583085,8.834269019013897,0.3,-0.33555555555555555,-0.5966666666666667,-0.06742260322339447,0.1531198091039781,-0.14309342677012418
1589995715.4503963,-2.9861146085552868,-0.6221033091202582,8.758280871670701,0.3,-0.33555555555555555,-0.5966666666666667,-0.11673949537386043,0.21606760585105994,-0.23668210660960834
1589995715.4603963,-2.3357502813874964,-1.095005116136294,9.966289777959684,0.3,-0.33555555555555555,-0.5966666666666667,-0.22480699210335298,0.2617932209721022,-0.31798389800865984
1589995715.4703963,-2.015146834671273,-1.3419264302408294,10.394146529824205,0.3,-0.33555555555555555,-0.5966666666666667,-0.2430947601807809,0.2562392877366916,-0.33706671179140485
1589995715.4803963,-1.5889401483589067,-1.2652092267046031,9.38829875012702,0.3,-0.33555555555555555,-0.5966666666666667,-0.07572378585205836,0.12048283078117211,-0.33706671179140485
1589995715.4903963,-1.4922337408312958,-0.7424467481662591,8.344656821515892,0.32,-0.3288888888888889,-0.5822222222222222,0.11432713121904244,0.0635221755977008,-0.29668790078675683
1589995715.5003963,-1.8708235630540464,-0.8406176722905347,8.800411781527023,0.32,-0.3288888888888889,-0.5822222222222222,0.03184503759278705,0.07181956411662334,-0.32170083798539306
1589995715.5103962,-2.2471374057547315,-1.0661895676257886,9.026344360670873,0.32,-0.3288888888888889,-0.5822222222222222,-0.006163101605836415,0.00974577325568822,-0.3336212038460393
1589995715.5203962,-2.30949349292296,-1.04924023938444,9.023100598461099,0.32,-0.3288888888888889,-0.5822222222222222,0.005557941896879397,0.027891963860398456,-0.32602027558864344
1589995715.5303962,-2.343689240402043,-1.0166444224748723,8.95,0.3173901063693451,-0.31994068215521504,-0.5848321158528771,0.02907911500691574,0.01970046863761704,-0.31960613987671926
1589995715.5403962,-2.45,-1.0212597387495639,8.991285708748402,0.31222222222222223,-0.3022222222222222,-0.59,0.024132860508099527,0.032719257700063085,-0.3174317577064687
1589995715.5503962,-2.4769912213474536,-1.0489970737824845,9.00151902041385,0.31222222222222223,-0.3022222222222222,-0.59,0.015818642350269706,0.02476090116022689,-0.3198853289650502
1589995715.5603962,-2.5207451848265845,-1.056418271724472,8.912091358622359,0.31222222222222223,-0.3022222222222222,-0.59,0.011771006771210159,0.030315130073649905,-0.32679297107643507
1589995715.5703962,-2.5353071751128953,-1.05,8.748600903161064,0.31222222222222223,-0.3022222222222222,-0.59,0.016295446523694274,0.03330384647301819,-0.3378894817188911
1589995715.5803962,-2.551845754876536,-1.0412616980493856,8.687383019506145,0.3185332180754438,-0.30998960173387957,-0.5929127673168715,0.014117089455875604,0.029865320848549943,-0.35014647270747046
1589995715.5903962,-2.595195065713627,-1.0350650219045423,8.875975328568135,0.32666666666666666,-0.32,-0.5966666666666667,0.007054936138721315,0.0228648896954188,-0.3688142891158202
1589995715.6003962,-2.6389710618491264,-1.0544855309245633,8.94517148969181,0.32666666666666666,-0.32,-0.5966666666666667,0.006996866968872165,0.020688371620490746,-0.3869082085637646
1589995715.6103961,-2.660475189837146,-1.065237594918573,8.959049620325708,0.32666666666666666,-0.32,-0.5966666666666667,0.01189546826708335,0.0254531002930058,-0.4058938675333248
1589995715.6203961,-2.674476339986544,-1.0640793899977574,8.992238169993271,0.32666666666666666,-0.32,-0.5966666666666667,0.016405762264134857,0.029452431127404314,-0.42584135375288196
1589995715.6303961,-2.707358702994821,-1.072641297005179,9.012641297005178,0.3319492606770247,-0.3164782706597613,-0.5949058019965473,0.01963495408493621,0.0308930351668868,-0.44789865632598064
1589995715.640396,-2.703726302703823,-1.0824842018025485,9.016273697296176,0.3466666666666667,-0.30666666666666664,-0.59,0.019363969705320908,0.03517756941950189,-0.4712182182463632
1589995715.650396,-2.729796747125246,-1.0998644980834975,8.990203252874753,0.3466666666666667,-0.30666666666666664,-0.59,0.01746807348610413,0.03707346563871866,-0.4939689728769645
1589995715.660396,-2.649559169698267,-1.1095591696982667,8.887610207575435,0.3466666666666667,-0.30666666666666664,-0.59,0.016410548863745635,0.0423981391384654,-0.5322494978882284
1589995715.670396,-2.6794778514872672,-1.1394778514872672,8.880130537128183,0.3466666666666667,-0.30666666666666664,-0.59,0.01314692695702983,0.0521890048586128,-0.5559107567119179
1589995715.680396,-2.6661446669391093,-1.146144666939109,8.782289333878218,0.3504217409072334,-0.3035943331971121,-0.5920482223130363,0.014601351770413534,0.049001973206649334,-0.599102810316139
1589995715.690396,-2.675747064276885,-1.1685058714462297,8.81850587144623,0.3588888888888889,-0.2966666666666667,-0.5966666666666667,0.013553892710232732,0.048949430175957126,-0.6375469389123387
1589995715.700396,-2.695024043715847,-1.1907245901639343,8.833574863387978,0.3588888888888889,-0.2966666666666667,-0.5966666666666667,0.015740628583184375,0.04698476417289899,-0.6717303770163856
1589995715.710396,-2.754392489748939,-1.221993741457449,8.871183727789369,0.3588888888888889,-0.2966666666666667,-0.5966666666666667,0.020637426083094053,0.04987237375508588,-0.7048023966583503
1589995715.720396,-2.785034160373966,-1.26,8.977482919813017,0.3588888888888889,-0.2966666666666667,-0.5966666666666667,0.02849515945366012,0.05276800752357945,-0.7501871969525933
1589995715.730396,-2.7573244561140284,-1.2680266316579145,8.99,0.36215899808285407,-0.29458568808868885,-0.5987476452446445,0.031418831599122135,0.05520184772076907,-0.7841977176237176
1589995715.740396,-2.7370724158480555,-1.29,8.985690805282685,0.3711111111111111,-0.2888888888888889,-0.6044444444444445,0.032875633808306506,0.05952563281276327,-0.8320921124994869
1589995715.750396,-2.716365135939203,-1.3081743203039855,8.932746767209638,0.3711111111111111,-0.2888888888888889,-0.6044444444444445,0.03084108837085572,0.06009436873712088,-0.8717657485297772
1589995715.760396,-2.71,-1.3580389895539933,8.87705848433099,0.3711111111111111,-0.2888888888888889,-0.6044444444444445,0.027976619745607226,0.06266929172956369,-0.922457546885833
1589995715.770396,-2.70672565865925,-1.38327434134075,8.890353951955499,0.3711111111111111,-0.2888888888888889,-0.6044444444444445,0.02582276354722584,0.06541123678092907,-0.9687060287386756
1589995715.780396,-2.6944115170904195,-1.3941913621821855,8.848602879272605,0.37390535256590146,-0.28826794634337993,-0.6075491571719893,0.025089107997418484,0.07057518122792644,-1.0109036420940924
1589995715.790396,-2.6604987403191194,-1.42,8.838753149202201,0.3911111111111111,-0.28444444444444444,-0.6266666666666667,0.025252320385188667,0.07534893018614056,-1.0507121139283804
1589995715.800396,-2.6802003269224084,-1.420300490383612,8.789899836538796,0.3911111111111111,-0.28444444444444444,-0.6266666666666667,0.03165048190041164,0.0785507424784211,-1.1030976115014857
1589995715.810396,-2.716375547038517,-1.4908733588844492,8.79537117073038,0.3911111111111111,-0.28444444444444444,-0.6266666666666667,0.036488050983925054,0.08190757736276659,-1.1764443202327337
1589995715.820396,-2.71,-1.5245640742856017,8.890974259999606,0.3911111111111111,-0.28444444444444444,-0.6266666666666667,0.04006425519733739,0.08518549079342456,-1.2297858074715247
1589995715.830396,-2.71,-1.56846477526299,8.970767612368505,0.39316275280699886,-0.2820508624659087,-0.6239311444054829,0.04178726882234447,0.0896163562120705,-1.2757711444149855
1589995715.840396,-2.7060958520720337,-1.6178082958559323,8.957808295855932,0.3977777777777778,-0.2766666666666667,-0.6177777777777778,0.044245906413059886,0.09788341339466336,-1.3277355038484264
1589995715.850396,-2.694120528874345,-1.6437187659598615,8.940602644371726,0.3977777777777778,-0.2766666666666667,-0.6177777777777778,0.04669194004439216,0.1023243099517114,-1.366399971955631
1589995715.860396,-2.6703194809616586,-1.6992545444227969,8.821597404808292,0.3977777777777778,-0.2766666666666667,-0.6177777777777778,0.04582650952043111,0.10145887942775035,-1.4044789150099173
1589995715.870396,-2.6931979064688605,-1.7291874388131636,8.879593719406582,0.3977777777777778,-0.2766666666666667,-0.6177777777777778,0.04441954293854007,0.1031471318422961,-1.4582134552884183
1589995715.880396,-2.6960869711554647,-1.7719565144222678,8.886304399044125,0.4042994925186706,-0.2686232184862322,-0.6238647115359444,0.042305260198148543,0.1090830782496456,-1.4955764014947148
1589995715.8903959,-2.7090598428240145,-1.8148718113888174,8.824188031435197,0.4311111111111111,-0.23555555555555555,-0.6488888888888888,0.04486391173224284,0.1116190279366011,-1.539208856508077
1589995715.9003959,-2.776605256377222,-1.8959263076526667,8.810678948724556,0.4311111111111111,-0.23555555555555555,-0.6488888888888888,0.04265349324263406,0.11751347724222451,-1.567207490709788
1589995715.9103959,-2.7685871875316264,-1.9216850521202307,8.73788078129744,0.4311111111111111,-0.23555555555555555,-0.6488888888888888,0.049947045095277455,0.11404519362376267,-1.61256815764706
1589995715.9203959,-2.8128350186577986,-1.9955151679201872,8.831185205235785,0.4311111111111111,-0.23555555555555555,-0.6488888888888888,0.0567232006898157,0.1175004719475294,-1.6459791826352623
1589995715.9303958,-2.8140989349493646,-2.0659010650506353,8.909016489158228,0.4337338066891712,-0.23369781285442964,-0.6481239360119546,0.05683048507992815,0.11704074689745812,-1.6761238144924873
1589995715.9403958,-2.763431919305804,-2.1165680806941958,8.900571986550968,0.4562524803085314,-0.21774708570738288,-0.6415559895396413,0.05775163741861524,0.11980420391351938,-1.7000737752983512
1589995715.9503958,-2.7500778642936594,-2.192480533926585,8.895194660734148,0.4577777777777778,-0.21666666666666667,-0.6411111111111111,0.059725108760890495,0.1251579683570016,-1.7414476416793059
1589995715.9603958,-2.715807918490153,-2.2167683260393876,8.824192081509848,0.4577777777777778,-0.21666666666666667,-0.6411111111111111,0.0581427203291961,0.1310521222846972,-1.7712376019559273
1589995715.9703958,-2.69,-2.3336184370688953,8.843190781465552,0.4577777777777778,-0.21666666666666667,-0.6411111111111111,0.055307634637856595,0.13124775416385906,-1.8150276117580353
1589995715.9803958,-2.666415815415387,-2.3768458461318667,8.83,0.47537232818217173,-0.19682600344469048,-0.6508442666539673,0.05706726550302473,0.1323814985695757,-1.8512805651193722
1589995715.9903958,-2.62,-2.41,8.83,0.51,-0.15777777777777774,-0.67,0.05345070834232633,0.13744467859455345,-1.8773197766764007
1589995716.0003958,-2.644529621322074,-2.475470378677926,8.822341469850905,0.51,-0.15777777777777774,-0.67,0.05478022942297455,0.13774304146724314,-1.9168545988373353
1589995716.0103958,-2.538043170386287,-2.57,8.700462225911998,0.51,-0.15777777777777774,-0.67,0.05955700614499379,0.1435509763972209,-1.9661426321831257
1589995716.0203958,-2.466346852092896,-2.583394875659382,8.767306295814208,0.51,-0.15777777777777774,-0.67,0.06353384979746657,0.14726215563702155,-2.0126794193277857
1589995716.0303957,-2.444796362266219,-2.662413338357197,8.810407275467561,0.51,-0.15777777777777774,-0.67,0.06510104564285427,0.14726215563702155,-2.051859315462478
1589995716.0403957,-2.423367736273799,-2.7853058109809608,8.846020641764278,0.5311111111111111,-0.09222222222222222,-0.6911111111111111,0.07075930731366614,0.15955068134168954,-2.1230790324338202
1589995716.0503957,-2.3833595329848523,-2.817312373612118,8.822015719790912,0.5311111111111111,-0.09222222222222222,-0.6911111111111111,0.06988646371966697,0.1612963685296879,-2.171085430103775
1589995716.0603957,-2.3383874432625342,-2.8946450226949865,8.721612556737467,0.5311111111111111,-0.09222222222222222,-0.6911111111111111,0.06552729098406666,0.16346972930590978,-2.258533027444358
1589995716.0703957,-2.3020555420810087,-2.9091777831675967,8.75794445791899,0.5311111111111111,-0.09222222222222222,-0.6911111111111111,0.0623567344884325,0.16981084229717813,-2.304506096631054
1589995716.0803957,-2.2812357109301598,-2.9340228625117444,8.801752857813968,0.5332534928837387,-0.08306840919372238,-0.6961749225736855,0.06236856172837957,0.17259888273451465,-2.3689709268699204
1589995716.0903957,-2.2401859536486066,-2.99970247416223,8.80996280927028,0.5432878779970074,-0.04019421825521105,-0.7198925601141385,0.0632641285055141,0.17886785017445636,-2.408375865063839
1589995716.1003957,-2.2092059572955143,-3.007648883007091,8.79,0.5433333333333333,-0.04,-0.72,0.07036941254882978,0.18899184660641516,-2.457515210819304
1589995716.1103957,-2.0926070050918066,-3.0286964974540966,8.713093349791698,0.5433333333333333,-0.04,-0.72,0.07540739332988752,0.19364368805014492,-2.482870930299566
1589995716.1203957,-2.1214356939568315,-3.068601699316534,8.385830026798512,0.5433333333333333,-0.04,-0.72,0.08445292273862844,0.20335211837295397,-2.517800854206996
1589995716.1303957,-2.1355393140345846,-3.1948202286551384,8.917483201171937,0.5468146095842666,-0.03250186653645142,-0.7232134857700923,0.04255403799107715,0.16441332544382287,-2.5526500536380627
1589995716.1403956,-2.084187222159811,-3.241970278121038,8.955616664794338,0.5577777777777778,-0.008888888888888889,-0.7333333333333333,0.04168788635204239,0.1811638129717128,-2.5613351877642536
1589995716.1503956,-2.0707247516489864,-3.316013865930574,8.551742549469596,0.5577777777777778,-0.008888888888888889,-0.7333333333333333,0.09528914828409557,0.21420568676544427,-2.548852702108843
1589995716.1603956,-2.0475693803342314,-3.364861239331537,8.649629971550766,0.5577777777777778,-0.008888888888888889,-0.7333333333333333,0.07533796071624968,0.20945969216046076,-2.5489963082584506
1589995716.1703956,-2.015927571255953,-3.419418224465136,8.913309581349065,0.5577777777777778,-0.008888888888888889,-0.7333333333333333,0.03913100538027526,0.18813058951893674,-2.5439880185044297
1589995716.1803956,-1.9115843343521217,-3.4045120477645887,8.74188854929277,0.5577777777777778,-0.008888888888888889,-0.7333333333333333,0.06352117997170795,0.2011386826343675,-2.520410849732711
1589995716.1903956,-1.79,-3.44637016557028,8.757451933771888,0.5633333333333334,0.01,-0.7288888888888889,0.05723715680833011,0.19660651890861924,-2.481438136180096
1589995716.2003956,-1.7583953188535157,-3.478507388674006,8.694029554696023,0.5633333333333334,0.01,-0.7288888888888889,0.047381954640558895,0.1946563351985784,-2.4454186711139956
1589995716.2103956,-1.6695686115769386,-3.4621699531602386,8.59738564737177,0.5633333333333334,0.01,-0.7288888888888889,0.04994151082446064,0.20417500432010482,-2.4078927287029877
1589995716.2203956,-1.6118142857142859,-3.533642857142857,8.696371428571428,0.5633333333333334,0.01,-0.7288888888888889,0.03916861674006917,0.20239741837346029,-2.3644209126220574
1589995716.2303956,-1.5865127326962383,-3.5676751551308254,8.735350310261651,0.567853865023395,0.013745583400336756,-0.7294055210820388,0.028031573266758758,0.19614631438860422,-2.3346332031418577
1589995716.2403955,-1.5633436446997735,-3.5522290964665153,8.70445819293303,0.5978878679817751,0.038630900137280294,-0.7328379785629965,0.03308628414454132,0.2020434770793505,-2.3000926788103433
1589995716.2503955,-1.480817439615163,-3.601509536230902,8.711634879230326,0.6022222222222222,0.042222222222222223,-0.7333333333333333,0.04233315124381301,0.1870397311834967,-2.2431047641307345
1589995716.2603955,-1.4097733663064467,-3.6441359802161317,8.569546732612894,0.6022222222222222,0.042222222222222223,-0.7333333333333333,0.04155818062302218,0.18083996621717008,-2.212105939299101
1589995716.2703955,-1.4153568507157464,-3.71,8.78702488070893,0.6022222222222222,0.042222222222222223,-0.7333333333333333,0.03682844000951191,0.15631333706742306,-2.159467917476408
1589995716.2803955,-1.393913599182004,-3.71,8.865650136332652,0.6022222222222222,0.042222222222222223,-0.7333333333333333,0.030590850982893117,0.1477366521558222,-2.127500273714987
1589995716.2903955,-1.2842908682003467,-3.7485817364006935,8.747145434100174,0.5544444444444444,0.021111111111111112,-0.7055555555555556,0.05376602861185789,0.1536543994898745,-2.0448534300885894
1589995716.3003955,-1.27259208916678,-3.7459208916677995,8.7011186624983,0.5544444444444444,0.021111111111111112,-0.7055555555555556,0.04561250275772764,0.14508049407202864,-1.99295080504384
1589995716.3103955,-1.2605845284243895,-3.8058796570359195,8.58646991425898,0.5544444444444444,0.021111111111111112,-0.7055555555555556,0.05088397415821778,0.14469542145291298,-1.939687792843275
1589995716.3203955,-1.1724807607844634,-3.741804189661428,8.570451047415357,0.5544444444444444,0.021111111111111112,-0.7055555555555556,0.04913658685284421,0.1429480341475394,-1.8960031102089363
1589995716.3303955,-1.156823552229639,-3.779529343311083,8.774234940440595,0.5544444444444444,0.021111111111111112,-0.7055555555555556,0.04333807527959393,0.13499353134950914,-1.861714537083051
1589995716.3403955,-1.0809560894780448,-3.730956089478045,8.66423777961889,0.5093741139648348,0.07960664641443432,-0.6441831906471509,0.049775141820028845,0.1308996938995747,-1.7937570777161433
1589995716.3503954,-1.068441995218607,-3.8309060334697516,8.755198954576766,0.5022222222222222,0.08888888888888889,-0.6344444444444445,0.04572991688611014,0.1292990072446322,-1.7228623767286666
1589995716.3603954,-1.0514465740102923,-3.9498739819279547,8.593742453097775,0.5022222222222222,0.08888888888888889,-0.6344444444444445,0.04480296045533399,0.12373726865997534,-1.6681719473128738
1589995716.3703954,-0.9947126799033512,-3.9568276079420106,8.726827607942012,0.5022222222222222,0.08888888888888889,-0.6344444444444445,0.048625979490873585,0.11470525150169046,-1.6029244618940064
1589995716.3803954,-0.9506502783905872,-3.9303901670343526,8.700390167034351,0.5022222222222222,0.08888888888888889,-0.6344444444444445,0.044780809577206274,0.10701491167435585,-1.561588885322083
1589995716.3903954,-0.95,-3.98462524785195,8.770232461523934,0.5065575593533294,0.17299442923236708,-0.6179701633462373,0.04472406208235469,0.10690141668465268,-1.5167142940861846
1589995716.4003954,-0.80845931085044,-3.932810117302053,8.704350806451613,0.5077777777777778,0.19666666666666666,-0.6133333333333333,0.04461202000564812,0.10116715758040398,-1.443584544634283
1589995716.4103954,-0.7853968108504399,-3.825185117302053,8.619788306451612,0.5077777777777778,0.19666666666666666,-0.6133333333333333,0.04293486767755982,0.09697427676018323,-1.4008171602680313
1589995716.4203954,-0.7291772392793707,-3.852341410809439,8.905632453691958,0.5077777777777778,0.19666666666666666,-0.6133333333333333,0.0489699569049378,0.09970050804985639,-1.3213345230077493
1589995716.4303954,-0.7203082973864501,-3.985375539203248,9.074142349657448,0.5077777777777778,0.19666666666666666,-0.6133333333333333,0.07122134100236913,0.11614718325230564,-1.2661897885054196
1589995716.4403954,-0.651560411311054,-3.8896478149100258,8.827935732647815,0.5011111111111111,0.27555555555555555,-0.5822222222222222,0.009872439210429365,0.06486236867489531,-1.22225570160313
1589995716.4503953,-0.6640284687672747,-4.0446287083103005,8.437425833793993,0.5011111111111111,0.27555555555555555,-0.5822222222222222,0.057848452841669555,0.09195716561490427,-1.1600924569138975
1589995716.4603953,-0.6796917029137168,-3.994141081405718,9.09114564944401,0.5011111111111111,0.27555555555555555,-0.5822222222222222,0.02541585893648903,0.06020231699828973,-1.11635721939823
1589995716.4703953,-0.5804580777840465,-3.84147396582161,8.717111216262944,0.5011111111111111,0.27555555555555555,-0.5822222222222222,0.049563287363832045,0.07269236618484647,-1.068062362543544
1589995716.4803953,-0.6238925401775006,-3.9936910530103145,8.895570160710003,0.5011111111111111,0.27555555555555555,-0.5822222222222222,0.02666315928581911,0.07004012777244227,-1.0023490993435549
1589995716.4903953,-0.6104057749419272,-4.069594225058073,8.5950045576171,0.5011111111111111,0.32049493434744397,-0.58989479908913,0.03362394714517487,0.05580942262628718,-0.9204998764190941
1589995716.5003953,-0.6108052042754889,-4.084237493043695,8.860593732609239,0.5011111111111111,0.3211111111111111,-0.59,0.044206372226433296,0.05600677453159687,-0.8338986548129157
1589995716.5103953,-0.5544637408608547,-3.9876521271900365,8.619130317975092,0.5011111111111111,0.3211111111111111,-0.59,0.047718315233495054,0.05161684577276968,-0.776829580948162
1589995716.5203953,-0.56,-4.047214204637587,8.681803551159396,0.5011111111111111,0.3211111111111111,-0.59,0.04205055823674248,0.04611877599835673,-0.6934275704340546
1589995716.5303953,-0.56,-4.115226203988974,8.698806550997242,0.5011111111111111,0.3211111111111111,-0.59,0.03741370933226615,0.038699817751194604,-0.6285116857713858
1589995716.5403953,-0.5092615790647536,-4.011274812281615,8.678254962456323,0.4930573935023418,0.34849375098092666,-0.5795301671086,0.04341362162332858,0.03976042114198823,-0.567026832421931
1589995716.5503953,-0.5097211107485704,-4.1183266644914225,8.796095550479986,0.49,0.3588888888888889,-0.5755555555555556,0.03211648151415997,0.03335942278683985,-0.46144311360038914
1589995716.5603952,-0.5025182462949288,-4.075109477769573,8.695255448129004,0.49,0.3588888888888889,-0.5755555555555556,0.016402268977796567,0.021573763384567297,-0.40565765909629903
1589995716.5703952,-0.5,-4.109272090166896,8.610727909833104,0.49,0.3588888888888889,-0.5755555555555556,0.02380771086624228,0.022828043787142347,-0.29908312647512075
1589995716.5803952,-0.5206666666666667,-4.096222222222222,8.644444444444444,0.49,0.3588888888888889,-0.5755555555555556,0.01573220395200444,0.016895756786667326,-0.23467406234107085
1589995716.5903952,-0.5392289012738853,-4.126915605095541,8.789204617834395,0.4766693648266101,0.3886264596602972,-0.6032422593772115,0.016026006446730974,0.006127064493914008,-0.11958935934752607
1589995716.6003952,-0.532139348449719,-4.13786065155028,8.768557393798876,0.4755555555555556,0.3911111111111111,-0.6055555555555555,0.006072892919616867,-0.0022630227008902,-0.03261141225895267
1589995716.6103952,-0.5492434540910471,-4.1569738163641885,8.577400555905918,0.4755555555555556,0.3911111111111111,-0.6055555555555555,0.012347232180685657,-0.011651045034236373,0.10031304131808842
1589995716.6203952,-0.54083284993584,-4.1220821248396,8.781671500641599,0.4755555555555556,0.3911111111111111,-0.6055555555555555,0.003045367760685759,-0.02095290945423627,0.1972561408990591
1589995716.6303952,-0.5555784070734238,-4.158946017683559,8.634215929265762,0.4755555555555556,0.3911111111111111,-0.6055555555555555,-0.000975859146998403,-0.024974136361920432,0.2712467160004477
1589995716.6403952,-0.5837237107849738,-4.17,8.684894843139896,0.4984006103855303,0.4016549825710995,-0.5985263079155634,-0.002181661564992912,-0.03221826804641653,0.37538223482263966
1589995716.6503952,-0.6266730038022814,-4.205342205323194,8.67667300380228,0.5044444444444445,0.4044444444444445,-0.5966666666666667,-0.00879923005728605,-0.03992316234570205,0.5135490304044247
1589995716.6603951,-0.5860515649358435,-4.146051564935843,8.632269336850943,0.5044444444444445,0.4044444444444445,-0.5966666666666667,-0.010395084957468867,-0.04966499312734128,0.6262393724508628
1589995716.6703951,-0.6582075869336144,-4.2211949420442565,8.663584826132771,0.5044444444444445,0.4044444444444445,-0.5966666666666667,-0.018039858324272,-0.05724459251588566,0.7410375583155417
1589995716.6803951,-0.6361090621707061,-4.235927291886196,8.707781875658588,0.5044444444444445,0.4044444444444445,-0.5966666666666667,-0.025271583642014178,-0.06367279279832315,0.8262112120578387
1589995716.690395,-0.6631630466005259,-4.202530437280421,8.719367390679896,0.57,0.4033333333333333,-0.5966666666666667,-0.029383424155437824,-0.0756123588520879,0.9746746221869047
1589995716.700395,-0.7095017345383035,-4.239601387630643,8.71009965309234,0.57,0.4033333333333333,-0.5966666666666667,-0.028372470810977317,-0.0806671255743904,1.0788028166663362
1589995716.710395,-0.71,-4.206623228276784,8.656597165242854,0.57,0.4033333333333333,-0.5966666666666667,-0.03273060954683294,-0.08873132810826707,1.1607491449071055
1589995716.720395,-0.7740903614457831,-4.1178983433734935,8.678067771084336,0.57,0.4033333333333333,-0.5966666666666667,-0.04014996547436542,-0.09796399694667757,1.2848987784802592
1589995716.730395,-0.813394167570672,-4.12924270946334,8.69,0.57,0.4033333333333333,-0.5966666666666667,-0.04145156973486533,-0.10373143987764712,1.3625043954585145
1589995716.740395,-0.8236505404219678,-4.124602161687871,8.728096757468192,0.7259145074161227,0.375819008495194,-0.6114820723487416,-0.04283680692685221,-0.11244236545260022,1.4602957297578978
1589995716.750395,-0.8268558166764238,-4.089432549970729,8.647162749853642,0.8155555555555556,0.36,-0.62,-0.042137524125899106,-0.11562806294462433,1.5599063104788298
1589995716.760395,-0.9615142627701546,-4.089393875912154,8.637575503648616,0.8155555555555556,0.36,-0.62,-0.05272341164798771,-0.12485047905536086,1.660111758160953
1589995716.770395,-0.97,-4.047023141467586,8.661488429266207,0.8155555555555556,0.36,-0.62,-0.05188802566825458,-0.12622688132412832,1.722427033030247
1589995716.780395,-1.0572614455810834,-4.08235686734865,8.731083011906758,0.8155555555555556,0.36,-0.62,-0.05507654561593283,-0.13129574431783814,1.8186236046373678
1589995716.790395,-1.153841865483755,-4.074756024457499,8.76286596331375,1.366879337676005,0.2380481956599928,-0.6360908630726398,-0.06145237912660334,-0.1369791040128861,1.891680463881743
1589995716.800395,-1.2503540173168235,-4.078229913415883,8.735397774881296,1.5388888888888892,0.2,-0.6411111111111111,-0.06747703932008918,-0.14955966909803278,1.9955738159307734
1589995716.810395,-1.26,-4.030130636985944,8.611306369859435,1.5388888888888892,0.2,-0.6411111111111111,-0.06332518652303433,-0.1527875609723037,2.0680933521808624
1589995716.820395,-1.2568519217699916,-4.024259608849959,8.719444234690025,1.5388888888888892,0.2,-0.6411111111111111,-0.06745980748283027,-0.15868556655783614,2.146194305451118
1589995716.830395,-1.2251800951446046,-3.8659004757230235,8.814459714566187,1.5388888888888892,0.2,-0.6411111111111111,-0.06573237731178712,-0.16386785707096557,2.1954260653258477
1589995716.840395,-1.2580897327765321,-3.7261794655530642,8.633237744543415,0.9455555555555556,0.16111111111111112,-0.67,-0.062257577598069005,-0.17320142542962344,2.269345793050606
1589995716.850395,-1.353000966859353,-3.916001933718706,8.788547036678942,0.9455555555555556,0.16111111111111112,-0.67,-0.06319877846845326,-0.17037782281847072,2.312641033088281
1589995716.860395,-1.3785707456978966,-3.93,8.595721797323137,0.9455555555555556,0.16111111111111112,-0.67,-0.07643558707456105,-0.1772597414408599,2.338117046407273
1589995716.870395,-1.443763300049108,-3.9379704125061386,8.707526600098216,0.9455555555555556,0.16111111111111112,-0.67,-0.06353799145982345,-0.17432766902256608,2.352004148290144
1589995716.880395,-1.452024506263542,-3.812392100216671,8.763926481209374,0.9455555555555556,0.16111111111111112,-0.67,-0.06782561570330758,-0.17344209441693648,2.355103659409848
1589995716.890395,-1.5049162589577538,-3.7388128057816847,8.68076107919365,0.7548741008411323,0.1931455955031342,-0.67,-0.08029643058263951,-0.1741908987385698,2.316165834684916
1589995716.900395,-1.554732895678417,-3.6787785072026384,8.796641672629974,0.6677777777777778,0.20777777777777776,-0.67,-0.08508480103472357,-0.17453292519943295,2.2983804587200325
1589995716.910395,-1.5928469630132338,-3.596094333220224,8.411201221581269,0.6677777777777778,0.20777777777777776,-0.67,-0.06537803793322669,-0.1682625914853203,2.2679245521086284
1589995716.920395,-1.6926240087078215,-3.6990880111957702,8.690496034831286,0.6677777777777778,0.20777777777777776,-0.67,-0.07479870437721238,-0.17194896571679333,2.1833492910519756
1589995716.930395,-1.6928068921926955,-3.577969441314683,8.704711313858583,0.6677777777777778,0.20777777777777776,-0.67,-0.0641621276411034,-0.16129528941483487,2.1081821255132747
1589995716.9403949,-1.7458113556190156,-3.6289874853015287,8.81584600201579,0.6340838419471042,0.19093080986244096,-0.6742117419788342,-0.06390210594452005,-0.15145224776566307,2.0470173511806355
1589995716.9503949,-1.722813434009753,-3.6044211105867547,8.766832625452258,0.6144444444444445,0.1811111111111111,-0.6766666666666666,-0.047782575196593624,-0.15153779361208278,1.9417383363833374
1589995716.9603949,-1.6753718918132907,-3.525619819688818,8.640991711502108,0.6144444444444445,0.1811111111111111,-0.6766666666666666,-0.05339661887063355,-0.1386436883204355,1.8678178149429678
1589995716.9703948,-1.7777045875735604,-3.56337939330884,8.690541990441199,0.6144444444444445,0.1811111111111111,-0.6766666666666666,-0.04871875058759596,-0.13022154663579363,1.740787392525979
1589995716.9803948,-1.7479827771797631,-3.541988518119842,8.770028704700396,0.6144444444444445,0.1811111111111111,-0.6766666666666666,-0.04112150242274504,-0.11835044310524653,1.6368624716098146
1589995716.9903948,-1.7841160072906614,-3.511961330903113,8.763922661806225,0.6014165167633593,0.1199800658383268,-0.7237676359752054,-0.03817907738737596,-0.1075432607217858,1.4503816059049786
1589995717.0003948,-1.7476227027027027,-3.3913435675675676,8.94646010810811,0.6,0.11333333333333333,-0.7288888888888889,-0.018763964031599738,-0.08656177412145855,1.2902159226256447
1589995717.0103948,-1.776509364863451,-3.315235952704824,8.660543057444805,0.6,0.11333333333333333,-0.7288888888888889,-0.03618003895223492,-0.08589005489791417,1.0820710357941985
1589995717.0203948,-1.8315280187617977,-3.3026388544626,8.84347322058459,0.6,0.11333333333333333,-0.7288888888888889,-0.03496717172872317,-0.07814586767058807,0.9152972305891864
1589995717.0303948,-1.7775467644446992,-3.2033956859262656,8.702640293334097,0.6,0.11333333333333333,-0.7288888888888889,-0.01449627834656617,-0.055947848081431495,0.7115913008653413
1589995717.0403948,-1.666286755717556,-3.094096192741093,8.790569866423667,0.5696299671306895,0.055196413269224594,-0.6881062733215291,-0.007261844752695607,-0.04530590476786427,0.5235900718388049
1589995717.0503948,-1.6484025977426873,-3.019584413543876,8.729168827087753,0.5611111111111111,0.03888888888888889,-0.6766666666666666,0.0007876651215480996,-0.025301606758541147,0.324320985252676
1589995717.0603948,-1.7244110998339177,-3.1009468997970107,8.743071599926186,0.5611111111111111,0.03888888888888889,-0.6766666666666666,-0.00142589035759617,-0.014601511804750954,0.14390901850594895
1589995717.0703948,-10.024118279197143,-9.524077027073872,4.2199958401220234,0.5611111111111111,0.03888888888888889,-0.6766666666666666,-0.6669035074230907,1.684196859358389,-0.0321774850154975
1589995717.0803947,-2.891223563849252,-3.992376143432125,0.7635075009147456,0.5611111111111111,0.03888888888888889,-0.6766666666666666,-0.16813470174804135,0.20509482662544887,-0.3326393677109937
1589995717.0903947,-0.16629223252732694,-0.32597362537263996,-0.04237847797283869,0.5488888888888889,0.11,-0.6322222222222222,0.2374517800655449,-0.46881637026930845,-0.36401482090705606
1589995717.1003947,-0.009995859556144404,-0.5777844484928785,0.2788973998012587,0.5488888888888889,0.11,-0.6322222222222222,0.26870881078428893,-0.18276718005534798,-0.21246558105860003
1589995717.1103947,0.2621727929170144,-0.2914659457890344,0.2005497296708879,0.5488888888888889,0.11,-0.6322222222222222,0.35885049445994566,0.017427604026970384,-0.1018670262051097
1589995717.1203947,0.10932448640074288,-0.16621619530312998,0.06756760939374008,0.5488888888888889,0.11,-0.6322222222222222,0.45387402160121737,0.23171301968935337,0.07374893075928228
1589995717.1303947,0.012061386744132721,-0.21529240883724488,0.17323102209311214,0.5488888888888889,0.11,-0.6322222222222222,0.4575928809719053,0.3294277274759406,0.21078234703241952
1589995717.1403947,0.3700633390385041,1.9999236205712156,-1.3099981370871028,0.5666666666666667,0.11555555555555555,-0.6411111111111111,-0.1329669469546799,-0.32504755677502034,0.4952659297900679
1589995717.1503947,0.7021420005355874,1.5994758228835564,-1.3002311176313064,0.5666666666666667,0.11555555555555555,-0.6411111111111111,0.4668625693229897,-0.2201040268401172,0.6460223712701572
1589995717.1603947,1.0342206620326708,1.199028025195897,-1.2904640981755098,0.5666666666666667,0.11555555555555555,-0.6411111111111111,1.0666920856006594,-0.1151604969052141,0.7967788127502464
1589995717.1703947,1.2391069852528203,0.7804782001700981,1.4427291108365292,0.5666666666666667,0.11555555555555555,-0.6411111111111111,0.7514847512788718,-0.0806840531857529,0.8543510550678537
1589995717.1803946,2.194850361859525,-1.238697947590545,15.253893961519328,0.5666666666666667,0.11555555555555555,-0.6411111111111111,-0.9856162788934537,0.06835715946216848,1.1091160835842513
1589995717.1903946,0.24959522738696815,-2.1439736500965636,10.47480965104897,0.5297916170621798,0.08131443806567487,-0.6296974052811509,-0.9487152622444879,0.026793417463856564,1.1678073796551043
1589995717.2003946,-0.4268317589992341,-2.299465407199387,9.079099821291805,0.52,0.07222222222222223,-0.6266666666666667,0.32387080621823017,-0.2276976281259758,1.1847545711589478
1589995717.2103946,-1.3682941937098523,-2.432749645449237,9.258359264202886,0.52,0.07222222222222223,-0.6266666666666667,0.4651098795991665,0.2936278816977791,1.346083024323319
1589995717.2203946,-1.573856824798767,-2.399713992121939,9.064999143688988,0.52,0.07222222222222223,-0.6266666666666667,-0.005331414432417192,0.15263709868261255,1.3570245052272514
1589995717.2303946,-2.2011423882857866,-3.2857750568038373,13.356974248927038,0.52,0.07222222222222223,-0.6266666666666667,-0.26078346385150253,-0.30194325494106233,1.346784820945977
1589995717.2403946,-1.1691009741765888,-1.8062755528065564,6.7435506417195,0.5252277374018521,0.04190134529147982,-0.6402587839114822,0.10606768258975191,0.15491085799740728,1.5837776347977992
1589995717.2503946,-1.7246603582291313,-1.9983507941872254,7.618496113551876,0.5255555555555556,0.04,-0.6411111111111111,0.05968750292775217,-0.1934799812647212,1.5971989292424789
1589995717.2603946,-1.9606926052670732,-2.5827029707880773,9.466689976689976,0.5255555555555556,0.04,-0.6411111111111111,-0.2684827348274235,-0.18866760459412174,1.6389603747535841
1589995717.2703946,-2.3655829144564637,-2.943638090384749,10.918785527321582,0.5255555555555556,0.04,-0.6411111111111111,-0.0943360547558657,-0.1527812222056905,1.7463250763201266
1589995717.2803946,-1.6202472813943096,-1.918250516056266,7.2792315549786135,0.5255555555555556,0.04,-0.6411111111111111,0.056978828971334536,-0.07089227798884366,1.8633559076963544
1589995717.2903945,-2.0797044645388953,-2.3888714200195342,9.2363187245975,0.5321759419711466,0.016355762801460526,-0.6335449552075785,-0.08107252064749644,-0.16659225862265578,1.9213036726624122
1589995717.3003945,-2.0641299970290166,-2.412559997359126,9.16279998679563,0.5333333333333333,0.012222222222222223,-0.6322222222222222,-0.13203888521885832,-0.17707201542276474,1.953711384123286
1589995717.3103945,-2.092403880419719,-2.400913482478717,8.839759651554148,0.5333333333333333,0.012222222222222223,-0.6322222222222222,-0.054410406190526256,-0.13698316495721533,2.022772634722925
1589995717.3203945,-2.06149645535806,-2.2548767081064423,8.32839771909997,0.5333333333333333,0.012222222222222223,-0.6322222222222222,-0.05080045913717955,-0.11556468425280253,2.0567537632257333
1589995717.3303945,-2.103352771487949,-2.215849126833959,8.502612984273705,0.5333333333333333,0.012222222222222223,-0.6322222222222222,-0.07426832343847874,-0.15936266615503686,2.069670134750045
1589995717.3403945,-2.1132682657234443,-2.2195717917541726,8.574823698463579,0.5193254977094923,-0.017894624369035786,-0.6336230057846064,-0.0753861614874725,-0.1574402687876412,2.0873026404957185
1589995717.3503945,-2.2353990142002114,-2.278799436685835,8.959796385400775,0.5111111111111111,-0.03555555555555556,-0.6344444444444445,-0.053189042091954,-0.16028651643925113,2.0973839736165654
1589995717.3603945,-2.211200066696839,-2.1996800933755747,8.43504061361092,0.5111111111111111,-0.03555555555555556,-0.6344444444444445,-0.07504040645280806,-0.14587027520239665,2.089071855450109
1589995717.3703945,-2.2435691787484364,-2.2082636991060265,8.752733568020751,0.5111111111111111,-0.03555555555555556,-0.6344444444444445,-0.06537266671817574,-0.1588263817445827,2.067559245330684
1589995717.3803945,-2.3004493238947052,-2.2065168920350984,8.849326014157942,0.5111111111111111,-0.03555555555555556,-0.6344444444444445,-0.05631874573434555,-0.14706610110275914,2.038873105639953
1589995717.3903944,-18.6409690812443,-17.977772465637088,8.661219450822509,0.5278248531297944,-0.057840544913800036,-0.652086727686388,-0.1584631655475231,0.32364225023969617,2.2949512364315363
1589995717.4003944,-4.719276368044817,-3.197120939760044,6.826361983194683,0.5311111111111111,-0.06222222222222223,-0.6555555555555556,0.10659531737327324,-0.16149074606322972,3.0833830528844737
1589995717.4103944,-0.28231244644109177,0.9474715001687917,11.001961100002596,0.5311111111111111,-0.06222222222222223,-0.6555555555555556,-0.1343081541443344,-0.748044722739601,3.276625176706835
1589995717.4203944,-0.20596820426351925,0.18444634469468862,9.325156208599301,0.5311111111111111,-0.06222222222222223,-0.6555555555555556,-0.11067937240111433,-0.3972259440504433,3.179215476908388
1589995717.4303944,-0.9103288429918944,-0.43522716127729544,8.740008653762946,0.5311111111111111,-0.06222222222222223,-0.6555555555555556,-0.05288995329069599,-0.03806532790577316,3.1055716382898995
1589995717.4403944,-1.6591235921533527,-0.8947415529201164,8.55062914895204,0.5256729071877875,-0.07793258911182384,-0.6612958819190639,-0.05363946999037526,0.11259331263834138,3.004782848762363
1589995717.4503944,-1.7472523383284722,-0.7335291159609776,8.855863421502566,0.5111111111111111,-0.12,-0.6766666666666666,-0.17808287013154805,-0.30027544586923866,2.8110296761288676
1589995717.4603944,-1.844714025626052,-0.9563027721479853,9.794269176599911,0.5111111111111111,-0.12,-0.6766666666666666,-0.2011924233333512,-0.32106026610508986,2.668902449617592
1589995717.4703944,-1.7758217779967622,-1.058451467586401,9.012681072710636,0.5111111111111111,-0.12,-0.6766666666666666,-0.09225532232328285,-0.1787376951115786,2.559791026424682
1589995717.4803944,-1.773303216257054,-1.0082580406426347,8.249509698109717,0.5111111111111111,-0.12,-0.6766666666666666,-0.018261198213427532,-0.14139419308763182,2.441177975049669
1589995717.4903944,-1.965319645568473,-1.1350721780315907,8.941587916694994,0.5005337875777742,-0.15507217803159062,-0.6766666666666666,-0.08566733389192051,-0.17080162488124231,2.2583907955461227
1589995717.5003943,-3.6153095684803,-1.6919476795638784,9.152785585330454,0.49,-0.19,-0.6766666666666666,-0.07516109455111958,-0.11884510437336736,2.1063184786729545
1589995717.5103943,-4.2050911167644465,-1.6307289341155702,7.60509873146081,0.49,-0.19,-0.6766666666666666,0.024949750178745372,-0.06312945054201081,2.517218334252652
1589995717.5203943,-2.154975304908779,-0.6892830023855122,7.508240432752075,0.49,-0.19,-0.6766666666666666,-0.034797073150019994,-0.24479733704227094,3.165208848658845
1589995717.5303943,-1.3367635965445919,-0.4876824025631667,9.440833840288763,0.49,-0.19,-0.6766666666666666,-0.24571008721944787,-0.3447617649059715,3.2560093090679088
1589995717.5403943,-1.7300768844072507,-0.5864872697164148,9.331436851287814,0.4625399125357726,-0.2293347198811906,-0.6722136795103055,-0.17533021840849836,-0.24856264962247646,3.0315167732044266
1589995717.5503943,-1.7798208650905385,-0.5921865139084421,8.75799262100102,0.4488888888888889,-0.2488888888888889,-0.67,-0.03745951776445436,-0.16824196813995282,2.8073679587135314
1589995717.5603943,-9.002012670343191,1.9063185360740165,12.70879426644182,0.4488888888888889,-0.2488888888888889,-0.67,-0.002286165749159883,0.16916565095480599,1.871451160760442
1589995717.5703943,-8.732803652502168,0.9950466765291028,4.1528766005203295,0.4488888888888889,-0.2488888888888889,-0.67,0.1051182369455771,0.12011859309235168,-0.250466054951652
1589995717.5803943,-6.675894533464939,0.2464117857067854,1.8792387172648422,0.4488888888888889,-0.2488888888888889,-0.67,0.1005675331859002,-0.026001894450335968,-0.7175745676845826
1589995717.5903943,0.45709837743020026,-0.6173786727086683,9.159918871510014,0.4482437590345791,-0.24968186100147804,-0.6702553639006643,-0.16104276394331987,-0.6288247600742999,0.08033866661968024
1589995717.6003942,-3.7681665492130607,-1.1178447263330984,9.476735964294104,0.3955555555555556,-0.3144444444444445,-0.6911111111111111,-0.007431588995527892,0.12532203037065756,0.29087027158449663
1589995717.6103942,-6.368446674717861,-0.7811093990755008,8.47219589389081,0.3955555555555556,-0.3144444444444445,-0.6911111111111111,0.06352357416000767,0.22683520173347663,0.17770943097950403
1589995717.6203942,-3.6925053509381516,-0.8820825573314802,9.066824739402364,0.3955555555555556,-0.3144444444444445,-0.6911111111111111,-0.03613125674174202,-0.08079907167742456,0.01670882893768192
1589995717.6303942,-4.0437932587790595,-0.8882588769854483,9.013517303511625,0.3955555555555556,-0.3144444444444445,-0.6911111111111111,-0.0419556562291759,-0.027378038826574712,0.004143294021916119
1589995717.6403942,-4.020565248143345,-0.7580753664191128,8.80234193877952,0.397798712894198,-0.3144444444444445,-0.6969433201915815,-0.008434489294531123,0.005203102952009108,-0.0032519393450056925
1589995717.6503942,-4.084921241394226,-0.77,8.573438344807698,0.4011111111111111,-0.3144444444444445,-0.7055555555555556,0.0023606029516901462,-0.0018237787915984433,-0.00045594469789961083
1589995717.6603942,-3.9443143587024627,-0.8135176170048681,8.912189714175543,0.4011111111111111,-0.3144444444444445,-0.7055555555555556,0.0017689787283507621,-0.00843221080511166,0.00026546510921215635
1589995717.6703942,-3.9160367988649107,-0.8099693342792411,8.98789573654942,0.4011111111111111,-0.3144444444444445,-0.7055555555555556,0.002181661564992912,-0.003046297924068988,-0.00021950420098613955
1589995717.6803942,-3.9236489576552667,-0.8145265635170998,8.993579690551298,0.4011111111111111,-0.3144444444444445,-0.7055555555555556,0.0003980395334391119,0.001735756057104462,-0.001090830782496456
1589995717.6903942,-3.94689220108518,-0.83507975420017,8.99982120677257,0.3970850130381411,-0.3132602979523945,-0.7057923848539656,-0.0012516350849433088,0.0008583241624840552,-0.00039331092245925364
1589995717.7003942,-4.009118699456039,-0.7947841734058615,8.866546774493784,0.38222222222222224,-0.3088888888888889,-0.7066666666666667,0.0013753099927489496,-0.004838109433463774,0.0017784857788709306
1589995717.7103941,-3.9140583277392405,-0.8114492429327963,9.043404937719101,0.38222222222222224,-0.3088888888888889,-0.7066666666666667,0.0,-0.006560769074169033,-0.0003082835708867809
1589995717.7203941,-3.9651006900436556,-0.818724827489086,8.97718114819509,0.38222222222222224,-0.3088888888888889,-0.7066666666666667,-0.0020425618222030878,0.003543369446461637,0.0012226081386789013
1589995717.7303941,-3.9809196173854673,-0.7995401913072663,8.906781339150864,0.38222222222222224,-0.3088888888888889,-0.7066666666666667,-0.003272492347489368,0.007685972825084527,0.0018484996210184953
1589995717.740394,-4.018129253023292,-0.782545786833612,8.784599681144769,0.3779277866348676,-0.312825454843964,-0.7038037096084302,-0.0011644662080287438,0.009188437088180183,0.0
1589995717.750394,-3.946886163597844,-0.83,9.004461477513477,0.3688888888888889,-0.3211111111111111,-0.6977777777777778,0.0018909963186794585,0.0023514949949494284,-0.00046049867626996987
1589995717.760394,-3.953572714464621,-0.8365709142141515,8.915852770820287,0.3688888888888889,-0.3211111111111111,-0.6977777777777778,0.0007167755493940002,-0.0021346591897765457,-0.0003740552331024557
1589995717.770394,-3.957179,-0.825214,8.8503015,0.3688888888888889,-0.3211111111111111,-0.6977777777777778,0.000829794976245054,-0.005346979788102003,0.001090830782496456
1589995717.780394,-3.9658056007930327,-0.8147314664023224,8.886675458471997,0.3688888888888889,-0.3211111111111111,-0.6977777777777778,0.002064491679200437,-0.002756369427689259,0.0016069537022965652
1589995717.790394,-3.9825175758654447,-0.8236130639850493,8.970512592328914,0.3737063075356214,-0.316695144018273,-0.6929603591310453,0.002392702422975229,-0.00021104085798231672,0.001787537423590793
1589995717.800394,-3.991094925487565,-0.8251094925487565,8.903357611768651,0.38222222222222224,-0.3088888888888889,-0.6844444444444444,-2.3887568527523016e-05,-0.0009952805083863637,-0.0005095840384569434
1589995717.810394,-3.947407261034365,-0.8162963694828175,8.93555643379381,0.38222222222222224,-0.3088888888888889,-0.6844444444444444,0.0006868273649828585,-0.004646147077455085,-0.0017776581474793145
1589995717.820394,-3.9551577098700386,-0.81,8.872105725324904,0.38222222222222224,-0.3088888888888889,-0.6844444444444444,0.00026410595657703096,-0.002480174477758275,-0.000826724825919425
1589995717.830394,-3.94329995463089,-0.81,8.933099682416229,0.38222222222222224,-0.3088888888888889,-0.6844444444444444,0.0003708923640531731,0.0021598152553298482,0.00035996920922164144
1589995717.840394,-3.950944042028178,-0.81,8.977639894929556,0.3823795625602519,-0.3090200058372469,-0.6846542315618173,-0.0011165755351041293,0.006544984694978735,0.0011165755351041293
1589995717.850394,-3.9827491566365416,-0.8172508433634584,8.901752530090375,0.3888888888888889,-0.3144444444444445,-0.6933333333333334,-0.002181661564992912,0.006544984694978735,0.0017861894079968831
1589995717.860394,-3.97,-0.83,8.892893816040187,0.3888888888888889,-0.3144444444444445,-0.6933333333333334,-0.000468832381349421,0.0022629117358700076,0.0006626234865855832
1589995717.870394,-3.941631296343646,-0.83,8.922127333162875,0.3888888888888889,-0.3144444444444445,-0.6933333333333334,0.0009438433566780892,-0.004363323129985824,0.0012378182083148228
1589995717.880394,-3.9446601839129056,-0.83,8.967119754782793,0.3888888888888889,-0.3144444444444445,-0.6933333333333334,-0.0008966695904740448,-0.003914988334748802,0.0012849919745188672
1589995717.890394,-3.9812533329405007,-0.8287466670594994,8.906213337654494,0.3897244441825559,-0.3144444444444445,-0.692219259608444,-0.0016347919041069848,-0.0027256226866034412,-0.00027343483044296355
1589995717.900394,-3.987432052207475,-0.8225679477925253,8.83824742571778,0.3938435903605387,-0.3144444444444445,-0.686727064704467,0.0010611829650207117,-2.9647817475744482e-05,-0.0016214222650068118
1589995717.910394,-3.97469433632371,-0.82,8.820203775784194,0.3955555555555556,-0.3144444444444445,-0.6844444444444444,0.002181661564992912,-0.0005787581259670436,-0.0010686022926839124
1589995717.920394,-3.949994293633325,-0.8300057063666748,8.895037091383386,0.3955555555555556,-0.3144444444444445,-0.6844444444444444,0.0010902083144539456,-0.002727388190262395,0.0
1589995717.930394,-3.935563738416334,-0.84,8.991053831085663,0.3955555555555556,-0.3144444444444445,-0.6844444444444444,0.0004839210694669447,-0.0013368080696215894,-0.0014517632084008341
1589995717.940394,-3.9508968131405307,-0.8295515934297346,8.988206373718938,0.3882029731542578,-0.3144444444444445,-0.6890881806978957,-4.8913568991908966e-05,0.003370319485473186,-0.001752833212171548
1589995717.950394,-3.99408166822827,-0.8140816682282701,8.889591658858649,0.3744444444444445,-0.3144444444444445,-0.6977777777777778,-0.002181661564992912,0.008971538281675632,0.00020034891302949526
1589995717.960394,-3.9877910386124302,-0.8230522403468924,8.856947759653107,0.3744444444444445,-0.3144444444444445,-0.6977777777777778,-0.0008498704746057459,0.008577673416787019,-0.0007578830098996644
1589995717.970394,-3.9544960520204366,-0.8217440780306549,8.869263817928472,0.3744444444444445,-0.3144444444444445,-0.6977777777777778,0.0018814677709245655,0.0020717171712159818,0.0
1589995717.980394,-3.9326919650162737,-0.8036540174918633,8.956540174918631,0.3744444444444445,-0.3144444444444445,-0.6977777777777778,0.001090830782496456,-0.0030837881624488873,-0.00039859147599048634
1589995717.9903939,-3.929830390172402,-0.8124575975431004,8.992966427025895,0.37799430756225627,-0.31608284280651144,-0.6961393794157109,0.001090830782496456,-0.006276902389878573,-0.00028658386719596985
1589995718.0003939,-3.9525868261289676,-0.82,8.884053891451387,0.3888888888888889,-0.3211111111111111,-0.6911111111111111,0.0006865048697704265,-0.0026238725234000726,0.0009686838268148233
1589995718.0103939,-3.9477959040784176,-0.82,8.829605461228777,0.3888888888888889,-0.3211111111111111,-0.6911111111111111,0.0,0.0024651286365304998,-0.001090830782496456
1589995718.0203938,-3.9556084961140194,-0.8247971679619934,8.86716035146791,0.3888888888888889,-0.3211111111111111,-0.6911111111111111,-0.0005232898481748294,0.002225912651139709,-4.425108614679709e-05
1589995718.0303938,-3.947755836984575,-0.8261220815077126,8.932244163015424,0.3888888888888889,-0.3211111111111111,-0.6911111111111111,-0.001090830782496456,0.0015138460688363877,0.0006678154961565243
1589995718.0403938,-3.956575491350421,-0.8234245086495788,8.937122543247895,0.386605883122503,-0.31464259477301776,-0.6960576236049473,-0.001090830782496456,0.002181661564992912,0.00037355594498859705
1589995718.0503938,-3.969763771809449,-0.83,8.930472456381102,0.38222222222222224,-0.3022222222222222,-0.7055555555555556,-0.002707750582595165,0.004876527898490761,0.001090830782496456
1589995718.0603938,-3.985131551877843,-0.8202631037556861,8.846183966900588,0.38222222222222224,-0.3022222222222222,-0.7055555555555556,-0.0017079965926678911,0.006042619555084432,2.8700167569282878e-05
1589995718.0703938,-3.975474930362117,-0.81,8.81357520891365,0.38222222222222224,-0.3022222222222222,-0.7055555555555556,0.001090830782496456,0.0023888890284086734,-0.0005972222571021683
1589995718.0803938,-3.966454808806489,-0.817090382387022,8.876087485515644,0.38222222222222224,-0.3022222222222222,-0.7055555555555556,-6.933032261869135e-05,-0.0034804833153454424,0.0003867203683717158
1589995718.0903938,-3.9546290109058817,-0.83,8.976112967282356,0.3840125519202617,-0.30729482303333405,-0.6998861781784306,-0.0013028355295453477,-0.01011041905428396,0.0007978887706806013
1589995718.1003938,-3.958854368443561,-0.8252864078891097,8.991718447334659,0.3888888888888889,-0.3211111111111111,-0.6844444444444444,6.248450835814011e-05,-0.0073090958654804545,0.0
1589995718.1103938,-3.9768530185700324,-0.8262939628599353,8.909648297120517,0.3888888888888889,-0.3211111111111111,-0.6844444444444444,-6.0983517770420636e-05,-0.0008695153964619522,0.00034328242157534515
1589995718.1203938,-3.970546274716187,-0.8389074505676265,8.808740395458988,0.3888888888888889,-0.3211111111111111,-0.6844444444444444,0.0020028935821581042,0.003946197836704606,0.0010312414548848535
1589995718.1303937,-3.9720198998709026,-0.8059850750968229,8.881945275355017,0.3888888888888889,-0.3211111111111111,-0.6844444444444444,0.0,-0.001090830782496456,0.001964038093287331
1589995718.1403937,-3.945606599704021,-0.8257950502219843,8.954581850813943,0.3888888888888889,-0.3211111111111111,-0.6844444444444444,0.0,-0.001090830782496456,0.0012437270710534943
1589995718.1503937,-3.9488829543720434,-0.84,8.967765908744088,0.38222222222222224,-0.3144444444444445,-0.6911111111111111,0.001090830782496456,0.003394343123132189,0.00012185077564282096
1589995718.1603937,-3.9408822295132,-0.84,8.9517644590264,0.38222222222222224,-0.3144444444444445,-0.6911111111111111,0.001090830782496456,0.004267086818963275,0.000994594471473907
1589995718.1703937,-4.01051371683225,-0.82189725663355,8.80328079643485,0.38222222222222224,-0.3144444444444445,-0.6911111111111111,-0.0006769135948620634,0.006394063914572014,-0.0006769135948620634
1589995718.1803937,-3.969393253696785,-0.8281797610903541,8.863033731516076,0.38222222222222224,-0.3144444444444445,-0.6911111111111111,0.0012232022914390875,0.000759902010139877,0.0010246450280251402
1589995718.1903937,-3.9572886582267484,-0.8027113417732514,8.924912379752882,0.38312600281330605,-0.3136912939518747,-0.6911111111111111,0.0028288500872696958,-0.004806965390205496,-0.0001478807534065574
1589995718.2003937,-3.939239780658026,-0.8192397806580258,9.01847956131605,0.3888888888888889,-0.3088888888888889,-0.6911111111111111,0.0,-0.006972398949735573,-0.0009249766505615511
1589995718.2103937,-3.93627572541249,-0.8131378627062448,8.962345647525064,0.3888888888888889,-0.3088888888888889,-0.6911111111111111,-0.0006845754462438766,0.0007485430593745176,0.0007485430593745176
1589995718.2203937,-3.956042154566745,-0.8179859484777517,8.875971896955503,0.3888888888888889,-0.3088888888888889,-0.6911111111111111,-0.001961962625192689,0.00043939787960044593,0.00043939787960044593
1589995718.2303936,-3.9770697874255787,-0.815860425148843,8.877581275446529,0.3888888888888889,-0.3088888888888889,-0.6911111111111111,-0.001090830782496456,0.0015423883499054785,0.0018620249574491953
1589995718.2403936,-3.97,-0.8278304407834846,8.928678236866062,0.3903352616998992,-0.31009419956473083,-0.6942449188683001,-0.001090830782496456,-0.00023666219778239266,0.0013274929802788485
1589995718.2503936,-3.9626193236714977,-0.8126193236714976,8.952619323671499,0.3955555555555556,-0.3144444444444445,-0.7055555555555556,0.00011682955771954821,-0.001090830782496456,0.001779108118254244
1589995718.2603936,-3.95311486060797,-0.8093445818239093,8.908851393920303,0.3955555555555556,-0.3144444444444445,-0.7055555555555556,0.002521440148428816,-7.149503218874427e-05,0.0017703879493682637
1589995718.2703936,-3.9631808746036454,-0.83,8.838409562698176,0.3955555555555556,-0.3144444444444445,-0.7055555555555556,0.0027520229575517382,0.0023551513616387886,0.0030990025508434915
1589995718.2803936,-3.978262297886902,-0.8291311489434511,8.836950808452391,0.3955555555555556,-0.3144444444444445,-0.7055555555555556,-9.477694778881004e-05,0.003082938451911748,0.0019921076694152918
1589995718.2903936,-3.9639093164513644,-0.8219546582256823,8.894362734194543,0.3955555555555556,-0.3144444444444445,-0.7055555555555556,-0.0008776106463130439,0.0015172710548632799,0.0004264402723668241
1589995718.3003936,-3.9679722661673074,-0.8393240887224357,8.970675911277565,0.3888888888888889,-0.3022222222222222,-0.6911111111111111,0.0011645612652768237,-0.0063237932466376325,-7.373048278036775e-05
1589995718.3103936,-3.947659574468085,-0.8325531914893617,8.977446808510638,0.3888888888888889,-0.3022222222222222,-0.6911111111111111,0.0019031515779725401,-0.004108022308550483,-0.0008123207954760841
1589995718.3203936,-3.950038119440915,-0.819961880559085,8.860038119440913,0.3888888888888889,-0.3022222222222222,-0.6911111111111111,0.001094988968452605,4.1581859561491334e-06,0.0032600177896209208
1589995718.3303936,-3.958920584498094,-0.811079415501906,8.868920584498094,0.3888888888888889,-0.3022222222222222,-0.6911111111111111,0.0020639155993346222,0.0009730848168381663,0.0003532378969748691
1589995718.3403935,-3.988071445348366,-0.8195178613370914,8.891928554651635,0.38856746311361645,-0.3028115028102217,-0.6904146885980209,-0.0031147128390096425,0.0020764752260064284,0.0020764752260064284
1589995718.3503935,-3.9522479875301606,-0.8105619968825402,8.92775201246984,0.3825968868105823,-0.3137575593657844,-0.6774784399414467,-0.00018391304974253253,0.00012260869982835473,0.00012260869982835473
1589995718.3603935,-3.9675071086819567,-0.8275071086819566,8.957592412865438,0.38222222222222224,-0.3144444444444445,-0.6766666666666666,-0.0002750340063545234,-0.0008188985237824785,0.001090830782496456
1589995718.3703935,-3.9603655650337983,-0.8203655650337981,8.864752345439376,0.38222222222222224,-0.3144444444444445,-0.6766666666666666,0.002062030687431494,-3.987695918713954e-05,0.001090830782496456
