time,acc_x,acc_y,acc_z,mag_x,mag_y,mag_z,gyr_x,gyr_y,gyr_z
1589995754.256601,-3.94,-0.88,9.04,0.3033333333333333,-0.3411111111111111,-0.5988888888888889,-0.003272492347489368,0.00545415391248228,-0.002181661564992912
1589995754.266601,-3.8716284756182757,-0.7530243118625122,8.913024311862513,0.3033333333333333,-0.3411111111111111,-0.5988888888888889,-0.004337946110943535,0.00545415391248228,-5.0754038084577235e-05
1589995754.276601,-3.9688007046162017,-0.8784409160010618,8.969280422769721,0.3033333333333333,-0.3411111111111111,-0.5988888888888889,-0.011907562624924272,0.012998393407420728,0.0
1589995754.286601,-3.9180054505494506,-0.85,8.949002725274724,0.3033333333333333,-0.3411111111111111,-0.5988888888888889,0.002943162143247669,0.0021846343785540015,-0.0011452236809432242
1589995754.296601,-3.888507076923077,-0.85,8.934253538461538,0.3033333333333333,-0.3411111111111111,-0.5988888888888889,0.014205369038078156,-0.013904232614060978,-0.0019496670305739735
1589995754.306601,-3.911709662596823,-0.87,8.953419325193645,0.3033333333333333,-0.3333333333333333,-0.5988888888888889,0.009351238895393795,-0.012530483613468297,-0.002181661564992912
1589995754.316601,-3.925475909150584,-0.87,8.980951818301168,0.3033333333333333,-0.3333333333333333,-0.5988888888888889,0.005597077520324142,-0.008025489963384716,-0.002181661564992912
1589995754.326601,-3.9190683635804366,-0.81,8.88279490925869,0.3033333333333333,-0.3333333333333333,-0.5988888888888889,0.007737441245930625,-0.008828272028427082,-0.003272492347489368
1589995754.336601,-3.90294140264534,-0.81,8.93117579206398,0.3033333333333333,-0.3333333333333333,-0.5988888888888889,0.009496619787542779,-0.010587450570039233,-0.003272492347489368
1589995754.346601,-3.9144537638034222,-0.8244537638034224,8.976134409508557,0.3033333333333333,-0.3333333333333333,-0.5988888888888889,0.004299163374570929,-0.0038133331090967632,-0.0016958312995187465
1589995754.356601,-3.92,-0.8428102538997307,8.996405126949865,0.29906324870008977,-0.34614358723306404,-0.5939071234834381,-0.0013117932563624802,0.002402624038858935,-0.001090830782496456
1589995754.366601,-3.9908088102136907,-0.9302696034045637,9.058651982977183,0.2966666666666667,-0.3533333333333333,-0.5911111111111111,-0.007782861323857082,0.01005275039667913,0.003213674008936612
1589995754.376601,-4.019292375950742,-0.9397641253169141,9.011179373415429,0.2966666666666667,-0.3533333333333333,-0.5911111111111111,-0.012961319707396658,0.018338283810342446,0.0011422906555207816
1589995754.386601,-3.908426460559218,-0.847022050466015,8.898426460559218,0.2966666666666667,-0.3533333333333333,-0.5911111111111111,0.01530852925466293,-0.015939767908885016,-0.0029660975953064578
1589995754.396601,-3.914516990790039,-0.8182245138149414,8.940809467765137,0.2966666666666667,-0.3533333333333333,-0.5911111111111111,0.0182450715410929,-0.017752344281290144,-0.003272492347489368
1589995754.406601,-3.910052270306521,-0.829947729693479,9.010156810919563,0.27,-0.3411111111111111,-0.5911111111111111,0.0076130082537297535,-0.005459855718418639,-0.0032553869296802892
1589995754.416601,-3.918325377726932,-0.821674622273068,9.034976133180795,0.27,-0.3411111111111111,-0.5911111111111111,0.00400318415729606,-0.006362311742527062,-0.0005480188573550185
1589995754.426601,-3.92,-0.8265275420008195,8.948614411988526,0.27,-0.3411111111111111,-0.5911111111111111,0.0054086254720491014,-0.006544984694978735,-0.0014240887497064896
1589995754.436601,-3.900970131610056,-0.8585448025849161,8.928544802584916,0.27,-0.3411111111111111,-0.5911111111111111,0.005507066383648373,-0.004469148072318012,-0.00010582494233218843
1589995754.446601,-3.9147515263510697,-0.8673757631755349,8.966878815877674,0.27,-0.3411111111111111,-0.5911111111111111,0.008672437718993193,-0.004363323129985824,-0.0016091419032554565
1589995754.456601,-3.9094843402445165,-0.8193554253056452,8.988324105794678,0.2888888888888889,-0.3466666666666667,-0.5911111111111111,0.006474672503156701,-0.001062705905767642,-0.002167599126628505
1589995754.466601,-3.8822446461333637,-0.7853058076667045,8.899795099933431,0.2888888888888889,-0.3466666666666667,-0.5911111111111111,0.0027604353978776136,0.0004229889363439928,-0.0014247517055726877
1589995754.476601,-3.978114036667507,-0.8614811079494291,8.959797572308469,0.2888888888888889,-0.3466666666666667,-0.5911111111111111,-0.007981024541877954,0.012884242704183188,-0.00018364525005901502
1589995754.4866009,-3.9724357006822846,-0.8731089251705711,8.993782149658857,0.2888888888888889,-0.3466666666666667,-0.5911111111111111,-0.012072576006996351,0.013016531990422135,0.0
1589995754.4966009,-3.9227865534603614,-0.8327865534603613,8.962786553460361,0.2888888888888889,-0.3466666666666667,-0.5911111111111111,-0.0015884570376273176,-0.00017893329500620614,-0.0013531191002741356
1589995754.5066009,-3.9183693797555916,-0.8467387595111828,8.988985012681576,0.2773229831168499,-0.3432649296748905,-0.5829469423308482,0.0014465769339290103,-0.004296167995347467,-0.0008458025721418221
1589995754.5166008,-3.93,-0.87,9.02,0.27,-0.3411111111111111,-0.5777777777777777,-0.009893177826424845,0.0066206854789354775,-0.0019560771208729758
1589995754.5266008,-3.920708659543583,-0.832834638174333,8.908503914523,0.27,-0.3411111111111111,-0.5777777777777777,-0.00786772377081035,0.006622287459423788,0.0018724505072127014
1589995754.5366008,-3.9297094515461866,-0.83,8.948547257730931,0.27,-0.3411111111111111,-0.5777777777777777,-0.004458404889153864,0.002308437243883632,0.002181661564992912
1589995754.5466008,-3.9236568406315624,-0.83,8.956343159368437,0.27,-0.3411111111111111,-0.5777777777777777,-0.005055254479723056,0.004949386963941841,0.0007977988655184472
1589995754.5566008,-3.926990898748578,-0.8369908987485779,8.973981797497157,0.280097964859057,-0.3496555429149285,-0.597196940968272,-0.006216742667708755,0.00578239593975226,0.0007625887552264757
1589995754.5666008,-3.93,-0.853616544213329,8.99361654421333,0.28444444444444444,-0.3533333333333333,-0.6055555555555555,-0.005802317416022569,0.0039688193545699465,0.001090830782496456
1589995754.5766008,-3.93,-0.8515422400052047,8.932337920041638,0.28444444444444444,-0.3533333333333333,-0.6055555555555555,-0.003608956921824341,0.000504696861502459,-0.0007543662081614833
1589995754.5866008,-3.9228312939589554,-0.8428312939589555,8.927168706041044,0.28444444444444444,-0.3533333333333333,-0.6055555555555555,-0.0009265387814175021,0.0007819845220239552,-0.00030884626047250076
1589995754.5966008,-3.9316865015546263,-0.8341567492226868,8.959216253886567,0.28444444444444444,-0.3533333333333333,-0.6055555555555555,-0.0012747995635479113,0.0017282305642704115,-0.0006373997817739557
1589995754.6066008,-3.924789966961095,-0.8376050165194525,9.018025082597262,0.28782445178642335,-0.348263322320365,-0.5844305096681874,0.0011366528833322252,0.0005225043408303434,-0.001090830782496456
1589995754.6166008,-3.91394599197178,-0.8339459919717795,8.993675951830678,0.2888888888888889,-0.3466666666666667,-0.5777777777777777,0.0008608819020602125,0.0019811694943990496,-0.002411610445429156
1589995754.6266007,-3.91,-0.8454510402441963,8.892744798779018,0.2888888888888889,-0.3466666666666667,-0.5777777777777777,0.0016854470319960905,0.004957939379485458,-0.0015870453154932774
1589995754.6366007,-3.91,-0.8379169372699872,8.882083062730013,0.2888888888888889,-0.3466666666666667,-0.5777777777777777,-0.0004544537895538182,0.004136096235208915,0.0002272268947769091
1589995754.6466007,-3.915,-0.84,8.935,0.2888888888888889,-0.3466666666666667,-0.5777777777777777,-0.0027270769562411402,0.004908738521234052,-0.0005454153912482281
1589995754.6566007,-3.931867402211627,-0.8618674022116273,9.015602206634881,0.28625168839741616,-0.3466666666666667,-0.5903044801122732,-0.0052142914935958,0.008486783841085168,-0.00023986241888647995
1589995754.6666007,-3.9488706386804524,-0.8611293613195476,9.04,0.28444444444444444,-0.3466666666666667,-0.5988888888888889,-0.003642074975066403,0.00014111130942699376,-0.0008444423641117661
1589995754.6766007,-3.943266187300869,-0.8532661873008688,8.959194247610425,0.28444444444444444,-0.3466666666666667,-0.5988888888888889,0.003338412810710726,-0.003294465835229821,-0.001090830782496456
1589995754.6866007,-3.94,-0.85,8.964020583320675,0.28444444444444444,-0.3466666666666667,-0.5988888888888889,0.009426125135957242,-0.00724446357096433,-0.003011591076482127
1589995754.6966007,-3.907253604348854,-0.8434507208697707,8.996197116520918,0.28444444444444444,-0.3466666666666667,-0.5988888888888889,0.009103061514626535,-0.007635815477475192,-0.0011292457639646603
1589995754.7066007,-3.898178844471492,-0.8154634665855236,8.977284622114032,0.27808312096661725,-0.34212286418250437,-0.6043414518698836,0.006050125665545271,-0.004067121351573355,0.0
1589995754.7166007,-3.9175119008342367,-0.8187559504171183,8.91746429749729,0.2766666666666667,-0.3411111111111111,-0.6055555555555555,0.0025887758389806664,0.0024582637995138592,0.0009551260245005378
1589995754.7266006,-3.9117731005699414,-0.8446806982901763,8.877092402279764,0.2766666666666667,-0.3411111111111111,-0.6055555555555555,-0.004997662549255629,0.006862154404613638,-0.0007040002460656793
1589995754.7366006,-3.9182996464708033,-0.8417003535291966,8.911498232354017,0.2766666666666667,-0.3411111111111111,-0.6055555555555555,-0.005639633709559697,0.00944651744831327,-0.00018547979707741764
1589995754.7466006,-3.92,-0.84,8.944160540570419,0.2766666666666667,-0.3411111111111111,-0.6055555555555555,-0.0028186477748856505,0.00665486967735215,-0.0005271012275193258
1589995754.7566006,-3.92,-0.8456524443338723,8.981304888667745,0.2804349628892483,-0.3411111111111111,-0.604299456814695,0.0010276433792892764,0.002039320292342236,-0.0015018881342121666
1589995754.7666006,-3.924412141772352,-0.8655878582276484,9.034412141772352,0.2966666666666667,-0.3411111111111111,-0.5988888888888889,0.006416733924886206,-0.0047163623660952565,-0.0042350723598932934
1589995754.7766006,-3.9244565261657502,-0.86,8.967934840154754,0.2966666666666667,-0.3411111111111111,-0.5988888888888889,0.010054612237620459,-0.008963781455124002,-0.0030353571523370126
1589995754.7866006,-3.904071523995478,-0.8361072859932175,8.973713904018087,0.2966666666666667,-0.3411111111111111,-0.5988888888888889,0.012867902204660433,-0.010039544227765143,-0.0019595943796958735
1589995754.7966006,-3.9122128881708846,-0.83,8.99,0.2966666666666667,-0.3411111111111111,-0.5988888888888889,0.011091640235959252,-0.008485257606469291,-0.0028477712829923186
1589995754.8066006,-3.9156073225750476,-0.8343926774249523,8.998785354849904,0.28788131181676213,-0.3435514874583068,-0.595472362002815,0.008859143491925061,-0.00715664870220367,-0.002314158796946325
1589995754.8166006,-3.91,-0.8342665241403884,8.981332620701941,0.2766666666666667,-0.3466666666666667,-0.5911111111111111,0.007635815477475192,-0.004668709107469332,-0.001716255978332924
1589995754.8266006,-3.915568996915301,-0.8411379938306017,8.89317203701639,0.2766666666666667,-0.3466666666666667,-0.5911111111111111,0.005813365498623799,-0.0038799756737731656,-0.0009666949124253167
1589995754.8366005,-3.913750906391354,-0.8437509063913539,8.858747280825938,0.2766666666666667,-0.3466666666666667,-0.5911111111111111,0.0016366416615806083,-0.0009549712944793049,-0.0013633407342026078
1589995754.8466005,-3.8975747096567854,-0.84,8.932126451716073,0.2766666666666667,-0.3466666666666667,-0.5911111111111111,-0.0006776944593917255,0.0024462197012799073,-0.00014857818681773566
1589995754.8566005,-3.9175022424206185,-0.84,8.98375112121031,0.29041778787697586,-0.3512503737367697,-0.5911111111111111,-0.0003408234669941985,-0.00047754423002191937,0.0018408380979987133
1589995754.8666005,-3.93,-0.8324477218225419,9.005104556354915,0.2966666666666667,-0.3533333333333333,-0.5911111111111111,0.0008238257513947455,-0.002181661564992912,-0.0002898156891913248
1589995754.8766005,-3.9221011498830207,-0.8378988501169794,8.954708049181143,0.2966666666666667,-0.3533333333333333,-0.5911111111111111,0.00022919989710376532,0.0004032310911851601,-0.0019524616678891467
1589995754.8866005,-3.92,-0.8555399387698303,8.955539938769832,0.2966666666666667,-0.3533333333333333,-0.5911111111111111,0.004237860892060229,-0.0031470301095637733,-0.0004865172081688202
1589995754.8966005,-3.8818498656002096,-0.8006553464892152,8.909133154133613,0.2966666666666667,-0.3533333333333333,-0.5911111111111111,0.004066975880493343,-0.005750501161974761,0.0
1589995754.9066005,-3.832353110863437,-0.723660394676457,8.843137481151249,0.2966666666666667,-0.3533333333333333,-0.5911111111111111,0.002267223090475031,-0.007550253951993073,0.0
1589995754.9166005,-3.990435468720646,-0.9193481119669359,9.092826601540485,0.2888888888888889,-0.3466666666666667,-0.5988888888888889,-0.016908020578168627,0.01574607984235143,0.002181661564992912
1589995754.9266005,-3.9532740883071136,-0.8904423361754934,8.981327008526481,0.2888888888888889,-0.3466666666666667,-0.5988888888888889,-0.013756013260315681,0.011468154967288209,0.002181661564992912
1589995754.9366004,-3.9,-0.8208139899176896,8.90306200336077,0.2888888888888889,-0.3466666666666667,-0.5988888888888889,0.005232172597767883,-0.0060333868910036545,-0.0013804472717571432
1589995754.9466004,-3.930580728685038,-0.8428130201590531,8.989509894581099,0.2888888888888889,-0.3466666666666667,-0.5988888888888889,-0.0004335482433114272,0.0015243790258078812,-0.001938156339456899
1589995754.9566004,-3.95,-0.87,9.035465939947267,0.29543808674283667,-0.35271208007031074,-0.5953623977367632,-0.009119583160037812,0.009221235487492522,0.0003929369000661648
1589995754.9666004,-3.932759767923074,-0.8527597679230737,8.989772791820506,0.3033333333333333,-0.36,-0.5911111111111111,-0.004012710014436794,0.00292187923194034,-0.0003258285479262753
1589995754.9766004,-3.92,-0.84,8.933759717078704,0.3033333333333333,-0.36,-0.5911111111111111,0.001090830782496456,-0.00046423906387498036,-0.001036713230914291
1589995754.9866004,-3.9147258475406623,-0.8347258475406624,8.920548304918675,0.3033333333333333,-0.36,-0.5911111111111111,-0.0012104523591935001,0.001666151567918945,-0.001150641570844978
1589995754.9966004,-3.9212098876573083,-0.8356049438286539,8.952419775314617,0.3033333333333333,-0.36,-0.5911111111111111,-0.003883896873735295,0.002793066091238839,-0.0015702570387469848
1589995755.0066004,-3.917609452403267,-0.8338047262016334,8.982390547596733,0.2916311494919742,-0.36,-0.5959296573987296,-0.004363323129985824,0.003948291884014569,-0.0004150312459712549
1589995755.0166004,-3.9174650260016115,-0.852395078004834,8.982534973998389,0.28444444444444444,-0.36,-0.5988888888888889,-0.007620555191863471,0.007620555191863471,0.0
1589995755.0266004,-3.9348148148148145,-0.8525925925925926,8.913333333333334,0.28444444444444444,-0.36,-0.5988888888888889,-0.011150714665519326,0.011150714665519326,-0.0016160456036984534
1589995755.0366004,-3.933116715307327,-0.8568832846926727,8.917533138770692,0.28444444444444444,-0.36,-0.5988888888888889,-0.012749988490206421,0.010497438841970207,-0.0006799617995021017
1589995755.0466003,-3.92447743796428,-0.8544774379642801,8.96865793425004,0.28444444444444444,-0.36,-0.5988888888888889,-0.010680297123233633,0.008010222842425226,0.0
1589995755.0566003,-3.9157925059467953,-0.8542074940532047,9.004207494053205,0.2811719490697297,-0.3543900079290604,-0.5988888888888889,-0.008267679856930998,0.007003951098019385,-0.0004589664030406493
1589995755.0666003,-3.9208565385971097,-0.8545717307014452,9.01,0.2766666666666667,-0.3466666666666667,-0.5988888888888889,-0.005859418503511982,0.007635815477475192,-0.0004986984578420527
1589995755.0766003,-3.93,-0.8429523230357577,8.91838019946485,0.2766666666666667,-0.3466666666666667,-0.5988888888888889,-0.0028257585344484935,0.007635815477475192,0.0
1589995755.0866003,-3.9225401076210735,-0.84,8.924759354273558,0.2766666666666667,-0.3466666666666667,-0.5988888888888889,-0.0005541655167842087,0.005194571405162137,0.0008137480241043516
1589995755.0966003,-3.92,-0.8456929522990976,8.951385904598196,0.2766666666666667,-0.3466666666666667,-0.5988888888888889,-0.0024840190444558314,0.006226337413327698,-0.00015117873973145976
1589995755.1066003,-3.92,-0.8535206943378402,8.97056208301352,0.2743195371081066,-0.3490137962252268,-0.5988888888888889,-0.005515467657828954,0.006867719125579772,-0.0007067826065487458
1589995755.1166003,-3.930471271038886,-0.8565095763203714,8.972547881601857,0.27,-0.3533333333333333,-0.5988888888888889,-0.008397307796213867,0.008119377028067642,-0.0007614923187386751
1589995755.1266003,-3.9545894540670905,-0.8637683622012716,8.921642183731638,0.27,-0.3533333333333333,-0.5988888888888889,-0.010318108819591698,0.011588074058586693,-0.0016810297878693194
1589995755.1366003,-3.950441860465116,-0.8656627906976744,8.914337209302326,0.27,-0.3533333333333333,-0.5988888888888889,-0.011429623466366935,0.01033879268387048,0.00047311614171067226
1589995755.1466002,-3.934846329278888,-0.855153670721112,8.98153670721112,0.27,-0.3533333333333333,-0.5988888888888889,-0.010312603807829087,0.008097416492244679,0.00105730503190496
1589995755.1566002,-3.9347190591749115,-0.8552809408250887,9.015842822475266,0.2789137784414992,-0.347565594341775,-0.5952185095306245,-0.008211876758730087,0.008028001418690082,0.0010295390024831215
1589995755.1666002,-3.927211779769526,-0.8372117797695262,9.006394110115236,0.2888888888888889,-0.3411111111111111,-0.5911111111111111,-0.004148369407289019,0.009513329396890091,0.0014841723509556775
1589995755.1766002,-3.940810656043819,-0.8646844267396987,8.933694261172663,0.2888888888888889,-0.3411111111111111,-0.5911111111111111,-0.002181661564992912,0.0064565558383172525,0.0018475275897145876
1589995755.1866002,-3.95,-0.8698454897392853,8.935540785912501,0.2888888888888889,-0.3411111111111111,-0.5911111111111111,-0.00384318942102746,0.004900311293804097,0.002181661564992912
1589995755.1966002,-3.9534362070311486,-0.8703086210934451,8.976872414062298,0.2888888888888889,-0.3411111111111111,-0.5911111111111111,-0.0035799937101785896,0.0051129872109073,0.0010571654436106978
1589995755.2066002,-3.9456112569387667,-0.8648196996428418,8.99,0.28449232850906764,-0.34550767149093237,-0.5919104857256241,0.00039239209631563855,0.004583024213400543,-0.0006984386861808175
1589995755.2166002,-3.92,-0.8332137950979683,8.963572409804064,0.2766666666666667,-0.3533333333333333,-0.5933333333333334,0.001090830782496456,0.001090830782496456,0.0
1589995755.2266002,-3.925273488094052,-0.865820464282156,8.898359071435687,0.2766666666666667,-0.3533333333333333,-0.5933333333333334,-0.0017854107895637916,0.003967072354556704,0.0017257449432361487
1589995755.2366002,-3.924555748087954,-0.8582229923518164,8.902665511472275,0.2766666666666667,-0.3533333333333333,-0.5933333333333334,-0.0037694473726533396,0.005357233180313767,0.003272492347489368
1589995755.2466002,-3.930102179836512,-0.8298978201634877,8.945153269754769,0.2766666666666667,-0.3533333333333333,-0.5933333333333334,-0.0027215039106902386,0.006016288440383212,0.0038234807842884976
1589995755.2566001,-3.9352375350647,-0.8295249298705999,8.9885747896118,0.28248745714314444,-0.3416917523803778,-0.599154123809811,-0.003740174570588473,0.006596806807078151,0.003843818794787304
1589995755.2666001,-3.9426152898606515,-0.8336923550696743,9.007384710139348,0.2888888888888889,-0.3288888888888889,-0.6055555555555555,-0.008894440540010751,0.0033899819359651967,0.005336664324006451
1589995755.2766001,-3.937655399502722,-0.8423446004972783,8.956793898259525,0.2888888888888889,-0.3288888888888889,-0.6055555555555555,-0.008888427291956708,-0.001184805990020175,0.009238158738989205
1589995755.2866,-3.9149412311172145,-0.8650587688827853,8.960117537765571,0.2888888888888889,-0.3288888888888889,-0.6055555555555555,-0.0021602925961945116,-0.004915149211873571,0.016383830706245238
1589995755.2966,-3.8832110359120495,-0.8604128752307244,8.98440367863735,0.2888888888888889,-0.3288888888888889,-0.6055555555555555,0.002967260366933302,-0.004103128850530206,0.025784631397157975
1589995755.3066,-3.8424646222596417,-0.8128753926362489,8.970821540753214,0.2888888888888889,-0.3288888888888889,-0.6055555555555555,0.002226469662126967,0.001823196787920472,0.03541491055964032
1589995755.3166,-3.797603945693678,-0.7323960543063216,8.98437632583793,0.3033333333333333,-0.3411111111111111,-0.6144444444444445,-0.012431166836336893,0.010169555751752863,0.09138149098434407
1589995755.3266,-3.710258626952416,-0.6801939702143116,8.987914275335996,0.3033333333333333,-0.3411111111111111,-0.6144444444444445,-0.02241714711885452,0.00339683041488762,0.1719147728280477
1589995755.3366,-3.1428840125391853,-0.498307210031348,8.912789968652037,0.3033333333333333,-0.3411111111111111,-0.6144444444444445,-0.03541951487491627,-0.0008822393162510521,0.2800049774104696
1589995755.3466,-2.293974809939862,-0.6431779757176898,9.076581470554862,0.3033333333333333,-0.3411111111111111,-0.6144444444444445,-0.028750904273042086,0.007984118872680572,0.3214336572707119
1589995755.3566,-1.5018280968161417,-0.718615294265699,9.039294014010654,0.3033333333333333,-0.3458340907290108,-0.6084333794762085,0.015149227651826174,0.027097025509341257,0.2902804171613112
1589995755.3666,-1.7673231461371393,-0.6330317251008377,8.863976497052436,0.3033333333333333,-0.3533333333333333,-0.5988888888888889,0.016585755441682656,0.008984292841782204,0.2078590240318846
1589995755.3766,-1.9927535760728217,-1.0237678803641093,8.953446033810144,0.3033333333333333,-0.3533333333333333,-0.5988888888888889,0.007296792646504251,-0.012111555173797615,0.15629094358317233
1589995755.3866,-2.0664678705242694,-1.1188303236893258,8.872752345268616,0.3033333333333333,-0.3533333333333333,-0.5988888888888889,0.01753835378162598,-0.0020115390416275483,0.1572072245720137
1589995755.3966,-2.160889541898572,-1.016375666523956,8.902701708636593,0.3033333333333333,-0.3533333333333333,-0.5988888888888889,0.011704427912847731,-0.0005930301782551863,0.16659879023831586
1589995755.4066,-2.269852077952571,-0.9737684902559286,9.067241136417,0.29156270381675403,-0.3457170436461349,-0.5940421590879446,-0.0048845348328222385,-0.015381764140316306,0.1704382758170026
1589995755.4166,-2.3,-0.97,9.12,0.28444444444444444,-0.3411111111111111,-0.5911111111111111,-0.009817477042468105,-0.02072578486743266,0.1712604328519436
1589995755.4266,-2.366665670749925,-0.9457579379091181,9.00485020506831,0.28444444444444444,-0.3411111111111111,-0.5911111111111111,9.901829250354849e-05,-0.007503791087470457,0.16993823347394738
1589995755.4366,-2.41,-0.93,8.93,0.28444444444444444,-0.3411111111111111,-0.5911111111111111,0.006544984694978735,0.001090830782496456,0.16907877128695067
1589995755.4466,-2.413550908523429,-0.93,8.944203634093716,0.28444444444444444,-0.3411111111111111,-0.5911111111111111,0.0038335764687490287,-0.0016205774437332507,0.16094454660826155
1589995755.4566,-2.419242648355973,-0.93,8.966970593423893,0.28444444444444444,-0.3411111111111111,-0.5911111111111111,-0.0005125310419611256,-0.005966684954443405,0.1479062240761311
1589995755.4666,-2.4532068016194333,-0.8933965991902835,8.89018979757085,0.3033333333333333,-0.3411111111111111,-0.6055555555555555,0.002552173060249279,-0.0018215019213728674,0.11643119704495497
1589995755.4766,-2.4712958755500973,-0.8756479377750486,8.823887626650292,0.3033333333333333,-0.3411111111111111,-0.6055555555555555,-0.0012828509386620384,-0.002040303470959854,0.08801328703964977
1589995755.4866,-2.46,-0.8671888651634768,8.815300213528708,0.3033333333333333,-0.3411111111111111,-0.6055555555555555,-0.0040566758886430585,-0.003885786830174899,0.06095553095642652
1589995755.4966,-2.4662154557033262,-0.8553384082225053,8.897092503184147,0.3033333333333333,-0.3411111111111111,-0.6055555555555555,-0.002424991046435429,-0.004945653131849916,0.027639915668570048
1589995755.5066,-2.4844056905061453,-0.8248018968353817,9.002995257911545,0.29466982805896963,-0.3425550286568384,-0.6018013699366646,0.0033157117535044696,-0.00019707373509768528,-0.010206451696604023
1589995755.5166,-2.443129671072077,-0.813129671072077,9.04,0.27,-0.3466666666666667,-0.5911111111111111,0.006032893463302191,0.005966245144158824,-0.04763406495392264
1589995755.5266,-2.4488232700135684,-0.8411767299864314,9.017646540027137,0.27,-0.3466666666666667,-0.5911111111111111,0.004085287088612745,0.00832024888940996,-0.11100849818747474
1589995755.5365999,-2.423977120603627,-0.8620076264654578,8.98,0.27,-0.3466666666666667,-0.5911111111111111,0.006549144286620238,0.0100447943005787,-0.15231990931626369
1589995755.5465999,-2.4,-0.87,8.963336330261482,0.27,-0.3466666666666667,-0.5911111111111111,0.013634894409984078,0.020998247377445968,-0.21870715854954484
1589995755.5565999,-2.433634727222376,-0.87,8.943737191913597,0.2724914612757316,-0.3545562940398166,-0.5965092772085295,0.015414970530218888,0.024945768422149982,-0.2767172766199809
1589995755.5665998,-2.5338500194063696,-0.87,8.940255551243029,0.2766666666666667,-0.36777777777777776,-0.6055555555555555,0.01093618414120469,0.02942455481116418,-0.34929251537791833
1589995755.5765998,-2.5923151736745886,-0.8535797684338817,8.893054478976234,0.2766666666666667,-0.36777777777777776,-0.6055555555555555,0.010713061744870191,0.031438846612302854,-0.41307893826682035
1589995755.5865998,-2.63183358331899,-0.838733433327596,8.866200299982788,0.2766666666666667,-0.36777777777777776,-0.6055555555555555,0.012475473502992121,0.03463026305701811,-0.485361869615013
1589995755.5965998,-2.6627388764174293,-0.8472611235825707,8.919172134922006,0.2766666666666667,-0.36777777777777776,-0.6055555555555555,0.013986264601633134,0.03828330688711372,-0.542914275684867
1589995755.6065998,-2.6687745351982963,-0.8412254648017038,8.961421746388075,0.2766666666666667,-0.36777777777777776,-0.6055555555555555,0.015961429318877514,0.04091685984343956,-0.5830759582688362
1589995755.6165998,-2.6973242045912205,-0.8470898107128474,8.997324204591221,0.28444444444444444,-0.36,-0.6144444444444445,0.02288187802664978,0.049061816806564726,-0.6742825286845332
1589995755.6265998,-2.7098935938249533,-0.9101064061750469,8.949255156774672,0.28444444444444444,-0.36,-0.6144444444444445,0.028936033518953293,0.055115972298868235,-0.759026826176411
1589995755.6365998,-2.68831222433537,-0.93168777566463,8.89168777566463,0.28444444444444444,-0.36,-0.6144444444444445,0.03248405172398998,0.059938929051294054,-0.8191418371033952
1589995755.6465998,-2.681938951424805,-0.9595511611398438,8.926714531994726,0.28444444444444444,-0.36,-0.6144444444444445,0.03277388419939758,0.064310055442787,-0.8784262391000811
1589995755.6565998,-2.719050335859456,-0.99,8.976201343437824,0.2856051450606652,-0.3593668905729705,-0.6149720356336357,0.02976320799066593,0.06804587766579577,-0.9380958023804673
1589995755.6665998,-2.7100202376851534,-0.99,8.940080950740613,0.296641931718146,-0.35334682512343546,-0.6199887568415815,0.03271830070791418,0.0719860012887934,-1.0001527494426805
1589995755.6765997,-2.696208843515084,-0.9989103174342645,8.908388208646555,0.2966666666666667,-0.3533333333333333,-0.62,0.03243023838397832,0.07812626532024407,-1.0856923511001169
1589995755.6865997,-2.7375143616846667,-1.0471000886321111,8.853314184420444,0.2966666666666667,-0.3533333333333333,-0.62,0.031679282872205866,0.08263199839087883,-1.1337535038535542
1589995755.6965997,-2.72,-1.0809206209908273,8.901841241981655,0.2966666666666667,-0.3533333333333333,-0.62,0.0370882466048795,0.08385614343299236,-1.2146854221766579
1589995755.7065997,-2.7218443089430897,-1.123688617886179,8.98,0.3042488256549232,-0.3496447154471544,-0.6228689250225835,0.038295343985412775,0.08847355998024975,-1.279415160169459
1589995755.7165997,-2.7417870995546614,-1.175361298663985,8.968212900445339,0.3377777777777778,-0.3333333333333333,-0.6355555555555555,0.04363323129985824,0.09681158453516277,-1.3554768923175609
1589995755.7265997,-2.7623210362635167,-1.241605181317584,8.931431709891864,0.3377777777777778,-0.3333333333333333,-0.6355555555555555,0.04489916020162557,0.10195363433287734,-1.4073444110670392
1589995755.7365997,-2.767274985494633,-1.288175043516101,8.880900058021467,0.3377777777777778,-0.3333333333333333,-0.6355555555555555,0.049979144123901614,0.10541244216028552,-1.4762759344289837
1589995755.7465997,-2.7604878310281977,-1.3114634930845932,8.911463493084593,0.3377777777777778,-0.3333333333333333,-0.6355555555555555,0.05241309167005138,0.11033355136280652,-1.5268173792097313
1589995755.7565997,-2.7713993063082594,-1.355392369390852,8.937201387383482,0.3421311751812511,-0.3316230700676831,-0.6366439049064239,0.05390863026088353,0.11405696393770767,-1.592586812637441
1589995755.7665997,-2.782410543470559,-1.4508035144901863,8.92,0.3688888888888889,-0.3211111111111111,-0.6433333333333333,0.05637260135378481,0.11833562351366358,-1.6507967418235687
1589995755.7765996,-2.7947445899840146,-1.4981385250399637,8.885675327464032,0.3688888888888889,-0.3211111111111111,-0.6433333333333333,0.05319193110208197,0.1256027895179741,-1.7295140925383974
1589995755.7865996,-2.781804595794866,-1.565902297897433,8.827048851051284,0.3688888888888889,-0.3211111111111111,-0.6433333333333333,0.05582922077161962,0.12827104237548376,-1.7870331518527078
1589995755.7965996,-2.8008879196840026,-1.5891120803159975,8.829112080315998,0.3688888888888889,-0.3211111111111111,-0.6433333333333333,0.059236186844850956,0.1303610707671488,-1.836060155577417
1589995755.8065996,-2.7216512540030946,-1.6716512540030946,8.901743729984528,0.377695576905393,-0.315606931100796,-0.6468193140065329,0.06271772621118679,0.13598351250807894,-1.906851456026246
1589995755.8165996,-2.7291974020366307,-1.6791974020366305,8.864012989816846,0.41794169975091855,-0.29045310432234256,-0.6627500709662201,0.06518719738046365,0.13927614073378142,-1.9570640364682088
1589995755.8265996,-2.75567625821748,-1.7873642095053346,8.9491906455437,0.4222222222222222,-0.2877777777777778,-0.6644444444444444,0.06407149602651165,0.1426113123662565,-2.0433909162423265
1589995755.8365996,-2.7111568645554427,-1.883470593666328,8.832313729110885,0.4222222222222222,-0.2877777777777778,-0.6644444444444444,0.07090400086226964,0.15187786746065857,-2.1112530758516175
1589995755.8465996,-2.717035138286871,-1.943241215428282,8.876482430856564,0.4222222222222222,-0.2877777777777778,-0.6644444444444444,0.07055043910608237,0.15669592540936775,-2.1680289763521303
1589995755.8565996,-2.703650735741214,-1.9704761036118204,8.89,0.4373897063791263,-0.2726102936208737,-0.6693738767954382,0.07092996828604121,0.16003179380576618,-2.226082541141871
1589995755.8665996,-2.7166605263157892,-2.046683552631579,8.87666052631579,0.4666666666666667,-0.2433333333333333,-0.6788888888888889,0.07053921843678086,0.1643521728003203,-2.2812999863260806
1589995755.8765996,-2.6883402214597627,-2.1238728165938867,8.844467404865876,0.4666666666666667,-0.2433333333333333,-0.6788888888888889,0.06569125195296303,0.16628908894581268,-2.324064062688978
1589995755.8865995,-2.67220539851515,-2.20220539851515,8.765256748143937,0.4666666666666667,-0.2433333333333333,-0.6788888888888889,0.07081172191074533,0.17553147703040511,-2.3867772492222015
1589995755.8965995,-2.6973028417689595,-2.2344952637184012,8.802697158231041,0.4666666666666667,-0.2433333333333333,-0.6788888888888889,0.07328180530884143,0.17795252470810646,-2.423507694517131
1589995755.9065995,-2.64,-2.34226278510335,8.867007305773342,0.4691970826403738,-0.23418490635146905,-0.681419304862596,0.07764008017824656,0.18165119375740627,-2.47016640785393
1589995755.9165995,-2.628965694297359,-2.411034305702641,8.890542023683452,0.4811111111111111,-0.19111111111111112,-0.6933333333333334,0.07888371806328531,0.1845223531036713,-2.509302975129555
1589995755.9265995,-2.5556505440248696,-2.4843494559751305,8.822063180031087,0.4811111111111111,-0.19111111111111112,-0.6933333333333334,0.07876487436851902,0.18739783656061623,-2.552675834358802
1589995755.9365995,-2.519100967826314,-2.553596128694742,8.81179806434737,0.4811111111111111,-0.19111111111111112,-0.6933333333333334,0.07645622397170301,0.19406578688207327,-2.5862496464861113
1589995755.9465995,-2.4689096047415315,-2.626545511637948,8.843091023275896,0.4811111111111111,-0.19111111111111112,-0.6933333333333334,0.08004712123698568,0.19999885942116166,-2.6153757471013543
1589995755.9565995,-2.3965357489891232,-2.636157101213052,8.827307149797825,0.48649681151546176,-0.17106433738380578,-0.7014118839398594,0.08055318435518292,0.20100660836866635,-2.638133712725095
1589995755.9665995,-2.36,-2.745884849154603,8.799410984639186,0.5011111111111111,-0.11666666666666667,-0.7233333333333334,0.07507485847923372,0.20180369476184434,-2.6648998909519017
1589995755.9765995,-2.349396587502882,-2.8612068249942357,8.731120820843902,0.5011111111111111,-0.11666666666666667,-0.7233333333333334,0.07828590956664587,0.2045025514704959,-2.6827478267146243
1589995755.9865994,-2.33,-2.9246801145063577,8.678510085879768,0.5011111111111111,-0.11666666666666667,-0.7233333333333334,0.07979317154080377,0.20910298738158115,-2.701163752130295
1589995755.9965994,-2.31079786286732,-2.98,8.736801869991096,0.5011111111111111,-0.11666666666666667,-0.7233333333333334,0.07395818135012759,0.20808685092839752,-2.7171289291922895
1589995756.0065994,-2.257026467410875,-3.0198166486616254,8.794684311607249,0.5089182971231945,-0.1130233131943611,-0.7290586030755278,0.071601597033371,0.20904627562792447,-2.7291208727595375
1589995756.0165994,-2.266094318855304,-3.15,8.804437727542123,0.5344444444444445,-0.10111111111111112,-0.7477777777777778,0.0768422357554798,0.21519703905268614,-2.737623851906417
1589995756.0265994,-2.230582507831682,-3.15,8.790233003132672,0.5344444444444445,-0.10111111111111112,-0.7477777777777778,0.07529274069120924,0.2159717865848214,-2.7422723370992284
1589995756.0365994,-2.1426412470839065,-3.152665811794151,8.682518423532683,0.5344444444444445,-0.10111111111111112,-0.7477777777777778,0.07527536277488482,0.21762744009356744,-2.7371718302690997
1589995756.0465994,-1.993601588208939,-2.9777062122452764,8.663078468027253,0.5344444444444445,-0.10111111111111112,-0.7477777777777778,0.0667930820246108,0.21055887280167243,-2.732223833164773
1589995756.0565994,-1.9481612029260362,-3.205743159035492,8.962191276076943,0.5393479033083477,-0.09620765224720793,-0.7467562238477979,0.03366464567459674,0.2175891480951335,-2.704095300215248
1589995756.0665994,-1.9286881833624423,-3.3228279541593895,8.74434409168122,0.5611111111111111,-0.07444444444444444,-0.7422222222222222,0.052668359504684965,0.22409417730455974,-2.6670050300599324
1589995756.0765994,-1.8743811404239121,-3.33,8.701534600471014,0.5611111111111111,-0.07444444444444444,-0.7422222222222222,0.050035105597675704,0.2203559142463175,-2.6375100102253692
1589995756.0865993,-1.8070931172106461,-3.347441296736123,8.661975710682892,0.5611111111111111,-0.07444444444444444,-0.7422222222222222,0.04176866145763896,0.21299111381516006,-2.6001731468908402
1589995756.0965993,-1.7729287909253006,-3.3998440760271635,8.715389809932091,0.5611111111111111,-0.07444444444444444,-0.7422222222222222,0.04254240051736178,0.20646949075458165,-2.5563060915881772
1589995756.1065993,-1.69,-3.4327975319636157,8.650490744863559,0.5627430047565535,-0.07156920325961735,-0.7437764066464531,0.04208465542022234,0.20040770058125493,-2.510779283726739
1589995756.1165993,-1.6783272058823528,-3.496263786764706,8.781245404411765,0.5844444444444444,-0.03333333333333333,-0.7644444444444445,0.03758904621504216,0.19221130182844837,-2.445587972557747
1589995756.1265993,-1.6423073908432846,-3.570256812208954,8.74205057863433,0.5844444444444444,-0.03333333333333333,-0.7644444444444445,0.04257041438364656,0.17909191789275974,-2.384359565972607
1589995756.1365993,-1.6175604965628385,-3.6024395034371617,8.69243950343716,0.5844444444444444,-0.03333333333333333,-0.7644444444444445,0.047145435586482064,0.16990349352512096,-2.3116530618539235
1589995756.1465993,-1.5822304421273374,-3.605371740354556,8.704628259645443,0.5844444444444444,-0.03333333333333333,-0.7644444444444445,0.05126904677733343,0.16705931205069618,-2.2358147970802884
1589995756.1565993,-1.4909388177261516,-3.5932858620415304,8.722816453178455,0.5809499562415467,-0.034324307599826735,-0.761315052023939,0.05085941026739762,0.15984007938955921,-2.169145781016034
1589995756.1665993,-1.5076239159837697,-3.6516837059431935,8.772871747951308,0.5188443127270799,-0.051936355760645675,-0.7056980578318792,0.04357916275204256,0.15073976999536542,-2.1018034914989996
1589995756.1765993,-1.5257039947609692,-3.66,8.79570399476097,0.51,-0.054444444444444434,-0.6977777777777778,0.0433989205620332,0.14516121697865736,-2.0202657570758036
1589995756.1865993,-1.4514162483319566,-3.6550949990468324,8.65,0.51,-0.054444444444444434,-0.6977777777777778,0.048686095760248786,0.13541750575717626,-1.893086915278849
1589995756.1965992,-1.4047744169790937,-3.6284425239880536,8.65,0.51,-0.054444444444444434,-0.6977777777777778,0.04650559524346117,0.13032967121800518,-1.8305792337976041
1589995756.2065992,-1.3997628248307157,-3.7097628248307157,8.789209416102386,0.5098594517515352,-0.05365386054683036,-0.697215584783919,0.03934752356252213,0.11239006632720151,-1.7129103814429187
1589995756.2165992,-1.3774582550430745,-3.6874582550430746,8.71486085014358,0.4966419289144145,0.020694705411974185,-0.6443454934354357,0.04664667695693202,0.11563413450249478,-1.6391078304549964
1589995756.2265992,-1.3516529335233258,-3.7319837680441115,8.797108605414783,0.4922222222222222,0.045555555555555564,-0.6266666666666667,0.03922483140065582,0.10335846372186372,-1.517742185891495
1589995756.2365992,-1.386300105321851,-3.983175763583421,9.784553001672759,0.4922222222222222,0.045555555555555564,-0.6266666666666667,0.03827997636254895,0.09768933349322251,-1.4345949425380908
1589995756.2465992,-1.0137916492465417,-3.4066631523458093,7.818027557122862,0.4922222222222222,0.045555555555555564,-0.6266666666666667,0.16356174088325184,0.04562741345001277,-1.3073656004005507
1589995756.2565992,-0.9223012742442696,-3.185561412756985,6.659149473760747,0.4922222222222222,0.045555555555555564,-0.6266666666666667,0.1519183471918792,0.08305260745799631,-1.221703489671166
1589995756.2665992,-1.1881921230552692,-3.7363842461105383,9.45468972277377,0.5044444444444445,0.15222222222222226,-0.5966666666666667,-0.1656301536486186,0.13396768460565758,-1.118037506498561
1589995756.2765992,-1.15,-3.66,8.92,0.5044444444444445,0.15222222222222226,-0.5966666666666667,-0.009817477042468105,0.009817477042468105,-1.0613783513690518
1589995756.2865992,-1.0506802016435328,-3.578738346799254,8.089325322836821,0.5044444444444445,0.15222222222222226,-0.5966666666666667,0.10049345437717212,0.09058083754613326,-0.9431880677051513
1589995756.2965991,-1.1333505626018845,-3.70224663035267,8.762362927915392,0.5044444444444445,0.15222222222222226,-0.5966666666666667,0.01646596727052417,0.05004792870325335,-0.8821095655259654
1589995756.3065991,-1.0438119814027986,-3.630346806664739,8.247773007363246,0.504565459727073,0.15524760428793533,-0.5951539756338101,0.023917301477569895,0.04599310257870015,-0.7729506856460502
1589995756.3165991,-1.1091248637465798,-3.807624630169288,8.723624007296511,0.5066388845633836,0.20708322519569822,-0.5692361651799287,0.04121973209786733,0.0490464726881644,-0.6905096926905153
1589995756.3265991,-1.118667405318292,-3.8966629734085414,8.946685132957294,0.5066666666666667,0.20777777777777776,-0.5688888888888889,0.012651461568347545,0.02974315818728401,-0.5989454287429478
1589995756.336599,-1.1102179693795327,-3.938910153102337,8.735449234488316,0.5066666666666667,0.20777777777777776,-0.5688888888888889,0.037537104573519164,0.031586539150630054,-0.52336680924576
1589995756.346599,-1.0463324452531029,-3.8648900729958626,8.707335109493794,0.5066666666666667,0.20777777777777776,-0.5688888888888889,0.02956180482922977,0.02304080248623912,-0.4309606442001793
1589995756.356599,-1.0217040681627265,-3.9004260170406817,8.762982119284771,0.5060513087190155,0.21047588570209472,-0.5694569116097977,0.03762142238516369,0.023394150962525395,-0.35785847274360627
1589995756.366599,-1.0540451172454735,-3.906030078163649,8.800225586227366,0.4922222222222222,0.27111111111111114,-0.5822222222222222,0.02465605670309883,0.009817477042468105,-0.2704243440657236
1589995756.376599,-1.0307631523122613,-3.8902543841040873,8.680763152312261,0.4922222222222222,0.27111111111111114,-0.5822222222222222,0.022796450427899174,0.009734230039073302,-0.20643399837874263
1589995756.386599,-1.0530070004242682,-3.8976690001414225,8.703007000424268,0.4922222222222222,0.27111111111111114,-0.5822222222222222,0.019561213862332148,0.007307802614898033,-0.15062616762271144
1589995756.396599,-1.05,-3.8880682766057006,8.674507354586698,0.4922222222222222,0.27111111111111114,-0.5822222222222222,0.011999138607461015,-0.004152604795808788,-0.049835496328202326
1589995756.406599,-1.05,-3.8624688218420036,8.734239415701992,0.4922222222222222,0.27111111111111114,-0.5822222222222222,0.011999138607461015,-0.0013601374686721623,0.012529607311182321
1589995756.416599,-1.0780475166210404,-3.9109762416894798,8.76804751662104,0.4933333333333334,0.27111111111111114,-0.5966666666666667,0.006438493246374638,-0.01133427361938095,0.10791732484056488
1589995756.426599,-1.0643781775518186,-3.9178109112240906,8.754378177551818,0.4933333333333334,0.27111111111111114,-0.5966666666666667,0.005692946454720211,-0.014316460785998658,0.16085114704802916
1589995756.436599,-1.08,-3.93080163983009,8.631336066383485,0.4933333333333334,0.27111111111111114,-0.5966666666666667,-0.002123364671450426,-0.02402742566169327,0.2529000868299755
1589995756.446599,-1.0811603207580143,-3.991933867930024,8.732707415102034,0.4933333333333334,0.27111111111111114,-0.5966666666666667,0.0019285188449106325,-0.026517462406691315,0.3235732008815572
1589995756.456599,-1.105591713104091,-4.0326528551734855,8.78971399724288,0.4933333333333334,0.27111111111111114,-0.5966666666666667,-0.0034015841211591717,-0.033624266361451056,0.38398103449701504
1589995756.466599,-1.095560969462763,-3.9966829083882893,8.763902423656909,0.50937670059693,0.28153929983244896,-0.6119078655670834,-0.004363323129985824,-0.038844219784742694,0.4452824679978752
1589995756.476599,-1.1256235107227959,-3.972875297855441,8.75,0.5155555555555555,0.2855555555555556,-0.6177777777777778,-0.006694876454606922,-0.0442466611600707,0.5121021642774526
1589995756.486599,-1.1243735845171918,-3.9387471690343836,8.710933961292978,0.5155555555555555,0.2855555555555556,-0.6177777777777778,-0.010192681731784172,-0.050076336622032785,0.5815196274105172
1589995756.496599,-1.0607511071744908,-3.9596244464127546,8.660500738116328,0.5155555555555555,0.2855555555555556,-0.6177777777777778,-0.013062658362394525,-0.05450057258347838,0.654838247022389
1589995756.506599,-1.095098590358645,-4.030197180717289,8.686323942768983,0.5155555555555555,0.2855555555555556,-0.6177777777777778,-0.01691863166850179,-0.055498704694458875,0.7101477377496266
1589995756.516599,-1.1270304844855743,-4.0119796770096166,8.76614226093268,0.5877777777777777,0.2966666666666667,-0.6133333333333333,-0.02433328557989667,-0.06206937997122344,0.77868978171264
1589995756.526599,-1.1041981491562332,-4.027201233895845,8.659591362729088,0.5877777777777777,0.2966666666666667,-0.6133333333333333,-0.018521835596740404,-0.06123917283077255,0.8193699315947338
1589995756.536599,-1.1065408720908014,-4.056163488363206,8.653081744181604,0.5877777777777777,0.2966666666666667,-0.6133333333333333,-0.02244778175465597,-0.06394051766820877,0.8539626746921826
1589995756.546599,-1.1005426848619486,-4.107829260552206,8.66,0.5877777777777777,0.2966666666666667,-0.6133333333333333,-0.031278906280832214,-0.06854474609149422,0.8971870281897762
1589995756.556599,-1.12434938288892,-4.045068312296213,8.692465843851894,0.5877777777777777,0.2966666666666667,-0.6133333333333333,-0.028092618507060366,-0.07137844493627934,0.9147811986110956
1589995756.566599,-1.1459941648431802,-4.050675743577275,8.806669908420456,0.78,0.29444444444444445,-0.62,-0.02836160034490785,-0.07606754946247196,0.9242253389482248
1589995756.576599,-1.2071801604668124,-3.955497528162736,8.772677688629548,0.78,0.29444444444444445,-0.62,-0.02836160034490785,-0.07310116868540743,0.9160677918112973
1589995756.5865989,-1.3198391979750856,-3.8499463993250287,8.670160802024915,0.78,0.29444444444444445,-0.62,-0.03380990733076799,-0.07415895242989258,0.9009268285894959
1589995756.5965989,-1.29,-3.837822245626353,8.701814795311371,0.78,0.29444444444444445,-0.62,-0.032487367324144645,-0.07074563009510361,0.8820069907381347
1589995756.6065989,-1.29,-3.788740272658124,8.742716439451563,0.78,0.29444444444444445,-0.62,-0.027133354626204337,-0.06717628829647675,0.8712989653422543
1589995756.6165988,-1.3100328977428493,-3.8600548295714154,8.759890340857169,1.5322222222222222,0.17333333333333334,-1.0533333333333332,-0.027276750540840514,-0.06435542758023342,0.8562854175201163
1589995756.6265988,-1.3387793566663622,-3.907965594443937,8.664068811112127,1.5322222222222222,0.17333333333333334,-1.0533333333333332,-0.032503004254430125,-0.06121967535207967,0.8416519071220655
1589995756.6365988,-1.3882913690690906,-3.919658273813818,8.650341726186182,1.5322222222222222,0.17333333333333334,-1.0533333333333332,-0.027457152283947538,-0.06319363229618,0.8262807739701183
1589995756.6465988,-1.3997651058869243,-3.9502348941130756,8.700078298037692,1.5322222222222222,0.17333333333333334,-1.0533333333333332,-0.02721952361657739,-0.06002985700119442,0.8149018404706867
1589995756.6565988,-1.3753180493491355,-3.9746819506508646,8.708227316883622,1.5322222222222222,0.17333333333333334,-1.0533333333333332,-0.021886003254007094,-0.06358553724290794,0.820235360833257
1589995756.6665988,-1.4614479958757571,-3.9456560123727287,8.781930661167676,0.8977777777777778,-0.10222222222222224,-0.7566666666666667,-0.01813775052543163,-0.062493258297138754,0.8283617688412644
1589995756.6765988,-1.488476607810285,-3.8645701765691456,8.817968810413713,0.8977777777777778,-0.10222222222222224,-0.7566666666666667,-0.03091399535150963,-0.06838998667840553,0.8362240733496201
1589995756.6865988,-1.4577340724738108,-3.964864264460115,8.707069253658338,0.8977777777777778,-0.10222222222222224,-0.7566666666666667,-0.023714842623839667,-0.0660825892744242,0.8577852103576019
1589995756.6965988,-1.4402922395443825,-3.9791232813668524,8.710194826362923,0.8977777777777778,-0.10222222222222224,-0.7566666666666667,-0.018629132340006446,-0.06658318225106716,0.8724733556626397
1589995756.7065988,-1.4644209860208248,-3.906737041937525,8.726280657347218,0.8977777777777778,-0.10222222222222224,-0.7566666666666667,-0.025647900179888147,-0.07009256617100801,0.8566811280229057
1589995756.7165987,-1.4894722062864216,-3.851055587427157,8.720263896856789,0.6219215220534705,0.13577141016737623,-0.6863503661879217,-0.02408463725935893,-0.06984195676125216,0.8179822165786514
1589995756.7265987,-1.516591773637438,-3.8300561697719213,8.793127377502955,0.6144444444444445,0.14222222222222222,-0.6844444444444444,-0.024723455346044403,-0.06763763568640606,0.7880251308449506
1589995756.7365987,-1.5383124559617944,-3.7285629844202615,8.713625616534879,0.6144444444444445,0.14222222222222222,-0.6844444444444444,-0.021462114860909876,-0.05747319489101228,0.7289683588677568
1589995756.7465987,-1.5475560195968197,-3.6646638824190827,8.697556019596819,0.6144444444444445,0.14222222222222222,-0.6844444444444444,-0.022374252621304106,-0.057280837661190694,0.6737912193392606
1589995756.7565987,-1.5277368696562554,-3.65,8.692578956552085,0.6144444444444445,0.14222222222222222,-0.6844444444444444,-0.014002833538073509,-0.04809990831483718,0.6135292178929761
1589995756.7665987,-1.6082104969290898,-3.605894751535455,8.77821049692909,0.594025347933081,0.1667251380358583,-0.7007797216535352,-0.017323156184268586,-0.042318493947615686,0.5480601940234516
1589995756.7765987,-1.5817315026697178,-3.6094228324434274,8.742020086448004,0.5866666666666667,0.17555555555555555,-0.7066666666666667,-0.013278847031167764,-0.040392218559237254,0.47929490386313
1589995756.7865987,-1.5882929145952065,-3.6265858291904127,8.706828341619174,0.5866666666666667,0.17555555555555555,-0.7066666666666667,-0.01037611943483791,-0.036742272345542774,0.4352669001032412
1589995756.7965987,-1.6615764731021956,-3.504741172071158,8.646317645173355,0.5866666666666667,0.17555555555555555,-0.7066666666666667,-0.011769422546528218,-0.03306949756629288,0.38357203486679176
1589995756.8065987,-1.6625796688276184,-3.6235659611028663,8.714203311723814,0.5866666666666667,0.17555555555555555,-0.7066666666666667,-0.012808571173376188,-0.030296625777148166,0.35585416968064537
1589995756.8165987,-1.6500177187923426,-3.6799822812076575,8.779929124830629,0.566702104251352,0.1611367049222728,-0.6933569583897903,-0.004378785693278689,-0.02836353316531946,0.32619706037467255
1589995756.8265986,-1.6590109701010969,-3.689010970101097,8.789010970101096,0.5666666666666667,0.16111111111111112,-0.6933333333333334,-0.006329211843272188,-0.025412767274978307,0.3064995168335767
1589995756.8365986,-1.715894532029535,-3.624789712632209,8.734105467970465,0.5666666666666667,0.16111111111111112,-0.6933333333333334,-0.004512602157943706,-0.02407291672890097,0.2890989192887484
1589995756.8465986,-1.6681115425344157,-3.594055771267208,8.738648076244264,0.5666666666666667,0.16111111111111112,-0.6933333333333334,-0.006250040685309733,-0.022111559659598122,0.2728855861364731
1589995756.8565986,-1.6757779964169284,-3.6005186642779523,8.750518664277953,0.5666666666666667,0.16111111111111112,-0.6933333333333334,-0.005397576416465107,-0.02066920737141549,0.26019935955249845
1589995756.8665986,-1.6937997089249892,-3.6062002910750106,8.767599417849977,0.5518900208472642,0.13873504744173037,-0.6815120166778115,-0.0031198712920144085,-0.018805986192955267,0.23679862581050884
1589995756.8765986,-1.4899452858615494,-3.650975338989771,8.797992229006423,0.5277777777777778,0.10222222222222224,-0.6622222222222223,0.0033230938864442826,-0.013073102210305833,0.17530890196176552
1589995756.8865986,-7.933888073903734,-11.87427781302038,3.6345232336848783,0.5277777777777778,0.10222222222222224,-0.6622222222222223,0.011486095226390356,-0.010352101763657143,0.12451689362432326
1589995756.8965986,-3.609405089965959,2.544263251742583,-4.281744204895445,0.5277777777777778,0.10222222222222224,-0.6622222222222223,-0.9741743078431268,2.3053867787224407,-1.5332207516705552
1589995756.9065986,-1.012048654764898,-0.19445876288659836,-1.0826533819461908,0.5277777777777778,0.10222222222222224,-0.6622222222222223,-0.6606048041730113,-1.1880168932390873,-6.436815122366783
1589995756.9165986,-0.3465692588318505,-1.9253798905557828,0.06845996351859432,0.5026409725065869,0.1620070563807302,-0.6323298051429682,-0.5406154596763927,-1.1200850505661757,-7.721656506096648
1589995756.9265985,0.0658121248288693,-2.047211359567522,0.3161389405693825,0.4866666666666667,0.2,-0.6133333333333333,-0.5935434411990849,-0.7220018905001937,-7.653838098884598
1589995756.9365985,0.18936013907581878,-1.5492505981755644,0.11122495139823535,0.4866666666666667,0.2,-0.6133333333333333,-0.5561661794867788,-0.5931108946523359,-7.3866275257774605
1589995756.9465985,-0.585438037967221,-2.8476799119600678,2.065473411154345,0.4866666666666667,0.2,-0.6133333333333333,-0.5028118531018192,-0.28135309657760327,-6.9742790636338245
1589995756.9565985,-0.4580897125043297,-1.5197921718046417,0.2734343609282992,0.4866666666666667,0.2,-0.6133333333333333,0.3307327520330471,0.8894625510102703,-6.488678632211982
1589995756.9665985,2.038440315428296,-2.6289180729177115,18.436061761341975,0.4355555555555555,0.3644444444444445,-0.62,1.835273313793122,2.931073103337401,-5.627423113820762
1589995756.9765985,0.7507867648534221,2.311295222425106,6.443210064811286,0.4355555555555555,0.3644444444444445,-0.62,1.9445209239165164,2.887006840430485,-5.219810181931794
1589995756.9865985,-0.6478589618552231,0.6492533593411354,3.909827698309493,0.4355555555555555,0.3644444444444445,-0.62,0.6936031217689673,0.8376863473216489,-4.392218383946638
1589995756.9965985,3.08441330664379,-1.4393318082165663,19.21057668477743,0.4355555555555555,0.3644444444444445,-0.62,0.046507800722496384,0.08132610863586132,-3.9322530279367562
1589995757.0065985,1.2038570040800467,-1.8960557606372643,10.301300757722947,0.4355555555555555,0.3644444444444445,-0.62,-0.517302687672499,-0.19171222781543,-3.570427311706803
1589995757.0165985,0.7820438659918052,-1.7716654615570016,7.496343697276452,0.3725384965587424,0.42827990680485256,-0.6044503360916955,-0.28008927312456483,0.32421441678741436,-3.2345759213316163
1589995757.0265985,0.7641921290637986,-0.9508732583720362,3.8691261305304328,0.35,0.4511111111111111,-0.5988888888888889,0.7358345562888626,0.1385545075909958,-2.8050165290107922
1589995757.0365984,0.7318518000209915,-1.6488902494489732,6.5411163978588664,0.35,0.4511111111111111,-0.5988888888888889,0.4995191717067683,0.1904107089486453,-2.541110057499424
1589995757.0465984,0.056213380526498824,-2.9319732642290552,11.819644155105394,0.35,0.4511111111111111,-0.5988888888888889,-0.3530897518594633,0.20333667690850663,-2.1535472398495603
1589995757.0565984,0.03688786846393127,-2.5923319296612144,9.493291999068921,0.35,0.4511111111111111,-0.5988888888888889,-0.4400245225544881,0.07140003029039807,-1.824585239818886
1589995757.0665984,0.25300933055530395,-2.254158891203913,7.198934686112873,0.3205677597608479,0.4888447524433574,-0.6049262715020483,0.15280724505340748,0.18543204312832248,-1.4928060267140035
1589995757.0765984,0.2407534136546185,-2.368493172690763,7.070534297188755,0.30666666666666664,0.5066666666666667,-0.6077777777777778,0.33383007229180284,0.13305892553040544,-1.1497961354799584
1589995757.0865984,0.2417685083546774,-2.7783607757043542,8.390998902305158,0.30666666666666664,0.5066666666666667,-0.6077777777777778,-0.019425076592633705,0.02473820347383826,-0.9684154610606673
1589995757.0965984,0.25,-2.799331576425491,8.527994729276474,0.30666666666666664,0.5066666666666667,-0.6077777777777778,-0.15359119929407983,0.023255177211677136,-0.7200408306060231
1589995757.1065984,0.2872994557800206,-2.8817078061026775,8.546664251655406,0.30666666666666664,0.5066666666666667,-0.6077777777777778,0.064616381728904,0.07687367620856504,-0.4764287573872152
1589995757.1165984,0.29147291768327016,-3.21147291768327,9.451643331706768,0.284406574661445,0.5173686339768695,-0.6103462499322264,0.11069576025104963,0.03972403542518071,-0.16549026107304085
1589995757.1265984,0.18740331146516714,-2.9157182130584194,8.389240237425804,0.2488888888888889,0.5344444444444445,-0.6144444444444445,-0.029452431127404314,-0.006544984694978735,0.1308996938995747
1589995757.1365983,0.27786211420034257,-3.150413948912291,8.776483256203768,0.2488888888888889,0.5344444444444445,-0.6144444444444445,0.0030919525590515536,-0.02126744398170877,0.3067943390620862
1589995757.1465983,0.28686275220709534,-3.336162463970415,8.918627522070953,0.2488888888888889,0.5344444444444445,-0.6144444444444445,0.0056069331055205035,-0.04743738574727328,0.6877397296941523
1589995757.1565983,0.2776309833653955,-3.40464693900645,8.961480706121987,0.2488888888888889,0.5344444444444445,-0.6144444444444445,-0.014553524348955911,-0.07025298337365514,1.022620344891497
1589995757.1665983,0.2565231484312886,-3.33283101950951,8.728062503822397,0.2488888888888889,0.5483931325980742,-0.6209538322494716,-0.04773470433986188,-0.09388189664374519,1.3114433526835665
1589995757.1765983,0.3122528300053442,-7.480939610358062,8.124190837098578,0.2488888888888889,0.5511111111111111,-0.6222222222222222,-0.12123728515956908,-0.20864593786711422,1.6955641981614875
1589995757.1865983,5.355228725346969,-21.518308984660337,7.701559989043097,0.2488888888888889,0.5511111111111111,-0.6222222222222222,-0.5217372069320685,-0.4375780483258631,3.8259656136965203
1589995757.1965983,-0.06624708063467555,-6.802987503912551,11.505828136662412,0.2488888888888889,0.5511111111111111,-0.6222222222222222,0.12466326095941194,-0.273925697635485,5.0455459254177395
1589995757.2065983,-1.0940089747185384,-2.8546656516687365,7.416382867903361,0.2488888888888889,0.5511111111111111,-0.6222222222222222,0.40954422043292127,-0.1049279652982652,5.246227859479512
1589995757.2165983,-1.0370920213115833,-2.6177616259948695,5.7845398934420835,0.2822617612021019,0.5463435579235092,-0.6351627237314272,-0.024722029770538778,-0.2863865973999644,5.206774901516952
1589995757.2265983,-0.8719783415221096,-3.5500110297804075,9.354303619773388,0.3033333333333333,0.5433333333333333,-0.6433333333333333,-0.5562294148924534,-0.5776238299186547,5.111675485597565
1589995757.2365983,-0.7105039819327231,-3.783165339355759,9.739929276120291,0.3033333333333333,0.5433333333333333,-0.6433333333333333,-0.2963223570986505,-0.45842405126429775,5.130914758011425
1589995757.2465982,6.293446482564,-13.769349727877445,7.058328159645233,0.3033333333333333,0.5433333333333333,-0.6433333333333333,-0.1573619162026844,-0.4150489093316313,4.145008729561203
1589995757.2565982,7.89244199000541,-14.725847471114367,5.665848107712385,0.3033333333333333,0.5433333333333333,-0.6433333333333333,-0.2851286600958062,-0.31498218862905436,0.8736487937576085
1589995757.2665982,-1.3153352603354507,-0.26235994371125393,8.967592134788728,0.32128737264248614,0.5214233192611468,-0.6530711173654162,0.02563483454490098,0.1543899152151147,-1.5707274575483692
1589995757.2765982,-1.5570237355536225,-0.011068721262582328,7.243516838573381,0.3688888888888889,0.4633333333333333,-0.6788888888888889,0.6950757614731128,0.3978454524259625,-1.4326855866805475
1589995757.2865982,-0.5980408779468122,-1.1597038671466728,4.8330298455463945,0.3688888888888889,0.4633333333333333,-0.6788888888888889,-0.09087326018875819,-0.03388416078654448,-1.221560600181964
1589995757.2965982,-1.6286126088759851,-2.7220323517212774,11.467278100373289,0.3688888888888889,0.4633333333333333,-0.6788888888888889,-0.4476641038647815,0.02320978889215318,-1.0387392013505707
1589995757.3065982,-1.4186583068227445,-2.8732211137535906,11.37245482904531,0.3688888888888889,0.4633333333333333,-0.6788888888888889,-0.04454701307342801,0.13063767484297667,-0.8073995097259588
1589995757.3165982,-0.43461782270065513,-2.3346178227006553,7.706636839765765,0.39370701780380385,0.45374451079802525,-0.668171969584721,0.17214485263794926,0.10282849407316962,-0.6231047504324795
1589995757.3265982,-4.391612489991994,-9.567873098478783,8.907295836669336,0.4177777777777778,0.4444444444444444,-0.6577777777777778,-0.1522072260722283,-0.02495382401966932,-0.17354589364712036
1589995757.3365982,-0.005566912289042492,-5.667732350843831,8.956619919182314,0.4177777777777778,0.4444444444444444,-0.6577777777777778,-0.11983814600033982,-0.17184279699206412,0.8444728602523364
1589995757.3465981,-1.388383594692401,-0.6494933655006032,9.8670205066345,0.4177777777777778,0.4444444444444444,-0.6577777777777778,0.26056249885397853,0.10283152571931908,0.26432974677953625
1589995757.3565981,-1.186242060051219,-1.0066568530580147,7.660435159605574,0.4177777777777778,0.4444444444444444,-0.6577777777777778,0.24247966623511333,0.10023182154860917,-0.00021732588838831862
1589995757.3665981,-0.0814564081960627,-3.358364805142627,7.32277822418642,0.3984018570599527,0.4444444444444444,-0.6521264675684122,-0.15666131287961307,-0.07692701711130494,-0.1704321202047285
1589995757.3765981,-0.5811200457161515,-6.084123433609534,8.682214376096983,0.3911111111111111,0.4444444444444444,-0.65,-0.21074401900561945,-0.04752186783152598,-0.2911047511248236
1589995757.386598,0.23017200247400815,-3.875853385562395,8.57256678349483,0.3911111111111111,0.4444444444444444,-0.65,0.08919627535888983,0.02767618863125135,-0.023595331976678846
1589995757.396598,-0.1051050383287494,-3.7132763766165366,7.976184095031892,0.3911111111111111,0.4444444444444444,-0.65,0.044396091542213856,0.01585231371159912,0.026027634827253197
1589995757.406598,-0.3627790909812009,-4.3229156817640995,8.193097802807964,0.3911111111111111,0.4444444444444444,-0.65,-0.029765516088408925,-0.005043329405835719,-0.0038448259156579293
1589995757.416598,-0.14472643826240994,-4.518358629574459,8.844551713031926,0.3911111111111111,0.447595403286051,-0.65,-0.028788903517889475,-0.015063995867400834,-0.00590051665145301
1589995757.426598,-0.1595107487027428,-4.648042994810972,8.682446256486285,0.3911111111111111,0.4711111111111111,-0.65,0.008726646259971648,0.005320731318626153,-0.0005320731318626153
1589995757.436598,-0.14,-4.5553722366189975,8.721488946475988,0.3911111111111111,0.4711111111111111,-0.65,-0.003240664671332452,0.0007978207287536066,0.0
1589995757.446598,-0.12543819541909626,-4.579123609161807,8.724269674301507,0.3911111111111111,0.4711111111111111,-0.65,-0.006576851165105345,-0.0010270978422432374,0.0
1589995757.456598,-0.11422331865293553,-4.620558296632339,8.718325110102983,0.3911111111111111,0.4711111111111111,-0.65,-0.007757616907939049,-0.002811799748398014,-0.000230346299545677
1589995757.466598,-0.13380349684108894,-4.652393006317822,8.619017484205445,0.38815283579026416,0.4681528357902641,-0.6580296044422989,-0.008479416010209946,-0.00150572792603524,-0.0019206250695740236
1589995757.476598,-0.13575539076649695,-4.6187769538324845,8.70517992003554,0.38333333333333336,0.4633333333333333,-0.6711111111111111,0.003437293047671059,-0.0007926164415207647,-0.001420432182859839
1589995757.486598,-0.13636725686165085,-4.551796458830095,8.735429201968444,0.38333333333333336,0.4633333333333333,-0.6711111111111111,0.009821821328218494,0.001090830782496456,0.0017853907609715089
1589995757.496598,-0.12776650870277692,-4.572817219540281,8.661066034811109,0.38333333333333336,0.4633333333333333,-0.6711111111111111,0.004839531953364519,-0.0009108695501655604,0.0008471946765515679
1589995757.506598,-0.115145590516727,-4.614563228449819,8.649417637933093,0.38333333333333336,0.4633333333333333,-0.6711111111111111,-3.1762923457074764e-05,-6.352584691414953e-05,0.0
1589995757.516598,-0.11,-4.649399499079634,8.645750626150457,0.38333333333333336,0.4671054581543733,-0.6646446114178997,-0.0004962870245842986,0.003239740103046748,-0.0005290392690269181
1589995757.526598,-0.12253451577144009,-4.601060163257079,8.70774161040008,0.38333333333333336,0.4711111111111111,-0.6577777777777778,0.0032875526938767525,0.0009450642181922839,-0.0004071790001377479
1589995757.536598,-0.12383098719668888,-4.603183089623178,8.673633820753643,0.38333333333333336,0.4711111111111111,-0.6577777777777778,0.001834440350552166,0.00025503903019684945,-0.0006729349063466527
1589995757.546598,-0.1250052850960292,-4.604973574519854,8.650031710576174,0.38333333333333336,0.4711111111111111,-0.6577777777777778,-0.0005448388767045181,0.001090830782496456,-0.001090830782496456
1589995757.556598,-0.12448834820045336,-4.59653495539864,8.674488348200454,0.38333333333333336,0.4711111111111111,-0.6577777777777778,-0.0036073676672084814,0.000489602837961709,-0.0007902168102290824
1589995757.566598,-0.11080853215048678,-4.637574403548539,8.660808532150487,0.38333333333333336,0.4711111111111111,-0.6577777777777778,-0.012560786334924046,-0.0010026336066575518,-4.4098587919452065e-05
1589995757.576598,-0.12,-4.64262767846084,8.706861607695801,0.3911111111111111,0.4488888888888889,-0.6711111111111111,-0.0040209776366888165,0.0013774660376551485,-0.0016083910546755267
1589995757.586598,-0.11798623008048614,-4.6338898406438895,8.667986230080485,0.3911111111111111,0.4488888888888889,-0.6711111111111111,0.0024163504387782306,0.0015226568998715762,0.0
1589995757.596598,-0.11683629152206247,-4.573418145761031,8.663418145761032,0.3911111111111111,0.4488888888888889,-0.6711111111111111,0.010134829299864692,-0.00034510705945792685,-0.0011185855845577937
1589995757.606598,-0.13252458543619322,-4.582524585436193,8.695245854361932,0.3911111111111111,0.4488888888888889,-0.6711111111111111,0.005168036941557831,0.0016416098838648182,-0.002170934144752644
1589995757.616598,-0.14,-4.605642512643274,8.74497197977076,0.3911111111111111,0.45340783698583476,-0.6645064946617287,-0.0009567693343283596,0.003272492347489368,0.0004082974102215173
1589995757.626598,-0.13735423197492164,-4.637354231974921,8.684708463949843,0.3911111111111111,0.4633333333333333,-0.65,-0.003433894268912041,0.0021180582654492315,-0.0005136137414763877
1589995757.6365979,-0.13,-4.63,8.626069473734095,0.3911111111111111,0.4633333333333333,-0.65,0.002181661564992912,-0.0004918211532199741,-0.0007061981053329901
1589995757.6465979,-0.11832505413323144,-4.583300216532925,8.654212202267226,0.3911111111111111,0.4633333333333333,-0.65,0.001544892048220366,-0.0012735390335450918,-0.001544892048220366
1589995757.6565979,-0.12480370049147153,-4.579607400982943,8.7,0.3911111111111111,0.4633333333333333,-0.65,-0.002677113395393056,-0.002181661564992912,-1.4275303099452446e-05
1589995757.6665978,-0.12680289879497766,-4.61,8.7,0.39942039705501403,0.4633333333333333,-0.6592868489961269,-0.006065124553840087,-0.0017018014238542642,0.001090830782496456
1589995757.6765978,-0.11,-4.625556786311894,8.668886427376211,0.41,0.4633333333333333,-0.6711111111111111,-0.00432283248676667,-0.001090830782496456,-0.0006061513560769588
1589995757.6865978,-0.11,-4.629256198347107,8.62388429752066,0.41,0.4633333333333333,-0.6711111111111111,0.0008293919999146611,-0.0005048473042958805,-0.002181661564992912
1589995757.6965978,-0.12055724691608596,-4.609442753083914,8.66278623458043,0.41,0.4633333333333333,-0.6711111111111111,0.006090748617158177,0.0,-0.0016058530692687944
1589995757.7065978,-0.13329351081009047,-4.593412978379819,8.726467554050453,0.41,0.4633333333333333,-0.6711111111111111,0.006558016585235737,0.0010777988922394549,-1.3031890257001084e-05
1589995757.7165978,-0.1398694009375539,-4.580261198124893,8.759347004687768,0.41,0.4633333333333333,-0.6711111111111111,0.00440606157323024,0.003229753904244951,0.002138923121748495
1589995757.7265978,-0.1432993281910923,-4.605824832047773,8.728350335904455,0.4177777777777778,0.4566666666666666,-0.65,-0.003272492347489368,0.0019061718301748222,-0.0004554401724381819
1589995757.7365978,-0.12,-4.6129024415370345,8.675487792314824,0.4177777777777778,0.4566666666666666,-0.65,-0.0028033463342240746,0.0004691460132652935,-0.00015253875596586892
1589995757.7465978,-0.12546993489084643,-4.616325162772884,8.617349674454232,0.4177777777777778,0.4566666666666666,-0.65,-0.0015849842292742452,0.0007924921146371226,0.0007924921146371226
1589995757.7565978,-0.1387543543169943,-4.583736937049017,8.69,0.4177777777777778,0.4566666666666666,-0.65,-0.000271757731021293,0.0001358788655106465,0.0001358788655106465
1589995757.7665977,-0.13,-4.615304725650787,8.69795708847618,0.41394658702998766,0.4584349085502621,-0.6538311907477902,-0.002181661564992912,0.0005121749792388289,0.0005121749792388289
1589995757.7765977,-0.13,-4.6285139232426395,8.714055692970557,0.4033333333333333,0.4633333333333333,-0.6644444444444444,-0.002505873219409197,-0.0007666191280801711,-0.0012529366097045985
1589995757.7865977,-0.13,-4.62,8.64435808313543,0.4033333333333333,0.4633333333333333,-0.6644444444444444,-0.0025960822180288554,0.0014442789648878495,-0.002181661564992912
1589995757.7965977,-0.13,-4.62,8.571795763018416,0.4033333333333333,0.4633333333333333,-0.6644444444444444,0.0010017910743801888,0.0021638536233696583,-0.002181661564992912
1589995757.8065977,-0.11871462931522354,-4.608380494246369,8.634858517260895,0.4033333333333333,0.4633333333333333,-0.6644444444444444,0.0056308145853314045,0.0007739579186600609,-0.001724576510169246
1589995757.8165977,-0.13638685686417948,-4.587226286271641,8.72,0.4033333333333333,0.4661435557723048,-0.6620356823538974,0.007150115158324124,0.00039413277541188097,-0.002090094021253725
1589995757.8265977,-0.13,-4.607286582190592,8.727286582190592,0.4033333333333333,0.4711111111111111,-0.6577777777777778,0.0015813732765449836,0.0014882521901308618,-0.00039742140763440574
1589995757.8365977,-0.13,-4.622009211718514,8.71588945937783,0.4033333333333333,0.4711111111111111,-0.6577777777777778,-0.002614979350157051,0.0017433195667713672,-0.0013100017816072285
1589995757.8465977,-0.13520974900328478,-4.619580501993431,8.646048745016424,0.4033333333333333,0.4711111111111111,-0.6577777777777778,0.0005682954581863259,-0.0011365909163726518,-0.00104507064862026
1589995757.8565977,-0.13382913187971143,-4.600743697819567,8.682341736240577,0.4033333333333333,0.4711111111111111,-0.6577777777777778,0.0004176934924627752,-0.0018450929199760715,0.0
1589995757.8665977,-0.12249655507821999,-4.58374483261733,8.705006889843562,0.4033333333333333,0.4711111111111111,-0.6577777777777778,-0.0008184988695444349,-0.0012269967389724665,0.0
1589995757.8765976,-0.12,-4.595498899738688,8.730835167102187,0.3911111111111111,0.4444444444444444,-0.6433333333333333,-0.0016906676929787081,-0.0012907764193238734,0.0008908851456690386
1589995757.8865976,-0.12928985470238247,-4.629289854702383,8.643550726488087,0.3911111111111111,0.4444444444444444,-0.6433333333333333,-0.0038566401562719114,-0.0006616126438511738,0.0
1589995757.8965976,-0.13033013648100333,-4.630330136481003,8.604504795278494,0.3911111111111111,0.4444444444444444,-0.6433333333333333,-0.0016902646291302057,0.001090830782496456,-0.0010548184789061082
1589995757.9065976,-0.12369972733469665,-4.612600545330607,8.656997273346967,0.3911111111111111,0.4444444444444444,-0.6433333333333333,0.001614310585412274,0.0014944084288495245,-0.002181661564992912
1589995757.9165976,-0.12731162790697675,-4.5946232558139535,8.72806511627907,0.3929033591731266,0.44952248062015504,-0.6490087855297157,0.004070067226598404,0.002181661564992912,-0.0018884056616054927
1589995757.9265976,-0.1283107420062909,-4.588310742006291,8.737533886990564,0.3977777777777778,0.4633333333333333,-0.6644444444444444,0.0019126503666121021,0.001275100244408068,-0.001090830782496456
1589995757.9365976,-0.1360260899585717,-4.603973910041428,8.680260899585717,0.3977777777777778,0.4633333333333333,-0.6644444444444444,-0.0021674317000308723,0.0004334863400061745,-0.00022385810248410699
1589995757.9465976,-0.12607479988340545,-4.61,8.639626000582972,0.3977777777777778,0.4633333333333333,-0.6644444444444444,-0.004597808089554279,0.00023448495956845505,0.00023448495956845505
1589995757.9565976,-0.1260869387002234,-4.613043469350112,8.679130408050336,0.3977777777777778,0.4633333333333333,-0.6644444444444444,-0.0026085103369521035,-0.0007588397772278237,-0.001090830782496456
1589995757.9665976,-0.14260416666666667,-4.614791666666667,8.713020833333333,0.3940162037037037,0.45957175925925925,-0.6627083333333333,0.0003295217988791377,0.0,-0.001090830782496456
1589995757.9765975,-0.14357520053475936,-4.6,8.74678760026738,0.38333333333333336,0.4488888888888889,-0.6577777777777778,0.0033120677757781346,0.0,-0.001090830782496456
1589995757.9865975,-0.13052433864526078,-4.601573015935782,8.73318359761161,0.38333333333333336,0.4488888888888889,-0.6577777777777778,0.0008048484151449789,0.0,-0.0012052237294370468
1589995757.9965975,-0.1309023444088379,-4.636065103727441,8.616065103727442,0.38333333333333336,0.4488888888888889,-0.6577777777777778,-0.0037017229454931176,0.0006616001844927063,-0.0022800920707503084
1589995758.0065975,-0.11036972139477834,-4.649630278605222,8.631109164184336,0.38333333333333336,0.4488888888888889,-0.6577777777777778,-0.002040505347562803,0.0021010008693185638,0.0
1589995758.0165975,-0.13768700999231362,-4.619750653343582,8.702811683320522,0.38020158852165004,0.4488888888888889,-0.6577777777777778,0.006013169054147181,-0.0019021539941604612,0.0
1589995758.0265975,-0.14734260249554368,-4.59,8.735780867498514,0.3711111111111111,0.4488888888888889,-0.6577777777777778,0.006715343555864873,-0.0006305948216912964,-0.0009204719216103191
1589995758.0365975,-0.13,-4.593924188770851,8.682909734749783,0.3711111111111111,0.4488888888888889,-0.6577777777777778,0.002457715777182111,0.0004280625907571669,-0.0008974737927214111
1589995758.0465975,-0.12642521028891868,-4.6,8.61357478971108,0.3711111111111111,0.4488888888888889,-0.6577777777777778,-0.0025716106307728226,-7.901641484327616e-05,0.0014807798482763667
1589995758.0565975,-0.12,-4.603034668016273,8.647312012146458,0.3711111111111111,0.4488888888888889,-0.6577777777777778,-0.003272492347489368,-0.002181661564992912,0.0018506306363120922
1589995758.0665975,-0.12380411288828506,-4.611902056444142,8.713804112888285,0.3734358467650631,0.4488888888888889,-0.6577777777777778,-0.0022350814878311564,-0.0013517328772663427,0.001090830782496456
1589995758.0765975,-0.13624767225325884,-4.604990689013036,8.73375232774674,0.38333333333333336,0.4488888888888889,-0.6577777777777778,0.0025909770262089937,0.0013630306425607484,0.00027219986006429256
1589995758.0865974,-0.13372546704140195,-4.591176401124206,8.695294395503176,0.38333333333333336,0.4488888888888889,-0.6577777777777778,0.0016469506963144695,-0.0008127708255874493,-0.00027805995690900667
1589995758.0965974,-0.14,-4.613004357255906,8.635021786279529,0.38333333333333336,0.4488888888888889,-0.6577777777777778,-0.0017462798577681693,-0.0018539370273570554,0.0007631062448605993
1589995758.1065974,-0.14,-4.618873105017803,8.67,0.38333333333333336,0.4488888888888889,-0.6577777777777778,-0.003149567173967211,-0.0007220552619299853,-0.00024585034704431374
1589995758.1165974,-0.14,-4.61117516426238,8.67,0.38333333333333336,0.4488888888888889,-0.6577777777777778,-0.002309852100182223,0.001797089959424979,-0.0019252804946142895
1589995758.1265974,-0.11155062673278926,-4.606898746534422,8.69844937326721,0.3977777777777778,0.4488888888888889,-0.6577777777777778,0.004363323129985824,-0.0016742201533063846,-0.001090830782496456
1589995758.1365974,-0.11973973993517903,-4.590520520129642,8.69026026006482,0.3977777777777778,0.4488888888888889,-0.6577777777777778,0.004363323129985824,0.0010056608754480875,-0.001090830782496456
1589995758.1465974,-0.12786283278596883,-4.596411501642093,8.618548668856125,0.3977777777777778,0.4488888888888889,-0.6577777777777778,0.0007828888943484801,0.00023312877844073866,-0.001482275229670696
1589995758.1565974,-0.12053577667528474,-4.6183926699741455,8.647856893298862,0.3977777777777778,0.4488888888888889,-0.6577777777777778,-0.004012658116019299,0.0010323866135020351,0.0009154982755131933
1589995758.1665974,-0.13,-4.629542567269519,8.671372298191443,0.39681208645787386,0.4488888888888889,-0.6587434690976818,-0.002181661564992912,4.9898170332987416e-05,0.001982068883660962
1589995758.1765974,-0.13,-4.620291795324217,8.699124614027347,0.3772826790177915,0.4488888888888889,-0.678272876537764,-0.002181661564992912,0.0010590008503120092,-0.002054341836255125
1589995758.1865973,-0.13,-4.594215704052951,8.70397066823828,0.37666666666666665,0.4488888888888889,-0.6788888888888889,-0.001406315186201966,0.0,-0.002957007943783858
1589995758.1965973,-0.12719635573918112,-4.594018221304094,8.648410932782458,0.37666666666666665,0.4488888888888889,-0.6788888888888889,-0.0015700012724187565,0.00030583014628707777,-0.00248749171127999
1589995758.2065973,-0.12281513245664188,-4.624369735086717,8.672815132456641,0.37666666666666665,0.4488888888888889,-0.6788888888888889,0.0003070833140509844,0.0013979140965474403,-0.0029654090334383836
1589995758.2165973,-0.13,-4.608709049429658,8.682581901140685,0.37752730038022814,0.4498929615547106,-0.6751594761301225,0.0009500099204153926,0.0020408407029118484,-0.0019000198408307852
1589995758.2265973,-0.1273760151383742,-4.6026239848616255,8.710495939446503,0.38333333333333336,0.4566666666666666,-0.65,0.0008586970379598373,0.0008045984365098436,-0.00028623234598661244
1589995758.2365973,-0.11870656867511224,-4.608706568675112,8.724478824101347,0.38333333333333336,0.4566666666666666,-0.65,0.003272492347489368,-0.00014109147042327405,-0.00123192225291973
1589995758.2465973,-0.11229183693810425,-4.5977081630618954,8.626875510814312,0.38333333333333336,0.4566666666666666,-0.65,0.0027724910913800587,-0.001090830782496456,-0.0016816603088836025
1589995758.2565973,-0.12161115757367048,-4.589462947475443,8.652685262622784,0.38333333333333336,0.4566666666666666,-0.65,0.0008564974122548467,-0.001090830782496456,0.0
1589995758.2665973,-0.14224528951640675,-4.582584903494531,8.687075482527344,0.38333333333333336,0.4566666666666666,-0.65,-0.0021446154268425013,-0.001090830782496456,0.0
1589995758.2765973,-0.1596360088240285,-4.600242660783981,8.719514678432038,0.38333333333333336,0.4566666666666666,-0.65,-0.0021551913797057927,-0.0021419562870622333,0.0
1589995758.2865973,-0.13294565586288817,-4.6180362294247415,8.683927541150517,0.38333333333333336,0.4566666666666666,-0.65,-0.0002142141393253051,0.0007695095735084983,0.0
1589995758.2965972,-0.1386169052488071,-4.618616905248807,8.596915473755965,0.38333333333333336,0.4566666666666666,-0.65,0.002181661564992912,0.0020307893320218617,-0.0012417030154675064
1589995758.3065972,-0.13146915473755966,-4.61146915473756,8.632654226312201,0.38333333333333336,0.4566666666666666,-0.65,0.002181661564992912,0.0012510907036945122,-0.0020214016437948555
1589995758.3165972,-0.12025273503773475,-4.619747264962266,8.698483589773591,0.38333333333333336,0.4566666666666666,-0.65,-0.001008123434803517,0.001090830782496456,-0.0011183998983941021
1589995758.3265972,-0.12,-4.602394840036856,8.708802579981572,0.40093849329647646,0.4566666666666666,-0.6627148377511589,0.0017898067802891474,0.0001306182615679215,-0.001090830782496456
1589995758.3365972,-0.13,-4.615496408956485,8.705230249260667,0.4033333333333333,0.4566666666666666,-0.6644444444444444,0.002918559926299136,0.002289961199081069,0.0
1589995758.3465972,-0.13217829268292683,-4.597821707317073,8.637426341463414,0.4033333333333333,0.4566666666666666,-0.6644444444444444,0.004266079556570591,-0.0006156010401317804,0.00023761487118233775
1589995758.3565972,-0.14,-4.59165001169747,8.696699976605059,0.4033333333333333,0.4566666666666666,-0.6644444444444444,-0.00035997671021590206,0.001090830782496456,0.0009108424273885049
1589995758.3665972,-0.14,-4.598658968617359,8.68268206276528,0.4033333333333333,0.4566666666666666,-0.6644444444444444,-0.0018890939024972045,0.001090830782496456,0.00014628383124785373
1589995758.3765972,-0.1120672746654033,-4.598269098661613,8.701730901338388,0.41,0.4566666666666666,-0.65,-0.0026326709331723065,0.0008653260984067587,-0.0019561568809032146
1589995758.3865972,-0.12207265952491848,-4.623782021425244,8.657564042850488,0.41,0.4566666666666666,-0.65,-0.0036850468865611526,0.00045218416228311404,-0.0004125545390717849
1589995758.3965971,-0.1275668760766035,-4.602433123923396,8.617299371770189,0.41,0.4566666666666666,-0.65,-0.000560005487842567,0.001650836270339023,0.0019162489176659675
1589995758.4065971,-0.11785042735042735,-4.61,8.65504700854701,0.41,0.4566666666666666,-0.65,0.001090830782496456,-0.00023448200153663133,0.0006218667794231933
1589995758.4165971,-0.11038194444444445,-4.61,8.70732638888889,0.41,0.4566666666666666,-0.65,0.001090830782496456,-0.0010491671067761053,-0.0010075034310557545
1589995758.426597,-0.11,-4.6184148430066605,8.701585156993339,0.3819505233111322,0.4501217887725975,-0.6565448778940691,-0.0007450031738115662,0.0025808371301195886,-0.00017291380434244488
1589995758.436597,-0.1244932048638869,-4.627246602431943,8.714493204863887,0.37666666666666665,0.4488888888888889,-0.6577777777777778,0.0004901326177590632,0.00011056554697832979,0.0
1589995758.446597,-0.1486058185966914,-4.609535272865564,8.623253089941052,0.37666666666666665,0.4488888888888889,-0.6577777777777778,0.0002027754654817523,0.0010401369161260178,0.001090830782496456
1589995758.456597,-0.12467940673131774,-4.601559802243773,8.67908138429359,0.37666666666666665,0.4488888888888889,-0.6577777777777778,0.003682731009140155,0.0001701480302114172,0.001090830782496456
1589995758.466597,-0.13941982272361,-4.609709911361805,8.719129734085415,0.37666666666666665,0.4488888888888889,-0.6577777777777778,0.00012657504647823475,-0.0010591870208768973,-0.0020867302801342354
