time,acc_x,acc_y,acc_z,mag_x,mag_y,mag_z,gyr_x,gyr_y,gyr_z
1589995764.6020846,-3.86,-0.9,8.95,0.2977777777777777,-0.3411111111111111,-0.5911111111111111,-0.002181661564992912,0.01090830782496456,-0.1712604328519436
1589995764.6120846,-3.933318766189394,-0.919996027142562,8.943334657619145,0.2977777777777777,-0.3411111111111111,-0.5911111111111111,-0.002181661564992912,0.01090830782496456,-0.1712604328519436
1589995764.6220846,-4.008479474186678,-0.9376958948373356,8.88612873613865,0.2977777777777777,-0.3411111111111111,-0.5911111111111111,-0.003021153463735044,0.010068815926222429,-0.15698907057332737
1589995764.6320846,-4.046955355287271,-0.9265223223563642,8.843044644712728,0.2977777777777777,-0.3411111111111111,-0.5911111111111111,0.0004029740650711936,0.00834729047744388,-0.11155108572882555
1589995764.6420846,-4.066110615963557,-0.9138893840364429,8.842221231927114,0.2977777777777777,-0.3411111111111111,-0.5911111111111111,0.0008485319663804377,0.004302991480944007,-0.07029971215190271
1589995764.6520846,-4.057352104527265,-0.8973521045272649,8.856323947736367,0.30691236895253093,-0.3411111111111111,-0.5960297371282859,-0.0006898356857728541,-0.0019573525496442124,-0.0387874728597215
1589995764.6620846,-4.109933690488225,-0.929933690488224,8.85966845244112,0.31222222222222223,-0.3411111111111111,-0.5988888888888889,-0.0022033613019781847,-0.004385022866971096,-0.005331188736232401
1589995764.6720846,-4.101454361669868,-0.9214543616698676,8.817271808349338,0.31222222222222223,-0.3411111111111111,-0.5988888888888889,-0.004978215168969928,-0.007159876733962839,0.010392983176720806
1589995764.6820846,-4.083049268292683,-0.92,8.877802926829268,0.31222222222222223,-0.3411111111111111,-0.5988888888888889,-0.004529634915873272,-0.006711296480866183,0.01956160236622053
1589995764.6920846,-4.060156412157153,-0.9266145292809489,8.916458117123796,0.31222222222222223,-0.3411111111111111,-0.5988888888888889,-0.005806389560262455,-0.007266517910117051,0.02072578486743266
1589995764.7020845,-3.9600400704687555,-0.9218218245880687,8.946356350823862,0.31222222222222223,-0.3365676803267048,-0.6061583781439389,-0.005652884146579703,-0.0067437149290761585,0.01715738267383653
1589995764.7120845,-3.9226472328041075,-0.92,8.941323616402054,0.31222222222222223,-0.33555555555555555,-0.6077777777777778,-0.004507707281543574,-0.0008663049093464974,0.014469568475569424
1589995764.7220845,-3.89396762873308,-0.92,8.853225429110267,0.31222222222222223,-0.33555555555555555,-0.6077777777777778,-0.006256450591274642,-0.0009465637306444096,0.012287672711165107
1589995764.7320845,-3.9236106289470767,-0.9334442515788307,8.866888503157663,0.31222222222222223,-0.33555555555555555,-0.6077777777777778,-0.00507844434799722,-0.001090830782496456,0.013465678954442529
1589995764.7420845,-3.9606935486630284,-0.9358612902673943,8.884138709732607,0.31222222222222223,-0.33555555555555555,-0.6077777777777778,-0.004363323129985824,-0.0024452203753396427,0.014632263370068321
1589995764.7520845,-3.999253192001927,-0.9330843973339757,8.880746807998072,0.31462119792642557,-0.3372691096299865,-0.6026371155544848,-0.0026810453513104494,-0.005036234241455974,0.016617453177890686
1589995764.7620845,-4.029425379394493,-0.94,8.888276138183482,0.32,-0.3411111111111111,-0.5911111111111111,0.0021189801805186438,-0.00705905939398983,0.020663103482958398
1589995764.7720845,-4.0286064785118665,-0.94,8.8516388710712,0.32,-0.3411111111111111,-0.5911111111111111,0.00265107214947483,-0.007635815477475192,0.02119519545191458
1589995764.7820845,-3.962269700332963,-0.9242553728180809,8.847233881545758,0.32,-0.3411111111111111,-0.5911111111111111,0.0027541523646251705,-0.006490833878210674,0.01786333086927137
1589995764.7920845,-3.9059415218551687,-0.9140584781448313,8.894058478144832,0.32,-0.3411111111111111,-0.5911111111111111,0.0028297810584422623,-0.00545415391248228,0.010844518064479327
1589995764.8020844,-3.9,-0.9148619743415344,8.93596617960926,0.30629859824409156,-0.3411111111111111,-0.5911111111111111,0.0027421332199440073,-0.003772738947628993,0.0038028514750347285
1589995764.8120844,-3.9,-0.917893796747665,8.914743422766346,0.2933333333333333,-0.3411111111111111,-0.5911111111111111,0.0006892534025523694,0.002123736676568753,0.004994651644114034
1589995764.8220844,-3.8918931539905266,-0.8956794619715792,8.818931539905265,0.2933333333333333,-0.3411111111111111,-0.5911111111111111,-0.0008843197176092348,0.0015038529122708981,0.00368551447726381
1589995764.8320844,-3.897995126961756,-0.8979951269617562,8.855965888732293,0.2933333333333333,-0.3411111111111111,-0.5911111111111111,-0.001090830782496456,0.002835096902466663,0.005016758467459574
1589995764.8420844,-3.9,-0.9061872971377988,8.882374594275598,0.2933333333333333,-0.3411111111111111,-0.5911111111111111,-0.001090830782496456,0.0012477040939804364,0.0041042950768096585
1589995764.8520844,-3.9,-0.91,8.873845511165122,0.2933333333333333,-0.33662375310142284,-0.5911111111111111,-0.00020974009766745998,-0.002643272054486988,0.00062922029300238
1589995764.8620844,-3.8912319908706197,-0.9187680091293805,8.88753601825876,0.2933333333333333,-0.33555555555555555,-0.5911111111111111,0.0,-0.003272492347489368,0.00286932427786144
1589995764.8720844,-3.8981694741988533,-0.92,8.832813680608027,0.2933333333333333,-0.33555555555555555,-0.5911111111111111,-0.0017823027865839468,-0.0014901895609054211,0.000599038167613448
1589995764.8820844,-3.9,-0.92,8.863292745581585,0.2933333333333333,-0.33555555555555555,-0.5911111111111111,-0.002181661564992912,-0.002979833164063737,0.0
1589995764.8920844,-3.895238089062946,-0.9152380890629458,8.90333337655938,0.2933333333333333,-0.33555555555555555,-0.5911111111111111,-0.002701105468357442,-0.003791936250853898,0.0015583317100935899
1589995764.9020844,-3.8906289818609747,-0.9112579637219494,8.942515927443898,0.2936128808270998,-0.33632431116341355,-0.5916003192252026,-0.003341103625047681,-0.004088878019752572,0.0032038810699310553
1589995764.9120843,-3.9035384442108425,-0.9264615557891576,8.958769334734946,0.2977777777777777,-0.3477777777777778,-0.5988888888888889,-0.003591354356519155,-0.0007719687734666689,0.0017956771782595775
1589995764.9220843,-3.904284737262054,-0.92,8.885708423572325,0.2977777777777777,-0.3477777777777778,-0.5988888888888889,-0.0009347846600716238,-0.00186994233876259,0.0007791115562661339
1589995764.9320843,-3.89,-0.9268685639671188,8.834342819835594,0.2977777777777777,-0.3477777777777778,-0.5988888888888889,0.001432417464305003,0.00040765741887936226,0.0014984882013758182
1589995764.9420843,-3.901874787213921,-0.9240626063930396,8.867812180820883,0.2977777777777777,-0.3477777777777778,-0.5988888888888889,0.001090830782496456,-0.00020450756035757288,0.00023865405071186877
1589995764.9520843,-3.9014338935515602,-0.9071508403273405,8.87571694677578,0.2977777777777777,-0.3425429349481758,-0.5927022564539047,0.002492456672511367,0.00031079510751845507,0.00031079510751845507
1589995764.9620843,-3.9007145211499727,-0.8953572605749863,8.880714521149972,0.2977777777777777,-0.33555555555555555,-0.5844444444444444,-0.00031176866605392255,0.00042850214147800714,0.0010128886159829753
1589995764.9720843,-3.9044778006302243,-0.9110443987395513,8.834778006302244,0.2977777777777777,-0.33555555555555555,-0.5844444444444444,-0.00014667358824215979,-0.0028979663003865976,0.0
1589995764.9820843,-3.8931228759157164,-0.9268771240842837,8.86564836492712,0.2977777777777777,-0.33555555555555555,-0.5844444444444444,0.0017721366182524934,-0.004363323129985824,-0.0007501778646184373
1589995764.9920843,-3.895683974207488,-0.935683974207488,8.922735896829952,0.2977777777777777,-0.33555555555555555,-0.5844444444444444,0.0017108561857408291,-0.003123272323497077,-0.001090830782496456
1589995765.0020843,-3.894471231766613,-0.9344712317666126,8.956586304700162,0.30576377633711505,-0.3287981721591932,-0.5961162884927066,0.00278475662281966,-0.00278475662281966,0.0007184543909837884
1589995765.0120842,-3.883843893440865,-0.93,8.963843893440865,0.31222222222222223,-0.3233333333333333,-0.6055555555555555,0.003944019400992666,-0.0012579111869794723,0.0015101345114896135
1589995765.0220842,-3.894664550393749,-0.9226677248031256,8.872012697637507,0.31222222222222223,-0.3233333333333333,-0.6055555555555555,0.004363323129985824,0.0007998271490485887,-0.0005088235156007215
1589995765.0320842,-3.8929526255465468,-0.9059052510930934,8.84,0.31222222222222223,-0.3233333333333333,-0.6055555555555555,0.005900821727907029,0.0033970786793782633,-0.0003220814835358535
1589995765.0420842,-3.895136794268018,-0.9051367942680179,8.86568397134009,0.31222222222222223,-0.3233333333333333,-0.6055555555555555,0.0054243100327977,0.004363323129985824,-0.0011206746621810358
1589995765.0520842,-3.8948403952436776,-0.9151596047563223,8.89,0.3087824857180074,-0.3296395169243938,-0.5981027931297568,0.0054889742687281055,0.004926148699356965,-0.0010560104262506303
1589995765.0620842,-3.89,-0.9152148712860948,8.87085948514438,0.3055555555555556,-0.33555555555555555,-0.5911111111111111,0.003935101845310957,0.003888224202681613,0.001043953139867111
1589995765.0720842,-3.904335965541996,-0.9147786551806653,8.821328068916008,0.3055555555555556,-0.33555555555555555,-0.5911111111111111,0.0021333716164976153,0.0016603911479923321,0.0027029319819934917
1589995765.0820842,-3.9063566074764147,-0.9404650887853782,8.830930177570757,0.3055555555555556,-0.33555555555555555,-0.5911111111111111,0.003272492347489368,-0.00039743247174444675,0.0002959658390075627
1589995765.0920842,-3.8945023340148914,-0.9390046680297828,8.88848366189576,0.3055555555555556,-0.33555555555555555,-0.5911111111111111,0.003872194676333384,-0.0016905331113404721,-0.001090830782496456
1589995765.1020842,-3.89,-0.9235085147962033,8.932982970407593,0.30988321235808675,-0.3434895930268627,-0.5961600440473975,0.005071434318428002,-0.002181661564992912,-0.00038271959405427724
1589995765.1120842,-3.882812288689537,-0.9056245773790741,8.954375422620926,0.31222222222222223,-0.3477777777777778,-0.5988888888888889,0.003886038561852091,-0.0029657192403080065,0.001568115350630189
1589995765.1220841,-3.8862018016501096,-0.9062018016501094,8.891780181848796,0.31222222222222223,-0.3477777777777778,-0.5988888888888889,0.0005664458887386886,-0.003272492347489368,0.00015212672092990197
1589995765.1320841,-3.8968675460528206,-0.91,8.836264907894359,0.31222222222222223,-0.3477777777777778,-0.5988888888888889,-0.001090830782496456,-0.0025233592840264887,0.0019057014713550608
1589995765.1420841,-3.9056047447957103,-0.9212094895914205,8.84120948959142,0.31222222222222223,-0.3477777777777778,-0.5988888888888889,-0.00047944796737670796,-0.002181661564992912,0.003272492347489368
1589995765.152084,-3.904585922598905,-0.9191718451978097,8.866242232203286,0.304401888198418,-0.3477777777777778,-0.5946779397991482,-0.0017717526863799112,0.00018067535018030266,0.002091323889902761
1589995765.162084,-3.894945313814572,-0.9150546861854283,8.859781255258287,0.2977777777777777,-0.3477777777777778,-0.5911111111111111,-0.003823873076181839,0.0016302808363004412,-1.1930674888485648e-05
1589995765.172084,-3.89,-0.9147406300923412,8.824221890277023,0.2977777777777777,-0.3477777777777778,-0.5911111111111111,-0.004937031389166809,0.002811955560039411,-0.001090830782496456
1589995765.182084,-3.8962862856115756,-0.9162862856115754,8.847717713669452,0.2977777777777777,-0.3477777777777778,-0.5911111111111111,-0.002711244371413857,0.003677595744718718,-0.0004051033972293503
1589995765.192084,-3.9,-0.92,8.900491311563918,0.2977777777777777,-0.3477777777777778,-0.5911111111111111,-0.0005364830949529151,0.002718144659945827,-0.0016630430626306226
1589995765.202084,-3.9,-0.9159315196998125,8.942205440900564,0.2977777777777777,-0.3400928705440901,-0.5911111111111111,-0.00044380235494250744,0.003069266274877927,-0.0019410852826618457
1589995765.212084,-3.88379885187948,-0.90459961729316,8.94919923458632,0.2977777777777777,-0.3288888888888889,-0.5911111111111111,-0.001090830782496456,0.0049524134993740926,0.0
1589995765.222084,-3.8758169893554606,-0.9116339787109211,8.864379138379013,0.2977777777777777,-0.3288888888888889,-0.5911111111111111,-0.0017253658875355164,0.003550548597365099,0.0006345351050390603
1589995765.232084,-3.88,-0.9142182239057239,8.844690656565657,0.2977777777777777,-0.3288888888888889,-0.5911111111111111,-0.002181661564992912,0.00470443730144831,0.00046013684838260656
1589995765.242084,-3.8849601761439785,-0.9149601761439786,8.87496017614398,0.2977777777777777,-0.3288888888888889,-0.5911111111111111,-0.00272273284743855,0.006003913412533098,0.0
1589995765.252084,-3.895137988881945,-0.9148620111180553,8.885137988881946,0.2977777777777777,-0.33231421481018536,-0.59225288641821,-0.002712024704234388,0.0060146215557372595,0.0011209352865099596
1589995765.262084,-3.9,-0.9152358463288163,8.900471692657632,0.2977777777777777,-0.33555555555555555,-0.5933333333333334,-0.0016105193302035307,0.004831557990610591,0.002181661564992912
1589995765.272084,-3.8938666381857665,-0.9261333618142333,8.88239987183595,0.2977777777777777,-0.33555555555555555,-0.5933333333333334,-0.001090830782496456,0.003272492347489368,0.0025161845583506134
1589995765.282084,-3.88,-0.9367481529769665,8.827587643053745,0.2977777777777777,-0.33555555555555555,-0.5933333333333334,-0.0012090712769196013,0.002917770864219932,0.0038636948196050956
1589995765.292084,-3.8513093305952104,-0.9071309330595211,8.910083468583354,0.2977777777777777,-0.33555555555555555,-0.5933333333333334,-0.0015557282578494386,0.0,0.015611912638549856
1589995765.302084,-3.781846576794409,-0.9001846576794409,8.958707396243915,0.2977777777777777,-0.33555555555555555,-0.5933333333333334,-4.028605619169805e-05,0.0,0.03228177685678501
1589995765.312084,-3.7448336267414315,-0.9127495598878529,8.962749559887854,0.3055555555555556,-0.3288888888888889,-0.5911111111111111,-0.0024815920213916575,-0.004890590014050965,0.07907663756527931
1589995765.322084,-3.7572208866995074,-0.8927791133004926,8.909429753694582,0.3055555555555556,-0.3288888888888889,-0.5911111111111111,-0.0009094627008667989,-0.006848138928601002,0.10987337709123829
1589995765.332084,-3.7591286788150495,-0.9,8.83,0.3055555555555556,-0.3288888888888889,-0.5911111111111111,-0.003770384540238335,-0.00813370767022416,0.12475755500034644
1589995765.342084,-3.7598548312076185,-0.8966182770692062,8.850290337584763,0.3055555555555556,-0.3288888888888889,-0.5911111111111111,-0.003994434382907412,-0.008726646259971648,0.12063415081633432
1589995765.352084,-3.73111005098542,-0.88111005098542,8.90333492352187,0.3119760742883078,-0.3288888888888889,-0.5945683135056701,-0.004242235351482162,-0.007272031753982456,0.09987051971171405
1589995765.362084,-3.725861704802615,-0.87,8.902414885592155,0.32,-0.3288888888888889,-0.5988888888888889,-0.006093566716142259,-0.0048147411088223,0.07556903730901335
1589995765.372084,-3.7449641822594533,-0.8749880607531512,8.855083574727942,0.32,-0.3288888888888889,-0.5988888888888889,-0.006000871673528759,-0.004363323129985824,0.05511430428183431
1589995765.382084,-3.817000959553371,-0.884750079962781,8.853250559739466,0.32,-0.3288888888888889,-0.5988888888888889,-0.00545415391248228,-0.004363323129985824,0.03482462444723238
1589995765.392084,-3.875351443916868,-0.89,8.922539892581927,0.32,-0.3288888888888889,-0.5988888888888889,-0.005961232719446461,-0.004363323129985824,0.01951124112081249
1589995765.4020839,-3.8653828202423197,-0.853062561938557,8.95076564048464,0.30973960053848804,-0.3345321085927205,-0.5922196292389061,-0.005034016152579549,-0.004363323129985824,0.012082657028358014
1589995765.4120839,-3.8833567474531328,-0.7516081313671675,8.928321626273434,0.2977777777777777,-0.3411111111111111,-0.5844444444444444,-0.007731187690142173,-0.0037263666524639948,0.017914829077704683
1589995765.4220839,-3.7463693996309786,-0.692929933292331,8.885859866584662,0.2977777777777777,-0.3411111111111111,-0.5844444444444444,-0.015253103810562994,-0.004513862629088921,0.041528000656418866
1589995765.4320838,-3.4523455132343446,-0.6677479664299548,8.88450406714009,0.2977777777777777,-0.3411111111111111,-0.5844444444444444,-0.016539388997481964,-0.0027811748392052313,0.08035742633513195
1589995765.4420838,-3.3008358773077484,-0.6639164122692253,8.880417938653874,0.2977777777777777,-0.3411111111111111,-0.5844444444444444,-0.010145059282689238,-0.0057901881487358395,0.10111968053194927
1589995765.4520838,-3.2387412400124984,-0.6708811319912512,8.85046154532875,0.29781041229597216,-0.34108780074097217,-0.5844724168886112,-0.002172507604045301,-0.013039622604745608,0.10904188542538135
1589995765.4620838,-2.789459156590976,-0.8626299026835742,8.942629902683574,0.3055555555555556,-0.33555555555555555,-0.5911111111111111,0.003789567369543276,-0.0023540199056775483,0.09231806102968147
1589995765.4720838,-2.5397035476761647,-0.823019913014647,8.876039826029293,0.3055555555555556,-0.33555555555555555,-0.5911111111111111,0.009488055634784233,0.004968106283966023,0.07667140721641669
1589995765.4820838,-2.22571431660432,-0.9387754881397712,8.806209916318895,0.3055555555555556,-0.33555555555555555,-0.5911111111111111,0.01978442528671535,0.01805436158021439,0.05422351478939781
1589995765.4920838,-1.9576036390459797,-1.1016936316695352,8.697540447504302,0.3055555555555556,-0.33555555555555555,-0.5911111111111111,0.04104374868623345,0.03103463195994589,0.014996442269717691
1589995765.5020838,-2.041702568351284,-1.0036594863297432,8.648767191383596,0.30308980023934456,-0.33555555555555555,-0.5889976065543588,0.043688721780426,0.030916828524602435,-0.04735403069760226
1589995765.5120838,-2.1210242963084363,-0.9936747654361454,8.920844839595198,0.2977777777777777,-0.33555555555555555,-0.5844444444444444,0.003292068038181933,0.010060519521888587,-0.13598642371803052
1589995765.5220838,-2.1909675896790435,-0.9860997482693518,8.930264317180617,0.2977777777777777,-0.33555555555555555,-0.5844444444444444,0.0028182083510658127,0.013221088760289015,-0.22215191076183013
1589995765.5320837,-2.25,-0.9663008290564548,8.78,0.2977777777777777,-0.33555555555555555,-0.5844444444444444,0.01906736033391752,0.02969187128337274,-0.288267429932199
1589995765.5420837,-2.258449717304662,-0.9557751413476688,8.81802372787098,0.2977777777777777,-0.33555555555555555,-0.5844444444444444,0.015825428019372118,0.031972311909526444,-0.37117039522688317
1589995765.5520837,-2.3033364231862565,-0.9600009269558769,8.90000278086763,0.30037061069226434,-0.3396300072783202,-0.5944453714003214,0.009817679272869011,0.03127065095689916,-0.4439705552408684
1589995765.5620837,-2.3541769169018827,-0.9747256389672941,8.928353833803765,0.3055555555555556,-0.3477777777777778,-0.6144444444444445,0.018783548470434158,0.04008467687511434,-0.5354513665687194
1589995765.5720837,-2.3589597503400817,-0.9842198127550612,8.91895975034008,0.3055555555555556,-0.3477777777777778,-0.6144444444444445,0.022907446432425576,0.04730929699478077,-0.6072148350020968
1589995765.5820837,-2.372569854948603,-1.0037150725256985,8.899134202217315,0.3055555555555556,-0.3477777777777778,-0.6144444444444445,0.027770464996712173,0.05342022837102804,-0.6710528229832562
1589995765.5920837,-2.3703409318804733,-1.0125852329701184,8.824829534059763,0.3055555555555556,-0.3477777777777778,-0.6144444444444445,0.03543340548163708,0.059750877765927565,-0.7281791703090637
1589995765.6020837,-2.398379570826927,-1.0195948927067318,8.810810214586537,0.3055555555555556,-0.3477777777777778,-0.6144444444444445,0.033904134958532305,0.06204478355058474,-0.7771158270484166
1589995765.6120837,-2.410952988047809,-1.0238094023904383,8.878571792828685,0.31222222222222223,-0.33555555555555555,-0.5844444444444444,0.022491905093385015,0.060567027610970874,-0.87250799834218
1589995765.6220837,-2.3711517985187514,-1.0388482014812488,8.837879496296878,0.31222222222222223,-0.33555555555555555,-0.5844444444444444,0.01892104848628609,0.0651985634938898,-0.94149844205869
1589995765.6320837,-2.37926191084974,-1.0808190573595842,8.836966675189636,0.31222222222222223,-0.33555555555555555,-0.5844444444444444,0.020314387423254122,0.06847196792616424,-0.9975554069900394
1589995765.6420836,-2.4168653738862873,-1.1265673130568563,8.866269252227426,0.31222222222222223,-0.33555555555555555,-0.5844444444444444,0.032480528987588006,0.07468099483930427,-1.0465944213058005
1589995765.6520836,-2.4313785124702427,-1.1220677687053642,8.843446281175607,0.31360073469246497,-0.335096051398808,-0.5858995409408118,0.04036073895236887,0.0841443426358867,-1.0822902087131656
1589995765.6620836,-2.4502623621900734,-1.1503498162534307,8.89,0.3322222222222222,-0.3288888888888889,-0.6055555555555555,0.04032257991862289,0.0861517824211288,-1.1292149646902165
1589995765.6720836,-2.5366961268520924,-1.2433480634260463,8.879988952430466,0.3322222222222222,-0.3288888888888889,-0.6055555555555555,0.033818164463174184,0.08436159752269934,-1.1901120500412297
1589995765.6820836,-2.590386387217265,-1.270386387217265,8.858454451130939,0.3322222222222222,-0.3288888888888889,-0.6055555555555555,0.03834767061559828,0.09175623065086905,-1.2200174714095977
1589995765.6920836,-2.603414549884539,-1.28,8.82341454988454,0.3322222222222222,-0.3288888888888889,-0.6055555555555555,0.042914870129604286,0.09564721730167668,-1.2711102202049127
1589995765.7020836,-2.616280855732309,-1.2967489486194916,8.836280855732308,0.33896832652729525,-0.3260973974523069,-0.6029966884053554,0.04226296114521376,0.09662718292396975,-1.301439111237408
1589995765.7120836,-2.6541626983205187,-1.364720899440173,8.855279100559827,0.3644444444444445,-0.31555555555555553,-0.5933333333333334,0.03914812757704382,0.0964471888063149,-1.3413843685638818
1589995765.7220836,-2.674230024213075,-1.3742300242130752,8.80769975786925,0.3644444444444445,-0.31555555555555553,-0.5933333333333334,0.04283584192156361,0.10002046667361209,-1.3700813498261395
1589995765.7320836,-2.68,-1.3985324819152194,8.801890949362615,0.3644444444444445,-0.31555555555555553,-0.5933333333333334,0.04270248190743666,0.10132514544971603,-1.3953408773226348
1589995765.7420835,-2.682444519327974,-1.4446671159678428,8.892444519327974,0.3644444444444445,-0.31555555555555553,-0.5933333333333334,0.03926990816987242,0.09926560120717748,-1.4155106599375042
1589995765.7520835,-2.689174890482838,-1.4850493428970297,8.899174890482838,0.3644444444444445,-0.31555555555555553,-0.5933333333333334,0.03926990816987242,0.09926560120717748,-1.4294598824008737
1589995765.7620835,-2.6746855151045703,-1.5253144848954299,8.881771494965143,0.3977777777777778,-0.2766666666666667,-0.62,0.04440619179546455,0.10164050289607197,-1.4557605739808148
1589995765.7720835,-2.671351641322962,-1.592703282645924,8.851567045618669,0.3977777777777778,-0.2766666666666667,-0.62,0.047530733877605855,0.10253809355466686,-1.480233874884047
1589995765.7820835,-2.685745392371326,-1.65,8.803563651907169,0.3977777777777778,-0.2766666666666667,-0.62,0.04768319188703594,0.10409303003404352,-1.4948150299053249
1589995765.7920835,-2.665787787043431,-1.661575574086861,8.815787787043432,0.3977777777777778,-0.2766666666666667,-0.62,0.050350084466242145,0.10784844112507891,-1.5091345776068141
1589995765.8020835,-2.6790886165330106,-1.6913670752004841,8.829544308266506,0.3986891612447672,-0.276008445273841,-0.6197468379258363,0.05330158357125876,0.11022361728916456,-1.518933531805292
1589995765.8120835,-2.6554445021131463,-1.726073997182472,8.816963001408764,0.4177777777777778,-0.26222222222222225,-0.6144444444444445,0.049846930839865106,0.11209295270206815,-1.5314981105673482
1589995765.8220835,-2.63,-1.7775555180404856,8.78537040163293,0.4177777777777778,-0.26222222222222225,-0.6144444444444445,0.04831572275453128,0.11416554712962299,-1.5473555771287317
1589995765.8320835,-2.63,-1.8161776577295539,8.753185285225372,0.4177777777777778,-0.26222222222222225,-0.6144444444444445,0.04901789306884318,0.10854818461512783,-1.5557816209004747
1589995765.8420835,-2.633403604950577,-1.8453162222775978,8.8,0.4177777777777778,-0.26222222222222225,-0.6144444444444445,0.04528097564008674,0.10910607458261327,-1.5691945751206033
1589995765.8520834,-2.647339313896503,-1.9080269125342637,8.8,0.4177777777777778,-0.26222222222222225,-0.6144444444444445,0.0475612006842058,0.11366652467085137,-1.5760352502529604
1589995765.8620834,-2.595315668271675,-1.9562457756377665,8.837807219547209,0.4511111111111111,-0.2433333333333333,-0.6344444444444445,0.05058773834470921,0.11385592372950365,-1.5871913793733794
1589995765.8720834,-2.6050764263148114,-2.0091325961717152,8.83854604162795,0.4511111111111111,-0.2433333333333333,-0.6344444444444445,0.05003628737532474,0.10878254737526331,-1.60367985252466
1589995765.8820834,-2.643667896015112,-2.0613537824952775,8.784061347485833,0.4511111111111111,-0.2433333333333333,-0.6344444444444445,0.05820940734304988,0.10506748257553913,-1.615072635074365
1589995765.8920834,-2.5229360438967348,-2.0990824862822706,8.897247458846811,0.4511111111111111,-0.2433333333333333,-0.6344444444444445,0.06314808311999498,0.1025981446870666,-1.6208344234808008
1589995765.9020834,-2.52,-2.116120620038999,8.803276279766008,0.4511111111111111,-0.2433333333333333,-0.6344444444444445,0.05271726424191308,0.13594934384045781,-1.6324047073611885
1589995765.9120834,-2.5259792917900916,-2.1639171671603665,8.775944778106911,0.4755555555555556,-0.20444444444444448,-0.6433333333333333,0.0630658316352681,0.12173822127012572,-1.654340411242434
1589995765.9220834,-2.542647145466329,-2.269803806044895,8.805686678842868,0.4755555555555556,-0.20444444444444448,-0.6433333333333333,0.04418934741138488,0.11785252739073093,-1.6735375733633782
1589995765.9320834,-2.51776044995526,-2.3011197750223698,8.70783842515659,0.4755555555555556,-0.20444444444444448,-0.6433333333333333,0.04437462811316945,0.11199763085296156,-1.6855863617447873
1589995765.9420834,-2.5,-2.337508939676617,8.775501787935323,0.4755555555555556,-0.20444444444444448,-0.6433333333333333,0.057104406363223115,0.11901002843734093,-1.7004429305290218
1589995765.9520833,-2.4941709047529352,-2.415829095247065,8.796800611121574,0.47954956526187775,-0.19872329540565872,-0.6467876119982605,0.05235987755982988,0.1225969514082432,-1.71310313686934
1589995765.9620833,-2.4415018522006653,-2.468498147799335,8.858247839099223,0.5156376197884329,-0.147029595678431,-0.6779989023996056,0.05235987755982988,0.12642715299550583,-1.727466392821575
1589995765.9720833,-2.4028642596348884,-2.4995143204868153,8.783349939148074,0.5166666666666667,-0.14555555555555555,-0.6788888888888889,0.05781403147231216,0.12954940027553938,-1.7475584587354975
1589995765.9820833,-2.382445760649087,-2.526738985801217,8.73570677484787,0.5166666666666667,-0.14555555555555555,-0.6788888888888889,0.05781403147231216,0.12880696270133654,-1.7601798974969454
1589995765.9920833,-2.3366111657055977,-2.644462944764801,8.793305582852799,0.5166666666666667,-0.14555555555555555,-0.6788888888888889,0.05817461462530471,0.1306562780230734,-1.784013323781746
1589995766.0020833,-2.289969008264463,-2.660077479338843,8.770015495867769,0.5166976584022039,-0.14549529384756657,-0.6788992194674013,0.0556340602442756,0.1298071727801219,-1.8009954286407759
1589995766.0120833,-2.2560233160621763,-2.7239766839378237,8.78,0.5366666666666666,-0.10666666666666667,-0.6855555555555556,0.05733304857287978,0.1317672717499022,-1.8288767163822184
1589995766.0220833,-2.206726033761809,-2.7710616385318256,8.757876722936347,0.5366666666666666,-0.10666666666666667,-0.6855555555555556,0.05842220722219404,0.1384197025780099,-1.850628041109189
1589995766.0320833,-2.155906103286385,-2.822281690140845,8.682046948356808,0.5366666666666666,-0.10666666666666667,-0.6855555555555556,0.05694648811759432,0.13461876110262133,-1.877224521030605
1589995766.0420833,-2.1413197704747002,-2.8660406885758998,8.689340114762649,0.5366666666666666,-0.10666666666666667,-0.6855555555555556,0.057742049159330525,0.1362098831860937,-1.8963179860322734
1589995766.0520833,-2.0967259124627513,-2.857639537586914,8.781091362512415,0.5382430791846012,-0.0989058665783733,-0.6864043930652127,0.053331659159985695,0.14119336767140533,-1.9236911391700935
1589995766.0620832,-2.0701331445357902,-2.9196893294164887,8.789955618488069,0.5510470044827676,-0.035871157418170124,-0.6932988143796099,0.0523647188317686,0.14506112898427376,-1.9459307667190866
1589995766.0720832,-2.0378185444148107,-2.984362911170379,8.709092722074054,0.5511111111111111,-0.03555555555555556,-0.6933333333333334,0.055870329797616594,0.15210139854760207,-1.972379969539256
1589995766.0820832,-2.022779697458343,-3.0024067675138855,8.672406767513886,0.5511111111111111,-0.03555555555555556,-0.6933333333333334,0.0567232006898157,0.1540696779410462,-1.9925225806267275
1589995766.0920832,-1.9977681428155905,-3.025623000290867,8.695623000290867,0.5511111111111111,-0.03555555555555556,-0.6933333333333334,0.0567232006898157,0.15514142896638572,-2.0073815567473754
1589995766.1020832,-1.9901432518906341,-3.0789972367655616,8.748997236765561,0.5511111111111111,-0.03555555555555556,-0.6933333333333334,0.0567232006898157,0.15597317553979773,-2.0156990224814963
1589995766.1120832,-1.9867278564372737,-3.1366819641093184,8.756681964109319,0.5633333333333334,0.01,-0.7288888888888889,0.055999317552419,0.1574465803245894,-2.024943873882121
1589995766.1220832,-1.9575317197717739,-3.1398731209129043,8.703102675663706,0.5633333333333334,0.01,-0.7288888888888889,0.05427229151954516,0.157604287528659,-2.0256727630959186
1589995766.1320832,-1.9241747572815533,-3.159669902912621,8.596155339805826,0.5633333333333334,0.01,-0.7288888888888889,0.051197030764508406,0.1616886575002902,-2.0253910533986916
1589995766.1420832,-1.8456305643975506,-3.136554153403674,8.70145647853415,0.5633333333333334,0.01,-0.7288888888888889,0.04440630775853549,0.15981736431116614,-2.0237875465038746
1589995766.1520832,-1.804967764869363,-3.197548352695956,8.715010745043546,0.5633333333333334,0.01,-0.7288888888888889,0.04144922553001354,0.16499225821107957,-2.0163948409325694
1589995766.1620831,-1.775221183800623,-3.203909940526763,8.756958935145851,0.5722222222222222,-0.01,-0.7566666666666667,0.04149895955135781,0.1636720071909609,-1.999588468952158
1589995766.1720831,-1.6881121495327103,-3.275180968564146,8.701525913338997,0.5722222222222222,-0.01,-0.7566666666666667,0.042362788787839424,0.1645358364274425,-1.9814480549860443
1589995766.1820831,-1.5942242050846258,-3.2,8.521659230932654,0.5722222222222222,-0.01,-0.7566666666666667,0.04128231753994643,0.1645696796075299,-1.9523826230055112
1589995766.1920831,-1.5645216344451527,-3.2,8.633043870830678,0.5722222222222222,-0.01,-0.7566666666666667,0.034802221865383884,0.16942975136345184,-1.9288922761852223
1589995766.202083,-1.5888259687971817,-3.2615653749370908,8.832173125314544,0.572830979142202,-0.009260795168595874,-0.7566666666666667,0.013858371015344808,0.1619979125389219,-1.8942844077488776
1589995766.212083,-1.5634955208857575,-3.2953393054856566,8.663303472571716,0.5859652854666443,0.006688005368226805,-0.7566666666666667,0.0304371104050676,0.17397144654261057,-1.8602058878922252
1589995766.222083,-1.54,-3.319411039302108,8.722355842791568,0.5877777777777777,0.008888888888888889,-0.7566666666666667,0.013629094736386673,0.15441051132432362,-1.810612867383414
1589995766.232083,-1.54,-3.3708730602035115,8.577086237462662,0.5877777777777777,0.008888888888888889,-0.7566666666666667,0.0068838609455480985,0.14086557500361954,-1.770355257800624
1589995766.242083,-1.5342868538608807,-3.4342848596043396,8.679998005743458,0.5877777777777777,0.008888888888888889,-0.7566666666666667,0.00997306139466208,0.12902985365789674,-1.726786651469386
1589995766.252083,-1.5008288130185068,-3.45937839023612,8.738549577217613,0.5877777777777777,0.008888888888888889,-0.7566666666666667,0.01727247356923911,0.12446772104878606,-1.6820777519001018
1589995766.262083,-1.4950820256776034,-3.5275410128388014,8.712951141226819,0.5722222222222222,-0.0033333333333333327,-0.7855555555555556,0.02421282542339093,0.1167009985003038,-1.6070442757927175
1589995766.272083,-1.4688088120314584,-3.518134802005243,8.628134802005244,0.5722222222222222,-0.0033333333333333327,-0.7855555555555556,0.03409273888463398,0.11754984760885233,-1.549991926656518
1589995766.282083,-1.416915128458034,-3.514627307312949,8.621542435770982,0.5722222222222222,-0.0033333333333333327,-0.7855555555555556,0.029870247342295986,0.10706967032655389,-1.4919787689835482
1589995766.292083,-1.3959791395399306,-3.5440208604600696,8.636433376736113,0.5722222222222222,-0.0033333333333333327,-0.7855555555555556,0.02617993877991494,0.10746591806371317,-1.4310976818117545
1589995766.302083,-1.3675347222222223,-3.572465277777778,8.681944444444445,0.5722222222222222,-0.0033333333333333327,-0.7855555555555556,0.02617993877991494,0.10374255254367337,-1.3920023438513367
1589995766.312083,-1.3706270034619823,-3.6106270034619823,8.71,0.5195087689304897,0.008126113034434616,-0.6961718738869656,0.02692995779081465,0.0939470726631733,-1.3229006605965732
1589995766.322083,-1.3124570254110612,-3.636228512705531,8.61377148729447,0.4955555555555556,0.013333333333333334,-0.6555555555555556,0.031222687248737082,0.08623794899056611,-1.2146990814502245
1589995766.332083,-1.2788032838648564,-3.617606567729713,8.621622987053994,0.4955555555555556,0.013333333333333334,-0.6555555555555556,0.029713514087029293,0.08063743536892179,-1.146881642899744
1589995766.342083,-1.2718328818573115,-3.603665763714623,8.572830173001181,0.4955555555555556,0.013333333333333334,-0.6555555555555556,0.03123421990227031,0.07379425920033719,-1.0921362335510674
1589995766.352083,-1.2450553318324509,-3.6690652249738402,8.80762659733012,0.49656280277487114,0.02285639795231703,-0.6514349987492646,0.022997343036532128,0.06918389385102733,-1.00081373976909
1589995766.362083,-1.128704686571446,-3.6367493186335786,9.689736674931863,0.5077777777777778,0.1288888888888889,-0.6055555555555555,0.048127032088759854,0.047932667990032284,-0.9160179685241457
1589995766.372083,-0.9510715841440395,-3.2417266831227916,7.667861187745027,0.5077777777777778,0.1288888888888889,-0.6055555555555555,0.1327174284240687,0.00450624355630681,-0.8553608798782389
1589995766.382083,-0.9458528706887569,-3.1911050328227573,6.9219787433572995,0.5077777777777778,0.1288888888888889,-0.6055555555555555,0.16072181629717486,0.02057160002253775,-0.7737287632603449
1589995766.392083,-1.15612584893625,-3.69837754680875,9.512153014896253,0.5077777777777778,0.1288888888888889,-0.6055555555555555,-0.1857157928116095,0.1610169952093689,-0.7056591740335925
1589995766.402083,-1.1403879779370378,-3.651163933811114,8.992803271922254,0.5077777777777778,0.1288888888888889,-0.6055555555555555,-0.15138108453781202,-0.03125737112389704,-0.6919252907240735
1589995766.412083,-1.0582265062992426,-3.5191951813648994,8.161249571803753,0.4933333333333334,0.18222222222222226,-0.5755555555555556,0.09924517381993628,0.08050759236536156,-0.5566126095896924
1589995766.422083,-1.2258516347581168,-3.9103204811022723,9.43839340768089,0.4933333333333334,0.18222222222222226,-0.5755555555555556,0.02262204427816529,0.022169527827876817,-0.5243960664869023
1589995766.432083,-1.0150956147009134,-3.568875149971842,8.080022526382802,0.4933333333333334,0.18222222222222226,-0.5755555555555556,-0.020968731827536176,0.007925396715540529,-0.460800538736264
1589995766.442083,-1.0614079111784829,-3.7363481983735176,8.587517258332138,0.4933333333333334,0.18222222222222226,-0.5755555555555556,0.04757489851355039,0.03186583585656688,-0.38624528819581716
1589995766.4520829,-1.1681699654414075,-3.8694771329832593,8.925032763340964,0.49353667050651034,0.18344224526128394,-0.5755555555555556,-0.003536301946317165,0.011022379712367133,-0.3464350491364347
1589995766.4620829,-1.1022840087967327,-3.8506525739419235,8.746199452448275,0.5008573323559186,0.2273662163577338,-0.5755555555555556,0.026238590334038674,0.015129261406209318,-0.2909921462695652
1589995766.4720829,-1.108942844755031,-3.8378856895100615,8.710971205590553,0.5011111111111111,0.2288888888888889,-0.5755555555555556,0.02399827721492203,0.007405179980857181,-0.23019951484871123
1589995766.4820828,-1.1010000436128922,-3.82,8.569000828644947,0.5011111111111111,0.2288888888888889,-0.5755555555555556,0.024107365050600182,0.005017802569769667,-0.17955053747206232
1589995766.4920828,-1.1070975620393388,-3.82,8.684853678747437,0.5011111111111111,0.2288888888888889,-0.5755555555555556,0.02477250113024094,0.0023572582512066333,-0.15028454996786894
1589995766.5020828,-1.0849424238969332,-3.8032949492646217,8.57294949264622,0.5011111111111111,0.2288888888888889,-0.5755555555555556,0.019622392927823886,-0.0016425267523008434,-0.05253088341160647
1589995766.5120828,-1.1272126144455747,-3.8916378433367242,8.827456765005087,0.5222222222222223,0.26222222222222225,-0.5966666666666667,0.008878674558244298,-0.011923124458324691,0.015799846064277253
1589995766.5220828,-1.0930779247202442,-3.7892337741607323,8.673850661241099,0.5222222222222223,0.26222222222222225,-0.5966666666666667,0.010740433073412103,-0.010992245200740786,0.06234380894347241
1589995766.5320828,-1.0971387683328346,-3.8513876833283445,8.674277536665668,0.5222222222222223,0.26222222222222225,-0.5966666666666667,0.007014713701681181,-0.013244464298934585,0.10391918131580422
1589995766.5420828,-1.091526831471264,-3.872290247206896,8.603053662942527,0.5222222222222223,0.26222222222222225,-0.5966666666666667,0.006378433218124832,-0.017536568258370248,0.16915380084243153
1589995766.5520828,-1.140940328692886,-3.946410493039329,8.701880657385773,0.5222222222222223,0.26222222222222225,-0.5966666666666667,0.0009882568341099658,-0.02023165645037768,0.20688503553053555
1589995766.5620828,-1.1207906071057279,-3.9063248568458224,8.687628178682816,0.5433333333333333,0.27555555555555555,-0.59,0.005022944628588113,-0.024343244642037364,0.2686940381313498
1589995766.5720828,-1.1277120084489842,-3.961696067591874,8.666863974653047,0.5433333333333333,0.27555555555555555,-0.59,0.0012479058069698639,-0.02736327569933196,0.3004043642329431
1589995766.5820827,-1.1497213750752058,-3.949442750150412,8.657771000601647,0.5433333333333333,0.27555555555555555,-0.59,0.0041201770141969,-0.035997415822383035,0.358947440708835
1589995766.5920827,-1.1410196883882076,-3.9320393767764155,8.588157507105661,0.5433333333333333,0.27555555555555555,-0.59,-0.003473477144056888,-0.035997415822383035,0.39501729796054047
1589995766.6020827,-1.0713549463536718,-3.904258104882627,8.811677056056357,0.5433333333333333,0.27555555555555555,-0.59,-0.005299324849780016,-0.03506141410258885,0.43668413518547056
1589995766.6120827,-1.0080877054950517,-3.811007495134374,8.583022485403122,0.5523973847548322,0.2697875228327835,-0.6073040981683161,0.010725140040666114,-0.028434867458627233,0.4776627796928301
1589995766.6220827,-1.0815881749510399,-3.9540175324069757,8.682335167397182,0.5555555555555556,0.2677777777777778,-0.6133333333333333,-0.035589282548170995,-0.057151170950187125,0.5017718854068205
1589995766.6320827,-1.1449345467273362,-3.9242212110605528,8.846492124606229,0.5555555555555556,0.2677777777777778,-0.6133333333333333,-0.00840111516961236,-0.047012095875560246,0.5398263057296784
1589995766.6420827,-1.094203821656051,-3.9618471337579617,8.671687898089171,0.5555555555555556,0.2677777777777778,-0.6133333333333333,-0.010018968078725411,-0.04429328814277011,0.559210579265086
1589995766.6520827,-1.1092831652443755,-3.9957132660977503,8.739276027928627,0.5555555555555556,0.2677777777777778,-0.6133333333333333,-0.016284267195706983,-0.047061334170455014,0.5755684590098018
1589995766.6620827,-1.1010732223103359,-3.91,8.566183940299721,0.6622222222222223,0.2466666666666667,-0.6266666666666667,-0.01782495442017532,-0.0488086387871665,0.5765849065653352
1589995766.6720827,-1.2119455458630717,-3.91,8.728228105492182,0.6622222222222223,0.2466666666666667,-0.6266666666666667,-0.02154627575735166,-0.046017647784284244,0.5719332548938647
1589995766.6820827,-1.24,-3.809474958913589,8.543412767061673,0.6622222222222223,0.2466666666666667,-0.6266666666666667,-0.018486850204526478,-0.05112586403255025,0.5616919433388049
1589995766.6920826,-1.24,-3.791335092120059,8.661321901219617,0.6622222222222223,0.2466666666666667,-0.6266666666666667,-0.0165080976956497,-0.046178982760358304,0.5587238145754897
1589995766.7020826,-1.2556645837532756,-3.8448260431364645,8.63867083249345,0.6622222222222223,0.2466666666666667,-0.6266666666666667,-0.016362461737446838,-0.04325178134189112,0.5542335080999188
1589995766.7120826,-1.2311848768416396,-3.851579835788853,8.68881512315836,1.0711111111111111,0.21333333333333332,-0.6844444444444444,-0.013391552754167228,-0.04040382229011312,0.5463769720174917
1589995766.7220826,-1.2518061587374425,-3.87907487831659,8.668193841262557,1.0711111111111111,0.21333333333333332,-0.6844444444444444,-0.018640229536345598,-0.04115363325899575,0.5441275391108438
1589995766.7320826,-1.2888857991772056,-3.899628599725735,8.611857001371323,1.0711111111111111,0.21333333333333332,-0.6844444444444444,-0.02177610216474955,-0.04040125243754844,0.5495356334671364
1589995766.7420826,-1.3120147596188294,-3.8926617467937237,8.63201475961883,1.0711111111111111,0.21333333333333332,-0.6844444444444444,-0.022617094898645083,-0.04036073895236887,0.5569830276166575
1589995766.7520826,-1.3124372399542041,-3.950502080366368,8.670251040183183,1.0711111111111111,0.21333333333333332,-0.6844444444444444,-0.018782600703131293,-0.04201067724408658,0.576095574337859
1589995766.7620826,-1.3320219678217822,-4.00670327970297,8.672659344059406,1.2921464177667767,-0.09415858773377334,-0.8638827007700769,-0.018254033866314842,-0.04414388321010487,0.5942246686125557
1589995766.7720826,-1.3498081652729956,-4.059232661091982,8.719040826364978,1.3722222222222222,-0.20555555555555555,-0.9288888888888888,-0.016404313582520483,-0.049003681522193226,0.6202641967897469
1589995766.7820826,-1.4065798714031648,-4.031710064298418,8.625700214328058,1.3722222222222222,-0.20555555555555555,-0.9288888888888888,-0.017391112827384557,-0.04908738521234052,0.6412557370392378
1589995766.7920825,-1.4003989581811984,-3.9531916654495887,8.668005209094007,1.3722222222222222,-0.20555555555555555,-0.9288888888888888,-0.016405981323944857,-0.05537125238833113,0.6571616876343905
1589995766.8020825,-1.4227359395272747,-3.9575786465090914,8.677578646509092,1.3722222222222222,-0.20555555555555555,-0.9288888888888888,-0.016362461737446838,-0.05232556154660869,0.6635578764766065
1589995766.8120825,-1.3703132618001037,-3.9797389484999135,8.660052210300018,0.7088888888888889,0.07555555555555556,-0.6844444444444444,-0.01419788595318059,-0.05126904677733343,0.6554526140345568
1589995766.8220825,-1.4186189223947636,-3.939484231337697,8.66810315373246,0.7088888888888889,0.07555555555555556,-0.6844444444444444,-0.01683255103045465,-0.05126904677733343,0.6343752934163643
1589995766.8320825,-1.4576038916312708,-3.911597405579153,8.550383136264493,0.7088888888888889,0.07555555555555556,-0.6844444444444444,-0.017453292519943295,-0.046250517659319014,0.5982944809687656
1589995766.8420825,-1.5077689136109689,-3.900446217277806,8.673752958110713,0.7088888888888889,0.07555555555555556,-0.6844444444444444,-0.02162191663300399,-0.0478992049213815,0.5518230540559277
1589995766.8520825,-1.5041317768220253,-3.870658884110126,8.71520933906785,0.7088888888888889,0.07555555555555556,-0.6844444444444444,-0.01925612025749149,-0.04159531594874999,0.5235336366057282
1589995766.8620825,-1.5,-3.813850793531119,8.714179138236513,0.6572471653619164,0.12604968522637314,-0.6844444444444444,-0.014636673435723642,-0.038214894238567367,0.4785784329041944
1589995766.8720825,-1.5341038205493627,-3.717476328992835,8.672948089725319,0.6088888888888889,0.17333333333333334,-0.6844444444444444,-0.013239188515993677,-0.033689683581475435,0.4227843578052091
1589995766.8820825,-1.516914778075447,-3.7920747954529,8.710266092245313,0.6088888888888889,0.17333333333333334,-0.6844444444444444,-0.007130997220554903,-0.028669119688304417,0.36634498595150744
1589995766.8920825,-1.5703943941693366,-3.776005096209694,8.774796432653215,0.6088888888888889,0.17333333333333334,-0.6844444444444444,-0.007853703678854069,-0.02836160034490785,0.3199215202597166
1589995766.9020824,-1.5704650623369094,-3.746589156277182,8.714340968396638,0.6088888888888889,0.17333333333333334,-0.6844444444444444,-0.00766118069311921,-0.02764283489512489,0.28453769062401363
1589995766.9120824,-1.5794976053171734,-3.7382009578731306,8.67,0.601678363144691,0.1818548637582945,-0.7008320029539852,-0.00461437094158451,-0.022766004137824872,0.2618223537800457
1589995766.9220824,-1.6966342648845687,-3.694860267314702,8.722709599027947,0.5966666666666667,0.18777777777777774,-0.7122222222222222,-0.01093879276785328,-0.022509816742572675,0.24239903523122647
1589995766.9320824,-1.6901832301289208,-3.7758726694413425,8.62431056068758,0.5966666666666667,0.18777777777777774,-0.7122222222222222,-0.003352441573452462,-0.022907446432425576,0.2468380676210558
1589995766.9420824,-1.6630387596899223,-3.718232558139535,8.620883720930234,0.5966666666666667,0.18777777777777774,-0.7122222222222222,-0.0016844456734363882,-0.019207077824515115,0.2498002491916884
1589995766.9520824,-1.6866127734033245,-3.6800404199475065,8.669919160104987,0.5966666666666667,0.18777777777777774,-0.7122222222222222,-0.0036331631867903835,-0.02072137573513596,0.2512517508134859
1589995766.9620824,-1.560230335702034,-3.474322469982847,8.67136404476027,0.5604300870338607,0.16292983745813935,-0.7205048689954351,0.0017352789610308736,-0.020800181968093003,0.25401477812035356
1589995766.9720824,-1.512503607839486,-3.5443668823611563,8.716870490200643,0.5577777777777778,0.16111111111111112,-0.7211111111111111,0.0042267725050552825,-0.017658118457339108,0.24802823950148714
1589995766.9820824,-1.4680825662601713,-3.66736881447152,8.678082566260171,0.5577777777777778,0.16111111111111112,-0.7211111111111111,0.00344882658905261,-0.013795306356210438,0.23390113951269728
1589995766.9920824,-1.3321918572225322,-3.6626125408334,8.596966775555732,0.5577777777777778,0.16111111111111112,-0.7211111111111111,0.009247509050147831,-0.01308996938995747,0.1844518283850907
1589995767.0020823,-1.3523703874249116,-4.129370617661218,8.444333256587898,0.5577777777777778,0.16111111111111112,-0.7211111111111111,0.004520884785803645,-0.012207204013846729,0.11819350278416321
1589995767.0120823,-16.07,-6.15,-7.72,0.4977777777777778,0.16666666666666666,-0.59,-1.3286318930806833,2.0867592869157203,-2.975786374650332
1589995767.0220823,-12.733286440910966,-5.148985932273289,-5.189067268478211,0.4977777777777778,0.16666666666666666,-0.59,-1.0622302520713423,0.7431347312436072,-5.279308703668603
1589995767.0320823,-3.570701125696257,-3.1742293460055313,-0.2892014957348187,0.4977777777777778,0.16666666666666666,-0.59,-0.5898588957153128,-1.206243126674955,-9.472755777366672
1589995767.0420823,-0.7287325869583796,-2.8173523630458934,-0.004309888043756944,0.4977777777777778,0.16666666666666666,-0.59,-0.6980394076198263,-0.679372599648575,-9.257933336965767
1589995767.0520823,-0.19330846637837396,-2.3867468694279914,0.022687680609923554,0.4977777777777778,0.16666666666666666,-0.59,-0.7029448996852273,-0.4393985014405756,-8.970008611129316
1589995767.0620823,-0.7912811672603288,-3.599396940894112,2.6916221261357354,0.4825139949755657,0.24998148112874108,-0.6192555837042398,-0.5450000157520684,-0.06603315125190784,-8.600715259872892
1589995767.0720823,-0.9958105320515316,-2.634894329194722,1.994102673880045,0.4711111111111111,0.31222222222222223,-0.6411111111111111,0.7446393962433939,1.896485885382008,-7.639509051817809
1589995767.0820823,-0.8736195355313187,-2.3800669391835205,3.615620213848378,0.4711111111111111,0.31222222222222223,-0.6411111111111111,1.482805921429745,2.8233634859441086,-7.050201333338384
1589995767.0920823,2.2606520476328784,-0.009965146674411951,14.553543421434796,0.4711111111111111,0.31222222222222223,-0.6411111111111111,2.3426676974096,2.6264954988192075,-6.333017311923312
1589995767.1020823,1.0303681588644737,-0.10370564351030442,6.249620240207452,0.4711111111111111,0.31222222222222223,-0.6411111111111111,1.8332207240083722,0.7905703047250061,-5.695315558276559
1589995767.1120822,-0.2779740120893129,-0.25711748015954605,-0.16129939553435596,0.34175491499559096,0.44866642908379817,-0.6242770855892283,0.3870681987561404,0.139107097709685,-4.848525595025991
1589995767.1220822,2.8423423291645333,-0.34145810478071137,14.865879226699821,0.3088888888888889,0.4833333333333333,-0.62,-0.9413006168327342,0.6541666116433482,-4.197559400334546
1589995767.1320822,1.5848368258330472,-0.5119203023016146,14.81520668727814,0.3088888888888889,0.4833333333333333,-0.62,-1.1964954746216792,0.6018073331226101,-3.944747513603221
1589995767.1420822,-1.187847127820717,-1.5074851439002601,11.14998407581466,0.3088888888888889,0.4833333333333333,-0.62,-0.7660331313583925,0.2807541349390831,-3.1529267527443916
1589995767.1520822,0.36472440669672496,-2.376317500262137,11.064937261892279,0.3088888888888889,0.4833333333333333,-0.62,0.537024332438801,0.2267327105410355,-2.4348361036796646
1589995767.1620822,0.15262958241348212,-0.7933873324834428,3.050752153229068,0.25987621308071546,0.5381122062954096,-0.5844417842175996,0.6973430777286784,0.2537473668388841,-1.7649949356178043
1589995767.1720822,0.7895751948183382,-2.090124481327801,8.297347687481025,0.25222222222222224,0.5466666666666666,-0.5788888888888889,0.15364771355295237,0.04677005977953666,-1.5239425862408298
1589995767.1820822,1.6247025589896975,-3.7660834164174144,15.278998005982055,0.25222222222222224,0.5466666666666666,-0.5788888888888889,-0.3945897281721089,-0.16278646490882137,-1.3152084028133924
1589995767.1920822,0.5240754202635165,-2.4273725229790655,8.738820466221647,0.25222222222222224,0.5466666666666666,-0.5788888888888889,0.02818184753536429,0.03913201508140601,-0.8291208326805916
1589995767.2020822,0.7632740475689328,-2.4897537360555675,8.05539886339718,0.25222222222222224,0.5466666666666666,-0.5788888888888889,0.15155384348935236,-0.021377390373794464,-0.5896524712026779
1589995767.2120821,0.74612625824945,-3.1199140057329515,11.109900006666221,0.20674318008429068,0.5795663992770852,-0.5972740335829463,-0.19522744166899392,0.0898644301596292,-0.27160588454376017
1589995767.2220821,0.749139960510328,-3.2352984507897937,11.67425615127582,0.2,0.5844444444444444,-0.6,-0.23679672283951458,0.09749929698904342,-0.2367816460471076
1589995767.2320821,0.6511540334361305,-2.584423678901848,7.761732789203979,0.2,0.5844444444444444,-0.6,0.09265755993184854,-0.009272023711039162,0.013740542315423918
1589995767.242082,0.6890439376869586,-2.864338215298551,9.0200745891768,0.2,0.5844444444444444,-0.6,-0.05264893224952368,0.0019329923201427046,0.251741674569044
1589995767.252082,9.068391558241984,-11.366674316156132,6.1537975617252325,0.2,0.5844444444444444,-0.6,-0.1608605163184177,-0.23095687103120446,0.5897992518073704
1589995767.262082,1.693813987994874,-2.7454549133337824,8.14636946111823,0.1802871638077681,0.591612748514347,-0.6250890642446587,-0.45462430997124426,-0.13298078450080741,1.9955598154267156
1589995767.272082,-1.660339401156856,-1.0136078598162641,11.788466995576727,0.17555555555555555,0.5933333333333334,-0.6311111111111111,0.11499100885987557,-0.03780983172423659,2.5062349981420557
1589995767.282082,-1.2366081984314028,-1.5884113124444617,6.8982424757562875,0.17555555555555555,0.5933333333333334,-0.6311111111111111,0.5358101969647691,0.03179959485531743,2.694486347865107
1589995767.292082,-0.53870066518847,-2.8032031042128605,10.217767184035477,0.17555555555555555,0.5933333333333334,-0.6311111111111111,-0.18228116155223073,-0.2949759781040284,2.6814268247796225
1589995767.302082,0.1844026189564298,-2.7580377888420786,10.040954934252522,0.17555555555555555,0.5933333333333334,-0.6311111111111111,-0.5065266402150456,-0.32734832884037435,2.706559983175299
1589995767.312082,0.4508679155168754,-2.7682641689662493,9.605660422415623,0.20126798391471498,0.5876194603646312,-0.6408246951579046,-0.2439039221242444,-0.22917197570470127,2.7651288549387925
1589995767.322082,-0.06594021967468944,-2.6740597803253108,7.706791309045075,0.2255555555555556,0.5822222222222222,-0.65,0.13214392582986478,-0.15737085261349987,2.8544646608241133
1589995767.332082,0.22565958601633243,-3.2680714479559865,9.966530481336196,0.2255555555555556,0.5822222222222222,-0.65,-0.20886111398990764,-0.24319923336925406,2.922753100898766
1589995767.342082,0.22500136630687254,-3.153336976818327,9.279018308512093,0.2255555555555556,0.5822222222222222,-0.65,-0.13715573785442506,-0.23212920782993235,3.0029108853511657
1589995767.352082,0.12992038920831492,-3.25358985699543,9.036967418546366,0.2255555555555556,0.5822222222222222,-0.65,-0.04867263472021928,-0.21634135082496014,3.0711149821399366
1589995767.362082,-0.1806736013829692,-5.96962027957438,8.066288039104647,0.27666587185677527,0.5674955209150911,-0.6560639358323481,-0.14936799778128837,-0.2384663187094659,3.1372101805289287
1589995767.372082,-0.547387269065756,-9.856134313983013,8.697790035898784,0.2911111111111111,0.5633333333333334,-0.6577777777777778,-0.16923497947754457,-0.2594615180435626,3.4429199246873954
1589995767.382082,-0.35906686930091186,-6.427744870820668,8.859533434650455,0.2911111111111111,0.5633333333333334,-0.6577777777777778,-0.1142788022478324,-0.3029258012686623,4.048315072285448
1589995767.392082,-0.1873567517937906,-3.4851756384534296,8.78735675179379,0.2911111111111111,0.5633333333333334,-0.6577777777777778,-0.08077793536217848,-0.3238073700291252,4.522134804754853
1589995767.402082,9.429232337838089,-18.15397326807927,7.886100513504997,0.2911111111111111,0.5633333333333334,-0.6577777777777778,-0.19008594410719348,-0.37880229832808254,4.335519432064924
1589995767.412082,4.363027850898574,-9.428348119983099,5.793622241721101,0.3433016657097772,0.523817627708629,-0.666724729994692,-0.4283298740135001,-0.3303248025571922,1.0172176600837277
1589995767.422082,-1.029762329366752,-0.8356340585584126,8.237769851820628,0.3688888888888889,0.5044444444444445,-0.6711111111111111,-0.09352679355008481,0.08510984264148103,-1.2221962573556198
1589995767.432082,-3.378930774748924,-3.2659418938307025,7.211777259684363,0.3688888888888889,0.5044444444444445,-0.6711111111111111,0.5889678666393676,0.44942189112929215,-1.686611216030282
1589995767.442082,-3.517042399172699,-3.620537745604964,6.39717683557394,0.3688888888888889,0.5044444444444445,-0.6711111111111111,0.30396862717602535,0.19000512462711122,-0.7621990015148121
1589995767.452082,-1.1677448623335356,-2.205642548031694,9.694238914556895,0.3688888888888889,0.5044444444444445,-0.6711111111111111,-0.2707801956017992,-0.07203702086450184,0.13093677480297494
1589995767.462082,-0.9307675740352976,-3.540735865988633,9.501419682919533,0.38764808721374683,0.48881177917372953,-0.6711111111111111,-0.311168959807991,-0.1890383315526908,0.5426487337434027
1589995767.472082,-0.9868889319635589,-4.47410157007172,8.56874394262454,0.4088888888888889,0.4711111111111111,-0.6711111111111111,-0.06228540161331868,-0.09286397438592092,0.8023302506685345
1589995767.482082,3.724637462539471,-6.930565377421107,8.048824393089161,0.4088888888888889,0.4711111111111111,-0.6711111111111111,-0.042713202778906355,-0.08312523725953358,1.1888707760049304
1589995767.4920819,2.35079760137397,-8.84616976683259,8.775647541699415,0.4088888888888889,0.4711111111111111,-0.6711111111111111,-0.09591397893479128,-0.07934022886658057,0.5374875063288583
1589995767.5020819,-0.16098780739822283,-5.862311348498578,7.962322952930517,0.4088888888888889,0.4711111111111111,-0.6711111111111111,0.059071399187663395,0.022466723537232197,-0.1221167954727787
1589995767.5120819,-0.04983900688585008,-3.400124139268742,7.640192027931335,0.4070366778377641,0.46629536237818653,-0.6688884578497613,0.1443376867270409,0.05235035619716625,-0.21739859361137803
1589995767.5220819,0.7778075963627584,-5.3749235535527475,9.255379616963063,0.4033333333333333,0.4566666666666666,-0.6644444444444444,-0.05520051871699279,-0.030841184149845484,0.16062900222949686
1589995767.5320818,-0.29396385221936744,-5.8165150172765125,8.607837334987153,0.4033333333333333,0.4566666666666666,-0.6644444444444444,-0.05809232040986852,-0.0027188621412759413,0.061692390584705416
1589995767.5420818,-0.15678684191203465,-4.670995300682869,8.359231955356488,0.4033333333333333,0.4566666666666666,-0.6644444444444444,0.03241374955683811,0.011387043090915167,-0.031367372191206735
1589995767.5520818,-0.06611792774369461,-4.577886843899114,8.694226312201772,0.4033333333333333,0.4566666666666666,-0.6644444444444444,0.002591745529919154,0.002425555564078691,0.001090830782496456
1589995767.5620818,-0.06563519411899839,-4.506297572555326,8.859945631365342,0.4053160868196476,0.4566666666666666,-0.6624616909581301,0.012915264390984248,0.0012957322228413374,0.0009883800623240152
1589995767.5720818,-0.09429977502812148,-4.734299775028121,8.525024606299212,0.4244444444444445,0.4566666666666666,-0.6433333333333333,-0.0049114226520964935,0.003272492347489368,-0.0007008649129102299
1589995767.5820818,-0.10076169109799395,-4.6438737993073556,8.486158872601338,0.4244444444444445,0.4566666666666666,-0.6433333333333333,-0.011995574655088501,-0.0005020896102397054,-0.0003359143909506414
1589995767.5920818,-0.08700783494924855,-4.6272441237880635,8.577716701465693,0.4244444444444445,0.4566666666666666,-0.6433333333333333,-0.0031951670058074314,-0.0015546475301529401,0.0
1589995767.6020818,-0.0790878170106928,-4.567297463914458,8.722702536085542,0.4244444444444445,0.4566666666666666,-0.6433333333333333,0.005057994113834941,0.0003961597986473387,0.0004956635270479315
1589995767.6120818,-0.08089653243847875,-4.55282774049217,8.741723993288591,0.4244444444444445,0.4566666666666666,-0.6559770382798906,0.009727215065806833,0.0016851444328146452,0.001090830782496456
1589995767.6220818,-0.07,-4.598724074560252,8.648206878445787,0.4244444444444445,0.4566666666666666,-0.6711111111111111,0.003945777506231599,0.002377260783802332,-0.00019559921880941966
1589995767.6320817,-0.07471576042152049,-4.5935788021076025,8.64,0.4244444444444445,0.4566666666666666,-0.6711111111111111,-0.0028821055971457762,0.002758082684422067,0.0004523982067054463
1589995767.6420817,-0.08410085914612067,-4.599495704269397,8.652302577438363,0.4244444444444445,0.4566666666666666,-0.6711111111111111,-0.0008946686782541129,0.001286992886738799,0.001286992886738799
1589995767.6520817,-0.085255475894215,-4.59846714463471,8.646277379471075,0.4244444444444445,0.4566666666666666,-0.6711111111111111,0.0035113586721825045,-0.0005175472942886742,0.0005175472942886742
1589995767.6620817,-0.08,-4.599635643564357,8.650364356435643,0.4215526009743832,0.4566666666666666,-0.6619536067892504,0.006032062792103034,-0.00156400756379209,0.002037184345087724
1589995767.6720817,-0.08,-4.565208932177218,8.736880389594964,0.4177777777777778,0.4566666666666666,-0.65,0.001090830782496456,-0.002181661564992912,0.0021360796349201893
1589995767.6820817,-0.07488188976377953,-4.610944881889764,8.667401574803149,0.4177777777777778,0.4566666666666666,-0.65,-0.005050460630770993,-0.002739960784380862,-0.0011423660950553437
1589995767.6920817,-0.07,-4.655118207309998,8.554881792690002,0.4177777777777778,0.4566666666666666,-0.65,-0.006441829357009142,-0.0027141825389949406,-0.0027141825389949406
1589995767.7020817,-0.07631759357434385,-4.653682406425657,8.553158796787173,0.4177777777777778,0.4566666666666666,-0.65,-0.0014925190107733031,-0.0018370902878831075,-0.002181661564992912
1589995767.7120817,-0.08850164853520022,-4.6414983514648,8.5592508242676,0.4177777777777778,0.4566666666666666,-0.65,-0.00016344479008022564,-0.0011725531775365688,-0.002181661564992912
1589995767.7220817,-0.0741213513254857,-4.577939324337257,8.676182026988227,0.4177777777777778,0.4633333333333333,-0.6711111111111111,0.009334813913001732,0.0006412610933642196,0.0025981378137910137
1589995767.7320817,-0.09018500797448166,-4.570555023923445,8.697409888357257,0.4177777777777778,0.4633333333333333,-0.6711111111111111,0.0031917673900606035,-0.0010504683037820736,2.018123935719121e-05
1589995767.7420816,-0.09692881704420575,-4.609213548867382,8.53850171930944,0.4177777777777778,0.4633333333333333,-0.6711111111111111,-0.002765901235925866,8.578851043880976e-05,0.001090830782496456
1589995767.7520816,-0.09,-4.6318399999999995,8.50104,0.4177777777777778,0.4633333333333333,-0.6711111111111111,-0.005842489671051018,-0.001980948701013564,0.000990474350506782
1589995767.7620816,-0.09,-4.625225485892166,8.626516342738556,0.41563677038574276,0.4614981841401604,-0.6652998053327303,0.001691381951612416,0.00030027558455798,0.00060055116911596
1589995767.7720816,-0.08534417815306924,-4.566983732770396,8.681639554617327,0.41,0.4566666666666666,-0.65,0.0037803637263345248,-0.00017884766461643523,0.0019277258755703336
1589995767.7820816,-0.07414594403117251,-4.5941459440311725,8.657810839532413,0.41,0.4566666666666666,-0.65,0.0018361352151139423,-0.003911070792814782,0.0006385784453254138
1589995767.7920816,-0.07697276132107593,-4.61513619339462,8.548809329247531,0.41,0.4566666666666666,-0.65,-0.004923594915956509,-0.0029422718337959396,-0.00033022051369342834
1589995767.8020816,-0.05737188915691005,-4.62474377831382,8.5420937028103,0.41,0.4566666666666666,-0.65,-0.006889961988982341,-0.0008041483617509321,-0.00017248864700180287
1589995767.8120816,-0.05179667458432304,-4.601796674584323,8.619661124307205,0.4078154306325328,0.46234654702208144,-0.6530583971144541,0.00035500798482766653,0.0006618915902406841,0.001519769974752228
1589995767.8220816,-0.07526469025117269,-4.588411858492964,8.681588141507037,0.4044444444444445,0.4711111111111111,-0.6577777777777778,0.007635815477475192,-0.0005742886186288157,0.0027559501836217277
1589995767.8320816,-0.09588496667489509,-4.5970649222414215,8.635870155517157,0.4044444444444445,0.4711111111111111,-0.6577777777777778,0.007058221789878328,6.4356592697273e-05,0.0015397112846987746
1589995767.8420815,-0.09017586416009703,-4.615131898120072,8.57991206791995,0.4044444444444445,0.4711111111111111,-0.6577777777777778,0.0016794097326033215,0.002172069663024326,0.0
1589995767.8520815,-0.07879200640995429,-4.611722675213272,8.59,0.4044444444444445,0.4711111111111111,-0.6577777777777778,-0.003592178721885511,0.002633119598697082,-0.0003196863743961429
1589995767.8620815,-0.09856058820756941,-4.638080784276759,8.59,0.4044444444444445,0.4711111111111111,-0.6577777777777778,-0.004310984640256767,0.0011955077619545686,-0.0010384922927673995
1589995767.8720815,-0.08,-4.60671449869549,8.68014349608647,0.4044444444444445,0.4566666666666666,-0.6711111111111111,0.0014335703835566542,-0.001090830782496456,-0.0007324381866072924
1589995767.8820815,-0.07600090508421219,-4.592001810168425,8.64000452542106,0.4044444444444445,0.4566666666666666,-0.6711111111111111,0.0034908559627325393,-0.001090830782496456,0.0
1589995767.8920815,-0.0732715837621498,-4.593086335048599,8.596913664951401,0.4044444444444445,0.4566666666666666,-0.6711111111111111,0.00039728942735862906,-0.00037708192744274286,0.00035687442752685655
1589995767.9020815,-0.08,-4.616367708579999,8.595426039940012,0.4044444444444445,0.4566666666666666,-0.6711111111111111,-0.004461156935070014,0.001090830782496456,0.0006946092533029074
1589995767.9120815,-0.07803545681619722,-4.613929086367606,8.638035456816198,0.4070638353561815,0.4566666666666666,-0.6684917201993741,-0.00525919418791734,0.0006622339468093242,0.0
1589995767.9220815,-0.07097418851819935,-4.63,8.633896754072799,0.4177777777777778,0.4566666666666666,-0.6577777777777778,0.00042506992944258467,-0.0008782958177751636,0.0
1589995767.9320815,-0.07362092673723258,-4.617241853474465,8.641294170317547,0.4177777777777778,0.4566666666666666,-0.6577777777777778,0.005755021025751185,0.001090830782496456,0.0
1589995767.9420815,-0.0602081801029708,-4.590416360205942,8.580936810463369,0.4177777777777778,0.4566666666666666,-0.6577777777777778,0.008681228407046881,0.001090830782496456,0.0
1589995767.9520814,-0.07487259255741054,-4.584617777672232,8.635382222327769,0.4177777777777778,0.4566666666666666,-0.6577777777777778,0.0014121814642240806,0.001090830782496456,0.0002657586976093268
1589995767.9620814,-0.0839564683692105,-4.626978234184605,8.605108829076974,0.4154275154769152,0.4566666666666666,-0.6577777777777778,-0.004363323129985824,0.00043158374871083696,0.001090830782496456
1589995767.9720814,-0.07429565939005556,-4.615704340609945,8.622817362439777,0.41,0.4566666666666666,-0.6577777777777778,-0.002020404383089549,-0.0015594145318757109,0.0015594145318757109
1589995767.9820814,-0.07600969905097803,-4.598029097152934,8.592019398101955,0.41,0.4566666666666666,-0.6577777777777778,0.002831928025143652,-0.0017463872543311129,0.0013111129436693138
1589995767.9920814,-0.07717422413022092,-4.587174224130221,8.58,0.41,0.4566666666666666,-0.6577777777777778,0.004671567460304896,-0.0003082443303190728,-0.0003912932260886916
1589995768.0020814,-0.08444279159420898,-4.6,8.585557208405792,0.41,0.4566666666666666,-0.6577777777777778,0.0014539001493538949,0.000484633383117965,-0.0007877320828072105
1589995768.0120814,-0.0763922932223679,-4.6085230576298235,8.606392293222369,0.4116572612057991,0.4566666666666666,-0.6561205165719787,-0.0037373530286695256,-0.0006259701013162984,0.00023243034059007879
1589995768.0220814,-0.09233037243150685,-4.62849555864726,8.637669627568494,0.4177777777777778,0.4566666666666666,-0.65,-0.0029442741598835476,0.0006725174903966673,-0.00016410909380291027
1589995768.0320814,-0.07228555684809894,-4.60614277842405,8.626856670544298,0.4177777777777778,0.4566666666666666,-0.65,0.001932345988487722,0.0,-0.002181661564992912
1589995768.0420814,-0.0629564913506902,-4.5970435086493096,8.61365193080552,0.4177777777777778,0.4566666666666666,-0.65,0.0039174987021928466,0.0,-0.000891648855585955
1589995768.0520813,-0.07275905043317454,-4.59,8.661722848700476,0.4177777777777778,0.4566666666666666,-0.65,0.003949325340998797,0.0003009657142966965,0.001579730136399519
1589995768.0620813,-0.08107485883399604,-4.592149717667992,8.64,0.4177777777777778,0.45821924053799423,-0.6515525738713276,-0.0003517467308883392,0.0012080796927925691,0.0
1589995768.0720813,-0.08869019736005955,-4.60738039472012,8.64,0.4177777777777778,0.46921917396453044,-0.6625525072978637,-0.0028438604358967195,0.002038784261128696,0.0
1589995768.0820813,-0.07223420760990026,-4.626648688585149,8.613297377170298,0.4177777777777778,0.4711111111111111,-0.6644444444444444,-0.0030287781039526644,-0.0009689736607281042,0.0
1589995768.0920813,-0.08772848171407462,-4.603407277428888,8.566814554857777,0.4177777777777778,0.4711111111111111,-0.6644444444444444,-0.0013386149894255546,-0.00012389210346454955,0.0
1589995768.1020813,-0.08745839974497928,-4.593812400382531,8.608895600892572,0.4177777777777778,0.4711111111111111,-0.6644444444444444,0.00041586836924661675,0.0009522079927475837,0.002181661564992912
1589995768.1120813,-0.07408798214854957,-4.613868026777176,8.655692062480076,0.4177777777777778,0.4711111111111111,-0.6644444444444444,0.0026035978325992877,0.00022296483829669343,0.002181661564992912
1589995768.1220813,-0.07,-4.612294833287825,8.64,0.4044444444444445,0.4566666666666666,-0.65,-0.0041129956508801175,0.001090830782496456,0.002771837389277955
1589995768.1320813,-0.07,-4.639476106807889,8.608412977307035,0.4044444444444445,0.4566666666666666,-0.65,-0.0008034176977569235,0.001435391749305453,-0.00040170884887846174
1589995768.1420813,-0.07973668679348074,-4.640526626413038,8.58543787170291,0.4044444444444445,0.4566666666666666,-0.65,0.0035978052548403102,0.0004114819526836633,0.0014448667049583057
1589995768.1520813,-0.0963597532744896,-4.5963597532744895,8.68,0.4044444444444445,0.4566666666666666,-0.65,0.005949350717368435,-0.0030739476882859344,0.0017845722465860444
1589995768.1620812,-0.08383141419119733,-4.583831414191197,8.68,0.4044444444444445,0.4566666666666666,-0.65,0.00389940602852714,-0.0023906327920055026,0.0004179424540251815
1589995768.1720812,-0.07916277731602839,-4.601674445367943,8.668325554632057,0.4044444444444445,0.4566666666666666,-0.6788888888888889,-0.0012734844375925636,-0.0009995039549484021,-0.0009081771274003484
1589995768.1820812,-0.07282739679362984,-4.61717260320637,8.616071238476442,0.4044444444444445,0.4566666666666666,-0.6788888888888889,-0.00388933463885401,0.0,0.000782409636814135
1589995768.1920812,-0.08,-4.605204926365934,8.544385220902198,0.4044444444444445,0.4566666666666666,-0.6788888888888889,-0.003623439038950452,0.0005230613924376651,-0.0007845920886564977
1589995768.2020812,-0.07701602679331682,-4.59,8.610887812446782,0.4044444444444445,0.4566666666666666,-0.6788888888888889,0.0025071625477923803,0.002181661564992912,-0.001970488416291494
1589995768.2120812,-0.07082897315722199,-4.592486919471666,8.659171026842778,0.4055497419874071,0.4566666666666666,-0.6771388344458646,0.002910784572384962,0.00209123462121681,0.0011812577262725575
1589995768.2220812,-0.07797733276523222,-4.613931998295697,8.652022667234768,0.41508088813142074,0.4566666666666666,-0.6620478530511764,-0.00020827570952377953,0.001311469550739625,0.0019610227967497428
1589995768.2320812,-0.07911569889810574,-4.6308843011018945,8.622041290082953,0.4177777777777778,0.4566666666666666,-0.6577777777777778,-0.0009943684962022757,0.003176030061195188,0.001090830782496456
1589995768.2420812,-0.07741599715043337,-4.632584002849566,8.549887996200578,0.4177777777777778,0.4566666666666666,-0.6577777777777778,0.001348266329099787,0.0019120082991729544,0.0013604840483164133
1589995768.2520812,-0.09866996249573816,-4.609334981247869,8.58731520627344,0.4177777777777778,0.4566666666666666,-0.6577777777777778,0.0053816116199061,0.0010182884899202767,0.0020365769798405533
1589995768.2620811,-0.08436958745311968,-4.602184793726559,8.665967269007842,0.4177777777777778,0.4566666666666666,-0.6577777777777778,0.0046016471550194855,0.00023832402503366139,0.00047664805006732277
1589995768.2720811,-0.10626701940839739,-4.609066754852099,8.688133509704198,0.3977777777777778,0.4633333333333333,-0.6577777777777778,0.0005818245150237101,0.00010180125349454917,0.0009890295290019067
1589995768.2820811,-0.0728755421211723,-4.6021566565908785,8.659935602575898,0.3977777777777778,0.4633333333333333,-0.6577777777777778,-0.004284904883432326,0.0010124125359429587,7.841824655349735e-05
1589995768.292081,-0.10071210579857579,-4.625356052899288,8.548575788402848,0.3977777777777778,0.4633333333333333,-0.6577777777777778,-0.002512628280028078,0.0,0.0005842547375222625
1589995768.302081,-0.07226653102746694,-4.611133265513733,8.605466937945065,0.3977777777777778,0.4633333333333333,-0.6577777777777778,-0.00018543013606831926,0.0,-0.000967210691784243
1589995768.312081,-0.10981290277874022,-4.609906451389371,8.620374194442519,0.3977777777777778,0.4634060933638232,-0.6578401435181978,0.0021714569945794258,0.0021714569945794258,2.0409140826972707e-05
1589995768.322081,-0.0904365601829395,-4.600218280091469,8.65912687963412,0.3977777777777778,0.4709413377066346,-0.6642989243834646,0.0011146414467945907,0.0011146414467945907,0.0021340402363966425
1589995768.332081,-0.072785500575374,-4.622785500575374,8.59214499424626,0.3977777777777778,0.4711111111111111,-0.6644444444444444,0.00030385097722795414,0.0029686413702614137,0.0013946817597244102
1589995768.342081,-0.08272516845841263,-4.624549663083175,8.533625842292063,0.3977777777777778,0.4711111111111111,-0.6644444444444444,0.001090830782496456,0.002181661564992912,0.002181661564992912
1589995768.352081,-0.09259559829709593,-4.604808803405808,8.601147179565151,0.3977777777777778,0.4711111111111111,-0.6644444444444444,0.0022233741910835094,0.002181661564992912,0.001615389860699385
1589995768.362081,-0.09744009150700601,-4.590853302830998,8.688293394338004,0.40062212054777113,0.4694045054491151,-0.6632118959107807,0.0052679921135134825,0.0020885806655085134,0.0003723235979375951
1589995768.372081,-0.07,-4.598164472956531,8.67,0.4311111111111111,0.4511111111111111,-0.65,0.003272492347489368,0.001090830782496456,0.004363323129985824
1589995768.382081,-0.07,-4.590432474283818,8.67,0.4311111111111111,0.4511111111111111,-0.65,0.003272492347489368,0.001090830782496456,0.004363323129985824
1589995768.392081,-0.08503508949337649,-4.612517544746688,8.555105268480128,0.4311111111111111,0.4511111111111111,-0.65,-0.0040963569392893,-0.001090830782496456,0.0019070400343929345
1589995768.402081,-0.09793293676775838,-4.618621957845172,8.60206706323224,0.4311111111111111,0.4511111111111111,-0.65,-0.00609402145435958,-0.0010156702423932634,0.0009405097022900709
1589995768.412081,-0.08040385606619953,-4.606935904044133,8.619596143933801,0.4311111111111111,0.4511111111111111,-0.65,-0.0022697692907345836,-0.0003782948817890974,-0.00033424101891826115
1589995768.422081,-0.08936726116096785,-4.6129115074406455,8.662278768601613,0.42680727529756274,0.4640226185517563,-0.6636288134095699,0.0007042134882343928,0.0007042134882343928,0.0003175961939723296
1589995768.432081,-0.09286305690629518,-4.598589170718886,8.672863056906294,0.4244444444444445,0.4711111111111111,-0.6711111111111111,-0.00046620866141128584,-0.00046620866141128584,-0.0012447283833651572
1589995768.442081,-0.07,-4.609300459579598,8.524896782942816,0.4244444444444445,0.4711111111111111,-0.6711111111111111,-0.0009382147376613834,-0.0001526160448350726,0.0020290455201578393
1589995768.452081,-0.07,-4.601400399306863,8.580197204851954,0.4244444444444445,0.4711111111111111,-0.6711111111111111,0.0007853110481537621,-0.001876141830650218,0.00030551973434269383
1589995768.462081,-0.07,-4.590511177716061,8.637444111419693,0.4244444444444445,0.4711111111111111,-0.6711111111111111,0.0052311105572799355,-0.002181661564992912,0.00207013988739174
1589995768.472081,-0.08542611941734496,-4.597713059708672,8.678565298543361,0.40387628522131785,0.4599700248652508,-0.6496859452536875,0.0029300610252463543,-0.0013402972692476032,0.002181661564992912
1589995768.482081,-0.08908536464231082,-4.573658541430757,8.65902437570773,0.3977777777777778,0.4566666666666666,-0.6433333333333333,-0.0013901445033745587,-0.003172721107196667,-9.977124029270086e-05
1589995768.492081,-0.08075292528358861,-4.606988298865645,8.559035103403064,0.3977777777777778,0.4566666666666666,-0.6433333333333333,-0.004116928907108325,-0.0022637929726187452,-0.0010086993748706227
1589995768.502081,-0.08,-4.612692694339347,8.59807808301804,0.3977777777777778,0.4566666666666666,-0.6433333333333333,-0.003922732049003815,-0.0009439670888357864,-0.0001468636936606696
1589995768.512081,-0.08,-4.628025260002559,8.644075780007677,0.3977777777777778,0.4566666666666666,-0.6433333333333333,-0.0014139468589918144,-0.00010770535883178616,-0.0009831254236646698
1589995768.522081,-0.06901017989664686,-4.61,8.670989820103353,0.4177777777777778,0.4511111111111111,-0.6788888888888889,-0.0017497710698443365,-0.0011988034062835999,0.0
1589995768.532081,-0.06086179430392043,-4.61,8.679138205696079,0.4177777777777778,0.4511111111111111,-0.6788888888888889,0.001805632863034309,-0.0020876543895032612,0.0
1589995768.5420809,-0.08696558139534884,-4.604643720930232,8.56696558139535,0.4177777777777778,0.4511111111111111,-0.6788888888888889,-0.003525768034290406,0.001090830782496456,-0.001090830782496456
1589995768.5520809,-0.10525783874951859,-4.617628919374759,8.595927701563102,0.4177777777777778,0.4511111111111111,-0.6788888888888889,-0.003716711196537447,0.0008321860091171052,-0.001090830782496456
1589995768.5620809,-0.08297706476845643,-4.606488532384228,8.62377866903943,0.4177777777777778,0.4511111111111111,-0.6788888888888889,-0.0006786419319888578,-0.0003830416967023306,-0.001090830782496456
1589995768.5720809,-0.07,-4.606676832755137,8.64,0.42222899961453586,0.4592716844785008,-0.6736957967460045,0.001090830782496456,-0.00036250131260804415,0.00036582815728036767
1589995768.5820808,-0.06221188922571032,-4.58147459281714,8.63410162873144,0.4244444444444445,0.4633333333333333,-0.6711111111111111,0.0007691245351795133,-0.0010104042206672203,-0.0021012350031636763
1589995768.5920808,-0.08807299509001637,-4.6009635024549915,8.561927004909984,0.4244444444444445,0.4633333333333333,-0.6711111111111111,-0.003062288720106172,-0.00010510181369159798,-0.001090830782496456
1589995768.6020808,-0.07434369885433716,-4.607828150572832,8.575656301145663,0.4244444444444445,0.4633333333333333,-0.6711111111111111,-0.0015646548245170113,-0.0008539187614861782,-0.001090830782496456
1589995768.6120808,-0.0789605925185162,-4.6279211850370325,8.633763555111098,0.4244444444444445,0.4633333333333333,-0.6711111111111111,-0.002068279797356948,-0.001090830782496456,-0.002068279797356948
1589995768.6220808,-0.09,-4.611205004614912,8.67,0.4044444444444445,0.4633333333333333,-0.6577777777777778,-0.001918770339593807,0.0027467098966911583,0.001918770339593807
1589995768.6320808,-0.09,-4.61980781458312,8.67,0.4044444444444445,0.4633333333333333,-0.6577777777777778,-4.1928353735993726e-05,-0.0010069740750244683,4.1928353735993726e-05
1589995768.6420808,-0.09,-4.590833609938831,8.553334439755323,0.4044444444444445,0.4633333333333333,-0.6577777777777778,0.0031815596093022194,0.001030208957038357,0.0010605198697674065
1589995768.6520808,-0.0888060263653484,-4.621193973634652,8.613581920903954,0.4044444444444445,0.4633333333333333,-0.6577777777777778,-0.0020514192455761975,-0.001090830782496456,-0.00013024231941671433
1589995768.6620808,-0.08193744370752477,-4.628062556292475,8.634187668877425,0.4044444444444445,0.4633333333333333,-0.6577777777777778,-0.0013021731060486638,-0.001090830782496456,-0.0008794884589442482
1589995768.6720808,-0.0990295732247211,-4.639029573224721,8.647088719674164,0.4244444444444445,0.4633333333333333,-0.6644444444444444,-0.0021287329950612616,-5.2928569931650246e-05,0.0
1589995768.6820807,-0.08417460598547902,-4.624174605985479,8.602523817956437,0.4244444444444445,0.4633333333333333,-0.6644444444444444,-0.0013185202181841792,-0.0008631413468087328,0.0
1589995768.6920807,-0.07,-4.610462111801242,8.570924223602484,0.4244444444444445,0.4633333333333333,-0.6644444444444444,-0.00025204288887495754,-0.000100817155549983,-0.0010404222047214644
1589995768.7020807,-0.07,-4.620544279170943,8.59163283751283,0.4244444444444445,0.4633333333333333,-0.6644444444444444,-0.00545415391248228,-0.002062918270205617,-0.00011874329478729479
1589995768.7120807,-0.07,-4.626969469507805,8.610908408523414,0.4244444444444445,0.4633333333333333,-0.6644444444444444,-0.00545415391248228,-0.0006611591896360969,-0.001520502375356815
1589995768.7220807,-0.07,-4.622023038156947,8.643930885529159,0.4031725461963043,0.4633333333333333,-0.6591264698824094,-0.004584002359562141,-0.0017403031058402783,-0.002181661564992912
1589995768.7320807,-0.08116295983483483,-4.627674080330331,8.639533361486487,0.3977777777777778,0.4633333333333333,-0.6577777777777778,0.0,0.0007102530665030063,-0.002054802326328429
1589995768.7420807,-0.09102623179014567,-4.607947536419709,8.562052463580292,0.3977777777777778,0.4633333333333333,-0.6577777777777778,-0.00011194452266673496,-0.002069717042326177,-0.0012027753051631908
1589995768.7520807,-0.09827787761278729,-4.591722122387212,8.586027428355244,0.3977777777777778,0.4633333333333333,-0.6577777777777778,-0.0009969035769365605,-0.0009969035769365605,-0.001993807153873121
1589995768.7620807,-0.08240991204010215,-4.607590087959898,8.641565307859643,0.3977777777777778,0.4633333333333333,-0.6577777777777778,-0.0001314403118226129,-0.0001314403118226129,-0.0002628806236452258
1589995768.7720807,-0.07107987346777384,-4.61,8.659460063266113,0.41,0.4777777777777778,-0.6577777777777778,5.889796099244407e-05,-5.889796099244407e-05,-0.00011779592198488814
1589995768.7820807,-0.08766468960063266,-4.61,8.651167655199684,0.41,0.4777777777777778,-0.6577777777777778,0.0009634593589807566,-0.0009634593589807566,-0.0019269187179615133
1589995768.7920806,-0.07098676515851032,-4.592960295475531,8.575920590951062,0.41,0.4777777777777778,-0.6577777777777778,0.0,0.0,0.0020740221839931077
1589995768.8020806,-0.07959310557094491,-4.618779316712835,8.62755863342567,0.41,0.4777777777777778,-0.6577777777777778,0.0,0.0,0.0011352160793404176
1589995768.8120806,-0.08,-4.603750152494815,8.638124923752594,0.41,0.4777777777777778,-0.6577777777777778,-0.0008862916934764422,0.0008862916934764422,0.0002045390890200138
1589995768.8220806,-0.0889195163613223,-4.601620725458016,8.657298790903306,0.4044444444444445,0.4511111111111111,-0.6644444444444444,-0.0020048678430349006,-0.0021227303243402415,-0.002063799083687571
1589995768.8320806,-0.07487155440935124,-4.622692668385973,8.622178886023377,0.4044444444444445,0.4511111111111111,-0.6644444444444444,0.00029372455624745476,-0.0013565328579127896,-0.0005314041508326674
