time,acc_x,acc_y,acc_z,mag_x,mag_y,mag_z,gyr_x,gyr_y,gyr_z
1589995373.4004185,-4.06,-0.77,8.87,0.3288888888888889,-0.31222222222222223,-0.6022222222222222,0.008726646259971648,-0.011999138607461015,0.0
1589995373.4104185,-4.088493928750627,-0.76,8.921506071249373,0.3288888888888889,-0.31222222222222223,-0.6022222222222222,0.008398072484081897,-0.004199036242040949,0.001090830782496456
1589995373.4204185,-4.080075865529353,-0.76,8.929924134470648,0.3288888888888889,-0.31222222222222223,-0.6022222222222222,0.006561535985928405,-0.0032807679929642035,0.001090830782496456
1589995373.4304185,-4.09941375186846,-0.7494137518684604,8.878827503736922,0.3144444444444445,-0.31222222222222223,-0.5733333333333334,0.0031445928458764803,-0.0046191221332115995,0.0001278995016128879
1589995373.4404185,-4.08654555968608,-0.7417272201569599,8.842727798430401,0.3144444444444445,-0.31222222222222223,-0.5733333333333334,0.001090830782496456,-0.009103467243043699,0.001993251073456886
1589995373.4504185,-4.072685832300702,-0.7486570838496489,8.773429161503511,0.3144444444444445,-0.31222222222222223,-0.5733333333333334,0.001090830782496456,-0.010615328969941636,0.0012373202100079172
1589995373.4604185,-4.077842993120347,-0.7789214965601734,8.80970653095844,0.3144444444444445,-0.31222222222222223,-0.5733333333333334,0.004363323129985824,-0.01090830782496456,0.0009731843073773396
1589995373.4704185,-4.062031853736688,-0.7710159268683442,8.880856658184904,0.3144444444444445,-0.31222222222222223,-0.5733333333333334,0.004363323129985824,-0.01090830782496456,0.0001108204300755047
1589995373.4804184,-4.061748966284987,-0.74,8.906121381997457,0.3288888888888889,-0.31777777777777777,-0.5788888888888889,0.0011862220955570855,-0.007254250225232674,0.002086270251932282
1589995373.4904184,-4.07842477735369,-0.74,8.964486720737915,0.3288888888888889,-0.31777777777777777,-0.5788888888888889,0.0020957464973988646,-0.0036161526178655574,0.0011767458500905033
1589995373.5004184,-4.09,-0.777259800153728,8.882740199846273,0.3288888888888889,-0.31777777777777777,-0.5788888888888889,0.007740622431981,-0.009279817365853307,0.00029890943425056615
1589995373.5104184,-4.09,-0.7626056879323597,8.897394312067641,0.3288888888888889,-0.31777777777777777,-0.5788888888888889,0.014134685112471373,-0.01807165355152757,0.001897425104373159
1589995373.5204184,-4.053356710232706,-0.7691608224418234,8.890839177558178,0.3288888888888889,-0.31777777777777777,-0.5788888888888889,0.01227375882119279,-0.028628570486208992,0.0011823708537403808
1589995373.5304184,-4.05,-0.7518354682340819,8.880917734117041,0.3288888888888889,-0.31777777777777777,-0.5738431856205783,0.010017695567471202,-0.021526658967445045,-0.0008906122574933596
1589995373.5404184,-4.071891856334693,-0.7490540718326536,8.845270359163267,0.3288888888888889,-0.31777777777777777,-0.5733333333333334,0.002756568566003411,-0.011895953851163824,-0.0011940155387936474
1589995373.5504184,-4.09,-0.7405308219178082,8.801238584474886,0.3288888888888889,-0.31777777777777777,-0.5733333333333334,-0.002104456646597044,-0.011062717661756295,-0.002143059105794978
1589995373.5604184,-4.087611411868838,-0.77,8.88074864659023,0.3288888888888889,-0.31777777777777777,-0.5733333333333334,0.0029633252030461968,-0.020937726815025016,0.0
1589995373.5704184,-4.07034416747288,-0.77,8.95845124637204,0.3288888888888889,-0.31777777777777777,-0.5733333333333334,0.00861401771784608,-0.03035554767302482,0.0
1589995373.5804183,-4.060717205248063,-0.77,8.978565589503873,0.3288888888888889,-0.323966307612402,-0.5609562736640848,0.010751837912573406,-0.03763143269400692,-0.0010125958263008787
1589995373.5904183,-4.011681750285564,-0.7422423337140849,8.924394165714787,0.3288888888888889,-0.3244444444444444,-0.56,0.011999138607461015,-0.03804690484989572,0.0011519809484952907
1589995373.6004183,-4.033793866971268,-0.7717251559616906,8.850687110095773,0.3288888888888889,-0.3244444444444444,-0.56,0.011999138607461015,-0.021966519818615922,0.0019560002000592806
1589995373.6104183,-4.040376378676471,-0.7407527573529412,8.911505514705883,0.3288888888888889,-0.3244444444444444,-0.56,0.005248871189397583,-0.005289927734014523,-0.001090830782496456
1589995373.6204183,-4.046801470588235,-0.7536029411764706,8.937205882352941,0.3288888888888889,-0.3244444444444444,-0.56,0.0017445271705366114,-0.002486452518925745,-0.001090830782496456
1589995373.6304183,-4.065215632449614,-0.7676078162248068,8.934784367550385,0.32297169849181695,-0.31007412490869835,-0.5743703195357461,-0.0016597680251190386,-0.00026094676993693665,0.001398821255182102
1589995373.6404183,-4.054727477136618,-0.777636261431691,8.868909908546472,0.3211111111111111,-0.3055555555555556,-0.5788888888888889,-0.0038476353715686936,-0.0024989607098636736,0.0013486746617050209
1589995373.6504183,-4.069040647819092,-0.78,8.83,0.3211111111111111,-0.3055555555555556,-0.5788888888888889,-0.004154024951947818,-0.009092918071538158,0.002077012475973909
1589995373.6604183,-4.054209056029986,-0.78,8.83,0.3211111111111111,-0.3055555555555556,-0.5788888888888889,-0.0009182735765522953,-0.014755482978480321,0.00045913678827614766
1589995373.6704183,-4.016257617028446,-0.7631288085142232,8.872177978714443,0.3211111111111111,-0.3055555555555556,-0.5788888888888889,0.002760542251511629,-0.015442280986942964,-0.0009201807505038762
1589995373.6804183,-4.033517392991077,-0.7521608690029743,8.927034785982155,0.3211111111111111,-0.3107816428869061,-0.5675656996709628,0.003272492347489368,-0.008430698635288138,0.0014745188373768852
1589995373.6904182,-4.05,-0.77,8.947695875915056,0.3211111111111111,-0.31222222222222223,-0.5644444444444444,0.0039159325532019855,-0.001734270988209074,0.00011184764419595949
1589995373.7004182,-4.051120011209453,-0.7666399663716401,8.84336003362836,0.3211111111111111,-0.31222222222222223,-0.5644444444444444,0.0,0.0016929644833878115,0.0008464822416939057
1589995373.7104182,-4.0592531167791375,-0.7422406496625872,8.874481299325174,0.3211111111111111,-0.31222222222222223,-0.5644444444444444,8.147232082468097e-05,-0.001855772281694188,-0.000927886140847094
1589995373.7204182,-4.0512575774905635,-0.7662272675283084,8.922454535056616,0.3211111111111111,-0.31222222222222223,-0.5644444444444444,0.0009536503586882833,0.0016329398697602212,0.0008164699348801106
1589995373.7304182,-4.05,-0.7610347075826397,8.94793058483472,0.30666666666666664,-0.31777777777777777,-0.5877777777777777,0.002708146906476434,0.0006393544296861087,0.001090830782496456
1589995373.7404182,-4.050112978646872,-0.7697740427062555,8.928305320296916,0.30666666666666664,-0.31777777777777777,-0.5877777777777777,-0.0021939856235702157,-0.0032108720546028496,0.0010785067239191522
1589995373.7504182,-4.056970668061868,-0.7560586638762631,8.825439979071973,0.30666666666666664,-0.31777777777777777,-0.5877777777777777,-0.002942043494638017,0.0005294173007361568,0.0003304488528513512
1589995373.7604182,-4.05058466363746,-0.7594153363625398,8.836492018175239,0.30666666666666664,-0.31777777777777777,-0.5877777777777777,-0.0012183846011260624,0.0011546076918112595,0.0010270538731816524
1589995373.7704182,-4.05,-0.7475364772517392,8.883622329618913,0.30666666666666664,-0.31777777777777777,-0.5877777777777777,-0.001090830782496456,-0.0009485083583256986,-0.00026872864471831365
1589995373.7804182,-4.056817915576555,-0.7331820844234449,8.91,0.3301505980970232,-0.3094447698508771,-0.5817174083763954,0.0011403268725140622,4.949609001760622e-05,0.0003966076541772228
1589995373.7904181,-4.06,-0.7653745341874973,8.895850186325001,0.3411111111111111,-0.3055555555555556,-0.5788888888888889,0.0006381563326650957,-0.0004526744498313602,0.00031907816633254787
1589995373.8004181,-4.040497382697249,-0.7598342057675835,8.870165794232415,0.3411111111111111,-0.3055555555555556,-0.5788888888888889,0.0011089161277244833,-7.234138091210912e-05,3.617069045605456e-05
1589995373.8104181,-4.064448843628058,-0.7518503854573142,8.878149614542686,0.3411111111111111,-0.3055555555555556,-0.5788888888888889,0.001979815823360704,-0.003555940163456992,0.001777970081728496
1589995373.8204181,-4.046998524722791,-0.7269985247227906,8.941337267405892,0.3411111111111111,-0.3055555555555556,-0.5788888888888889,0.0005089470799788346,-0.0010178941599576692,-0.0003274101625282042
1589995373.830418,-4.056615742535866,-0.7449236138037999,8.9350763861962,0.3244953685752445,-0.31109413640084443,-0.592735341002111,0.0009062481716079514,0.0009062481716079514,0.0007216655607194468
1589995373.840418,-4.050440576610827,-0.7595594233891727,8.924272504059244,0.3211111111111111,-0.31222222222222223,-0.5955555555555555,-0.0011388902354102933,0.0010427713295826186,0.0020855426591652373
1589995373.850418,-4.058745792245851,-0.7512542077541483,8.81630470080393,0.3211111111111111,-0.31222222222222223,-0.5955555555555555,-0.002044848722405835,0.00013681284258707676,0.0002736256851741535
1589995373.860418,-4.059755912961211,-0.749755912961211,8.860488174077577,0.3211111111111111,-0.31222222222222223,-0.5955555555555555,-0.0009843277202886656,-0.0011174565480484035,0.002128410033889017
1589995373.870418,-4.05181967833491,-0.7418196783349101,8.87636064333018,0.3211111111111111,-0.31222222222222223,-0.5955555555555555,0.002478507890704625,-0.001983165450796726,0.0003969922283923715
1589995373.880418,-4.05,-0.7686188986602137,8.92769816443369,0.34019037688458686,-0.31752201827040993,-0.6019153108133808,0.004313104868146289,-0.002181661564992912,0.0
1589995373.890418,-4.058812823254697,-0.7435615302359078,8.903561530235908,0.3411111111111111,-0.31777777777777777,-0.6022222222222222,0.003401993241293369,-0.0002590017876080012,-0.0009613298886924554
1589995373.900418,-4.06,-0.7605030798899103,8.865828200183483,0.3411111111111111,-0.31777777777777777,-0.6022222222222222,0.004018005370152642,0.0,0.0004001952628300922
1589995373.910418,-4.051846339239187,-0.7781536607608129,8.882614643043253,0.3411111111111111,-0.31777777777777777,-0.6022222222222222,0.004363323129985824,0.0,0.001980257197289277
1589995373.920418,-4.055678459611772,-0.7572861615529117,8.929749217282405,0.3411111111111111,-0.31777777777777777,-0.6022222222222222,0.004982746984154209,-0.0024776954166735405,0.0009428138566561417
1589995373.930418,-4.06,-0.7633112475102638,8.965827811877567,0.3294554873559792,-0.31454010451246334,-0.5886239945079017,0.007361300889676502,-0.00944904840250375,0.0
1589995373.940418,-4.033012352690615,-0.7440164702541531,8.86204941076246,0.3211111111111111,-0.31222222222222223,-0.5788888888888889,0.014614437546418656,-0.02192165631962798,-0.000981298547741168
1589995373.950418,-4.037834326044386,-0.74,8.802994043733682,0.3211111111111111,-0.31222222222222223,-0.5788888888888889,0.012707853752151261,-0.020343669229626455,-0.001090830782496456
1589995373.960418,-4.04634489184153,-0.7526897836830593,8.828069351049177,0.3211111111111111,-0.31222222222222223,-0.5788888888888889,0.009230657274520566,-0.016866472751995758,-0.0024750714489666812
1589995373.970418,-4.036866172025282,-0.7402992580379225,8.85656691398736,0.3211111111111111,-0.31222222222222223,-0.5788888888888889,0.009784833054500567,-0.018136987724317554,-0.0011234747704639923
1589995373.980418,-4.017374062165059,-0.7236870310825294,8.891564844587352,0.32602119804692153,-0.31572942717637253,-0.5894105037513397,0.010219669742552543,-0.016880401755288137,0.0
1589995373.990418,-4.038784318287576,-0.7391895455250505,8.92918954552505,0.3288888888888889,-0.31777777777777777,-0.5955555555555555,0.007724222346383893,-0.007945239518655646,0.0010466273480421054
1589995374.000418,-4.04,-0.7300874960614654,8.840787464553188,0.3288888888888889,-0.31777777777777777,-0.5955555555555555,0.0033106697063668223,-0.0065545290346980985,0.0021721172252735484
1589995374.010418,-4.058670079022988,-0.7766751975574713,8.90534527658046,0.3288888888888889,-0.31777777777777777,-0.5955555555555555,0.0053090820384810895,-0.0075632795404745965,0.001163366719497051
1589995374.020418,-4.037035778807635,-0.7493810384101799,8.92530948079491,0.3288888888888889,-0.31777777777777777,-0.5955555555555555,0.00545415391248228,-0.010140823414744123,-0.0014141771547724754
1589995374.030418,-4.010479552331066,-0.7497602238344666,8.9592806715034,0.32129760368430377,-0.31777777777777777,-0.5792885158314446,0.0022601281316747502,-0.014102333605772087,-0.002181661564992912
1589995374.040418,-4.0388577631486795,-0.75,8.921522982468426,0.3211111111111111,-0.31777777777777777,-0.5788888888888889,-0.0020155299492166695,-0.007885012901139556,0.0009662320706642744
1589995374.050418,-4.04,-0.7594791544195453,8.825208455804548,0.3211111111111111,-0.31777777777777777,-0.5788888888888889,-0.0011476462217051857,-0.001431723417748834,5.6815439208729706e-05
1589995374.060418,-4.04,-0.751465154249377,8.84560453725187,0.3211111111111111,-0.31777777777777777,-0.5788888888888889,-0.0001598235356325907,-0.0020218380293603212,0.0
1589995374.070418,-4.0450922086583345,-0.744907791341665,8.87036883463334,0.3211111111111111,-0.31777777777777777,-0.5788888888888889,0.001666421386622047,-0.0005152401783708649,0.0005554737955406824
1589995374.0804179,-4.043452014889141,-0.74,8.903095970221719,0.3251126575677474,-0.3199604394813976,-0.574159788531046,0.0025582179752639818,0.00037655641027106983,0.00037655641027106983
1589995374.0904179,-4.03,-0.7663510841283608,8.93,0.3333333333333333,-0.3244444444444444,-0.5644444444444444,0.0020489832398087812,-0.00013267832518413093,-0.00013267832518413093
1589995374.1004179,-4.02234612397698,-0.7546922479539616,8.853461239769809,0.3333333333333333,-0.3244444444444444,-0.5644444444444444,0.003016569922124999,-0.0016698167142641738,0.0
1589995374.1104178,-4.034232257455644,-0.7357677425443564,8.879812901094754,0.3333333333333333,-0.3244444444444444,-0.5644444444444444,0.0024962431206378296,-0.0014054123381413734,-0.0007762492268515385
1589995374.1204178,-4.047099856665074,-0.7512995699952222,8.93549928332537,0.3333333333333333,-0.3244444444444444,-0.5644444444444444,-0.0001417610954797116,0.0012325918779761676,-0.001090830782496456
1589995374.1304178,-4.038143772128735,-0.76,8.967784341806897,0.3333333333333333,-0.3290551997277143,-0.5697138790538958,-0.002384144615123336,0.0034749753976197916,-0.002384144615123336
1589995374.1404178,-4.04723689491852,-0.7427631050814802,8.91967086778518,0.3333333333333333,-0.3322222222222222,-0.5733333333333334,-0.003272492347489368,-0.00033731076295868533,-0.002332365568900466
1589995374.1504178,-4.043493485204401,-0.74,8.857947881635205,0.3333333333333333,-0.3322222222222222,-0.5733333333333334,-0.002562741684908528,0.0010384212052460646,-0.002181661564992912
1589995374.1604178,-4.04,-0.7643078622581136,8.870513103763523,0.3333333333333333,-0.3322222222222222,-0.5733333333333334,-0.002181661564992912,-0.00046991487579050835,0.00046991487579050835
1589995374.1704178,-4.032922817699657,-0.7558456353993145,8.88,0.3333333333333333,-0.3322222222222222,-0.5733333333333334,-0.0029536623956482053,-0.002634832443807043,0.0018628316131517493
1589995374.1804178,-4.03813328861925,-0.75,8.936933020334745,0.3233926472431396,-0.3159556449837234,-0.5950221029846651,-0.0006108798708477606,0.0011635284469133107,0.002181661564992912
1589995374.1904178,-4.022950164215336,-0.7244252463230044,8.924425246323004,0.3211111111111111,-0.31222222222222223,-0.6,0.0009299242855210398,0.002181661564992912,0.001251737279471872
1589995374.2004178,-4.028369822277378,-0.7451094668321352,8.844671599503595,0.3211111111111111,-0.31222222222222223,-0.6,0.00017782480407755935,0.004007673521830705,-0.0016481871527602341
1589995374.2104177,-4.023828225621482,-0.7376564512429648,8.879374195028142,0.3211111111111111,-0.31222222222222223,-0.6,-0.000673236147470995,0.003690086982514829,-0.00016195312257992695
1589995374.2204177,-4.035984577323928,-0.7406563848826192,8.931312769765238,0.3211111111111111,-0.31222222222222223,-0.6,0.0006528161165171838,0.0003664141824666349,0.0005096151494919093
1589995374.2304177,-4.043326713008938,-0.75,8.95,0.32926735076685426,-0.31222222222222223,-0.5918437603442568,0.002181661564992912,2.1664960923465162e-06,-0.0007279426870284195
1589995374.2404177,-4.04,-0.75,8.965731206569805,0.3333333333333333,-0.31222222222222223,-0.5877777777777777,-0.00039235109083001884,-0.0006251776547188312,0.0006251776547188312
1589995374.2504177,-4.0318913866653885,-0.7581086133346115,8.86458802665005,0.3333333333333333,-0.31222222222222223,-0.5877777777777777,-0.0019753432853720034,-0.001090830782496456,0.0002063182796209086
1589995374.2604177,-4.01700070625513,-0.7470007062551299,8.872498234362176,0.3333333333333333,-0.31222222222222223,-0.5877777777777777,-0.002181661564992912,0.0010361736826462358,0.0007090014883808971
1589995374.2704177,-4.033300922955432,-0.7516504614777159,8.895825230738858,0.3333333333333333,-0.31222222222222223,-0.5877777777777777,0.0003600748370433983,0.002181661564992912,0.0004553966819873784
1589995374.2804177,-4.034376326632539,-0.7287526532650768,8.915623673367461,0.3237855329421068,-0.31222222222222223,-0.5660782314340811,0.0004773831805031936,0.0030338007572377713,0.0017042783844897183
1589995374.2904177,-4.037373720316623,-0.7347474406332454,8.905252559366755,0.3211111111111111,-0.31222222222222223,-0.56,0.002413044330867464,0.0016637961269110586,0.0005729653444146027
1589995374.3004177,-4.04,-0.74,8.859417418966554,0.3211111111111111,-0.31222222222222223,-0.56,0.0016124150240729147,0.001090830782496456,0.0016600773234164534
1589995374.3104177,-4.04,-0.7449127541589649,8.839651016635859,0.3211111111111111,-0.31222222222222223,-0.56,0.0010717966926872757,0.001090830782496456,0.0022006956548020922
1589995374.3204176,-4.04,-0.7593022181146026,8.911162199630315,0.3211111111111111,-0.31222222222222223,-0.56,0.0026890188582381442,0.0005834734892512236,0.0005834734892512236
1589995374.3304176,-4.043714831268023,-0.7625703374639545,8.97,0.32400042431957327,-0.3167625715498056,-0.5703189757445076,0.0016515914279135416,0.0004052252298939566,0.0
1589995374.3404176,-4.028925626581762,-0.7447314066454405,8.985805780063679,0.3288888888888889,-0.3244444444444444,-0.5877777777777777,5.859797982550965e-05,0.001090830782496456,0.0011494287623219656
1589995374.3504176,-4.024211802136202,-0.7471059010681009,8.928940989318992,0.3288888888888889,-0.3244444444444444,-0.5877777777777777,0.0018659643447423468,0.001090830782496456,0.0029567951272388027
1589995374.3604176,-4.041648922622383,-0.7441755386888085,8.888351077377617,0.3288888888888889,-0.3244444444444444,-0.5877777777777777,0.0009109612270514441,0.001090830782496456,0.0007310916716064325
1589995374.3704176,-4.045206364992541,-0.730412729985082,8.903968175037296,0.3288888888888889,-0.3244444444444444,-0.5877777777777777,0.0005229044626188879,0.0016137352451153439,-0.0005679263198775681
1589995374.3804176,-4.044905800641447,-0.7298116012828955,8.920188398717105,0.3250732661677629,-0.3211739106834793,-0.5877777777777777,0.001090830782496456,4.1102224000100045e-05,-0.000535139835248203
1589995374.3904176,-4.05,-0.7260099711770662,8.882019942354132,0.3211111111111111,-0.31777777777777777,-0.5877777777777777,0.00032779307809301854,-0.003707736973799787,0.0011982823307138564
1589995374.4004176,-4.05,-0.7328396728936905,8.844320654212618,0.3211111111111111,-0.31777777777777777,-0.5877777777777777,-0.0014005910429622888,-0.002962732087023535,0.0014813660435117676
1589995374.4104176,-4.035330081196444,-0.732665040598222,8.874009756410668,0.3211111111111111,-0.31777777777777777,-0.5877777777777777,0.00021869828615345057,-0.0005814216642286703,0.00029071083211433513
1589995374.4204175,-4.04282805171033,-0.7428280517103306,8.922070129275827,0.3211111111111111,-0.31777777777777777,-0.5877777777777777,0.002490154151004952,0.0,0.0027986467370169914
1589995374.4304175,-4.035524619908653,-0.75,8.961713070137021,0.31628598441399547,-0.3226029044748934,-0.5813442755149568,0.0001144543090938221,0.001579019019197773,0.000415775581991391
1589995374.4404175,-4.037333835352484,-0.7353323292950322,8.955332329295032,0.3144444444444445,-0.3244444444444444,-0.5788888888888889,-0.001090830782496456,0.0013816642293678948,-0.001090830782496456
1589995374.4504175,-4.033020189053565,-0.7509394328393044,8.887181701482087,0.3144444444444445,-0.3244444444444444,-0.5788888888888889,-0.002613589309771822,-0.00043192774477890947,0.00043192774477890947
1589995374.4604175,-4.03,-0.752945883497507,8.888216466009972,0.3144444444444445,-0.3244444444444444,-0.5788888888888889,-0.0009640381202186848,-0.001090830782496456,0.001090830782496456
1589995374.4704175,-4.039506827923578,-0.7547534139617891,8.895246586038212,0.3144444444444445,-0.3244444444444444,-0.5788888888888889,-0.0010370340542936016,-0.0005723137553496552,0.0016093478096432566
1589995374.4804175,-4.042767305687014,-0.7563836528435068,8.911698082938958,0.3168553425487733,-0.32203354634011566,-0.5821034196946605,-0.002181661564992912,-0.0011834468395488743,0.0013926970052936625
1589995374.4904175,-4.025253328469816,-0.7547466715301843,8.935759985409447,0.3211111111111111,-0.31777777777777777,-0.5877777777777777,-0.0011460984810880144,-0.0022369292635844706,-0.0005177815419524488
1589995374.5004175,-4.029077656487495,-0.737305858781263,8.892767030537515,0.3211111111111111,-0.31777777777777777,-0.5877777777777777,0.0004951093564744001,-0.0005957214260220559,0.00039449728692674446
1589995374.5104175,-4.044529681948176,-0.7190593638963515,8.89170777363723,0.3211111111111111,-0.31777777777777777,-0.5877777777777777,0.0001026074816987306,0.0009882233007977254,0.0031698848657906375
1589995374.5204175,-4.046808582582767,-0.7331914174172328,8.93,0.3211111111111111,-0.31777777777777777,-0.5877777777777777,-0.0007427011466451693,0.0028779208366954854,0.004015193494134537
1589995374.5304174,-4.0359683069903864,-0.7319366139807724,8.925968306990386,0.32424687234081073,-0.31777777777777777,-0.584194050658121,-0.0017591579361850129,0.0034837441618933173,0.0019531238953506083
1589995374.5404174,-4.035006534912274,-0.7500392094736426,8.925006534912274,0.3288888888888889,-0.31777777777777777,-0.5788888888888889,-0.0038171948903906834,0.0054584310025637545,0.0005461282395951404
1589995374.5504174,-4.026284044418468,-0.7457101110461718,8.86827819988311,0.3288888888888889,-0.31777777777777777,-0.5788888888888889,-0.004020581675473788,0.009474735587956067,0.0018389201104808753
1589995374.5604174,-4.026866207361727,-0.7437324147234534,8.867464829446908,0.3288888888888889,-0.31777777777777777,-0.5788888888888889,-0.008857245339491001,0.013562412217055751,0.000683687495157853
1589995374.5704174,-4.042035773710483,-0.7259284525790349,8.916107321131447,0.3288888888888889,-0.31777777777777777,-0.5788888888888889,-0.012877656693147947,0.01986677831404496,0.001312899245455593
1589995374.5804174,-4.05,-0.7349973957619452,8.958748046821459,0.3288888888888889,-0.3143059172552854,-0.5754170283663965,-0.013499101952969519,0.029042730407785246,0.002181661564992912
1589995374.5904174,-4.05,-0.7557844321182225,8.958431135763554,0.3288888888888889,-0.31222222222222223,-0.5733333333333334,-0.01308996938995747,0.0295700051679845,0.0009196942422292408
1589995374.6004174,-4.05,-0.76,8.872485126113796,0.3288888888888889,-0.31222222222222223,-0.5733333333333334,-0.010488258296529707,0.024018630695626694,0.0013008555467138821
1589995374.6104174,-4.055098486534609,-0.7650984865346094,8.855689405742266,0.3288888888888889,-0.31222222222222223,-0.5733333333333334,-0.008170487654362088,0.02126045704431956,0.0005131857481642296
1589995374.6204174,-4.057462840323767,-0.7623885209713024,8.895074319352466,0.3288888888888889,-0.31222222222222223,-0.5733333333333334,-0.00791257666496951,0.020449023679938345,-0.0005373084075078203
1589995374.6304173,-4.050604365955359,-0.741813097866078,8.908791268089281,0.3288888888888889,-0.31222222222222223,-0.5733333333333334,-0.008660720161171764,0.019700880183736093,0.0009589785848966878
1589995374.6404173,-4.064274956142228,-0.74,8.928549912284454,0.3211111111111111,-0.31222222222222223,-0.5733333333333334,-0.006544984694978735,0.015892029002143183,-0.00015407267181638778
1589995374.6504173,-4.05,-0.7465779992334227,8.880266002299733,0.3211111111111111,-0.31222222222222223,-0.5733333333333334,-0.0061862104924259535,0.011640364404908232,0.0014641131598873475
1589995374.6604173,-4.05,-0.76,8.861234400528383,0.3211111111111111,-0.31222222222222223,-0.5733333333333334,-0.006843942177135445,0.009518519560311394,0.0
1589995374.6704173,-4.05,-0.7623271665043817,8.892327166504382,0.3211111111111111,-0.31222222222222223,-0.5733333333333334,-0.00796508280227938,0.005858834076193234,0.0002538544858974226
1589995374.6804173,-4.052561344470484,-0.77,8.910245377881939,0.3194035481307881,-0.31222222222222223,-0.5770330531240332,-0.004615955894587792,0.0,0.0013702301217946187
1589995374.6904173,-4.058272975497593,-0.7682729754975929,8.941727024502407,0.3144444444444445,-0.31222222222222223,-0.5877777777777777,-0.00199327241605778,0.0,0.002181661564992912
1589995374.7004173,-4.054109940249864,-0.7558900597501358,8.896570776751766,0.3144444444444445,-0.31222222222222223,-0.5877777777777777,-0.0019874806502510663,0.0,0.001285011697238302
1589995374.7104173,-4.06,-0.75459541511772,8.8429770755886,0.3144444444444445,-0.31222222222222223,-0.5877777777777777,-0.001768646266861819,0.0,0.0
1589995374.7204173,-4.064898812142543,-0.76,8.894494060712715,0.3144444444444445,-0.31222222222222223,-0.5877777777777777,0.001603132524825962,0.001603132524825962,0.0
1589995374.7304173,-4.059729712839421,-0.7754054307408681,8.940540574321158,0.3104504438819972,-0.3150750797668274,-0.5803603481618043,0.0010318632715218953,0.0027123350784975,0.0
1589995374.7404172,-4.05,-0.7714428782512841,8.941442878251284,0.30666666666666664,-0.31777777777777777,-0.5733333333333334,-0.00041607479456199693,0.00015739360118953482,0.0
1589995374.7504172,-4.05,-0.7715198277408936,8.883920689036426,0.30666666666666664,-0.31777777777777777,-0.5733333333333334,0.001256618270882334,-0.001090830782496456,0.0
1589995374.7604172,-4.045618379262471,-0.7756183792624712,8.876289724425172,0.30666666666666664,-0.31777777777777777,-0.5733333333333334,0.0012257402094486719,-0.0006128701047243359,-0.0004779606777721201
1589995374.7704172,-4.04,-0.77,8.911940233122115,0.30666666666666664,-0.31777777777777777,-0.5733333333333334,0.0,0.00021164660148225846,-0.0008791841810141975
1589995374.7804172,-4.04,-0.77,8.918502542439176,0.30666666666666664,-0.31777777777777777,-0.5733333333333334,0.0,0.0009274835022136807,-0.00016334728028277528
1589995374.7904172,-4.05,-0.7566281149397878,8.91895314176702,0.3288888888888889,-0.31777777777777777,-0.5788888888888889,0.0008498257222882846,-0.0006088206620801133,-0.001090830782496456
1589995374.8004172,-4.053640152910832,-0.7727196941783345,8.847238623802506,0.3288888888888889,-0.31777777777777777,-0.5788888888888889,0.0007941581696260814,0.001090830782496456,-0.00029667261287037456
1589995374.8104172,-4.06,-0.7570651260934587,8.801739495626165,0.3288888888888889,-0.31777777777777777,-0.5788888888888889,0.0015413714049927387,0.00045054062249628274,0.0007706857024963694
1589995374.8204172,-4.057848692942466,-0.7521513070575336,8.855815684690404,0.3288888888888889,-0.31777777777777777,-0.5788888888888889,0.00023467119609595405,-0.00132550197859241,-0.0004693423921919081
1589995374.8304172,-4.052649781596592,-0.7573502184034082,8.95,0.3288888888888889,-0.31777777777777777,-0.5750614265827007,0.0016689234489874506,-0.0016035688985019175,-0.002181661564992912
1589995374.8404171,-4.059606443414561,-0.7503935565854388,8.95,0.3288888888888889,-0.31777777777777777,-0.5644444444444444,0.003272492347489368,0.0,-0.002181661564992912
1589995374.8504171,-4.043518389176029,-0.76,8.930555167528087,0.3288888888888889,-0.31777777777777777,-0.5644444444444444,0.002565458286794413,0.00141406812138991,-0.0011211104739504794
1589995374.8604171,-4.036147753236862,-0.7630738766184311,8.896147753236862,0.3288888888888889,-0.31777777777777777,-0.5644444444444444,0.001761446629892602,0.00503393897738197,0.0007555228587983831
1589995374.870417,-4.05,-0.77,8.92175834873284,0.3288888888888889,-0.31777777777777777,-0.5644444444444444,0.0011347642226375901,0.005689893445038024,-0.00042754562497035556
1589995374.880417,-4.0520278076570655,-0.77,8.942027807657064,0.3288888888888889,-0.31529934619692,-0.5707531793775369,-0.00196046206366201,0.005469320636640332,-0.0006484317798346528
1589995374.890417,-4.06,-0.7661576734407849,8.919261387526278,0.3288888888888889,-0.3055555555555556,-0.5955555555555555,-0.0002525651650573434,0.007302680190150767,0.0006716979737768997
1589995374.900417,-4.057430127453576,-0.7625698725464242,8.85201089217503,0.3288888888888889,-0.3055555555555556,-0.5955555555555555,0.0005301715663500608,0.002711833131342973,0.0
1589995374.910417,-4.05,-0.775329747818812,8.821318991275248,0.3288888888888889,-0.3055555555555556,-0.5955555555555555,-0.002253601379237151,0.001672216080866803,0.0
1589995374.920417,-4.054018401607002,-0.7679447951789942,8.852055204821005,0.3288888888888889,-0.3055555555555556,-0.5955555555555555,-0.0010807942628138986,0.001304982331122724,0.00043833961693509393
1589995374.930417,-4.06,-0.751809794628752,8.884478357030016,0.3240627698788836,-0.30776752676847463,-0.5979686150605582,0.001589407657681092,0.0,0.001288248751600396
1589995374.940417,-4.058095060229713,-0.7580950602297133,8.948095060229713,0.3022222222222222,-0.31777777777777777,-0.6088888888888889,-0.0009869324354849344,0.00020779669402304325,0.001973864870969869
1589995374.950417,-4.043300269127259,-0.7499008073817762,8.910198385236447,0.3022222222222222,-0.31777777777777777,-0.6088888888888889,0.0007200070309073108,0.0018216580495392565,0.0003600035154536554
1589995374.960417,-4.05,-0.7646072476625947,8.886178257012215,0.3022222222222222,-0.31777777777777777,-0.6088888888888889,0.0018875325523918405,0.001090830782496456,0.0007967017698953847
1589995374.970417,-4.05,-0.7502951614003959,8.929114515798812,0.3022222222222222,-0.31777777777777777,-0.6088888888888889,0.001106929339564282,0.001090830782496456,1.6098557067826093e-05
1589995374.980417,-4.05219968649029,-0.7578003135097092,8.944399372980582,0.3080880528629977,-0.31777777777777777,-0.604245106298275,0.0008508822089513768,-0.0008508822089513768,0.0025526466268541307
1589995374.990417,-4.06,-0.75,8.945758313057583,0.3288888888888889,-0.31777777777777777,-0.5877777777777777,-0.0003883817627866538,0.0011651452883599616,0.0003883817627866538
1589995375.000417,-4.056946077255278,-0.75,8.88335292706334,0.3288888888888889,-0.31777777777777777,-0.5877777777777777,-0.000424568195034759,0.002606229760027671,0.0014239620762273044
1589995375.010417,-4.059319241837849,-0.7546596209189242,8.827957725513546,0.3288888888888889,-0.31777777777777777,-0.5877777777777777,0.0005825449891837529,0.0005825449891837529,0.0011650899783675057
1589995375.020417,-4.066199437836228,-0.7523988756724559,8.882803372982632,0.3288888888888889,-0.31777777777777777,-0.5877777777777777,0.00041457701990339237,0.0008291540398067847,0.00041457701990339237
1589995375.030417,-4.062452798046619,-0.7473583941398597,8.92490559609324,0.3269811570748512,-0.3164151121963223,-0.5877777777777777,0.000823272021246438,0.002181661564992912,0.000823272021246438
1589995375.040417,-4.064546067814664,-0.77,8.942726966092668,0.3211111111111111,-0.31222222222222223,-0.5877777777777777,-0.0002974658556706561,0.002776593276334224,0.0005949317113413122
1589995375.050417,-4.05,-0.7703848433363626,8.94576672330001,0.3211111111111111,-0.31222222222222223,-0.5877777777777777,-0.001090830782496456,0.004195403546888657,0.0019717620861214535
1589995375.060417,-4.05359824256667,-0.7728035148666599,8.85439297026668,0.3211111111111111,-0.31222222222222223,-0.5877777777777777,-0.0006983234070351788,0.00039250737546127714,-0.0017024628456442596
1589995375.070417,-4.055239461883408,-0.7623802690582959,8.889521076233184,0.3211111111111111,-0.31222222222222223,-0.5877777777777777,0.0007789412278239267,0.00031188955467252924,0.001350477858437765
1589995375.080417,-4.043486202365309,-0.77,8.923486202365309,0.32246685647539786,-0.315708424587531,-0.5891335231420645,0.002702063819375748,-0.001611233036879292,0.001991518722288372
1589995375.090417,-4.06,-0.7685856699896643,8.932928349948321,0.3288888888888889,-0.3322222222222222,-0.5955555555555555,-0.0006171178847531046,0.0015536691960612845,0.0009365513113081798
1589995375.100417,-4.047879634712311,-0.747879634712311,8.841518538849245,0.3288888888888889,-0.3322222222222222,-0.5955555555555555,-0.004363323129985824,0.004363323129985824,0.0
1589995375.110417,-4.009358238642859,-0.73,8.786513409085712,0.3288888888888889,-0.3322222222222222,-0.5955555555555555,-0.010217656990247846,0.017422990972108792,0.0009006667477326187
1589995375.1204169,-3.9933235010958845,-0.7266691247260287,8.819992625821914,0.3288888888888889,-0.3322222222222222,-0.5955555555555555,-0.02326757096839508,0.04835104817949698,0.002545003693143322
1589995375.1304169,-4.028481443547415,-0.7313085913965538,8.85696288709483,0.3248052308845778,-0.3265679265239453,-0.5933566627840033,-0.03611725736545343,0.08202908813873827,0.003272492347489368
1589995375.1404169,-4.076002622305991,-0.7637146603294273,8.907429320658855,0.3144444444444445,-0.31222222222222223,-0.5877777777777777,-0.048370921332826534,0.10796140778674584,0.0016516660139463263
1589995375.1504169,-4.148360071942446,-0.7720257194244604,8.91594856115108,0.3144444444444445,-0.31222222222222223,-0.5877777777777777,-0.05432056741433255,0.10968988230129725,-0.0015327742034769447
1589995375.1604168,-4.253971942446043,-0.7795694244604316,8.900861151079138,0.3144444444444445,-0.31222222222222223,-0.5877777777777777,-0.05349767684760144,0.09570074266686865,-0.003178555336939134
1589995375.1704168,-4.123532466317365,-0.8135324663173652,8.919220777195608,0.3144444444444445,-0.31222222222222223,-0.5877777777777777,-0.0357424157559471,0.03854457578157976,-0.00412815696905747
1589995375.1804168,-4.103910928143712,-0.7939109281437126,8.886518213572854,0.3144444444444445,-0.31222222222222223,-0.5877777777777777,-0.025040526836072274,0.026415768339054953,-0.0034146977077324815
1589995375.1904168,-4.118712367011243,-0.8174247340224854,8.92484946804497,0.3211111111111111,-0.31777777777777777,-0.5877777777777777,-0.027411228532480833,0.028642518285046718,-0.003661028279638656
1589995375.2004168,-4.110800384818532,-0.8016007696370634,8.893201539274127,0.3211111111111111,-0.31777777777777777,-0.5877777777777777,-0.028274291905118133,0.030368645030321335,0.0006542885835478717
1589995375.2104168,-4.112868258085005,-0.7764341290425025,8.912170645212512,0.3211111111111111,-0.31777777777777777,-0.5877777777777777,-0.026995940021063647,0.025905109238567182,-0.0007018546018116191
1589995375.2204168,-4.1189579494361315,-0.7869939927765903,8.98,0.3211111111111111,-0.31777777777777777,-0.5877777777777777,-0.018209665917056864,0.01875835774041143,-0.0011979480014822968
1589995375.2304168,-4.07,-0.7773252252453665,8.980891591584879,0.3222008341592951,-0.3172824491195123,-0.5856973974130628,-0.009622961933228199,0.014180800172453925,0.0007018005640166451
1589995375.2404168,-4.071251735628993,-0.75,8.988748264371008,0.3333333333333333,-0.31222222222222223,-0.5644444444444444,-0.007817873044895457,0.014135285780598859,-0.0033180067393444343
1589995375.2504168,-4.097418617212819,-0.7396744688512783,8.923860640979475,0.3333333333333333,-0.31222222222222223,-0.5644444444444444,-0.012280723788027303,0.013934724931656338,-0.0012658861437566454
1589995375.2604167,-4.086434131514567,-0.7091771072725924,8.821645785454816,0.3333333333333333,-0.31222222222222223,-0.5644444444444444,-0.01297028449425766,0.01627269806567198,0.008443688523448917
1589995375.2704167,-3.8967142166344293,-0.6578499758220503,8.88316428916828,0.3333333333333333,-0.31222222222222223,-0.5644444444444444,-0.0076911350511281494,0.011364117375218306,0.055037107558166806
1589995375.2804167,-3.6717239538143227,-0.5805746512714409,8.895350063405193,0.33541391354646377,-0.31549170541428434,-0.5683083791259724,-0.00545415391248228,0.005009609244663862,0.11073588746170157
1589995375.2904167,-3.43,-0.5,8.91,0.3411111111111111,-0.3244444444444444,-0.5788888888888889,-0.00545415391248228,-0.002181661564992912,0.15707963267948966
1589995375.3004167,-3.0709843869002285,-0.6544602056359482,8.86825399847677,0.3411111111111111,-0.3244444444444444,-0.5788888888888889,0.0036534107890542006,-0.004003174505300208,0.2317616632320888
1589995375.3104167,-2.511335284521639,-0.7400995585836292,8.730383600422224,0.3411111111111111,-0.3244444444444444,-0.5788888888888889,0.019105030772740804,-0.0019740363028221295,0.3464890623108686
1589995375.3204167,-2.43,-0.56,8.62,0.3411111111111111,-0.3244444444444444,-0.5788888888888889,0.022907446432425576,0.004363323129985824,0.3610649890063269
1589995375.3304167,-2.195279852838908,-1.2414455885322027,9.119726764923614,0.3411111111111111,-0.3244444444444444,-0.5788888888888889,0.002259062416666114,-0.01628506088577364,0.363542795088218
1589995375.3404167,-2.1555531030901065,-1.095720592054012,8.758893793819787,0.3144444444444445,-0.31777777777777777,-0.5955555555555555,0.04988447631126159,0.017453292519943295,0.35140472076268653
1589995375.3504167,-2.2100103869124905,-0.9556875765107393,8.64997922617502,0.3144444444444445,-0.31777777777777777,-0.5955555555555555,0.03630649196278101,0.017453292519943295,0.32085425597860523
1589995375.3604167,-2.4094794377928164,-0.8934200937011973,8.837992365087628,0.3144444444444445,-0.31777777777777777,-0.5955555555555555,-0.021204289156544417,-0.02873467469373668,0.24571270958592561
1589995375.3704166,-2.5523617420390083,-0.8581912898049585,9.046935611453884,0.3144444444444445,-0.31777777777777777,-0.5955555555555555,-0.015951541957966855,-0.021027416946982555,0.19316506047767928
1589995375.3804166,-2.566313382805991,-0.8121082714925113,8.930529925791014,0.31251535525372504,-0.31777777777777777,-0.5920481206633383,0.005511959849009915,-0.0035024690916784736,0.14887323984826675
1589995375.3904166,-2.59882040650249,-0.7714744918718878,8.881769390246266,0.3025826535686837,-0.31777777777777777,-0.5739886630541724,0.00019301053468752122,0.0009299886702568549,0.10100269601936517
1589995375.4004166,-2.646995756766352,-0.7646638378442344,8.822689297246123,0.3022222222222222,-0.31777777777777777,-0.5733333333333334,-0.005018747329459883,-0.002073967081707545,0.023352110315209826
1589995375.4104166,-2.6682675434889185,-0.7788450289926124,8.709239768059101,0.3022222222222222,-0.31777777777777777,-0.5733333333333334,-0.0003779633783248075,0.004887208844995068,-0.01841494524500585
1589995375.4204166,-2.682125502356229,-0.7757489952875416,8.738502009424916,0.3022222222222222,-0.31777777777777777,-0.5733333333333334,0.010212738805431486,0.011999138607461015,-0.10055072488757022
1589995375.4304166,-2.69,-0.7632576495809784,8.783030598323913,0.305600525491385,-0.3185016999068841,-0.5749018312797304,0.00810962140301091,0.012236041570228874,-0.16103268069642
1589995375.4404166,-2.6966498509516166,-0.7866750745241917,8.896649850951617,0.3333333333333333,-0.3244444444444444,-0.5877777777777777,0.013087217925016527,0.016356958807564947,-0.24356017683880166
1589995375.4504166,-2.7018568890392993,-0.7772856296797666,8.893713778078599,0.3333333333333333,-0.3244444444444444,-0.5877777777777777,0.015271630954950384,0.021614060477554306,-0.30940695969669285
1589995375.4604166,-2.696397035597133,-0.7736437856882518,8.875506499817762,0.3333333333333333,-0.3244444444444444,-0.5877777777777777,0.015271630954950384,0.02558817865234804,-0.37537410194316095
1589995375.4704165,-2.768300795668936,-0.7933984086621279,8.983203182675744,0.3333333333333333,-0.3244444444444444,-0.5877777777777777,0.016013048710980703,0.033837050108939164,-0.4520235527595796
1589995375.4804165,-2.758502749218159,-0.8105989003127364,8.950598900312736,0.33320024437494744,-0.3244444444444444,-0.5877777777777777,0.01960228914009723,0.03936790300438935,-0.5149443489672237
1589995375.4904165,-2.715636408233346,-0.8277454367066615,8.967745436706663,0.3293899029540752,-0.3244444444444444,-0.5877777777777777,0.01866709065451276,0.042173498461142746,-0.5794730444725519
1589995375.5004165,-2.7172622156655573,-0.822737784334443,8.962737784334443,0.3288888888888889,-0.3244444444444444,-0.5877777777777777,0.01854412330243975,0.044918955036497024,-0.640241991186565
1589995375.5104165,-2.7798705387145835,-0.8698921155954865,8.740474691379859,0.3288888888888889,-0.3244444444444444,-0.5877777777777777,0.021809554632165443,0.057788141073845355,-0.7339690668841382
1589995375.5204165,-2.736014003150709,-0.8773309994748818,8.747330999474881,0.3288888888888889,-0.3244444444444444,-0.5877777777777777,0.029813495543595595,0.06261215940851204,-0.7869085239183136
1589995375.5304165,-2.8018695101685527,-0.8809347550842763,8.76155792514046,0.32926971503433483,-0.3246867883551827,-0.588020121688516,0.029554397089406683,0.06674460965628855,-0.8814528618561956
1589995375.5404165,-2.8516554562000476,-0.9058277281000238,8.80304621350004,0.33941129663334296,-0.3311405221000061,-0.5944738554333394,0.03226979921274978,0.07217541390297474,-0.9411917085697437
1589995375.5504165,-2.8974794000458934,-0.9750411999082128,8.81,0.3411111111111111,-0.3322222222222222,-0.5955555555555555,0.03927889659549534,0.07636714320037485,-1.0410713361136157
1589995375.5604165,-2.888535382691105,-0.9929292346177899,8.823181555780055,0.3411111111111111,-0.3322222222222222,-0.5955555555555555,0.04286193044638573,0.07963064712224129,-1.1044879975372237
1589995375.5704165,-2.8893006892295032,-1.012657339779858,8.906643349449645,0.3411111111111111,-0.3322222222222222,-0.5955555555555555,0.044289255877641466,0.08050025953166774,-1.1735584643989085
1589995375.5804164,-2.9497062030655283,-1.0299160580187223,8.949790145046805,0.3411111111111111,-0.3322222222222222,-0.5955555555555555,0.04146530470943354,0.0861481618680836,-1.2290961707069976
1589995375.5904164,-2.92388083311363,-1.0658212496704456,8.91,0.3555555555555556,-0.3055555555555556,-0.6088888888888889,0.0429982314665463,0.09490227807719166,-1.305969473757851
1589995375.6004164,-2.941148669796557,-1.0922973395931144,8.90597965571205,0.3555555555555556,-0.3055555555555556,-0.6088888888888889,0.04004748785911676,0.09515287895179335,-1.3649905292373017
1589995375.6104164,-2.958542885112578,-1.1358284595496875,8.829800195788046,0.3555555555555556,-0.3055555555555556,-0.6088888888888889,0.03586026450358677,0.10069612040272775,-1.4336849568455232
1589995375.6204164,-2.946853308223811,-1.1720977945174595,8.775244486293648,0.3555555555555556,-0.3055555555555556,-0.6088888888888889,0.0417948205601149,0.10873982742439603,-1.4928664544554116
1589995375.6304164,-2.930165775897511,-1.1832228160683262,8.803057040170815,0.3555555555555556,-0.3055555555555556,-0.6088888888888889,0.04361514795465817,0.10691950002985275,-1.5250255717590098
1589995375.6404164,-2.92,-1.2157442380933683,8.807127880953317,0.38845097089708186,-0.28910784788479243,-0.5953016521173888,0.046830257636167,0.10861884664057263,-1.5769113865067703
1589995375.6504164,-2.985808337671699,-1.2892275039045293,8.806580833767171,0.4066666666666667,-0.28,-0.5877777777777777,0.0537394152680209,0.11448105466077467,-1.6285339114341073
1589995375.6604164,-3.0285394917582416,-1.3797764423076921,8.76730254120879,0.4066666666666667,-0.28,-0.5877777777777777,0.051134116403756764,0.1139243515840913,-1.680529670551182
1589995375.6704164,-3.03,-1.4034971082740961,8.807239878959336,0.4066666666666667,-0.28,-0.5877777777777777,0.05680359352586927,0.11639101361564577,-1.7151343590406607
1589995375.6804163,-3.038011317704123,-1.4340339531123685,8.870056588520615,0.4066666666666667,-0.28,-0.5877777777777777,0.06174349142930829,0.12305311968562686,-1.7604271613129405
1589995375.6904163,-3.0017815954823828,-1.535546011294043,8.918218404517617,0.4438234488365721,-0.26195242008890307,-0.6079486023842979,0.05592388278644023,0.12539695450723895,-1.7974195669007582
1589995375.7004163,-3.03,-1.593093569696463,8.854532151517684,0.4455555555555555,-0.2611111111111111,-0.6088888888888889,0.05585734064416591,0.13232798078734118,-1.8316854149834463
1589995375.7104163,-3.03,-1.614136967973911,8.749315160130447,0.4455555555555555,-0.2611111111111111,-0.6088888888888889,0.05738765975145746,0.13462345944827847,-1.8477537656100078
1589995375.7204163,-2.9610710411057983,-1.7121420822115965,8.770357013701933,0.4455555555555555,-0.2611111111111111,-0.6088888888888889,0.053528596649494574,0.13308135546456762,-1.8779039389801626
1589995375.7304163,-2.9863511070036566,-1.762702214007313,8.778783702334552,0.4455555555555555,-0.2611111111111111,-0.6088888888888889,0.055367014920489434,0.13308135546456762,-1.8916920760126241
1589995375.7404163,-2.967935858131552,-1.8051603546711215,8.801032070934225,0.4844444444444445,-0.2288888888888889,-0.6088888888888889,0.05815177589574368,0.13428476772154127,-1.9136899208844909
1589995375.7504163,-2.9525363023883395,-1.8436592440291522,8.80873184880583,0.4844444444444445,-0.2288888888888889,-0.6088888888888889,0.060671522311963585,0.13512468319361456,-1.9246088220214435
1589995375.7604163,-2.9509135757685683,-1.9409629092228167,8.671876484991385,0.4844444444444445,-0.2288888888888889,-0.6088888888888889,0.06753185285773058,0.14072255238709294,-1.9371269212897069
1589995375.7704163,-2.958520903237508,-2.032250838850095,8.770771742087602,0.4844444444444445,-0.2288888888888889,-0.6088888888888889,0.06670202216016553,0.14985069006030846,-1.9537235352410076
1589995375.7804163,-2.9398341765036538,-2.1006632939853853,8.80049747048904,0.4847853038536007,-0.22850196739741427,-0.6091836862157267,0.06325914111608066,0.14070812667332902,-1.9723396302468712
1589995375.7904162,-2.922993656147113,-2.1680253754115477,8.85101903155866,0.5194019290309341,-0.1892074198988196,-0.6391223890717989,0.062340633216172024,0.1397896187734204,-1.984280232945684
1589995375.8004162,-2.8617072912438006,-2.285923363397285,8.770522618564343,0.5255555555555556,-0.18222222222222226,-0.6444444444444445,0.06519139146460048,0.1425833681800999,-2.0038713575050853
1589995375.8104162,-2.8098865100517147,-2.322938207105918,8.71129886863053,0.5255555555555556,-0.18222222222222226,-0.6444444444444445,0.06357631422753363,0.1474285998913005,-2.0175995140201533
1589995375.8204162,-2.773155951300825,-2.414828772181546,8.701140674783195,0.5255555555555556,-0.18222222222222226,-0.6444444444444445,0.06024454967057057,0.1500659587851782,-2.042590986234293
1589995375.8304162,-2.7200557044289244,-2.529879307070664,8.709990715928514,0.5255555555555556,-0.18222222222222226,-0.6444444444444445,0.062175329132104926,0.1548929074390141,-2.063829560311171
1589995375.8404162,-2.6691697635480054,-2.599025197043329,8.74,0.5455555555555556,-0.13111111111111112,-0.6588888888888889,0.0689192385523359,0.155791902641934,-2.0974233862076
1589995375.8504162,-2.6184520203316732,-2.641857575601992,8.737523232530677,0.5455555555555556,-0.13111111111111112,-0.6588888888888889,0.06988071343468875,0.15510060117924349,-2.1274813772162773
1589995375.8604162,-2.5825609693484624,-2.6849268367818455,8.680097550957539,0.5455555555555556,-0.13111111111111112,-0.6588888888888889,0.0714467559638342,0.15979872876667983,-2.1611512915929048
1589995375.8704162,-2.57,-2.7287726457241357,8.727136173356316,0.5455555555555556,-0.13111111111111112,-0.6588888888888889,0.0751334404097413,0.16353536165279228,-2.21896784728591
1589995375.8804162,-2.5506089616585568,-2.7623183972357386,8.73,0.5455555555555556,-0.13111111111111112,-0.6588888888888889,0.07456224594134163,0.16573985152720994,-2.2590056879121323
1589995375.8904161,-2.557252834168205,-2.771373582915898,8.77313208542051,0.568559334446495,-0.08702053490347716,-0.6655983243987462,0.07229450095016056,0.16877910198155618,-2.3202991689989587
1589995375.9004161,-2.568621142813819,-2.820344714296545,8.691034142889634,0.5722222222222222,-0.08,-0.6666666666666666,0.0684967243177738,0.17032001205578243,-2.3616858882198453
1589995375.9104161,-2.528109065155807,-2.8312606232294617,8.715587818696884,0.5722222222222222,-0.08,-0.6666666666666666,0.062177354602297986,0.17494546318658105,-2.394382838096286
1589995375.920416,-2.506891440712262,-2.8454057061918254,8.666080028328611,0.5722222222222222,-0.08,-0.6666666666666666,0.062177354602297986,0.1795744307614747,-2.4067267516293356
1589995375.930416,-2.5086863172100724,-2.9194905376805815,8.710804220470509,0.5722222222222222,-0.08,-0.6666666666666666,0.06407241504215319,0.17539272857484606,-2.4211588617363713
1589995375.940416,-2.43679987560255,-2.9885600995179598,8.668759912921786,0.5616488709203684,-0.02225323519756734,-0.7089600718740822,0.06755297412630322,0.1809208411174576,-2.425130636393888
1589995375.950416,-2.424888884620556,-3.085111115379444,8.700629621804353,0.5577777777777778,-0.0011111111111111113,-0.7244444444444444,0.06916271118108117,0.18098498719459855,-2.422989694408807
1589995375.960416,-2.3765516777750033,-3.133448322224997,8.612011409254173,0.5577777777777778,-0.0011111111111111113,-0.7244444444444444,0.063011144644928,0.18010619197514807,-2.4150805374337527
1589995375.970416,-2.319486111415605,-3.22,8.652569442921974,0.5577777777777778,-0.0011111111111111113,-0.7244444444444444,0.07087597258793807,0.18426631741890634,-2.397169579263573
1589995375.980416,-2.301095301778002,-3.22,8.744523491109991,0.5577777777777778,-0.0011111111111111113,-0.7244444444444444,0.06987290952455157,0.18125712822874682,-2.380117507186003
1589995375.990416,-2.219207728933673,-3.2523768131989814,8.694753626397961,0.5866666666666667,0.0033333333333333327,-0.7244444444444444,0.06401332270039854,0.18753647122266734,-2.347834614796181
1589995376.000416,-2.2114671686413465,-3.2755984940759606,8.741196988151922,0.5866666666666667,0.0033333333333333327,-0.7244444444444444,0.06063586612414277,0.18669210707860343,-2.3301029677708383
1589995376.010416,-2.1364427758422955,-3.3314900569103933,8.639664163763443,0.5866666666666667,0.0033333333333333327,-0.7244444444444444,0.0551813839741321,0.18332252443144534,-2.305077668280662
1589995376.020416,-2.089707718784224,-3.4101169124863104,8.65,0.5866666666666667,0.0033333333333333327,-0.7244444444444444,0.054490526429252555,0.18322131193772692,-2.257790162637598
1589995376.030416,-2.059880100698346,-3.4220479597206617,8.65,0.5866666666666667,0.0033333333333333327,-0.7244444444444444,0.04928462499299274,0.17931688586053207,-2.234363606174429
1589995376.040416,-2.022251734055151,-3.441832177296566,8.661832177296565,0.6044149326115152,0.01450816744675652,-0.7244444444444444,0.04194282189913628,0.17735993192537833,-2.190999969676835
1589995376.050416,-1.953167807549384,-3.4247412477997266,8.62579718364952,0.6166666666666667,0.022222222222222227,-0.7244444444444444,0.037892256948496975,0.17918306876829776,-2.139469284248121
1589995376.060416,-1.9018481848184818,-3.4281518151815185,8.572772277227722,0.6166666666666667,0.022222222222222227,-0.7244444444444444,0.0291680231016049,0.1789970511740059,-2.073053700153463
1589995376.070416,-1.9,-3.4641496023599636,8.556340159056015,0.6166666666666667,0.022222222222222227,-0.7244444444444444,0.03059668659276356,0.1751711045829926,-2.0235134386561664
1589995376.080416,-1.893024212645039,-3.486975787354961,8.654636810324414,0.6166666666666667,0.022222222222222227,-0.7244444444444444,0.027068450545032673,0.16659363119588969,-1.9563479548319533
1589995376.090416,-1.8576549150745265,-3.502938033970189,8.71293803397019,0.6224169039867509,0.05600486647771683,-0.738820037744655,0.022266466853484993,0.15445103365668456,-1.8903567203422902
1589995376.100416,-1.878793386536332,-3.5589442132192906,8.688491733170414,0.6255555555555555,0.07444444444444444,-0.7466666666666667,0.0218824262053663,0.1394618137709534,-1.7877285353797403
1589995376.110416,-1.8147313757684524,-3.502889953797396,8.608414219710566,0.6255555555555555,0.07444444444444444,-0.7466666666666667,0.025376466872077428,0.13072671210417558,-1.7222152728789069
1589995376.120416,-1.7817272495827559,-3.6361820033379537,8.690500127294843,0.6255555555555555,0.07444444444444444,-0.7466666666666667,0.02916981057531569,0.11675854515297883,-1.6264236361311333
1589995376.130416,-1.7422690934492393,-3.634907637379696,8.669815274759392,0.6255555555555555,0.07444444444444444,-0.7466666666666667,0.03027559181374565,0.11315858088560032,-1.5496473835720683
1589995376.140416,-1.6799190823199466,-3.6701416059400933,8.609919082319946,0.5555555555555556,0.008888888888888889,-0.7111111111111111,0.03706397304341064,0.10361568421272577,-1.4331662864582173
1589995376.150416,-1.641351693064527,-3.7376345371370774,8.571351693064528,0.5555555555555556,0.008888888888888889,-0.7111111111111111,0.02549458680831864,0.09730510990267557,-1.3448182461175149
1589995376.160416,-1.6217697401017972,-3.785575649745507,8.551769740101799,0.5555555555555556,0.008888888888888889,-0.7111111111111111,0.02707772086440552,0.09310671390821053,-1.2542228963232116
1589995376.1704159,-1.6106351005124164,-3.79,8.606189396925503,0.5555555555555556,0.008888888888888889,-0.7111111111111111,0.0272707695624114,0.08659130413057378,-1.1568537240773902
1589995376.1804159,-1.6045887802933456,-3.8116448788266184,8.615411219706655,0.5555555555555556,0.008888888888888889,-0.7111111111111111,0.0272707695624114,0.08204372429841085,-1.103014402816112
1589995376.1904159,-1.5820486475152025,-3.786916754036486,8.652312434472636,0.5519652850585961,0.04000456652920482,-0.6795965145266886,0.026879131804854167,0.07462343876417253,-1.0291799727591835
1589995376.2004158,-1.5345055360204587,-3.686758304030688,8.694505536020458,0.5455555555555556,0.09555555555555556,-0.6233333333333333,0.02617993877991494,0.0634060489479887,-0.904676488310759
1589995376.2104158,-1.537453728935493,-3.739629831483944,8.637823897451549,0.5455555555555556,0.09555555555555556,-0.6233333333333333,0.021301484599582754,0.05811197611868782,-0.8158300854690275
1589995376.2204158,-1.5165184667908131,-3.79522229981378,8.649351916511483,0.5455555555555556,0.09555555555555556,-0.6233333333333333,0.01963495408493621,0.049679246397497406,-0.7407143896028394
1589995376.2304158,-1.3663214782693118,-3.5860625869712957,9.665904986893628,0.5455555555555556,0.09555555555555556,-0.6233333333333333,0.018176747620311646,0.041807649153105565,-0.6507230463016017
1589995376.2404158,-1.2176249975010496,-3.3242596109633955,8.480817256752164,0.5399230767522085,0.142727565533587,-0.6057318370728738,0.12597312778263706,-0.029451384369491435,-0.5762617768037316
1589995376.2504158,-0.8525419109136393,-2.746176305865661,6.998539745360863,0.5366666666666666,0.17,-0.5955555555555555,0.18198024928828874,-0.03614578966178247,-0.46500039512814045
1589995376.2604158,-1.1047328418332447,-3.195782473208178,9.11839135061184,0.5366666666666666,0.17,-0.5955555555555555,-0.09943403038819454,0.11143503444314407,-0.3846623193743877
1589995376.2704158,-1.2543303036041153,-3.530723032253992,8.782876349176293,0.5366666666666666,0.17,-0.5955555555555555,-0.19478634721997318,0.01069324691799442,-0.32805863077643393
1589995376.2804158,-1.2277229306064048,-3.55,7.857281067205319,0.5366666666666666,0.17,-0.5955555555555555,0.06021585145302924,0.06609209807455729,-0.22979314659209926
1589995376.2904158,-1.32,-3.6,9.12,0.5366666666666666,0.22333333333333333,-0.5788888888888889,-0.0370882466048795,-0.03817907738737596,-0.1854412330243975
1589995376.3004158,-1.32,-3.6,9.12,0.5366666666666666,0.22333333333333333,-0.5788888888888889,-0.0370882466048795,-0.03817907738737596,-0.1854412330243975
1589995376.3104157,-1.3847082099670716,-3.794124629901215,8.740994770192867,0.5366666666666666,0.22333333333333333,-0.5788888888888889,0.05164807115918704,0.014256019473208821,-0.05334512362561661
1589995376.3204157,-1.437613901301729,-3.857613901301729,8.890932824946571,0.5366666666666666,0.22333333333333333,-0.5788888888888889,-0.036662362700191985,-0.025084392437886613,-0.013456723357144207
1589995376.3304157,-1.421625787078884,-3.792627885955908,8.783629984832933,0.5366666666666666,0.22333333333333333,-0.5788888888888889,-0.0020333608531538094,-0.016581085797879466,0.02741907027425049
1589995376.3404157,-1.4224994368946617,-3.8249966213679705,8.84124408739395,0.5443052114356266,0.24347131499695504,-0.5754168230848162,0.007227460324571271,-0.02004355493889482,0.08031115714339625
1589995376.3504157,-1.4211497341014845,-3.763796809217815,8.477486705074229,0.5488888888888889,0.25555555555555554,-0.5733333333333334,0.019057451880841448,-0.017491210552073616,0.14921630900923255
1589995376.3604157,-1.4805613296094502,-3.879774277734536,8.843929307266151,0.5488888888888889,0.25555555555555554,-0.5733333333333334,0.0029417120593856136,-0.028631149071300117,0.19562609943713455
1589995376.3704157,-1.4385429707411561,-3.8264899582016514,8.777681924762973,0.5488888888888889,0.25555555555555554,-0.5733333333333334,0.016037403283247924,-0.023326430432439198,0.24109533280580175
1589995376.3804157,-1.4265568238438193,-3.8196704715314582,8.74311364768764,0.5488888888888889,0.25555555555555554,-0.5733333333333334,0.00393565243931689,-0.0314543627938,0.28386394424115025
1589995376.3904157,-1.4099075778637713,-3.8199537889318855,8.599306833978284,0.5460982747033015,0.2611367839267302,-0.5761239475189207,0.002216947483906744,-0.0327047600926572,0.32792823254750164
1589995376.4004157,-1.4121007832337897,-3.798949608383105,8.438949608383105,0.5433333333333333,0.26666666666666666,-0.5788888888888889,0.00017419117498825715,-0.031375127178495305,0.38382340737862813
1589995376.4104156,-1.409470205604869,-3.7951324485987827,8.594238355161048,0.5433333333333333,0.26666666666666666,-0.5788888888888889,-0.0014773192642288475,-0.033255890965276834,0.43322235240223356
1589995376.4204156,-1.424153921051564,-3.777230719298957,8.619076635969005,0.5433333333333333,0.26666666666666666,-0.5788888888888889,-0.0037088423623141105,-0.03707147412459365,0.48283532010080776
1589995376.4304156,-1.4763274010883953,-3.7994911016325927,8.68454625680247,0.5433333333333333,0.26666666666666666,-0.5788888888888889,-0.014125287972020955,-0.04682245534669814,0.5236663207901552
1589995376.4404156,-1.5216058349233705,-3.7883941650766295,8.690985412691573,0.554746551500106,0.2772019449744568,-0.5788888888888889,-0.009467138209264035,-0.05017821599483697,0.5674887855236053
1589995376.4504156,-1.5372390766694146,-3.794478153338829,8.720673536685903,0.5577777777777778,0.28,-0.5788888888888889,-0.010794458544614971,-0.05175753752840686,0.6028071192288168
1589995376.4604156,-1.5178379007841005,-3.7778379007841005,8.533153740651606,0.5577777777777778,0.28,-0.5788888888888889,-0.011193301939812895,-0.053165714227478,0.6372219997924519
1589995376.4704156,-1.51,-3.7841325523086824,8.495331380771706,0.5577777777777778,0.28,-0.5788888888888889,-0.014762363598352545,-0.05499233065168153,0.670437780187585
1589995376.4804156,-1.540460282108389,-3.814368225686711,8.637933184855234,0.5577777777777778,0.28,-0.5788888888888889,-0.011710679866016888,-0.056296910174666384,0.6999500760308555
1589995376.4904156,-1.529284315005877,-3.791605393757346,8.681605393757346,0.5876402492998418,0.26378894403087955,-0.5916870909697735,-0.015427769199382421,-0.05839848142466841,0.7374417119929761
1589995376.5004156,-1.570130480667754,-3.738224599443538,8.711775400556462,0.5966666666666667,0.2588888888888889,-0.5955555555555555,-0.016541894662381134,-0.06437324940018158,0.7669109730265712
1589995376.5104156,-1.587986569542454,-3.722013430457546,8.568255178693375,0.5966666666666667,0.2588888888888889,-0.5955555555555555,-0.017233661327792575,-0.06196504858840442,0.7851565566705261
1589995376.5204155,-1.6294822855779554,-3.7673787426935466,8.67213622808064,0.5966666666666667,0.2588888888888889,-0.5955555555555555,-0.024344251315423233,-0.0653933730669765,0.7998684637875925
1589995376.5304155,-1.6335238802760452,-3.7411432816562726,8.651714922484409,0.5966666666666667,0.2588888888888889,-0.5955555555555555,-0.02617993877991494,-0.06654067773228381,0.8035578909919937
1589995376.5404155,-1.6481796070383459,-3.751814312317106,8.647269410557518,0.6330258807433587,0.24676915086332485,-0.605150348159127,-0.025188395031359084,-0.06554913398372796,0.8029507429513322
1589995376.5504155,-1.6747433875707833,-3.7757698372876494,8.623079349150599,0.6766666666666666,0.23222222222222225,-0.6166666666666667,-0.024515700532474198,-0.06332416953218656,0.8017606251348951
1589995376.5604155,-1.735439024390244,-3.7946493902439022,8.629298780487805,0.6766666666666666,0.23222222222222225,-0.6166666666666667,-0.025089107997418484,-0.06293328703175362,0.797980962987617
1589995376.5704155,-1.76,-3.773590137547556,8.60902619256658,0.6766666666666666,0.23222222222222225,-0.6166666666666667,-0.025883447972410233,-0.0608851654598192,0.7891574114474871
1589995376.5804155,-1.7719731752356886,-3.7540134123821556,8.637892700942754,0.6766666666666666,0.23222222222222225,-0.6166666666666667,-0.022914761752086597,-0.06260783465956775,0.7832238171521164
1589995376.5904155,-1.7926758132198446,-3.75,8.657324186780155,0.8477901451345694,0.20757480762807987,-0.6392014457241683,-0.02279985995543997,-0.061593582716614484,0.7768866900914478
1589995376.6004155,-1.8,-3.7923127989149834,8.692312798914983,0.9466666666666668,0.19333333333333333,-0.6522222222222223,-0.02399827721492203,-0.06307276660730816,0.766797171647476
1589995376.6104155,-1.8145353498094186,-3.788196975285872,8.659126275667036,0.9466666666666668,0.19333333333333333,-0.6522222222222223,-0.02558383791556879,-0.05880955371502723,0.7572393049449321
1589995376.6204154,-1.8147736172088214,-3.7329625548793923,8.650452765582358,0.9466666666666668,0.19333333333333333,-0.6522222222222223,-0.025609828856942202,-0.05615309076684297,0.7514342419497111
1589995376.6304154,-1.8340958097791247,-3.726143714668687,8.680079841482604,0.9466666666666668,0.19333333333333333,-0.6522222222222223,-0.025089107997418484,-0.05694659245913167,0.7469956942407563
1589995376.6404154,-1.8607451200795488,-3.7892548799204513,8.67760792027842,1.245393624099013,0.048854374575176135,-0.8290932607019592,-0.027612984973802657,-0.05890486225480863,0.7475613014214636
1589995376.6504154,-1.8826167451329685,-3.810872248377656,8.64,1.5922222222222222,-0.11888888888888888,-1.0344444444444445,-0.028171305268841863,-0.057125894774014446,0.7552354916396795
1589995376.6604154,-1.8174676296105237,-3.6705246324477687,8.575939128191902,1.5922222222222222,-0.11888888888888888,-1.0344444444444445,-0.02617993877991494,-0.05407949055350071,0.7638768626789889
1589995376.6704154,-1.8793257856994627,-3.7447992805921277,8.64223108672093,1.5922222222222222,-0.11888888888888888,-1.0344444444444445,-0.023084292364582936,-0.058094177965324345,0.7665371209163451
1589995376.6804154,-1.9142102563090704,-3.7710512815453523,8.639471794163493,1.5922222222222222,-0.11888888888888888,-1.0344444444444445,-0.02181661564992912,-0.05873256690913896,0.761169972518261
1589995376.6904154,-1.9176435129370304,-3.7385347305944543,8.62528702587406,1.3170557564891239,-0.10869753830618153,-0.9074772017682154,-0.02139972669002298,-0.059064698352030584,0.7520338955336667
1589995376.7004154,-1.93,-3.707331890384827,8.662668109615174,0.8722222222222222,-0.09222222222222222,-0.7022222222222222,-0.020034846671219162,-0.059359178329267785,0.7346189280137007
1589995376.7104154,-1.923679659546785,-3.7052813618128595,8.63943727637428,0.8722222222222222,-0.09222222222222222,-0.7022222222222222,-0.017854681110217322,-0.05356404333065196,0.6889848014229487
1589995376.7204154,-2.010632587859425,-3.687631218621634,8.648842537654039,0.8722222222222222,-0.09222222222222222,-0.7022222222222222,-0.014628583470389716,-0.050947523035053094,0.6465925103496624
1589995376.7304153,-2.06,-3.661561494600707,8.682657758098939,0.8722222222222222,-0.09222222222222222,-0.7022222222222222,-0.01631171289669138,-0.048337219705274735,0.5979928407809372
1589995376.7404153,-2.0383086258545204,-3.665183961901836,8.7,0.8264293212484318,-0.04908048919954596,-0.6990890237345418,-0.01859623919050433,-0.045105044305875044,0.5439154256081441
1589995376.7504153,-1.997271731611713,-3.6578804473138113,8.679293482437936,0.6611111111111111,0.10666666666666667,-0.6877777777777778,-0.015425769175964887,-0.03983192370676158,0.49183307644822555
1589995376.7604153,-2.0746217794818502,-3.5453782205181494,8.658207259827284,0.6611111111111111,0.10666666666666667,-0.6877777777777778,-0.020026069318019646,-0.036445052405360404,0.4408866595289359
1589995376.7704153,-2.11,-3.483725517146588,8.630588275719882,0.6611111111111111,0.10666666666666667,-0.6877777777777778,-0.012198773159985795,-0.034222145135811774,0.40257360789420443
1589995376.7804153,-2.1128113098321197,-3.4528113098321196,8.613735717985437,0.6611111111111111,0.10666666666666667,-0.6877777777777778,-0.009134149877295588,-0.02992992924909855,0.38540492980383523
1589995376.7904153,-2.1381108424221487,-3.455472289394463,8.695472289394463,0.6435033476451332,0.130814456562865,-0.6822439092598991,-0.014592950420235246,-0.02934939356545898,0.38218163292208984
1589995376.8004153,-2.1368967330956696,-3.4731032669043307,8.655345099643505,0.6222222222222222,0.16,-0.6755555555555556,-0.008557389306694337,-0.031803349645674536,0.39531322506071637
1589995376.8104153,-2.138449714733192,-3.446950665622553,8.623850095088937,0.6222222222222222,0.16,-0.6755555555555556,-0.013673470505248338,-0.038091727944025364,0.4203786534897252
1589995376.8204153,-2.16174306264391,-3.44348612528782,8.64348612528782,0.6222222222222222,0.16,-0.6755555555555556,-0.012969899545476829,-0.03888963089231306,0.45265463924779437
1589995376.8304152,-2.197526628545801,-3.432473371454199,8.696702171394401,0.6222222222222222,0.16,-0.6755555555555556,-0.013320614647347078,-0.03959048775122162,0.47997716319342176
1589995376.8404152,-2.285823591507995,-3.3746256402236385,8.745074871955273,0.6182750995903438,0.14646700811927382,-0.6935995447298572,-0.016346127210735494,-0.04254240051736178,0.49912858836232965
1589995376.8504152,-2.258233491223182,-3.3636277514628032,8.70911674561159,0.6144444444444445,0.13333333333333333,-0.7111111111111111,-0.012298516796583057,-0.04105584343817812,0.5106533283696891
1589995376.8604152,-2.082756532119015,-3.207803174322472,8.758621733940492,0.6144444444444445,0.13333333333333333,-0.7111111111111111,0.003382134850871729,-0.03015327989820009,0.5062958285827737
1589995376.8704152,-2.0675135427952327,-3.122275189599133,8.757036836403033,0.6144444444444445,0.13333333333333333,-0.7111111111111111,-0.005408062470968346,-0.032701877754136716,0.4843749588699403
1589995376.8804152,-2.1325750150459974,-3.090493723669504,8.865450090275987,0.6144444444444445,0.13333333333333333,-0.7111111111111111,-0.012668633538322588,-0.03571652525462646,0.45802960877377746
1589995376.8904152,-2.1185779173713457,-2.9971558347426916,8.723860352742209,0.6004790743872648,0.105402593218974,-0.7064559877587179,0.00046537545197686443,-0.02924559759319237,0.44843486837314933
1589995376.9004152,-2.0860742101266267,-3.0028126379739684,8.629551065821309,0.5877777777777777,0.08,-0.7022222222222222,-0.004314352007842772,-0.033653852876394774,0.4466589779754969
1589995376.9104152,-2.047401169866133,-3.0911094099634906,8.747021159659248,0.5877777777777777,0.08,-0.7022222222222222,-0.014865454612470939,-0.04076357509930658,0.4426352619858443
1589995376.9204152,-6.393488396313203,-7.881221120966481,5.777502560274948,0.5877777777777777,0.08,-0.7022222222222222,-0.3759331464380923,1.095321837213443,0.18482921581617973
1589995376.9304152,-10.220713327004288,-8.836172128195894,-0.09295479097783721,0.5877777777777777,0.08,-0.7022222222222222,-0.7631102839953797,1.3886478336399601,-1.0434093362524275
1589995376.9404151,-2.2847004679384995,2.9255442998920143,-2.5721913405666683,0.5714181279031899,0.12287356518857523,-0.6587845311759026,-0.20560724282143766,-1.0059062938171794,-3.4449153814732814
1589995376.9504151,-0.6002038629347077,-0.6372451713316154,0.22397979230985127,0.5555555555555556,0.16444444444444445,-0.6166666666666667,-0.026113029964536648,-0.2508249504628126,-3.4162478299250765
1589995376.9604151,-0.5224432778397037,-0.39228326921002477,0.00821113947718527,0.5555555555555556,0.16444444444444445,-0.6166666666666667,0.031239391668907886,-0.3252744352725737,-3.1884606054905826
1589995376.970415,-0.4535548389573496,-0.05733387078198779,-0.18155322661138623,0.5555555555555556,0.16444444444444445,-0.6166666666666667,0.04557209518060552,-0.22965612348847994,-2.9469260717145858
1589995376.980415,-0.4198923849909133,-0.08505380750454335,0.019354309945479813,0.5555555555555556,0.16444444444444445,-0.6166666666666667,0.010486151686515257,-0.19177536315715366,-2.7207324281739393
1589995376.990415,2.1181279179762593,-1.480434530530042,4.761926093192152,0.5504915253662622,0.1962097247227393,-0.6226514296176497,0.22037135159585855,0.07512093011408821,-2.523067899950398
1589995377.000415,4.843368551895587,1.1833188315724055,16.028974518334373,0.5433333333333333,0.2411111111111111,-0.6311111111111111,1.1114887717900852,1.4981032007399557,-2.2929452875682155
1589995377.010415,0.8660957299407985,1.7542957551328882,10.563575261367932,0.5433333333333333,0.2411111111111111,-0.6311111111111111,0.2900901988734763,1.1312215299439623,-1.8521625724784776
1589995377.020415,1.3509795972036556,-0.7833010453419823,11.210481909228376,0.5433333333333333,0.2411111111111111,-0.6311111111111111,-0.06504689624369364,-0.08953934746172248,-1.4938252834224448
1589995377.030415,1.9576923743500867,-0.6813067590987868,10.411828422876951,0.5433333333333333,0.2411111111111111,-0.6311111111111111,0.3792969872443123,-0.2055677226439075,-1.295581516366263
1589995377.040415,0.6550279017857144,-0.21708426339285716,4.6776255580357144,0.5375015500992063,0.25501767113095236,-0.6221391369047619,0.22835434556549827,0.08355569002711694,-1.1122925129085526
1589995377.050415,0.008320796204143,-0.9898486286309455,5.687765767850943,0.5288888888888889,0.27555555555555555,-0.6088888888888889,-0.28436356527384277,0.16795713820021524,-0.9389132120427757
1589995377.060415,-0.784905398207545,-2.279748500497904,9.04660359880503,0.5288888888888889,0.27555555555555555,-0.6088888888888889,-0.2867373543090693,0.10774867296899415,-0.8039936945098596
1589995377.070415,-0.2926692015209126,-2.356653992395437,8.106101394169835,0.5288888888888889,0.27555555555555555,-0.6088888888888889,0.1782785256505602,0.08734443833625996,-0.6919215693543634
1589995377.080415,-0.6334758386344779,-2.9477588999960487,9.929421154530008,0.5288888888888889,0.27555555555555555,-0.6088888888888889,0.07018952372443552,0.06949513142379937,-0.6823269165463461
1589995377.090415,-0.7128220304390926,-3.0245792757595193,10.142978307773047,0.5255232893398384,0.2862132874608821,-0.5982311569835623,-0.06553594173456248,0.029558022071421112,-0.7096540581275556
1589995377.100415,-0.5202539342639543,-2.722116118866286,8.35893598109129,0.5222222222222223,0.2966666666666667,-0.5877777777777777,0.03755914543502772,0.053561508067067096,-0.7392271380044477
1589995377.110415,-0.6126208333333334,-3.0392125,9.133104166666667,0.5222222222222223,0.2966666666666667,-0.5877777777777777,0.056409132327021945,0.06546211879609044,-0.7880043399419628
1589995377.120415,-0.7751765338184223,-3.18,9.783529436084008,0.5222222222222223,0.2966666666666667,-0.5877777777777777,-0.005056299225729191,0.05972618730073327,-0.8489101937483814
1589995377.130415,-0.7666970408295288,-2.8521253904589394,8.724090346191524,0.5222222222222223,0.2966666666666667,-0.5877777777777777,0.039140265785319754,0.06487639614085321,-0.866720532746482
1589995377.140415,-0.7315190350546551,-2.642189973614776,8.176215604975498,0.5206969049713113,0.308869204673954,-0.5913368513632365,0.039381746078971186,0.060440988829782896,-0.8741061837519453
1589995377.150415,-0.8009476429401593,-2.748937693114494,8.499067522748533,0.5188888888888888,0.3233333333333333,-0.5955555555555555,0.03337017012110377,0.0542635205981503,-0.870367084727055
1589995377.160415,-0.7414995606202341,-2.564648637922726,7.553843013861723,0.5188888888888888,0.3233333333333333,-0.5955555555555555,0.047636685715194464,0.08539046371253001,-0.8502642672990182
1589995377.170415,-0.93489188167658,-3.0769939724283355,9.24359446179554,0.5188888888888888,0.3233333333333333,-0.5955555555555555,0.0008336873188790565,0.052940674589679645,-0.8190917256849118
1589995377.180415,-0.8753944710931583,-2.94,8.40719262812421,0.5188888888888888,0.3233333333333333,-0.5955555555555555,0.02640011530367306,0.06888048359842508,-0.7738874338767727
1589995377.190415,-0.8504301313920455,-3.0285176225142045,8.41875577059659,0.5161350072995581,0.3394632112136995,-0.6030303770123105,0.02131560241721912,0.0466552170309926,-0.7142956117706355
1589995377.200415,-0.7902302585110892,-3.2685986721288316,8.612772990535387,0.5111111111111111,0.3688888888888889,-0.6166666666666667,0.03297825386144886,0.04786988923656646,-0.6497311121382359
1589995377.210415,-0.8566174773289364,-3.3891145919208574,8.923370981038747,0.5111111111111111,0.3688888888888889,-0.6166666666666667,0.03551575962526425,0.04549420839903232,-0.5568833231423991
1589995377.2204149,-0.9221230719534846,-3.1930687232496164,8.730026649438747,0.5111111111111111,0.3688888888888889,-0.6166666666666667,0.0023266593416212886,0.02871581423301399,-0.4313968388605763
1589995377.2304149,-0.9513221477820966,-3.1321262964626833,8.81413910971346,0.5111111111111111,0.3688888888888889,-0.6166666666666667,0.0005327699614493808,0.015465903960689056,-0.31127585168639604
1589995377.2404149,-0.7228775206058579,-3.498321116822288,8.600380790170018,0.5083936724217755,0.3743237662675602,-0.6252718891828962,0.023150535247272484,0.02055963381178188,-0.18497204208409931
1589995377.2504148,-1.4562495705075085,-14.456303534975847,7.117948339632557,0.5044444444444445,0.38222222222222224,-0.6377777777777778,-0.15966266406066684,0.005159250168385577,-1.020960135288927
1589995377.2604148,-2.433943756117358,-18.78424980305092,8.618697510086179,0.5044444444444445,0.38222222222222224,-0.6377777777777778,-0.25191688641941157,0.0958930593988189,-3.1625805149210957
1589995377.2704148,-1.008544474393531,-3.4589487870619946,12.638247978436658,0.5044444444444445,0.38222222222222224,-0.6377777777777778,0.3182432652427733,0.42190453227160096,-4.923292732482994
1589995377.2804148,0.6993978802262826,-2.2822953377982964,7.216707198127317,0.5044444444444445,0.38222222222222224,-0.6377777777777778,0.8145776090204917,0.6175035902718891,-4.563945676571558
1589995377.2904148,-0.13970760233918128,-1.838768489852081,4.485201238390093,0.5002308603753393,0.38722585330428466,-0.6412013148339257,0.24219182643768156,0.2856344344016236,-4.246975726618067
1589995377.3004148,-0.13243773349937735,-3.366395807388958,9.079528158295282,0.4866666666666667,0.4033333333333333,-0.6522222222222223,-0.3068437031280465,0.12309088431242904,-3.8799364191568637
1589995377.3104148,-0.5241843088418432,-3.322868410128684,9.7179299847793,0.4866666666666667,0.4033333333333333,-0.6522222222222223,-0.007713246803256413,0.29006582157309235,-3.5444038438084218
1589995377.3204148,-13.158143613500993,-20.84184682697257,5.724977388043238,0.4866666666666667,0.4033333333333333,-0.6522222222222223,0.12539189684525887,0.2735674698532623,-1.9693989816403579
1589995377.3304148,-1.083223031105227,-4.942430325759247,4.082603132583278,0.4866666666666667,0.4033333333333333,-0.6522222222222223,-0.23712410405402148,-0.14193810890368552,0.9113836241137845
1589995377.3404148,-1.1050815497749973,-1.5087529360114147,5.37444056634837,0.4649417188014488,0.42777389968170343,-0.6522222222222223,0.3222349570624332,-0.18026039142782818,2.201885167812918
1589995377.3504148,-0.6888448203718095,-2.0105879012493277,6.649473967362066,0.4066666666666667,0.4933333333333334,-0.6522222222222223,-0.0003668814273248,0.02115598129803342,2.2695506142571795
1589995377.3604147,3.4650318337647805,-6.019088364933884,9.979569019799902,0.4066666666666667,0.4933333333333334,-0.6522222222222223,-0.40755935199337545,-0.3193726320946075,2.1217205165256945
1589995377.3704147,5.002195357833656,-6.548940038684719,10.48692746615087,0.4066666666666667,0.4933333333333334,-0.6522222222222223,-0.1867666873717172,-0.2457633313267939,0.9687504660229858
1589995377.3804147,-1.162291394572631,-0.6192570018865187,9.751690610941807,0.4066666666666667,0.4933333333333334,-0.6522222222222223,0.14325072872376618,0.16930228791224233,-0.610776433079893
1589995377.3904147,-0.4359035638154142,-1.7154484042393492,6.60636322694929,0.4133834062242505,0.4855560559508679,-0.649747633964165,0.34227998359486317,0.2897219964663744,-0.8663698573882422
1589995377.4004147,-0.6570086012815332,-2.297487733071639,7.819078681521676,0.42777777777777776,0.4688888888888889,-0.6444444444444445,-0.052680836083087074,-0.004080902298750098,-0.7457580540978468
1589995377.4104147,-0.4932448132780083,-4.468132780082987,9.29311203319502,0.42777777777777776,0.4688888888888889,-0.6444444444444445,-0.24872661823065878,-0.06959862493831953,-0.6248858084547001
1589995377.4204147,-1.3131915819364295,-10.770076944215445,7.717953192268938,0.42777777777777776,0.4688888888888889,-0.6444444444444445,0.009710687136926917,0.033138668786116744,-0.49087627519260696
1589995377.4304147,-3.6118234442836465,-11.429517607332368,8.448165299887442,0.42777777777777776,0.4688888888888889,-0.6444444444444445,0.059263736636700835,0.06993454890297428,-0.39136566867274925
1589995377.4404147,-0.2126801736613606,-1.4546507477086354,9.797031677118508,0.42777777777777776,0.4688888888888889,-0.6444444444444445,0.06809204643124958,-0.04336209346040121,0.003701194633306981
1589995377.4504147,0.0572737158806684,-5.107059484539819,8.565666799579512,0.4544444444444444,0.4755555555555556,-0.6377777777777778,0.0009727599260592086,0.0020382050790068613,0.10551117782280496
1589995377.4604146,-1.014601261463733,-5.62399209772719,9.120609163736543,0.4544444444444444,0.4755555555555556,-0.6377777777777778,-0.09107333826579968,-0.017863653989503174,-0.11258002780295082
1589995377.4704146,-0.374195241024064,-4.403219035903744,8.771301606827093,0.4544444444444444,0.4755555555555556,-0.6377777777777778,0.01981243318414879,0.022240657561515005,-0.041701948400287264
1589995377.4804146,-0.3500103790266779,-4.4999584838932885,8.610069193511185,0.4544444444444444,0.4755555555555556,-0.6377777777777778,-0.002172226763499034,-0.003261547977756473,0.016337553861503
1589995377.4904146,-0.2552219066768931,-4.539556186646213,8.593925084471715,0.4511565772775117,0.4713006686336427,-0.638938201483754,-0.015174805901351788,-0.0019917876801102863,0.001090830782496456
1589995377.5004146,-0.27747766873623075,-4.503452433406769,8.66,0.4355555555555555,0.4511111111111111,-0.6444444444444445,-0.0039047503656237047,-0.0012742598882413037,0.0009991162296240322
1589995377.5104146,-0.25993473015432156,-4.573833735483535,8.673246306872429,0.4355555555555555,0.4511111111111111,-0.6444444444444445,0.00506443758747734,-0.0014663074361344205,-0.00036123698227098945
1589995377.5204146,-0.27887556419464304,-4.431244358053569,8.687631206141072,0.4355555555555555,0.4511111111111111,-0.6444444444444445,0.012231370957360271,0.0023043184839353693,-0.000600203106726627
1589995377.5304146,-0.28077318014540886,-4.498453639709182,8.603466475181762,0.4355555555555555,0.4511111111111111,-0.6444444444444445,0.003691396433283537,0.002684906521089787,0.002097320694690206
1589995377.5404146,-0.30959150757077025,-4.446127386438446,8.63959150757077,0.43501089898324913,0.4521096481603394,-0.6447621607782899,-0.001224509617362628,0.001090830782496456,-0.0010462711708743987
1589995377.5504146,-0.30255834398976983,-4.561858216112532,8.63767503196931,0.4222222222222222,0.4755555555555556,-0.6522222222222223,-0.002130746828981249,0.0019280468953731718,-0.0002790720376255719
1589995377.5604146,-0.31,-4.489650569182022,8.642077514376247,0.4222222222222222,0.4755555555555556,-0.6522222222222223,0.0045137108147338244,0.003912160075741822,-0.001090830782496456
1589995377.5704145,-0.3130115107913669,-4.5048273381294965,8.569149640287769,0.4222222222222222,0.4755555555555556,-0.6522222222222223,0.005125649045177951,0.0007623259151921275,-0.0014193356498007844
1589995377.5804145,-0.3163576611182245,-4.427317541613316,8.654536491677337,0.4222222222222222,0.4755555555555556,-0.6522222222222223,0.0017807591378449397,-0.0003973175372524437,-0.0017843440277404681
1589995377.5904145,-0.304423388817755,-4.516824583866837,8.636635083226633,0.4222222222222222,0.4755555555555556,-0.6522222222222223,-0.0066811173969855515,-0.0016991446964571345,-0.0004825168685357775
1589995377.6004145,-0.31,-4.513135814173975,8.608040116141265,0.4355555555555555,0.4633333333333333,-0.6522222222222223,-0.009603686878145574,-0.0010480727496319498,-0.0031442182488958495
1589995377.6104145,-0.3080742839793543,-4.568817123772898,8.561925716020646,0.4355555555555555,0.4633333333333333,-0.6522222222222223,-0.0016325037222188633,-0.00021006303136668925,0.0004201260627333785
1589995377.6204145,-0.3005867383410059,-4.478239784976982,8.575280645069054,0.4355555555555555,0.4633333333333333,-0.6522222222222223,0.009689470593740073,-0.0009628243337684242,0.002245664789356928
1589995377.6304145,-0.30492023572688715,-4.460159528546225,8.663386509515409,0.4355555555555555,0.4633333333333333,-0.6522222222222223,0.006712288271318983,0.0012755362237276977,0.0027183760237956428
1589995377.6404145,-0.28130456814684135,-4.507390863706317,8.679130287902106,0.4355555555555555,0.4633333333333333,-0.6522222222222223,0.0024188387470660596,0.0021342261285782825,0.00014230630924388877
1589995377.6504145,-0.3069442429737081,-4.4830557570262926,8.617130099728014,0.4355555555555555,0.47431061750780706,-0.6392490681978442,-0.00369666036436401,0.003161381886552399,0.002939160964678461
1589995377.6604145,-0.32,-4.517815685164213,8.538476960645525,0.4355555555555555,0.4755555555555556,-0.6377777777777778,0.0014231064246590763,0.0005924173192525256,-0.0001661378210813101
1589995377.6704144,-0.32,-4.4584399773499435,8.531054997168741,0.4355555555555555,0.4755555555555556,-0.6377777777777778,0.003042327670067091,-0.001836414548859496,-0.0009757484437853172
1589995377.6804144,-0.29347739623870667,-4.496522603761293,8.643477396238707,0.4355555555555555,0.4755555555555556,-0.6377777777777778,0.004126516111440751,-0.0012804933255023887,0.0009011682394905233
1589995377.6904144,-0.30785842862285917,-4.4821415713771415,8.657858428622859,0.4355555555555555,0.4755555555555556,-0.6377777777777778,-0.0013640293716084334,-0.002064856965937986,0.00011680459905492554
1589995377.7004144,-0.31,-4.5428574280153695,8.60571485603074,0.43,0.4633333333333333,-0.6588888888888889,-0.007116392985006447,0.004415308927544789,0.0
1589995377.7104144,-0.3126171848112883,-4.52,8.544296891132271,0.43,0.4633333333333333,-0.6588888888888889,-0.003741210459101015,0.0005198496313693677,-0.00028549057556354415
1589995377.7204144,-0.32,-4.506480954076183,8.530900676397295,0.43,0.4633333333333333,-0.6588888888888889,0.0025655299268646623,-0.0006694881698198255,-0.0004588168634815104
1589995377.7304144,-0.31952100313479626,-4.450239498432602,8.660239498432603,0.43,0.4633333333333333,-0.6588888888888889,0.00870052103370747,0.0010385803299680992,0.002129411112464555
1589995377.7404144,-0.3019899686520376,-4.4590050156739816,8.669005015673982,0.43,0.4633333333333333,-0.6588888888888889,0.007744351430567472,-0.0008737588763118944,0.00021707190618456152
1589995377.7504144,-0.3286217313102431,-4.508621731310243,8.631378268689758,0.44222222222222224,0.49,-0.6377777777777778,0.0026711091821541915,0.0,0.00030069158266758834
1589995377.7604144,-0.31718413784574795,-4.500938620718084,8.629675172101077,0.44222222222222224,0.49,-0.6377777777777778,-0.0009884431452589592,-0.00010238763723749661,0.0019768862905179185
1589995377.7704144,-0.29124963930912234,-4.509583453563626,8.534582010800115,0.44222222222222224,0.49,-0.6377777777777778,-4.5438167513610263e-05,-0.0010453926149828457,9.087633502722053e-05
1589995377.7804143,-0.31,-4.488372114634056,8.626511541463776,0.44222222222222224,0.49,-0.6377777777777778,0.004185748383231067,0.0,0.0012937878312191265
1589995377.7904143,-0.31,-4.480576887335985,8.65769245065606,0.44222222222222224,0.49,-0.6377777777777778,0.0033354209939018315,0.0,-0.0029578491154270523
1589995377.8004143,-0.31,-4.463881891561015,8.676118108438985,0.43684951940922717,0.47298644109218263,-0.6610594899674226,-0.002881252746811858,-0.0017582128840860644,-0.0006351730213602714
1589995377.8104143,-0.31128761231600177,-4.526137163051994,8.568411489155984,0.4355555555555555,0.4688888888888889,-0.6666666666666666,-0.007214445332410296,-0.0019007481349496483,0.00028091343004326357
1589995377.8204143,-0.3182796272525714,-4.5051611182422855,8.505483354726858,0.4355555555555555,0.4688888888888889,-0.6666666666666666,-0.004926313795064762,-0.0003753271100526254,0.0018063344549402865
1589995377.8304143,-0.30160674603174603,-4.525179761904762,8.549640476190476,0.4355555555555555,0.4688888888888889,-0.6666666666666666,0.0027074679743176915,0.002356930368101172,-0.000915561979388196
1589995377.8404143,-0.3182507936507937,-4.475247619047619,8.649504761904762,0.4355555555555555,0.4688888888888889,-0.6666666666666666,0.008154219820775889,0.004172514316920571,0.000900021969431203
1589995377.8504143,-0.30798168352685557,-4.502018316473144,8.681926734107423,0.43,0.4633333333333333,-0.6377777777777778,0.005664327999888496,0.00043033826117877603,0.001961497391220352
1589995377.8604143,-0.3,-4.51,8.629685919806281,0.43,0.4633333333333333,-0.6377777777777778,0.00036863414735030867,-0.0017787665832945557,0.0008893832916472778
1589995377.8704143,-0.29641218130311614,-4.51,8.547175637393767,0.43,0.4633333333333333,-0.6377777777777778,-0.006657389708330885,0.0001956851538288614,0.0003913703076577228
1589995377.8804142,-0.2854736681655362,-4.504526331834463,8.585473668165536,0.43,0.4633333333333333,-0.6377777777777778,-0.001136763562568805,0.0007922884960895682,0.0023309327081963557
1589995377.8904142,-0.31743998170871124,-4.472560018291288,8.61743998170871,0.43,0.4633333333333333,-0.6377777777777778,0.00496545823020122,-0.0009512034447018674,0.0032026786785920736
1589995377.9004142,-0.3029775218935433,-4.487022478106457,8.654044956212914,0.43472846614068233,0.48035581143978995,-0.6500717897435521,0.0035972896011927883,-0.001090830782496456,0.003272492347489368
1589995377.9104142,-0.30984364948395937,-4.5195309484518775,8.581250804128326,0.4355555555555555,0.4833333333333333,-0.6522222222222223,-0.0020963855871147597,0.0010567203913451949,0.0021987167605685425
1589995377.9204142,-0.3012115356027947,-4.52,8.483326891630742,0.4355555555555555,0.4833333333333333,-0.6522222222222223,-0.004099007064062051,0.001090830782496456,-0.0006943566836107961
1589995377.9304142,-0.3,-4.52,8.546969989176423,0.4355555555555555,0.4833333333333333,-0.6522222222222223,-0.0020053125562709126,-0.0031457743683675227,0.0
1589995377.9404142,-0.3,-4.52,8.596494342221785,0.4355555555555555,0.4833333333333333,-0.6522222222222223,0.006998468907912667,-0.0022453962219491645,0.0
1589995377.9504142,-0.3089307974335472,-4.475346012832263,8.689307974335472,0.4355555555555555,0.4704332925959874,-0.6581760871779203,0.007635815477475192,0.0007409350608331799,0.0019483977505507276
1589995377.9604142,-0.30101152584876545,-4.505953896604938,8.673034577546296,0.4355555555555555,0.4688888888888889,-0.6588888888888889,0.0037138537607390434,0.00011034035331241882,0.00022068070662483764
1589995377.9704142,-0.31495088719898606,-4.51,8.587770120405578,0.4355555555555555,0.4688888888888889,-0.6588888888888889,-0.0008047296480821848,-0.0008154443991143105,0.0008154443991143105
