time,acc_x,acc_y,acc_z,mag_x,mag_y,mag_z,gyr_x,gyr_y,gyr_z
1589995845.6237679,-3.96,-0.84,8.94,0.31777777777777777,-0.3244444444444444,-0.6055555555555555,-0.003272492347489368,0.001090830782496456,-0.001090830782496456
1589995845.6337678,-3.962022017600489,-0.82,8.876176140803913,0.31777777777777777,-0.3244444444444444,-0.6055555555555555,-0.0026107886350803695,-0.0013113986866327887,-0.0006496949742237904
1589995845.6437678,-3.9691476674255037,-0.82,8.93318133940403,0.31777777777777777,-0.3244444444444444,-0.6055555555555555,-0.0002789251827554984,-0.0020886865040744126,0.0009048806606594569
1589995845.6537678,-3.9545050564390922,-0.82,8.994232302463178,0.31777777777777777,-0.3244444444444444,-0.6055555555555555,0.0008451180704641881,-0.001336543494528724,-0.0022896414993602964
1589995845.6637678,-3.9509887789251392,-0.8209887789251391,9.030988778925138,0.2911111111111111,-0.33,-0.6222222222222222,0.0022895206138554658,-0.0009829717336339021,-0.004806999619306957
1589995845.6737678,-3.958495087424164,-0.8284950874241638,9.038495087424163,0.2911111111111111,-0.33,-0.6222222222222222,0.003108331851220551,-0.00016416049626881717,0.00010586780488355298
1589995845.6837678,-3.9484030444680003,-0.8384030444680001,8.914790866596,0.2911111111111111,-0.33,-0.6222222222222222,0.0017876340835298672,0.0018332599144762062,-0.002007460739734559
1589995845.6937678,-3.941114567223313,-0.8311145672233131,8.93665629833006,0.2911111111111111,-0.33,-0.6222222222222222,0.00496783221794166,0.0002431608472703102,-0.001212411206131611
1589995845.7037678,-3.9490179704553534,-0.7939281181785878,8.976071881821413,0.2911111111111111,-0.33,-0.6222222222222222,0.0015193220051451977,0.0,-0.001090830782496456
1589995845.7137678,-3.96,-0.82,8.94,0.28444444444444444,-0.3244444444444444,-0.6222222222222222,-0.002181661564992912,0.003272492347489368,0.001090830782496456
1589995845.7237678,-3.964323389450954,-0.8156766105490463,8.94,0.28444444444444444,-0.3244444444444444,-0.6222222222222222,-0.0026532701947749905,0.002329275087925211,0.001090830782496456
1589995845.7337677,-3.964939696053172,-0.81,8.88939696053172,0.28444444444444444,-0.3244444444444444,-0.6222222222222222,-0.0016165117532928887,0.001090830782496456,-1.3156280301196812e-05
1589995845.7437677,-3.954144421559231,-0.8217111568815384,8.863422313763078,0.28444444444444444,-0.3244444444444444,-0.6222222222222222,-0.000638744521251366,0.001090830782496456,-0.001729575303747822
1589995845.7537677,-3.95,-0.8380154228302377,8.968169651132614,0.28444444444444444,-0.3244444444444444,-0.6222222222222222,-0.00021648378670164725,0.00021648378670164725,-0.001307314569198103
1589995845.7637677,-3.95,-0.8325732727125111,9.012280181862467,0.3042490505444147,-0.3244444444444444,-0.5892145453889385,0.000810130273839923,0.0,-0.00028070050865653296
1589995845.7737677,-3.96,-0.8297605997931747,9.04912219924164,0.3111111111111111,-0.3244444444444444,-0.5777777777777777,1.7409674329398797e-05,0.0032376729988305704,0.002146842216334114
1589995845.7837677,-3.96,-0.8080734229576009,8.969602550844536,0.3111111111111111,-0.3244444444444444,-0.5777777777777777,0.0015945456795086077,8.340098847215262e-05,-0.0010074297940243036
1589995845.7937677,-3.96,-0.7811017800746484,8.930550890037324,0.3111111111111111,-0.3244444444444444,-0.5777777777777777,0.002181661564992912,0.0030321212232958484,0.0009105524393513164
1589995845.8037677,-3.96,-0.8074778430083642,8.966637124011152,0.3111111111111111,-0.3244444444444444,-0.5777777777777777,0.0011825389986552916,0.0022733697811517474,-0.001906536916516405
1589995845.8137677,-3.95,-0.8287876740802328,8.97151371856163,0.3033333333333333,-0.31777777777777777,-0.6,-0.001223075025666495,0.002181661564992912,-0.00013224424317003907
1589995845.8237677,-3.95,-0.821522552483891,8.920657867387238,0.3033333333333333,-0.31777777777777777,-0.6,-0.0020155768532534287,0.002181661564992912,-0.0009247460707569726
1589995845.8337677,-3.969144746221842,-0.801710507556316,8.880855253778158,0.3033333333333333,-0.31777777777777777,-0.6,-0.0013707119269147886,0.0019017804205745793,-0.003179198632683257
1589995845.8437676,-3.961669874536641,-0.816660250926718,8.88833012546336,0.3033333333333333,-0.31777777777777777,-0.6,-0.0038168579657433203,-0.0005443656182539522,-0.0023638166197404134
1589995845.8537676,-3.9516901372519007,-0.8116901372519006,8.948169039236696,0.3033333333333333,-0.31777777777777777,-0.6,-0.0016439269048016004,0.0007221000342930261,-0.0012751961565981708
1589995845.8637676,-3.95,-0.8258875393612235,8.983831309041836,0.29803748687959214,-0.33896116359274253,-0.5991173589243765,0.0006422309168382192,-0.0006422309168382192,-0.0036904233314984693
1589995845.8737676,-3.95,-0.8231381328224244,8.98267769008101,0.2966666666666667,-0.34444444444444444,-0.5988888888888889,0.00034231718822630826,0.0,0.0
1589995845.8837676,-3.95,-0.8493421354047356,8.92153501738895,0.2966666666666667,-0.34444444444444444,-0.5988888888888889,0.003200730452366473,0.0,0.0
1589995845.8937676,-3.950910552917752,-0.81,8.96,0.2966666666666667,-0.34444444444444444,-0.5988888888888889,0.001883683819460299,9.932591517753762e-05,-9.932591517753762e-05
1589995845.9037676,-3.958940687701026,-0.81,8.96,0.2966666666666667,-0.34444444444444444,-0.5988888888888889,-0.00074417164329714,0.000975277736096684,-0.000975277736096684
1589995845.9137676,-3.9669187525097045,-0.8,8.962054164993532,0.2966666666666667,-0.33,-0.5911111111111111,-0.0015389800639504054,0.00545415391248228,-0.001090830782496456
1589995845.9237676,-3.940413691978558,-0.8008273839571165,8.97544938823586,0.2966666666666667,-0.33,-0.5911111111111111,-0.00545415391248228,0.005409027118013964,-0.0011359575769647717
1589995845.9337676,-3.9507888196382828,-0.8196055901808588,8.871183229457422,0.2966666666666667,-0.33,-0.5911111111111111,-0.005282060163827044,0.004234252818494397,-0.002138638127829103
1589995845.9437675,-3.9668263679119034,-0.8115868160440485,8.895239551867855,0.2966666666666667,-0.33,-0.5911111111111111,-0.001783209897299391,0.001610115118598657,-0.0012639255611971898
1589995845.9537675,-3.944795474977525,-0.81,8.942007541704125,0.2966666666666667,-0.33,-0.5911111111111111,-0.003840217957768277,0.001090830782496456,-0.00017436839073918216
1589995845.9637675,-3.95,-0.8091650662084302,8.969165066208431,0.3033333333333333,-0.3244444444444444,-0.6,-0.0029081837550130425,-9.107714811908144e-05,-0.001999507268754749
1589995845.9737675,-3.95,-0.8020989588597999,8.962098958859801,0.3033333333333333,-0.3244444444444444,-0.6,0.0001749872083111159,-0.000861869888950121,-0.0004579217870926699
1589995845.9837675,-3.94,-0.81,8.900063414025901,0.3033333333333333,-0.3244444444444444,-0.6,0.0010839133853470814,-0.0010839133853470814,-0.0010839133853470814
1589995845.9937675,-3.94,-0.81,8.915005967331089,0.3033333333333333,-0.3244444444444444,-0.6,-0.0005460663260923404,0.0005460663260923404,0.0005460663260923404
1589995846.0037675,-3.962700176127896,-0.81,8.965400352255791,0.3033333333333333,-0.3244444444444444,-0.6,-0.0027416341750564634,0.00026542908621645235,0.00026542908621645235
1589995846.0137675,-3.9629851032134495,-0.8170148967865503,8.98,0.2986567354756331,-0.3283416093258613,-0.5890879383320328,-0.003272492347489368,0.0007652065350804571,-0.0007652065350804571
1589995846.0237675,-3.940447344960797,-0.83,8.99507920543123,0.2966666666666667,-0.33,-0.5844444444444444,-0.0022792570957193875,-0.0009932352517699804,-0.0009932352517699804
1589995846.0337675,-3.950040320455384,-0.829959679544616,8.890201602276921,0.2966666666666667,-0.33,-0.5844444444444444,-0.004336933453647561,0.0010864325031067453,0.0010820342237170349
1589995846.0437675,-3.96,-0.8192559257001469,8.942232222899559,0.2966666666666667,-0.33,-0.5844444444444444,0.0022628274800673247,0.0,-0.0011719966975708687
1589995846.0537674,-3.96,-0.8117357550112956,8.964792734966114,0.2966666666666667,-0.33,-0.5844444444444444,0.003083150847769997,0.0,-0.001992320065273541
1589995846.0637674,-3.96,-0.81,8.989522556049742,0.30317418534991375,-0.3245770677639607,-0.6137282785190564,0.0022077020928858563,0.0,-0.002181661564992912
1589995846.0737674,-3.9517616206910358,-0.81,8.924092965528287,0.3033333333333333,-0.3244444444444444,-0.6144444444444445,0.003978997114612928,-0.0017973355496200163,-0.0012829937901829038
1589995846.0837674,-3.950263735370611,-0.8102637353706112,8.860527470741221,0.3033333333333333,-0.3244444444444444,-0.6144444444444445,0.0031574160832110523,-0.003186185149280631,-0.0021528924989233328
1589995846.0937674,-3.958785963914174,-0.8187859639141742,8.877571927828349,0.3033333333333333,-0.3244444444444444,-0.6144444444444445,-0.0005611076091043615,-0.0003972923800440705,-0.0012232615758444795
1589995846.1037674,-3.9654006816919174,-0.82,8.912404090151504,0.3033333333333333,-0.3244444444444444,-0.6144444444444445,-0.001090830782496456,0.0005891229836008427,-0.001090830782496456
1589995846.1137674,-3.9602988722610526,-0.82,8.969103383216844,0.3000996240870174,-0.3271392021497077,-0.6031264620823388,-0.0021490596587538987,0.0016199452206251772,-0.0016199452206251772
1589995846.1237674,-3.95,-0.8133715677590788,8.986743135518157,0.2966666666666667,-0.33,-0.5911111111111111,-0.0018263927618716125,0.0014586117721840344,-1.2512186566279032e-05
1589995846.1337674,-3.9597628444054664,-0.8002371555945335,8.882371555945335,0.2966666666666667,-0.33,-0.5911111111111111,-0.00322075302293772,0.004285714143158352,-0.003169013698386072
1589995846.1437674,-3.9526817424591503,-0.8146365150816999,8.91659128770425,0.2966666666666667,-0.33,-0.5911111111111111,-7.930010757098644e-05,0.0011701308900674422,-0.0024741942875097724
1589995846.1537673,-3.963810137014526,-0.8269050685072628,8.950715205521789,0.2966666666666667,-0.33,-0.5911111111111111,0.0003376046541995445,0.002259678384890735,-0.002181661564992912
1589995846.1637673,-3.960456357432152,-0.8204563574321523,8.969543642567848,0.29136464301786236,-0.337422833108326,-0.5985339442194371,0.0010410499090151783,0.0001493426204438337,-9.956174696255536e-05
1589995846.1737673,-3.96986389423194,-0.82,8.95027221153612,0.2911111111111111,-0.3377777777777778,-0.5988888888888889,1.484683614753771e-05,0.0010759839463489183,0.0
1589995846.1837673,-3.9604083808464283,-0.8104083808464284,8.854083808464283,0.2911111111111111,-0.3377777777777778,-0.5988888888888889,0.0,4.4547439826606375e-05,-0.003138850028009549
1589995846.1937673,-3.950275888773263,-0.81,8.918068778587159,0.2911111111111111,-0.3377777777777778,-0.5988888888888889,0.0,0.0,-0.0011510203757805464
1589995846.2037673,-3.95,-0.825475319060171,8.974163616710598,0.2911111111111111,-0.3377777777777778,-0.5988888888888889,-0.0016880954399788707,-0.0008440477199894354,-0.001090830782496456
1589995846.2137673,-3.9594117093668664,-0.83,9.008823418733732,0.2848366381998669,-0.344052250689022,-0.5654250333622531,-0.003208319794321713,0.003015802134818748,0.0009624856761611459
1589995846.2237673,-3.950971020371372,-0.8390289796286281,8.991942040742744,0.28444444444444444,-0.34444444444444444,-0.5633333333333334,-0.003272492347489368,0.0013026745648011804,0.0020757396738405494
1589995846.2337673,-3.95,-0.8120123946455132,8.878049578582052,0.28444444444444444,-0.34444444444444444,-0.5633333333333334,-0.0022548342991881376,-0.0009444853141060046,0.0011640035166916817
1589995846.2437673,-3.9426365274180837,-0.8026365274180836,8.884726945163834,0.28444444444444444,-0.34444444444444444,-0.5633333333333334,-0.0005752010533082877,-0.0018940610383387682,0.00028760052665414385
1589995846.2537673,-3.9444076098979237,-0.8088152197958475,8.92526087918339,0.28444444444444444,-0.34444444444444444,-0.5633333333333334,0.0,-0.0012200702542146625,0.0
1589995846.2637672,-3.95,-0.8173559089441395,8.96471181788828,0.2876761112904962,-0.3391562623327234,-0.5706780307107236,-0.0005768511830912402,-0.0002884255915456201,-0.0002884255915456201
1589995846.2737672,-3.954625916679669,-0.81,8.973129583398345,0.2966666666666667,-0.3244444444444444,-0.5911111111111111,-0.0011724431027035165,-8.161232020706052e-05,-0.001090830782496456
1589995846.2837672,-3.9544723598786065,-0.81,8.944723598786062,0.2966666666666667,-0.3244444444444444,-0.5911111111111111,-0.000602971999897872,0.000487858782598584,0.00011511321729928796
1589995846.2937672,-3.9560364165189155,-0.8039635834810845,8.930182082594577,0.2966666666666667,-0.3244444444444444,-0.5911111111111111,-0.0004323598870161462,0.0006584708954803098,0.001090830782496456
1589995846.3037672,-3.9480714189097794,-0.8119285810902205,8.985785743270661,0.2966666666666667,-0.3244444444444444,-0.5911111111111111,0.0,-0.0008609787342111891,0.0023920371269682194
1589995846.3137672,-3.966184478248232,-0.82,8.992543681167845,0.2966666666666667,-0.34190076327659896,-0.5872319291484102,-0.0009520944965593361,-0.0012295670684335758,-0.001487980135307313
1589995846.3237672,-3.962155830753354,-0.82,8.958623323013416,0.2966666666666667,-0.34444444444444444,-0.5866666666666667,-0.001090830782496456,-0.0002351646547611039,-0.002181661564992912
1589995846.3337672,-3.96,-0.8287801750571444,8.879758599542843,0.2966666666666667,-0.34444444444444444,-0.5866666666666667,-0.001090830782496456,0.0009577685228040746,-0.0002661245193847628
1589995846.3437672,-3.9510262045242817,-0.8210262045242815,8.896921386427156,0.2966666666666667,-0.34444444444444444,-0.5866666666666667,-0.0020697200165705632,0.0030486092506446716,-0.0009788892340741075
1589995846.3537672,-3.9430520079728333,-0.8130520079728333,8.927791968108666,0.2966666666666667,-0.34444444444444444,-0.5866666666666667,9.206350893910167e-05,0.003272492347489368,0.0011828942914355576
1589995846.3637671,-3.948997414739526,-0.8279948294790522,9.002981903176682,0.3206597726387364,-0.32045133847237467,-0.6186574746294263,-0.0008721006096560362,0.0003280952592606295,0.0012001958689166659
1589995846.3737671,-3.95,-0.83,8.996749555348522,0.3233333333333333,-0.31777777777777777,-0.6222222222222222,-0.00036813113711657314,0.0,0.001090830782496456
1589995846.3837671,-3.932299746794743,-0.812299746794743,8.901498733973716,0.3233333333333333,-0.31777777777777777,-0.6222222222222222,0.0,-0.0009653990527137961,0.0020562298352102522
1589995846.393767,-3.94830238602571,-0.819151193012855,8.954058351089985,0.3233333333333333,-0.31777777777777777,-0.6222222222222222,-0.0009982403034988758,0.0009056498245012957,-0.0018112996490025914
1589995846.403767,-3.9572770434518385,-0.798168869644485,8.96,0.3233333333333333,-0.31777777777777777,-0.6222222222222222,-0.001090830782496456,-0.000496773818069451,-0.000594056964427005
1589995846.413767,-3.96,-0.8012042373569284,8.96,0.320221045178631,-0.3289820151347061,-0.6097730696034129,-0.001090830782496456,-0.0004797344323297487,-0.0006110963501667073
1589995846.423767,-3.9552641046606705,-0.819471790678659,8.96473589533933,0.31777777777777777,-0.3377777777777778,-0.6,-0.0016074368243786696,-0.0005166060418822136,0.001492199426914612
1589995846.433767,-3.95,-0.8200766871165645,8.925345092024541,0.31777777777777777,-0.3377777777777778,-0.6,-0.002181661564992912,-0.0005495980246166959,0.002739624856346544
1589995846.443767,-3.95,-0.8219645900227815,8.907917376719825,0.31777777777777777,-0.3377777777777778,-0.6,-0.0026167063348862462,0.00043504476989333424,0.0006557860126031217
1589995846.453767,-3.95,-0.8341014695591322,8.9588477956613,0.31777777777777777,-0.3377777777777778,-0.6,-0.0023073475610307296,0.001090830782496456,0.0006434298576390922
1589995846.463767,-3.95,-0.8060432944793134,8.993956705520686,0.2945166019099668,-0.3377777777777778,-0.6038768626446351,-0.0007612202002101566,0.001090830782496456,0.0014204413647827554
1589995846.473767,-3.9634607341766914,-0.8201911012650366,8.97307853164662,0.28444444444444444,-0.3377777777777778,-0.6055555555555555,-0.0018249999422432891,0.0032933382617369557,0.0003566616227496228
1589995846.483767,-3.956181405056937,-0.8230907025284684,8.918544215170812,0.28444444444444444,-0.3377777777777778,-0.6055555555555555,-0.0029353490017300734,0.005117010566722985,0.0015073748734743227
1589995846.493767,-3.95,-0.82,8.9,0.28444444444444444,-0.3377777777777778,-0.6055555555555555,-0.004210462922817886,0.003578212761825243,0.00030572041433587506
1589995846.503767,-3.956668588415458,-0.826668588415458,8.93334294207729,0.28444444444444444,-0.3377777777777778,-0.6055555555555555,-0.006545613585800102,0.005454782803303645,0.0
1589995846.513767,-3.9372729915689506,-0.814848661045967,8.965151338954033,0.2987540423454756,-0.32767688514175575,-0.6122894839795703,-0.008462192823830036,0.007371362041333579,0.0008263773463548432
1589995846.523767,-3.942462409756274,-0.816231204878137,8.976231204878138,0.3033333333333333,-0.3244444444444444,-0.6144444444444445,-0.011445522297217233,0.007635815477475192,0.0004111117731850594
1589995846.533767,-3.972339705156239,-0.82,8.965106863229174,0.3033333333333333,-0.3244444444444444,-0.6144444444444445,-0.019588326204976213,0.012509583088739246,0.0008122946018773425
1589995846.543767,-3.885615013258992,-0.7492112599442442,8.991461662247003,0.3033333333333333,-0.3244444444444444,-0.6144444444444445,-0.01752669694398699,0.0133228164312655,-0.0006251366998803946
1589995846.553767,-3.841640544151128,-0.656562176604512,9.006119818616291,0.3033333333333333,-0.3244444444444444,-0.6144444444444445,-0.015027324431457892,0.011087263430974055,0.002247012482475907
1589995846.563767,-3.990340728314002,-0.6716695108900008,9.047001706534001,0.29922203260733327,-0.3278705283827778,-0.608962710143111,-0.018217060221672726,0.009817477042468105,0.00974500319561089
1589995846.573767,-3.8669493897224596,-0.6356497965741532,8.9733447355464,0.2966666666666667,-0.33,-0.6055555555555555,-0.023158889584886273,-0.0007259767331642183,0.041476191093582956
1589995846.583767,-3.833241723641598,-0.6027930460597337,8.803067875134941,0.2966666666666667,-0.33,-0.6055555555555555,-0.028715217538567983,-0.01851414410092368,0.09843845001379292
1589995846.593767,-3.925218465771573,-0.6075218465771572,8.734956306845685,0.2966666666666667,-0.33,-0.6055555555555555,-0.0428508545912689,-0.03630586989629016,0.15692369648625668
1589995846.603767,-3.860452478805567,-0.5524337363750075,8.85792503027776,0.2966666666666667,-0.33,-0.6055555555555555,-0.07760552704067769,-0.06826965112812348,0.22319653520338092
1589995846.613767,-3.452307415759715,-0.3333777821355035,9.054414811909664,0.28111481517795867,-0.32568004125313665,-0.5908676958162202,-0.132224042400323,-0.12131573457535846,0.3268680482690057
1589995846.623767,-2.259500042513392,-0.8924725788623418,9.4485205339682,0.2766666666666667,-0.3244444444444444,-0.5866666666666667,-0.1437135934124723,-0.09777056665373303,0.4351544364980881
1589995846.633767,-1.8312,-1.1392,9.3544,0.2766666666666667,-0.3244444444444444,-0.5866666666666667,-0.07913613716750954,-0.037000980142279795,0.5323981439104369
1589995846.6437669,-1.7512070798674089,-1.444625367440115,9.044828319469636,0.2766666666666667,-0.3244444444444444,-0.5866666666666667,0.14067572496666184,0.008607459232826653,0.5887256850592535
1589995846.6537669,-1.8287400592093805,-1.3377398850641435,8.885159923376095,0.2766666666666667,-0.3244444444444444,-0.5866666666666667,0.1166381277978775,0.03814418751907878,0.5660800713553943
1589995846.6637669,-1.9553519116968143,-1.09685482855584,8.745986066227388,0.2821256930746166,-0.3273839202025713,-0.5938053935078319,0.04738715968666152,0.040885758779190096,0.5080712272356113
1589995846.6737669,-2.1431418225507697,-0.96,8.92080931800357,0.2911111111111111,-0.3322222222222222,-0.6055555555555555,0.015056129667818111,-0.009642786118183248,0.4058991953819866
1589995846.6837668,-2.3057334976236574,-0.9278331279704277,9.142099630346769,0.2911111111111111,-0.3322222222222222,-0.6055555555555555,-0.012899107605447442,-0.031595920335495215,0.3174479252741304
1589995846.6937668,-2.3943018606963022,-0.8452992025587275,9.049401594882545,0.2911111111111111,-0.3322222222222222,-0.6055555555555555,-0.012238483472386274,-0.02365956875247289,0.20977531912347797
1589995846.7037668,-2.419269105905063,-0.8085382118101254,9.085365447047469,0.2911111111111111,-0.3322222222222222,-0.6055555555555555,0.004682235840986805,-0.007822454068847315,0.11496669234648002
1589995846.7137668,-2.41,-0.79,9.115775323957017,0.28022819655148196,-0.33966842692091587,-0.6175840400688299,0.004228003571790546,-0.0004608406673761792,0.021385101402728687
1589995846.7237668,-2.41,-0.80694218359869,9.00446253121048,0.27,-0.3466666666666667,-0.6288888888888889,-0.0018481055392157604,0.0034137319244700853,-0.08100706977664918
1589995846.7337668,-2.4154387002040467,-0.7982451991838135,8.774909895306928,0.27,-0.3466666666666667,-0.6288888888888889,0.0008803987720512885,0.014448915848870276,-0.17428511217645615
1589995846.7437668,-2.47381704176464,-0.7934542604411601,8.696908520882321,0.27,-0.3466666666666667,-0.6288888888888889,0.010967667780209578,0.03171323929939057,-0.2816511400745382
1589995846.7537668,-2.527275866605275,-0.794544826678945,8.802737946457937,0.27,-0.3466666666666667,-0.6288888888888889,0.01299066597596187,0.03837768421536715,-0.3678146076151174
1589995846.7637668,-2.580938648979886,-0.8003128829932954,8.952190180953068,0.2774481932729356,-0.3466666666666667,-0.6139925023430178,0.015374021675072246,0.03586089486222056,-0.4640481125803253
1589995846.7737668,-2.6492652354434365,-0.8156093193490623,9.053655916094375,0.28444444444444444,-0.3466666666666667,-0.6,0.01854412330243975,0.038364792728688445,-0.5636095918167247
1589995846.7837667,-2.692121773496357,-0.838182660244535,9.013330245770039,0.28444444444444444,-0.3466666666666667,-0.6,0.023172104586336194,0.0476000724003409,-0.6605171690932077
1589995846.7937667,-2.7209411624013393,-0.8779215498684525,9.06074503707247,0.28444444444444444,-0.3466666666666667,-0.6,0.02617993877991494,0.0524625424517008,-0.7640477794165746
1589995846.8037667,-2.749455513711698,-0.8948638784279245,9.1,0.28444444444444444,-0.3466666666666667,-0.6,0.027241072442215023,0.058225809822676715,-0.8365404590292269
1589995846.8137667,-2.745135820354944,-0.9049728359290112,9.075135820354944,0.2877596683971186,-0.34279890538854685,-0.6,0.029988957097208797,0.07086251689553218,-0.9660197496577478
1589995846.8237667,-2.6761041918724646,-0.9538958081275354,8.92562854363865,0.2911111111111111,-0.3388888888888889,-0.6,0.031634092692397225,0.07853981633974483,-1.050470043544087
1589995846.8337667,-2.6842241379310345,-0.9881681034482759,8.831551724137931,0.2911111111111111,-0.3388888888888889,-0.6,0.02833103827557067,0.08118225987320607,-1.1026583033299466
1589995846.8437667,-2.7137444933920705,-0.9931277533039647,8.758766519823789,0.2911111111111111,-0.3388888888888889,-0.6,0.03217710537267079,0.09114924353476994,-1.2400967990863454
1589995846.8537667,-2.7257120369210956,-1.0185601846054773,8.74,0.2911111111111111,-0.3388888888888889,-0.6,0.038645104462458925,0.09552536464762039,-1.3258116907123987
1589995846.8637667,-2.7610551439618116,-1.0671732509665854,8.821519752899755,0.30146282576504835,-0.33155642434235,-0.6021566072195702,0.04272191624693045,0.09556966002233308,-1.3802187621019009
1589995846.8737667,-2.81,-1.11,8.968732418583857,0.31777777777777777,-0.32,-0.6055555555555555,0.04625660449399575,0.09643482048883271,-1.4504016795726598
1589995846.8837667,-2.803828622031647,-1.1470282678101187,8.977657244063295,0.31777777777777777,-0.32,-0.6055555555555555,0.04934294024150406,0.10288712076549103,-1.5189535331750066
1589995846.8937666,-2.8,-1.1817173758295254,8.987576063744289,0.31777777777777777,-0.32,-0.6055555555555555,0.04890004857034435,0.10836692075114146,-1.5683727482238337
1589995846.9037666,-2.845092417955488,-1.2170554507732931,9.031564692568843,0.31777777777777777,-0.32,-0.6055555555555555,0.04848843640547449,0.11361708286155504,-1.6089086622913178
1589995846.9137666,-2.9186497093023256,-1.2639872819767441,9.042025436046512,0.33280115471576227,-0.3106751453488372,-0.6096999354005168,0.048070201362761154,0.11780972450961726,-1.6508480456977506
1589995846.9237666,-2.9267920230681623,-1.2998119653977562,8.990188034602244,0.35,-0.3,-0.6144444444444445,0.04546495686617246,0.11636895772844211,-1.6923938131102887
1589995846.9337666,-2.8846525756233388,-1.368912373961102,8.856284014681686,0.35,-0.3,-0.6144444444444445,0.04151089053301906,0.11819860018409284,-1.723799345865345
1589995846.9437666,-2.86,-1.4372885185365143,8.780915407414605,0.35,-0.3,-0.6144444444444445,0.0446279962549763,0.12177741543631146,-1.7519816714104646
1589995846.9537666,-2.842321425176341,-1.4732589311177444,8.785580356294085,0.35,-0.3,-0.6144444444444445,0.05246214359379551,0.1247102034427231,-1.7735155421009265
1589995846.9637666,-2.8283210714128373,-1.506642142825675,8.79386845235473,0.35893744707304776,-0.2910625529269522,-0.6203000132164412,0.05763088877386315,0.12714149615895387,-1.7905309940616183
1589995846.9737666,-2.8437763095157007,-1.5686710714528984,8.864230297663648,0.38222222222222224,-0.2677777777777778,-0.6355555555555555,0.0616929413275561,0.129057481992632,-1.8095928269695956
1589995846.9837666,-2.8392574595055415,-1.6192574595055413,8.879826513213981,0.38222222222222224,-0.2677777777777778,-0.6355555555555555,0.06645967912942326,0.13081869529671417,-1.8304329775017076
1589995846.9937665,-2.859508420185727,-1.6680336807429075,8.871804731207225,0.38222222222222224,-0.2677777777777778,-0.6355555555555555,0.06088965818430427,0.12991610919577087,-1.8484219459380296
1589995847.0037665,-2.8606413604736938,-1.7567931976315316,8.982113877868377,0.38222222222222224,-0.2677777777777778,-0.6355555555555555,0.05447157755008463,0.1281376361559645,-1.86394996098749
1589995847.0137665,-2.85593903293623,-1.8218780658724598,9.012182901191311,0.3964099120143269,-0.26348847621272287,-0.6335758779101456,0.0575759138908492,0.13130942431262171,-1.8708605983972137
1589995847.0237665,-2.861393115674398,-1.858606884325602,8.954937952430196,0.43,-0.2533333333333333,-0.6288888888888889,0.060534340088641225,0.13650581315817817,-1.8783413931257484
1589995847.0337665,-2.818933238256529,-1.897377841162314,8.863110794188431,0.43,-0.2533333333333333,-0.6288888888888889,0.05252954506276743,0.1318741590273344,-1.8884608158108387
1589995847.0437665,-2.78260041801254,-1.9249139274178224,8.79254303629109,0.43,-0.2533333333333333,-0.6288888888888889,0.049629670916183144,0.12980886311707826,-1.8923202647794295
1589995847.0537665,-2.7027044386530132,-1.9836477806734933,8.783647780673494,0.43,-0.2533333333333333,-0.6288888888888889,0.0527577887044741,0.1322900996623127,-1.8944780607031355
1589995847.0637665,-2.665394358605821,-2.0230282069708947,8.80460564139418,0.45353994490358124,-0.22979338842975205,-0.6386119096099334,0.05604873174659588,0.13375582440778747,-1.899552754165606
1589995847.0737665,-2.6545383579466346,-2.1100780625870215,8.842769852320194,0.4811111111111111,-0.20222222222222225,-0.65,0.06079289510970634,0.13377784286450767,-1.9037011448012382
1589995847.0837665,-2.6552406518743763,-2.1914439112462585,8.87,0.4811111111111111,-0.20222222222222225,-0.65,0.06612651757725321,0.13640634990654404,-1.9039663777058333
1589995847.0937665,-2.6555669539881026,-2.242165230059488,8.852267815952409,0.4811111111111111,-0.20222222222222225,-0.65,0.07162376112727732,0.14179681133955432,-1.9062774471138197
1589995847.1037664,-2.6424777146431735,-2.2925668560704793,8.84128342803524,0.4811111111111111,-0.20222222222222225,-0.65,0.06952344569689149,0.141928554362755,-1.91605885518696
1589995847.1137664,-2.5833080757152325,-2.381879915871964,8.911879915871964,0.4874519897176845,-0.17570582077655172,-0.6540351045678194,0.058297926760511126,0.13364727755683228,-1.932714331707718
1589995847.1237664,-2.516476234855545,-2.4358809412861135,8.936476234855546,0.4933333333333334,-0.1511111111111111,-0.6577777777777778,0.05993075658228927,0.13994578685351647,-1.9527766744525947
1589995847.1337664,-2.472100189724229,-2.4539499051378857,8.836300569172687,0.4933333333333334,-0.1511111111111111,-0.6577777777777778,0.06167012173772096,0.14246796469580106,-1.9714584042201684
1589995847.1437664,-2.407723860204228,-2.4740345174744713,8.731930965051058,0.4933333333333334,-0.1511111111111111,-0.6577777777777778,0.0593261334783322,0.1407171709420428,-1.995453094968842
1589995847.1537664,-2.3378019723205123,-2.5021980276794875,8.751077238751282,0.4933333333333334,-0.1511111111111111,-0.6577777777777778,0.056238914851745835,0.14168574261818254,-2.030139342982833
1589995847.1637664,-2.3061896035067733,-2.56429356843904,8.801431189479679,0.5064580323655586,-0.13121237386870513,-0.6683622124811852,0.05771061880148336,0.14497708140119983,-2.063231364458322
1589995847.1737664,-2.2865184625479706,-2.6267407687260147,8.816629615636993,0.5277777777777778,-0.09888888888888887,-0.6855555555555556,0.06402773902941199,0.1516618535303298,-2.096354611110277
1589995847.1837664,-2.2637681794287716,-2.653188628000701,8.804347730856843,0.5277777777777778,-0.09888888888888887,-0.6855555555555556,0.070635259302748,0.15755389654475502,-2.1288591526566365
1589995847.1937664,-2.28,-2.721659909372764,8.79943318228794,0.5277777777777778,-0.09888888888888887,-0.6855555555555556,0.0739645100753435,0.15659383618982076,-2.1662044433754475
1589995847.2037663,-2.2767807863115834,-2.77,8.883219213688417,0.5277777777777778,-0.09888888888888887,-0.6855555555555556,0.07273450068858671,0.1629222938971167,-2.1992419458527173
1589995847.2137663,-2.2705510419296866,-2.77,8.889448958070314,0.5277777777777778,-0.09888888888888887,-0.6855555555555556,0.07205494099470089,0.16156317450934513,-2.212153580036547
1589995847.2237663,-2.229745460716104,-2.863630295831212,8.89312121726342,0.5611111111111111,-0.04,-0.6844444444444444,0.06651291180366097,0.1618111937250781,-2.2417405558160857
1589995847.2337663,-2.153187159929439,-2.91460160500882,8.809382344902978,0.5611111111111111,-0.04,-0.6844444444444444,0.06569105527705557,0.1635377010704741,-2.25725701361643
1589995847.2437663,-2.0784541988987226,-2.924506543014468,8.67789531176851,0.5611111111111111,-0.04,-0.6844444444444444,0.06637205698979479,0.16668179849409537,-2.2646256695912004
1589995847.2537663,-2.036320501914079,-2.9741539770310506,8.711423436835389,0.5611111111111111,-0.04,-0.6844444444444444,0.054149935049779406,0.1650650615106914,-2.272025713263255
1589995847.2637663,-2.0220416666666665,-3.0553055555555555,8.893472222222222,0.5561003086419753,-0.023493827160493825,-0.6900447530864198,0.047016321768350716,0.16337918044840669,-2.272579280628485
1589995847.2737663,-1.9974166240736009,-3.072583375926399,8.776082609251214,0.5422222222222223,0.022222222222222227,-0.7055555555555556,0.06854967553139153,0.177241812350267,-2.2611830732827105
1589995847.2837663,-1.99,-3.106480677158037,8.672697723278318,0.5422222222222223,0.022222222222222227,-0.7055555555555556,0.06713257920534203,0.1731478184574719,-2.2473481725319226
1589995847.2937663,-1.948626821437392,-3.1672388244010867,8.71,0.5422222222222223,0.022222222222222227,-0.7055555555555556,0.05581960808806388,0.16945486409316582,-2.2311641070923423
1589995847.3037663,-1.842329867404369,-3.2158115043403606,8.757434513021082,0.5422222222222223,0.022222222222222227,-0.7055555555555556,0.06309114260187548,0.17534390476505965,-2.1977727495984714
1589995847.3137662,-1.766444840634551,-3.24,8.848641755203028,0.5500931855301671,0.03962119374504763,-0.7221260046249132,0.05740733146400765,0.17349877126009633,-2.1646716493244327
1589995847.3237662,-1.6560524853104652,-3.210574082896618,8.781913609655392,0.5633333333333334,0.06888888888888889,-0.75,0.05725817895947501,0.1634993719154014,-2.128072489001305
1589995847.3337662,-1.6085003134141245,-3.225335004875331,8.660165935367042,0.5633333333333334,0.06888888888888889,-0.75,0.05225058935251542,0.16738788100954877,-2.0961945971143625
1589995847.3437662,-1.6294508265620622,-3.339725413281031,8.616864667974221,0.5633333333333334,0.06888888888888889,-0.75,0.03746021103813762,0.160202361204221,-2.069438336712622
1589995847.3537662,-1.6010811193431174,-3.3322297201642206,8.835473078193573,0.5633333333333334,0.06888888888888889,-0.75,0.020025554999361345,0.1558708700710907,-2.0240586773984073
1589995847.3637662,-1.574690670567694,-3.3388273323580764,8.762899344061157,0.5633333333333334,0.06888888888888889,-0.75,0.04377525395706684,0.15874962145990348,-1.9902333485798571
1589995847.3737662,-1.5247371339840283,-3.324737133984028,8.80271905501331,0.5877777777777777,0.06666666666666668,-0.7711111111111111,0.026141706467662403,0.15103227298544347,-1.9218144448852403
1589995847.3837662,-1.4458153970376726,-3.2648068431278543,8.756437637203199,0.5877777777777777,0.06666666666666668,-0.7711111111111111,0.02584989028472393,0.15159974318673855,-1.8570855276297602
1589995847.3937662,-1.4128577069896011,-3.3085731209688034,8.6161903821684,0.5877777777777777,0.06666666666666668,-0.7711111111111111,0.031841767422126147,0.1628973250592815,-1.7897929668325354
1589995847.4037662,-1.4530084383561643,-3.441059068493151,8.646101260273973,0.5877777777777777,0.06666666666666668,-0.7711111111111111,0.023776429130959627,0.15226340856292125,-1.7295679007781655
1589995847.4137661,-1.4521314043975557,-3.5083600564057034,8.737868595602444,0.5909835019121069,0.070163820267753,-0.7728596879116543,0.01729246234816769,0.13996606042674364,-1.665591954471251
1589995847.4237661,-1.4091074153188892,-3.528661122978334,8.80178516936222,0.6,0.08,-0.7777777777777778,0.0053567880278682384,0.13373403976630086,-1.5842372572025567
1589995847.4337661,-1.3633740885919128,-3.5097554684485246,8.826992708735302,0.6,0.08,-0.7777777777777778,0.0028977678140055026,0.11417584475582605,-1.5084242988760723
1589995847.443766,-1.3343392185238785,-3.569118958031838,8.71738986975398,0.6,0.08,-0.7777777777777778,0.008538031988057498,0.10946030679347388,-1.4307783610195444
1589995847.453766,-1.296468281339298,-3.535873125357192,8.68089273397316,0.6,0.08,-0.7777777777777778,0.01523917023166698,0.09570524028651724,-1.339325809651803
1589995847.463766,-1.3149829776090087,-3.599965955218017,8.68228722011261,0.5878193880668674,0.06117541792152241,-0.7777777777777778,0.016366175447063824,0.08809294153322703,-1.2580739456789731
1589995847.473766,-1.3168019999074116,-3.634399333364196,8.79081199944447,0.5511111111111111,0.004444444444444445,-0.7777777777777778,0.01692911199486051,0.0816812635559635,-1.1535377715252537
1589995847.483766,-1.2895104543775397,-3.6452447728112305,8.69,0.5511111111111111,0.004444444444444445,-0.7777777777777778,0.02038632574250654,0.07975650167340098,-1.0799452825851557
1589995847.493766,-1.2647196158108607,-3.65764019209457,8.69,0.5511111111111111,0.004444444444444445,-0.7777777777777778,0.01700599951345232,0.0723197839694817,-1.0258600629202883
1589995847.503766,-1.184592134755145,-3.6345921347551453,8.69081573048971,0.5511111111111111,0.004444444444444445,-0.7777777777777778,0.022120904315534835,0.0689283101982711,-0.9206282102647991
1589995847.513766,-1.1418600149426068,-3.5918600149426068,8.776279970114787,0.5511111111111111,0.004444444444444445,-0.7777777777777778,0.01590576942315572,0.0619362834443446,-0.8600306450641029
1589995847.523766,-1.2018887655193298,-3.6966106793176543,8.830388210356315,0.4977777777777778,0.08888888888888889,-0.6411111111111111,0.017144243984532872,0.05392344205400195,-0.7521707773008887
1589995847.533766,-1.2188234581608963,-3.755882103563137,8.92352901988493,0.4977777777777778,0.08888888888888889,-0.6411111111111111,0.014373311380702315,0.04838157684634084,-0.6792028854000173
1589995847.543766,-1.135763942476324,-3.692708172571028,8.614721150473517,0.4977777777777778,0.08888888888888889,-0.6411111111111111,0.016373921008557245,0.039345742144299214,-0.5856323823489714
1589995847.553766,-1.1210522623640828,-3.736843212907752,8.908954752718344,0.4977777777777778,0.08888888888888889,-0.6411111111111111,-0.010105202313754433,0.016878607204155967,-0.5358837264100829
1589995847.563766,-1.1361398354876615,-3.7261398354876616,8.681286721504112,0.49834965400182796,0.09660921791356575,-0.6392525133829481,0.008726646259971648,0.02699005047737412,-0.4484961657723781
1589995847.573766,-1.1191638870358018,-3.705639315098955,8.75626195241272,0.5022222222222222,0.14888888888888888,-0.6266666666666667,0.00880354049124836,0.02608873300401575,-0.3854424008694683
1589995847.583766,-1.1945235297517,-3.6370739506481997,9.38637605224125,0.5022222222222222,0.14888888888888888,-0.6266666666666667,0.02966033049292008,0.10198749854005099,-0.28415193161943225
1589995847.593766,-1.0305731642063518,-3.270573164206352,8.437403921815493,0.5022222222222222,0.14888888888888888,-0.6266666666666667,0.09315054893668714,0.13389414817219533,-0.21910196852307776
1589995847.603766,-0.8768710239395541,-3.2371247088300352,7.848794801025701,0.5022222222222222,0.14888888888888888,-0.6266666666666667,0.03862188375234965,-0.15876546983513476,-0.2250386231703333
1589995847.613766,-1.0925505330085725,-3.717606680795875,9.789842786195551,0.49832459923308625,0.1653145857716762,-0.6138601911309343,-0.17960106310698726,-0.024796188549323955,-0.1693030932721153
1589995847.623766,-1.0725958261958703,-3.6381278664972094,8.833702823672432,0.4866666666666667,0.21444444444444444,-0.5755555555555556,0.01600964103897679,0.014649613689390249,-0.07648351060264227
1589995847.633766,-0.9355035635882477,-3.2905340871500317,7.65822993414128,0.4866666666666667,0.21444444444444444,-0.5755555555555556,0.07748726780315622,0.029006887456521482,-0.014335602159119814
1589995847.643766,-1.1281127940857756,-3.745140992607219,9.155965275603823,0.4866666666666667,0.21444444444444444,-0.5755555555555556,-0.0447832175937613,-0.023910726007320693,0.030988110304958863
1589995847.653766,-1.1891771971302787,-3.852826919941301,9.302700554377955,0.4866666666666667,0.21444444444444444,-0.5755555555555556,-0.01987664700513267,-0.026474523564442864,0.08268676972459664
1589995847.663766,-1.1900008451299386,-3.8883359391506445,9.043337840693006,0.4905553912247342,0.22018494260159166,-0.5803701669131629,0.03308888712833091,-0.013271628553862757,0.14089869182188525
1589995847.673766,-1.1004783185531737,-3.6061957963829343,8.56064520634034,0.51,0.2488888888888889,-0.6044444444444445,-0.006631132981760629,-0.02997175828857049,0.17948595658429536
1589995847.683766,-1.189833241162207,-3.779166205811035,8.995888458756966,0.51,0.2488888888888889,-0.6044444444444445,0.013071778822605677,-0.026564771369324187,0.24995486901417865
1589995847.6937659,-1.1596451491128728,-3.5954322385805964,8.773348433371083,0.51,0.2488888888888889,-0.6044444444444445,0.008937070771053449,-0.03289663975888803,0.2963575987952489
1589995847.7037659,-1.197344011217171,-3.655750417947474,8.630092757374749,0.51,0.2488888888888889,-0.6044444444444445,0.0097595323560226,-0.03783140926870293,0.33336837011886067
1589995847.7137659,-1.197226843790976,-3.790840265686464,8.800714086111649,0.5126096935911858,0.2496918715323307,-0.6044444444444445,0.00427166436235876,-0.028045331872727286,0.4005823453662143
1589995847.7237659,-1.2369516514789138,-3.8481102600587325,8.952744694378008,0.5244444444444445,0.2533333333333333,-0.6044444444444445,-0.0015963691439888645,-0.04081964678299982,0.44126131202313335
1589995847.7337658,-1.273711801559903,-3.858808519188266,8.896425557564799,0.5244444444444445,0.2533333333333333,-0.6044444444444445,-0.006723273073187191,-0.03802800647951089,0.48674325231231463
1589995847.7437658,-1.2200831095767803,-3.6902612015270244,8.390783604581074,0.5244444444444445,0.2533333333333333,-0.6044444444444445,-0.010901832218916531,-0.04471370111267785,0.5126503190158365
1589995847.7537658,-1.3163340639729988,-3.847223439954998,8.880390471941498,0.5244444444444445,0.2533333333333333,-0.6044444444444445,-0.011805106867785489,-0.04586931485334029,0.5582261411358127
1589995847.7637658,-1.27,-3.762790433151957,8.78,0.5253183313351164,0.2533333333333333,-0.6031336141084366,-0.017543197445636458,-0.05345070834232633,0.5898697385535032
1589995847.7737658,-1.2853194312376994,-3.682979146856549,8.7646805687623,0.5377777777777778,0.2533333333333333,-0.5844444444444444,-0.006893188899780406,-0.054843283939361345,0.6396447318331195
1589995847.7837658,-1.33,-3.7944641348049886,8.724234679505237,0.5377777777777778,0.2533333333333333,-0.5844444444444444,-0.016760394706195385,-0.059135828192724595,0.6684983631132467
1589995847.7937658,-1.3344439136060515,-3.908894993530407,8.757775654424206,0.5377777777777778,0.2533333333333333,-0.5844444444444444,-0.012726532845583165,-0.05975331514949329,0.7097660999873847
1589995847.8037658,-1.35,-3.728212895793767,8.815979015535977,0.5377777777777778,0.2533333333333333,-0.5844444444444444,-0.008269379668373768,-0.05914854078976962,0.7445615126248134
1589995847.8137658,-1.35,-3.702095644322675,8.75721519972602,0.5377777777777778,0.2533333333333333,-0.5844444444444444,-0.017528467772505826,-0.0627097285221281,0.7694898267513228
1589995847.8237658,-1.35,-3.6983313600710375,8.746662720142075,0.5544404979198527,0.25240762665877364,-0.6011071645865194,-0.013637322026934566,-0.06345020576473595,0.8155696355645505
1589995847.8337657,-1.3448756344113084,-3.748781091397173,8.731716370957594,0.5577777777777778,0.25222222222222224,-0.6044444444444445,-0.031395300449880176,-0.06598169615979275,0.8723688695197496
1589995847.8437657,-1.3800556105736268,-3.7399443894263733,8.600370737157512,0.5577777777777778,0.25222222222222224,-0.6044444444444445,-0.02184088034014691,-0.06982328036736393,0.9174695703802456
1589995847.8537657,-1.4142496083310294,-3.712428347617731,8.800607086904433,0.5577777777777778,0.25222222222222224,-0.6044444444444445,-0.03470791631498486,-0.07506865526735375,0.9635383898947996
1589995847.8637657,-1.483745891962605,-3.7473778756261766,8.816368016336428,0.5621896060892903,0.25147304382970126,-0.606608737578394,-0.031715815377611534,-0.07236258372823047,1.0039036361054932
1589995847.8737657,-1.584827020823086,-3.655864895884571,8.907594687653713,0.6755555555555556,0.23222222222222225,-0.6622222222222223,-0.03592193941801946,-0.0833919475577062,1.0493405802892148
1589995847.8837657,-1.6,-3.5850139077340573,8.68,0.6755555555555556,0.23222222222222225,-0.6622222222222223,-0.04172200178282582,-0.08863075962705826,1.0802961989219397
1589995847.8937657,-1.6,-3.6276967435549525,8.68,0.6755555555555556,0.23222222222222225,-0.6622222222222223,-0.03473803910317454,-0.09095874718694202,1.1113360330537232
1589995847.9037657,-1.6537955529401873,-3.580948888235047,8.72233554705561,0.6755555555555556,0.23222222222222225,-0.6622222222222223,-0.035838153886230656,-0.08679667771478274,1.170755950720432
1589995847.9137657,-1.68905510487159,-3.5897637762178976,8.836929090832667,0.6755555555555556,0.23222222222222225,-0.6622222222222223,-0.04449214992658708,-0.09256600840835369,1.2140259309222141
1589995847.9237657,-1.6669052044609665,-3.55,8.72898931226766,1.1911111111111108,0.1988888888888889,-0.8277777777777777,-0.038971349001243036,-0.09580479862005177,1.291518301894426
1589995847.9337656,-1.6947484067976633,-3.55,8.805558118693574,1.1911111111111108,0.1988888888888889,-0.8277777777777777,-0.046564404549279556,-0.09504549306524811,1.3310021907442162
1589995847.9437656,-1.6730451896534095,-3.5846994172375015,8.738609037930683,1.1911111111111108,0.1988888888888889,-0.8277777777777777,-0.049571294297838124,-0.09941733163142719,1.3909978372804868
1589995847.9537656,-1.637310090992741,-3.5060822001840304,8.731462018198549,1.1911111111111108,0.1988888888888889,-0.8277777777777777,-0.04645281864706971,-0.1001969505441193,1.41438640466125
1589995847.9637656,-1.6491945459252653,-3.614764548514225,8.758791818887898,1.1911111111111108,0.1988888888888889,-0.8277777777777777,-0.04267419263215294,-0.10663783245507036,1.4369681493465123
1589995847.9737656,-1.6664038761101332,-3.5953941858347997,8.8092116283304,1.1573920324402813,-0.27591219185441435,-0.9243783815374518,-0.046121171120000116,-0.10421733873267394,1.4323468154263714
1589995847.9837656,-1.712504382786751,-3.52,8.681252191393375,1.15,-0.38,-0.9455555555555556,-0.042132621842120424,-0.10471975511965977,1.3981604032680794
1589995847.9937656,-1.73,-3.5147159589187926,8.691761347027068,1.15,-0.38,-0.9455555555555556,-0.03898170843650457,-0.10414335565292407,1.3445884474854664
1589995848.0037656,-1.73,-3.465672246799057,8.708109251066983,1.15,-0.38,-0.9455555555555556,-0.03630678889309944,-0.09879351656611385,1.2901984167695624
1589995848.0137656,-1.7978736864118785,-3.518177445495896,8.845747372823757,1.15,-0.38,-0.9455555555555556,-0.03176663259612085,-0.09077089977872217,1.205638341312478
1589995848.0237656,-1.771472342211574,-3.505736171105787,8.814340427764467,0.8100454113545874,-0.10898725100995083,-0.7704274341321612,-0.031634092692397225,-0.08587112785698482,1.1440605432841247
1589995848.0337656,-1.7868271250525136,-3.5715390001400364,8.78211524996499,0.6733333333333333,0.0,-0.7,-0.0228549365484481,-0.07521481410827799,1.046148117297179
1589995848.0437655,-1.776129256428075,-3.5245170257123,8.682904794996526,0.6733333333333333,0.0,-0.7,-0.028625400978895883,-0.07266342980332194,0.9700487525676805
1589995848.0537655,-1.8130809944982242,-3.5689295911971586,8.760626784595027,0.6733333333333333,0.0,-0.7,-0.03539361868753508,-0.06729542415084376,0.8632258516116187
1589995848.0637655,-1.8058756788929395,-3.523502715571758,8.75175135778588,0.6733333333333333,0.0,-0.7,-0.027523431487387742,-0.05883705560956081,0.7884486711531793
1589995848.0737655,-1.8,-3.5180986329814847,8.830493164907423,0.5979223625771471,0.08345480763684605,-0.7,-0.019062640720594753,-0.0546452426084538,0.6736492600671318
1589995848.0837655,-1.7925175626145389,-3.4376931887599267,8.795105375687232,0.59,0.09222222222222222,-0.7,-0.021808952513705106,-0.047195673399475745,0.5786141797446261
1589995848.0937655,-1.67,-3.4497737103568125,8.72943427589203,0.59,0.09222222222222222,-0.7,-0.013015916277392686,-0.03478316318561195,0.4093548506307619
1589995848.1037655,-1.67,-3.433928524206192,8.68982131051548,0.59,0.09222222222222222,-0.7,-0.007830591235147677,-0.026140954781870264,0.27712906205351406
1589995848.1137655,-1.7059506510527964,-3.349111035131208,8.760888964868792,0.59,0.09222222222222222,-0.7,0.004239436430295513,-0.011253052248688831,0.07081495535433868
1589995848.1237655,-1.745052958363769,-3.4188691563184808,8.866395635500366,0.588052613424235,0.09514330208586966,-0.7048684664394124,-0.0002813729876326226,0.0006976556077425509,-0.11888491792607533
1589995848.1337655,-1.69,-3.4016200763824544,8.760838625115817,0.5877777777777777,0.09555555555555556,-0.7055555555555556,0.014296536551831135,0.02010413630190882,-0.36383711563952476
1589995848.1437654,-1.6992497978212264,-3.4215622472765332,8.629655820370106,0.5877777777777777,0.09555555555555556,-0.7055555555555556,0.025675440570151822,0.035203124334238715,-0.5394153808588378
1589995848.1537654,-1.7633715126568434,-3.502424585893535,8.781893853526615,0.5877777777777777,0.09555555555555556,-0.7055555555555556,0.02253967145345945,0.047054417099474576,-0.7090558432281014
1589995848.1637654,-1.7049887649386546,-3.4357014456441766,8.798574638588956,0.5877777777777777,0.09555555555555556,-0.7055555555555556,0.028908241291231967,0.05797196539279889,-0.8437056055124346
1589995848.1737654,-1.6620836049189587,-3.332656759223048,8.794895493851302,0.54,0.04,-0.7355555555555555,0.03857112802840616,0.07446630068397718,-1.0342671797401852
1589995848.1837654,-1.7253891894787592,-3.463842342101034,8.706157657898967,0.54,0.04,-0.7355555555555555,0.046318935341651025,0.08869260098546812,-1.1752330765335812
1589995848.1937654,-4.599040302267001,-5.476820738874895,6.930202350965575,0.54,0.04,-0.7355555555555555,0.0418383063410023,0.09443288195961869,-1.3315545593850373
1589995848.2037654,-19.565037701199092,-15.449732310683807,-2.2707287458139787,0.54,0.04,-0.7355555555555555,0.0021574104064061295,0.2050382666874036,-1.5092792683151695
1589995848.2137654,-1.5499822836772168,-1.5487790860970065,-0.16836815382953452,0.54,0.04,-0.7355555555555555,-1.2571913971998818,2.5932539018340224,-3.117568522612996
1589995848.2237654,3.4639659379680583,0.6316611972198382,0.0,0.52,0.13666666666666666,-0.6022222222222222,-0.08575105575256986,-1.1114045475441305,-5.977262777087959
1589995848.2337654,0.5911093721075038,-0.5894793086619208,0.0,0.52,0.13666666666666666,-0.6022222222222222,-0.0826711536633927,-0.7225669087855153,-5.934144147839478
1589995848.2437654,-0.02,-0.84227567098411,-0.09884263586593671,0.52,0.13666666666666666,-0.6022222222222222,-0.03471508153190326,-0.26299090449143364,-5.648479211364483
1589995848.2537653,-0.02,-0.7792687608492456,-0.007832654560021371,0.52,0.13666666666666666,-0.6022222222222222,-0.006459465396918482,-0.1125488402051634,-5.462908543234719
1589995848.2637653,-0.3048294360819212,-0.7140597683738836,0.13944460222790242,0.52,0.13666666666666666,-0.6022222222222222,-0.0068386818213083695,0.024665016506984702,-5.154590003612255
1589995848.2737653,5.154066052359628,-4.566646141922149,10.507849638305201,0.5143492364220921,0.2704014046771539,-0.6229416886745512,-0.05016760077967834,0.06693527252231796,-4.877168119832606
1589995848.2837653,1.8849299949393932,3.158530496180447,11.441482034845894,0.5133333333333333,0.29444444444444445,-0.6266666666666667,1.187069543178262,1.493196769419875,-4.419891579228148
1589995848.2937653,0.07796608165003074,0.7139254458583661,2.3061694025261366,0.5133333333333333,0.29444444444444445,-0.6266666666666667,1.4920723918009133,1.7929449780418079,-3.8348855118072
1589995848.3037653,1.2725106955139958,-0.5645238968341278,7.556897282320825,0.5133333333333333,0.29444444444444445,-0.6266666666666667,-0.1438253030958447,-0.39075609353559754,-3.310394439282623
1589995848.3137653,1.6826610438821659,-0.2825455323310109,8.411377174754513,0.5133333333333333,0.29444444444444445,-0.6266666666666667,0.27654862623476345,0.2607768922783604,-3.146346076617019
1589995848.3237653,1.043566182155559,-0.8665526905829595,8.632406834699243,0.43666666666666665,0.36777777777777776,-0.62,0.07944588312527562,0.6949548480132044,-2.911122644425738
1589995848.3337653,-0.6589291789083036,-2.5122982062780266,17.031383949280965,0.43666666666666665,0.36777777777777776,-0.62,-0.2787157409208583,0.4261125425563534,-2.7590144979172564
1589995848.3437653,0.911568160846972,-2.0891515710747415,7.501135204701083,0.43666666666666665,0.36777777777777776,-0.62,0.38243671140622415,-0.4487558960832112,-2.5425714399916064
1589995848.3537652,0.75,-2.52,8.3,0.43666666666666665,0.36777777777777776,-0.62,0.2159844949342983,-0.11780972450961726,-2.3212879051524578
1589995848.3637652,0.571166408999704,-1.9984020262491367,6.884234071247657,0.43666666666666665,0.36777777777777776,-0.62,-0.02786198757508182,0.31623701435707946,-2.1042645357191097
1589995848.3737652,0.21929591280653948,-2.140519891008174,6.854691008174386,0.3878018770814411,0.4249247350893127,-0.62,-0.2194070285294727,0.6224352968824214,-1.869042303026377
1589995848.3837652,0.41815800186786084,-2.9825414880624534,9.255113149261238,0.3711111111111111,0.4444444444444444,-0.62,0.09088261666742241,-0.05027755815977948,-1.7605509114632072
1589995848.3937652,0.09,-2.577170895836254,8.158683583345017,0.3711111111111111,0.4444444444444444,-0.62,0.054379283207224495,0.2503732679694838,-1.5723407400953917
1589995848.4037652,0.09036982531248805,-2.6563311800007647,8.47865314781545,0.3711111111111111,0.4444444444444444,-0.62,-0.06715543495263994,0.11688186578909807,-1.464548403686127
1589995848.4137652,0.09838614731852759,-2.143286571614235,6.498621612323688,0.3711111111111111,0.4444444444444444,-0.62,0.061387991904257394,0.09676962893393726,-1.3604894390876863
1589995848.4237652,0.1338161959177081,-2.9192210938604104,8.81205891260019,0.35533021968284734,0.47149740117861094,-0.62,0.07988891310892307,0.09124510661404008,-1.2480585872198098
1589995848.4337652,0.1408567698225061,-3.1754218568051096,9.34196866509051,0.3477777777777778,0.4844444444444445,-0.62,0.010531623042950022,0.0865494681755815,-1.090576810884793
1589995848.4437652,0.10916443941551729,-3.059784428100431,8.93851772371681,0.3477777777777778,0.4844444444444445,-0.62,0.02286333140458431,0.06767562354262152,-0.9857406143644445
1589995848.4537652,0.1595781574513108,-2.8210921274344605,8.21905795681649,0.3477777777777778,0.4844444444444445,-0.62,0.0009663335587016001,0.05872079871981785,-0.8257831819800714
1589995848.4637651,0.15136016301579214,-3.231991849210392,9.369577177789099,0.3477777777777778,0.4844444444444445,-0.62,0.019791660290063056,0.055135022199558514,-0.7200027746324213
1589995848.4737651,0.13,-2.96,8.4,0.3388888888888889,0.5155555555555555,-0.6222222222222222,0.01963495408493621,0.04145156973486533,-0.5737769915931358
1589995848.4837651,0.13992330340591036,-3.02202064628694,8.509156337465015,0.3388888888888889,0.5155555555555555,-0.6222222222222222,0.016928792880131473,0.037392327927658224,-0.5061229614730174
1589995848.493765,0.16931999523639396,-3.208639990472788,8.83891199237823,0.3388888888888889,0.5155555555555555,-0.6222222222222222,0.00862279844199765,0.024836906153767345,-0.29921487064805763
1589995848.503765,0.12010810037600131,-3.1112972045120157,8.761405304888017,0.3388888888888889,0.5155555555555555,-0.6222222222222222,0.0010436630953997888,0.0064860250861079015,-0.16314712256100067
1589995848.513765,0.12867909105770803,-3.2141490926924963,8.872828183750205,0.3388888888888889,0.5155555555555555,-0.6222222222222222,-0.0026961370934386,0.0018112748500599156,-0.038798766282124225
1589995848.523765,0.35048384232954544,-21.60890314275568,3.976360085227274,0.3196402994791667,0.5260547861426768,-0.6502201704545455,0.008753035765318797,-0.005780899567679638,0.10062032704314543
1589995848.533765,1.8537390213299874,-2.396996062821789,8.051762644399256,0.3144444444444445,0.5288888888888889,-0.6577777777777778,-0.49441946512759455,-0.2634381117393494,1.7838072188095402
1589995848.543765,0.5380865746549561,-1.9251758750486738,9.567031324362912,0.3144444444444445,0.5288888888888889,-0.6577777777777778,-0.5439075405724187,-0.5603665644082945,4.921351202011394
1589995848.553765,-0.35607012061135807,-1.188700131842375,0.45885443625176947,0.3144444444444445,0.5288888888888889,-0.6577777777777778,0.561652198909992,-0.1648552709414784,5.2669148514110615
1589995848.563765,-1.2844666666666666,-2.683075555555556,7.413213968253969,0.3144444444444445,0.5288888888888889,-0.6577777777777778,0.4446054506894247,-0.0673803057688682,5.1958917253005055
1589995848.573765,3.3501299214153137,-7.334644394424042,11.810330924456029,0.3466666666666667,0.5311111111111111,-0.6577777777777778,-0.6077325296790298,-0.6099884123646735,4.9072101175301555
1589995848.583765,8.33565414840264,-20.46098309836907,11.122957982861431,0.3466666666666667,0.5311111111111111,-0.6577777777777778,-0.6176697383551886,-0.5476550124869503,4.178180353742871
1589995848.593765,1.524977737357661,-8.719085242236494,14.778160063661684,0.3466666666666667,0.5311111111111111,-0.6577777777777778,-0.3958495301315763,-0.3111563650220791,1.0984487409134318
1589995848.603765,-2.1697812022970124,0.8929395943883114,5.4757076397470374,0.3466666666666667,0.5311111111111111,-0.6577777777777778,0.5307959434135824,0.4107641973136549,-1.0736070425763038
1589995848.613765,-1.0456618587182356,-0.6366279766661338,4.710292871983379,0.3466666666666667,0.5311111111111111,-0.6577777777777778,0.7763914436754212,0.2792255054352472,-0.9910656167044544
1589995848.623765,-0.9897606033147234,-2.6110905848995936,10.111383180848264,0.43333333333333335,0.4455555555555555,-0.6644444444444444,-0.3875728051630041,-0.12933880882472892,-0.7358088066259939
1589995848.633765,-0.9345901902896729,-2.8624224664581566,10.430145567215224,0.43333333333333335,0.4455555555555555,-0.6644444444444444,-0.4631341283143022,-0.021011956165345777,-0.6201264269341835
1589995848.643765,-0.7390684005583719,-2.502719858937624,8.198783337006834,0.43333333333333335,0.4455555555555555,-0.6644444444444444,-0.0716359498400479,0.0788807460398947,-0.36577829803207074
1589995848.653765,0.8400472098335691,-6.837075601000761,6.4792785815294245,0.43333333333333335,0.4455555555555555,-0.6644444444444444,0.1745205134840137,0.06650496141927051,-0.09793353698828211
1589995848.663765,-0.1606151259607176,-4.092521616140051,9.89467976088813,0.43333333333333335,0.4455555555555555,-0.6644444444444444,-0.18409862503657945,-0.08544711102402093,-0.4619939674261391
1589995848.673765,-2.2005404688777426,-4.347662240095454,9.161511368407098,0.41971510852833077,0.46295662058416986,-0.6742798290258352,-0.11352112076946591,0.04685276929268101,-1.3302474950101077
1589995848.683765,-4.239408707369502,-10.616459623343708,7.426472135775931,0.4133333333333333,0.4711111111111111,-0.6788888888888889,0.34637007852571833,0.2488375085200052,-1.3704690630453136
1589995848.693765,3.0654555815736577,-7.001019126758813,7.583814368899849,0.4133333333333333,0.4711111111111111,-0.6788888888888889,-0.0065786203582888225,0.035564514889552784,-0.06545649270584475
1589995848.703765,1.3161493354182956,-4.550183737294761,8.872716966379985,0.4133333333333333,0.4711111111111111,-0.6788888888888889,0.008483149631040646,-0.2352608138792503,0.7596403991580617
1589995848.713765,-0.301459086564435,-2.830692972613556,8.29971096704484,0.4133333333333333,0.4711111111111111,-0.6788888888888889,-0.013356251234132522,-0.02413110081101205,0.12070602688708854
1589995848.723765,-2.65,-7.16,8.74,0.4011111111111111,0.4711111111111111,-0.6844444444444444,-0.02181661564992912,0.15926129424448254,-0.4352414822160859
1589995848.733765,-2.65,-7.16,8.74,0.4011111111111111,0.4711111111111111,-0.6844444444444444,-0.02181661564992912,0.15926129424448254,-0.4352414822160859
1589995848.7437649,-0.2771413588404338,-4.384890608940071,8.67518931051119,0.4011111111111111,0.4711111111111111,-0.6844444444444444,-0.020060824966228005,-0.027287061205839284,0.05131034792394485
1589995848.7537649,-0.13407264589430196,-4.602466517472887,8.68061180926149,0.4011111111111111,0.4711111111111111,-0.6844444444444444,0.013749049761864175,-0.011944906910097445,0.03599531265406424
1589995848.7637649,-0.11179614350607212,-4.551796143506072,8.644369148048577,0.4011111111111111,0.4711111111111111,-0.6844444444444444,-0.008671053025274565,-0.003272492347489368,-0.005173482656635527
1589995848.7737648,-0.13700498000981975,-4.585507470014729,8.69299501999018,0.4237844177908707,0.4711111111111111,-0.6655500222113114,-0.016473174520099037,-0.003272492347489368,0.002945786347541282
1589995848.7837648,-0.13369774327918765,-4.583697743279187,8.74672031048731,0.42777777777777776,0.4711111111111111,-0.6622222222222223,-0.006453779511531636,-0.002585022784463639,0.0018975532214379105
1589995848.7937648,-0.13716493914550906,-4.58,8.62953627794431,0.42777777777777776,0.4711111111111111,-0.6622222222222223,0.0,-0.0006185143300658873,0.001090830782496456
1589995848.8037648,-0.14,-4.605081753140461,8.607622629710692,0.42777777777777776,0.4711111111111111,-0.6622222222222223,0.004787990970803585,0.0006839987101147978,0.0017748294926112538
1589995848.8137648,-0.13460935556108486,-4.566093555610848,8.66234386663349,0.42777777777777776,0.4711111111111111,-0.6622222222222223,0.003519618853451802,0.0005028026933502575,0.001005605386700515
1589995848.8237648,-0.11599318141037143,-4.541010227884443,8.732020455768886,0.4044330801283968,0.4804489901708635,-0.6622222222222223,-0.0007639534441205218,-0.0015279068882410435,-0.0007639534441205218
1589995848.8337648,-0.1406915034250691,-4.619055882706405,8.680944117293595,0.3944444444444444,0.4844444444444445,-0.6622222222222223,0.0056050165569357015,0.00032928118729414705,-0.0002538498650674363
1589995848.8437648,-0.13144070721791823,-4.609067845363197,8.622881414435836,0.3944444444444444,0.4844444444444445,-0.6622222222222223,0.002911970974928072,0.00041599585356115324,0.0013496698578706055
1589995848.8537648,-0.1353060374739764,-4.5364288688410825,8.668877168632893,0.3944444444444444,0.4844444444444445,-0.6622222222222223,-0.0025044445251986643,-0.001669629683465776,-0.00032278296020575234
1589995848.8637648,-0.14,-4.526579203291566,8.742633626332523,0.3944444444444444,0.4844444444444445,-0.6622222222222223,-0.00901393032728257,-0.0007463020700446111,0.0010622084599259958
1589995848.8737648,-0.12618377241661313,-4.557632455166774,8.742367544833227,0.38907146705090506,0.4698606486619805,-0.6675951996157616,-0.008231347020977258,-0.0007535583172967515,0.000674544930399409
1589995848.8837647,-0.13198937065076088,-4.581989370650761,8.694031888047718,0.38666666666666666,0.4633333333333333,-0.67,-0.0032753910528263526,-0.001090830782496456,0.0
1589995848.8937647,-0.14,-4.584182624359152,8.623460994873216,0.38666666666666666,0.4633333333333333,-0.67,0.004620364397647383,0.00017832370197995266,-0.0006345772422382043
1589995848.9037647,-0.14631289382112292,-4.535809743252139,8.665754725853475,0.38666666666666666,0.4633333333333333,-0.67,0.0059721266972866255,0.001090830782496456,-0.0004022008918252004
1589995848.9137647,-0.1396494097708058,-4.54622706580218,8.725525885343792,0.38666666666666666,0.4633333333333333,-0.67,0.0032342488860846183,0.002784442148348264,0.0005645371219506027
1589995848.9237647,-0.1359730441624192,-4.5740269558375815,8.728053911675163,0.39861275499150506,0.4633333333333333,-0.6613722695431723,-0.0010761286537958915,0.0017570909549547813,-0.0008638433487768262
1589995848.9337647,-0.14,-4.584740810709574,8.705259189290425,0.4066666666666667,0.4633333333333333,-0.6555555555555556,-0.0005925373339964947,0.0005359910026985746,-0.0011096795595957627
1589995848.9437647,-0.14,-4.5795341638642615,8.661347829409966,0.4066666666666667,0.4633333333333333,-0.6555555555555556,0.002181661564992912,0.0001978402206407895,0.00044649528092783323
1589995848.9537647,-0.14,-4.5641251133272895,8.697688123300091,0.4066666666666667,0.4633333333333333,-0.6555555555555556,-0.00012955469855578964,-0.001090830782496456,0.0003204253613135555
1589995848.9637647,-0.12807863544376988,-4.552117953165655,8.73,0.4066666666666667,0.4633333333333333,-0.6555555555555556,-0.004992088210685862,0.00020958836023334633,-0.0006502095713649011
1589995848.9737647,-0.1294027242584461,-4.549402724258446,8.720597275741554,0.4134575230755444,0.466989948322729,-0.6623464119644333,-0.007635815477475192,6.515267645253934e-05,-0.0005779917294744977
1589995848.9837646,-0.13360933515005416,-4.585562659399783,8.646093351500541,0.4211111111111111,0.4711111111111111,-0.67,-0.006241588689687386,-0.001090830782496456,0.0006971133938939026
1589995848.9937646,-0.13,-4.583609968545851,8.5990733123639,0.4211111111111111,0.4711111111111111,-0.67,0.0005054296996082055,0.0006970443011306898,0.0004948724212874075
1589995849.0037646,-0.13,-4.581038970174451,8.634155880697806,0.4211111111111111,0.4711111111111111,-0.67,0.006056236336149868,0.003987908835995678,0.0006020824236675887
1589995849.0137646,-0.13601920936559628,-4.565923162537615,8.694076837462386,0.4211111111111111,0.4711111111111111,-0.67,0.004575203036293722,0.004140966140025604,-0.00022235698996021986
1589995849.0237646,-0.1265591589451176,-4.563440841054883,8.71,0.41140383701591826,0.4658841173675457,-0.6647730062564347,-0.00039292844383759587,0.00400557650575476,-0.001090830782496456
1589995849.0337646,-0.13520407410140972,-4.547193888847885,8.717602037050705,0.4066666666666667,0.4633333333333333,-0.6622222222222223,-0.00135240796253417,0.0018755623226095978,0.0005676764224210283
1589995849.0437646,-0.13258993302492578,-4.569640267900297,8.623669129324036,0.4066666666666667,0.4633333333333333,-0.6622222222222223,-0.0002825178668193196,-0.0005257950488578168,0.0002825178668193196
1589995849.0537646,-0.12255855681101789,-4.550234227244071,8.69418020464575,0.4066666666666667,0.4633333333333333,-0.6622222222222223,0.002435206589022082,-0.001090830782496456,0.0
1589995849.0637646,-0.13304226795557156,-4.557389690607429,8.716957732044428,0.4066666666666667,0.4633333333333333,-0.6622222222222223,0.0004271108755884525,-0.0006166005371796367,-0.00047423024531681923
1589995849.0737646,-0.15,-4.578327216104994,8.702090979868757,0.4072707275176411,0.46310100223680467,-0.6628262830731967,-0.0033637285557462176,-9.123620825684961e-05,-0.0010452126783680312
1589995849.0837646,-0.15,-4.560102397602398,8.7449744005994,0.4211111111111111,0.4577777777777778,-0.6766666666666666,-0.004905946059815323,-0.002181661564992912,0.0
1589995849.0937645,-0.13484588941327275,-4.574948629804425,8.664229447066363,0.4211111111111111,0.4577777777777778,-0.6766666666666666,-0.0021592470887381535,-0.0010796235443690768,-0.0011020380206238352
1589995849.1037645,-0.12398349787069299,-4.57,8.609917489353466,0.4211111111111111,0.4577777777777778,-0.6766666666666666,0.001303596629808301,0.0008690644198722007,0.0008600639045597907
1589995849.1137645,-0.13800468713381767,-4.561995312866182,8.67602109210218,0.4211111111111111,0.4577777777777778,-0.6766666666666666,0.0050188441734536965,0.002181661564992912,0.0037078020865179513
1589995849.1237645,-0.14648554540569586,-4.553514454594304,8.73702890918861,0.4183776464266523,0.46480668696638605,-0.6715902322526718,0.006102345375413973,0.0017982940394776071,0.0007074632569811513
1589995849.1337645,-0.13554727403427794,-4.555547274034278,8.727736370171389,0.4133333333333333,0.4777777777777778,-0.6622222222222223,0.0018153411826601004,-0.00036632038233281173,0.0014571511648292677
1589995849.1437645,-0.13,-4.564147694860758,8.657556915417725,0.4133333333333333,0.4777777777777778,-0.6622222222222223,-0.0015432741055481935,-0.0006383874594447184,0.0022436429437905723
1589995849.1537645,-0.13,-4.575900900900901,8.618198198198199,0.4133333333333333,0.4777777777777778,-0.6622222222222223,-0.0019310653041491317,-0.001144880956403938,-0.00025059626084378045
1589995849.1637645,-0.12517229659560808,-4.555516889786825,8.683104737448312,0.4133333333333333,0.4777777777777778,-0.6622222222222223,0.0,-0.0033100816335310972,-0.000601799320310822
1589995849.1737645,-0.13063207891852394,-4.5506320789185235,8.755948118377786,0.4068359517720131,0.4742337514716031,-0.6699009458856007,0.0,-0.0016017716166800353,-6.894911412929738e-05
1589995849.1837645,-0.1455229371716827,-4.56,8.736862376969905,0.4011111111111111,0.4711111111111111,-0.6766666666666666,-0.0030122949383326967,-0.0004883717948299166,-0.001090830782496456
1589995849.1937644,-0.15,-4.5705255604351445,8.657372197824278,0.4011111111111111,0.4711111111111111,-0.6766666666666666,-0.004305993379914036,-0.0005740802662841218,0.0006314100163559097
1589995849.2037644,-0.14367503729487818,-4.58,8.635299850820488,0.4011111111111111,0.4711111111111111,-0.6766666666666666,-0.0005127067407337898,-0.0004008843808075614,0.0008017687616151228
1589995849.2137644,-0.12573174575380844,-4.570487830502539,8.673780423743652,0.4011111111111111,0.4711111111111111,-0.6766666666666666,0.0031660642417273253,-0.0010376167296154346,0.0010376167296154346
1589995849.2237644,-0.1138235950400051,-4.56,8.715294380160021,0.39856204775110765,0.4736601744711145,-0.6775163544533345,0.00545415391248228,-0.0009303930141614123,0.0009303930141614123
1589995849.2337644,-0.1309513988304661,-4.570951398830466,8.718097202339067,0.3944444444444444,0.4777777777777778,-0.6788888888888889,0.0018703170257818422,0.0004935246347130498,0.0012983938086371688
1589995849.2437644,-0.14,-4.570618531792373,8.648401924858051,0.3944444444444444,0.4777777777777778,-0.6788888888888889,-0.001090830782496456,0.0010233594305891327,0.0037841720627839344
1589995849.2537644,-0.14,-4.5650953705218384,8.620572223131033,0.3944444444444444,0.4777777777777778,-0.6788888888888889,-0.0022024681851857937,-4.161324038576362e-05,0.0021400483246071483
1589995849.2637644,-0.13478089115237893,-4.580438217695242,8.676095544238105,0.3944444444444444,0.4777777777777778,-0.6788888888888889,-0.003272492347489368,-0.0016123451061744445,-0.0005693164588184675
1589995849.2737644,-0.1333101834087944,-4.583379633182411,8.713240733635176,0.3944444444444444,0.4729964017428525,-0.6781532925758235,-0.002550322355884969,-0.0007297457866942564,-0.0007297457866942564
1589995849.2837644,-0.1343268498095047,-4.567163424904752,8.734326849809506,0.3944444444444444,0.4633333333333333,-0.6766666666666666,-0.0017096754686482453,0.0,0.0
1589995849.2937644,-0.1278095052780075,-4.567809505278007,8.684857226248967,0.3944444444444444,0.4633333333333333,-0.6766666666666666,-0.0036984347851553236,0.0,-0.0004259424376659557
1589995849.3037643,-0.13664068529093998,-4.58335931470906,8.63839828677265,0.3944444444444444,0.4633333333333333,-0.6766666666666666,-0.003996878740712242,0.0,-0.0009076085878596651
1589995849.3137643,-0.1232033448075321,-4.590389965577404,8.686406689615064,0.3944444444444444,0.4633333333333333,-0.6766666666666666,-0.0011333694280910506,0.0006988614246012408,-0.0010482921369018613
1589995849.3237643,-0.12979597931500605,-4.570612062054982,8.69959195863001,0.3944444444444444,0.4633333333333333,-0.6766666666666666,0.0010240651694592325,0.0021371511563014296,-0.0032057267344521444
1589995849.3337643,-0.12692614990730114,-4.570778449721903,8.748443100556193,0.4066666666666667,0.4711111111111111,-0.6622222222222223,0.0014261358126860062,0.0007555257523069057,0.000840441444234711
1589995849.3437643,-0.1239083777383067,-4.557816755476614,8.715740822972172,0.4066666666666667,0.4711111111111111,-0.6622222222222223,0.0009026479410222672,-0.0004263378746568816,-0.0013289858156791488
1589995849.3537643,-0.13588788501975646,-4.57,8.629439425098782,0.4066666666666667,0.4711111111111111,-0.6622222222222223,-0.003017636649501484,-0.0004485621601614467,-0.0006422686223350092
1589995849.3637643,-0.14,-4.565351697851698,8.663944906444906,0.4066666666666667,0.4711111111111111,-0.6622222222222223,-0.002335118702100868,0.001014102213942478,0.0004303225384172612
1589995849.3737643,-0.13608634288086344,-4.552172685761727,8.70348194271482,0.4066666666666667,0.47372021585720214,-0.6709192380425257,0.0,0.0017547477992238547,0.002181661564992912
1589995849.3837643,-0.1352125519295587,-4.560850207718235,8.724362344211324,0.4066666666666667,0.4777777777777778,-0.6844444444444444,0.0005686012100123924,0.0005222295724840635,0.002181661564992912
1589995849.3937643,-0.14497200353639542,-4.565083989390814,8.660279964636047,0.4066666666666667,0.4777777777777778,-0.6844444444444444,-0.0005362535699579471,-0.0016270843524544031,0.002181661564992912
1589995849.4037642,-0.14065130727413927,-4.5640230390887915,8.619348692725861,0.4066666666666667,0.4777777777777778,-0.6844444444444444,-0.0026915536550663915,-0.0027626002574158886,0.0016717694749194326
1589995849.4137642,-0.13427785006505857,-4.58,8.66422280052047,0.4066666666666667,0.4777777777777778,-0.6844444444444444,-0.0018725691873282672,-0.0017150205116058784,0.0015574718358834895
1589995849.4237642,-0.13661127882493215,-4.58,8.720166163525205,0.4066666666666667,0.47551863032773256,-0.6818087724193916,0.0007393042742123169,-0.00035152650828413907,0.0018120094278867534
1589995849.4337642,-0.1335817866083309,-4.572836426783338,8.743581786608331,0.4066666666666667,0.4711111111111111,-0.6766666666666666,0.002181661564992912,0.001090830782496456,0.0018722554002366385
1589995849.4437642,-0.14,-4.557528003373237,8.725280033732378,0.4066666666666667,0.4711111111111111,-0.6766666666666666,0.002181661564992912,1.2218776616593771e-05,0.0030028393460194026
1589995849.4537642,-0.13965513187286907,-4.55,8.651034604381394,0.4066666666666667,0.4711111111111111,-0.6766666666666666,0.001993565180504751,-0.003122015239898839,0.00214404228809528
1589995849.4637642,-0.13278142076502733,-4.555562841530055,8.682781420765027,0.4066666666666667,0.4711111111111111,-0.6766666666666666,-0.003575898286446033,0.0007874248435397915,0.0001806129656264624
1589995849.4737642,-0.13952250080360015,-4.569045001607201,8.6895225008036,0.4066666666666667,0.4711111111111111,-0.6766666666666666,-0.004311236047780794,5.208708220503003e-05,-0.0020254003183778216
1589995849.4837642,-0.11773759071117562,-4.584841606192549,8.727104015481373,0.4066666666666667,0.4711111111111111,-0.6555555555555556,-0.0019003148273226116,-0.00028134673767030025,0.0019003148273226116
1589995849.4937642,-0.13582459263846422,-4.564432790184619,8.678865580369237,0.4066666666666667,0.4711111111111111,-0.6555555555555556,-0.0012426528784773073,-0.001090830782496456,0.0007871865905347533
1589995849.5037642,-0.1170216329876332,-4.544043265975267,8.634575715456716,0.4066666666666667,0.4711111111111111,-0.6555555555555556,-0.0025646322353080546,-0.0007078601121813133,-0.0003248894418661707
1589995849.5137641,-0.1284446320529056,-4.571555367947095,8.684666103841284,0.4066666666666667,0.4711111111111111,-0.6555555555555556,-0.0036118209944491493,0.0,0.0012604951059763466
1589995849.5237641,-0.12271496815286624,-4.574570063694267,8.704570063694268,0.4066666666666667,0.4711111111111111,-0.6594771762208068,-0.0042695255786246635,0.0,0.0012931903145996996
1589995849.5337641,-0.12309716035634743,-4.56,8.70035425946548,0.4066666666666667,0.4711111111111111,-0.67,-0.000714339283999802,-0.000376491498496654,-0.000714339283999802
1589995849.543764,-0.1273695872610508,-4.56,8.680918428662636,0.4066666666666667,0.4711111111111111,-0.67,0.0009473640231806266,-0.0006171487709061426,0.0014210460347709398
1589995849.553764,-0.15,-4.552651842637226,8.65571855076971,0.4066666666666667,0.4711111111111111,-0.67,0.0017808817526958156,0.0008015596245941925,0.001669373098300983
1589995849.563764,-0.14152995608531996,-4.55694008782936,8.70847004391468,0.4066666666666667,0.4711111111111111,-0.67,-0.001680984606872479,0.0007957538703084442,-0.0006288615509349668
1589995849.573764,-0.13,-4.576970421922575,8.723029578077426,0.4066666666666667,0.4731308298293944,-0.67,-0.005123678209999121,-0.0007603550800132973,0.0
1589995849.583764,-0.13323096277658553,-4.57,8.733230962776586,0.4066666666666667,0.4777777777777778,-0.67,-0.0040108797646058545,-0.0007048867307599388,-0.0003524433653799694
1589995849.593764,-0.1424104115417858,-4.572410411541786,8.71107506149857,0.4066666666666667,0.4777777777777778,-0.67,-0.0027466221258364326,-0.0016557913433399764,-0.0008278956716699882
1589995849.603764,-0.14938185625955722,-4.579381856259557,8.627417724885312,0.4066666666666667,0.4777777777777778,-0.67,-0.0012256888265129548,-0.00013485804401649907,-6.742902200824953e-05
1589995849.613764,-0.13818122772277228,-4.56,8.660912633663367,0.4066666666666667,0.4777777777777778,-0.67,-0.0003967945572702356,0.0,0.002677300511584015
1589995849.623764,-0.13153679207920793,-4.56,8.700779247524753,0.4066666666666667,0.4777777777777778,-0.67,-0.0018463855437335656,0.0,0.0005029140318890198
1589995849.633764,-0.1353299550190742,-4.59,8.72299493252861,0.4011111111111111,0.4711111111111111,-0.6622222222222223,-0.0016722386829092172,0.0016722386829092172,-0.0008361193414546086
1589995849.643764,-0.12415486333960385,-4.585845136660396,8.662606229943565,0.4011111111111111,0.4711111111111111,-0.6622222222222223,0.0018129011311623627,0.00045322528279059067,-0.00045322528279059067
1589995849.653764,-0.11959941369488816,-4.569599413694888,8.630801172610223,0.4011111111111111,0.4711111111111111,-0.6622222222222223,0.0036069711501440184,0.00033447880265465057,-0.0007126547925755532
1589995849.663764,-0.10151574254667038,-4.5492421287266644,8.673789356366676,0.4011111111111111,0.4711111111111111,-0.6622222222222223,0.0019336487707557683,-0.0008428179882593124,-8.267093141238117e-05
1589995849.673764,-0.12545234198587144,-4.545452341985872,8.721817447328624,0.40212080407145767,0.4711111111111111,-0.6648474239191233,-0.0012890835316593365,0.0015869033175042702,-0.001090830782496456
1589995849.683764,-0.14902196087843514,-4.57195607824313,8.729021960878436,0.4066666666666667,0.4711111111111111,-0.6766666666666666,-0.0022883490830217863,-0.0007707682284098323,-0.001304205818554205
1589995849.693764,-0.14,-4.582767997016039,8.680223983588213,0.4066666666666667,0.4711111111111111,-0.6766666666666666,-0.0016947140526871463,0.001392772417591801,-0.0016947140526871463
1589995849.703764,-0.13519441674975075,-4.572402791625125,8.626819541375871,0.4066666666666667,0.4711111111111111,-0.6766666666666666,0.0016150385962185815,-0.0002621039068610627,0.0013529346893575186
1589995849.713764,-0.11659590554844713,-4.573191811096894,8.68,0.4066666666666667,0.4711111111111111,-0.6766666666666666,0.0025298341446335164,-0.0003481725796406043,0.002181661564992912
1589995849.723764,-0.1179147235176549,-4.56,8.693191205862759,0.4066666666666667,0.4711111111111111,-0.6766666666666666,0.0008030433142295695,0.001666405719030229,0.001030511691925366
1589995849.733764,-0.14,-4.568578160124503,8.712843679750994,0.4066666666666667,0.4711111111111111,-0.6766666666666666,0.0014035981681487016,0.003272492347489368,-0.002181661564992912
1589995849.743764,-0.1359761503564485,-4.571952300712897,8.661833052495139,0.4066666666666667,0.4711111111111111,-0.6766666666666666,0.003711426253021707,0.0015167567253600107,-0.00042592594286355455
1589995849.753764,-0.11845801340149495,-4.563847328866168,8.635389315464673,0.4066666666666667,0.4711111111111111,-0.6766666666666666,0.0031042877027047354,-0.001090830782496456,0.0017619830892325493
1589995849.763764,-0.10542437130177515,-4.57,8.669040618836291,0.4066666666666667,0.4711111111111111,-0.6766666666666666,0.0006963593697186757,-0.0004991236633297855,0.0008935950761075658
1589995849.773764,-0.12481370192307693,-4.57,8.701356169871795,0.4066666666666667,0.4711111111111111,-0.6766666666666666,-0.0007136725431957981,0.0016159242060419254,0.00018857911965032895
1589995849.783764,-0.14187073535010397,-4.55,8.72,0.4066666666666667,0.4633333333333333,-0.6555555555555556,-0.002181661564992912,0.0015694648532536058,0.001090830782496456
1589995849.7937639,-0.13680650187196242,-4.5631934981280375,8.690314629211915,0.4066666666666667,0.4633333333333333,-0.6555555555555556,-0.002181661564992912,-0.001090830782496456,0.000731033935324637
1589995849.8037639,-0.11483379679932229,-4.585166203200678,8.634833796799324,0.4066666666666667,0.4633333333333333,-0.6555555555555556,-0.0013907334132378713,-0.0005635453479930955,0.0002636427172516802
1589995849.8137639,-0.13,-4.569362870134191,8.651486636353555,0.4066666666666667,0.4633333333333333,-0.6555555555555556,0.001137164173834611,0.0009981639998201462,0.0010676640868273785
1589995849.8237638,-0.13,-4.542146898134678,8.722146898134678,0.4111990071732095,0.4633333333333333,-0.6617577057224037,0.003272492347489368,-0.002335731318612898,0.0
1589995849.8337638,-0.13,-4.562560605341809,8.721626263105462,0.42777777777777776,0.4633333333333333,-0.6844444444444444,0.0019023428521258586,0.0006341142840419528,-0.0013701494953635095
1589995849.8437638,-0.13624509751249128,-4.576877451243755,8.678774512437544,0.42777777777777776,0.4633333333333333,-0.6844444444444444,0.0003406172303158761,-0.0006812344606317522,-0.0025912578868576156
1589995849.8537638,-0.1463332527707765,-4.57,8.616111245382038,0.42777777777777776,0.4633333333333333,-0.6844444444444444,0.0014908108574235134,-0.001915008181708207,-0.0009575040908541035
1589995849.8637638,-0.1262065597174738,-4.563793440282526,8.681722959011159,0.42777777777777776,0.4633333333333333,-0.6844444444444444,0.0030092618513412393,-0.0006770306393222923,0.0
1589995849.8737638,-0.14,-4.554720308127464,8.731573436042488,0.4244560794658589,0.464557116921935,-0.6821717034941841,0.0005149057408305571,-0.001666755824162355,-0.00017163524694351902
1589995849.8837638,-0.14331604615201618,-4.58,8.730051861543952,0.4066666666666667,0.4711111111111111,-0.67,0.0014638697380902838,0.00036738173873682243,-0.001090830782496456
1589995849.8937638,-0.15,-4.58,8.675504957401227,0.4066666666666667,0.4711111111111111,-0.67,-0.001805379021890216,-0.0003382656962910639,-0.001090830782496456
1589995849.9037638,-0.1423442354265026,-4.5723442354265025,8.625311529146995,0.4066666666666667,0.4711111111111111,-0.67,-0.0006732735994806155,0.000255716416464775,-0.0015083879655122963
1589995849.9137638,-0.12784874814957842,-4.56,8.660756259252109,0.4066666666666667,0.4711111111111111,-0.67,-0.00023466517393423147,-0.001090830782496456,-0.001712331217124449
1589995849.9237638,-0.1224496363519341,-4.56,8.68775181824033,0.4066666666666667,0.4711111111111111,-0.67,-0.000823616908635253,-0.001090830782496456,-0.000534427747722406
1589995849.9337637,-0.1200949157042347,-4.54,8.739905084295765,0.4066666666666667,0.4711111111111111,-0.6555555555555556,0.002181661564992912,-0.001090830782496456,0.0
1589995849.9437637,-0.12760914678735893,-4.547172559637923,8.70370061466095,0.4066666666666667,0.4711111111111111,-0.6555555555555556,0.00192085993691497,-0.000830029154418514,0.0
1589995849.9537637,-0.12063357991976739,-4.569366420080232,8.622534319679069,0.4066666666666667,0.4711111111111111,-0.6555555555555556,0.0010217179345310646,-0.00013822569593078274,-0.00013822569593078274
1589995849.9637637,-0.1283519193257517,-4.561648080674248,8.653407677303006,0.4066666666666667,0.4711111111111111,-0.6555555555555556,0.00017977771315075373,-0.0018221061386914045,-0.0018221061386914045
1589995849.9737637,-0.12078324518892397,-4.559216754811076,8.711566490377848,0.40570936699131516,0.4697186752196907,-0.6555555555555556,0.0022671003612249638,0.0019253451762967569,-0.001090830782496456
1589995849.9837637,-0.12921755917070524,-4.550782440829295,8.72843511834141,0.39540076101358246,0.45472433925207956,-0.6555555555555556,0.003187141293281688,-0.0008347776198734166,-0.001090830782496456
