time,acc_x,acc_y,acc_z,mag_x,mag_y,mag_z,gyr_x,gyr_y,gyr_z
1589996021.9254394,-3.95,-0.89,8.96,0.31222222222222223,-0.3422222222222222,-0.6166666666666667,0.001090830782496456,0.002181661564992912,0.003272492347489368
1589996021.9354393,-3.962596431091844,-0.957403568908156,8.999614275632624,0.32,-0.3244444444444444,-0.6111111111111112,-0.0010487547811472127,-0.002181661564992912,0.003272492347489368
1589996021.9454393,-3.967832894382116,-0.95,8.958080919101636,0.32,-0.3244444444444444,-0.6111111111111112,0.0017088724616110672,-0.0019452670133019896,0.0030360977957984456
1589996021.9554393,-3.9504367391800255,-0.95,8.862402065490139,0.32,-0.3244444444444444,-0.6111111111111112,-0.00208637985669414,-4.764085414938604e-05,0.0011384716366458414
1589996021.9654393,-3.958044483131228,-0.9402224156561412,8.91151068555649,0.32,-0.3244444444444444,-0.6111111111111112,-0.003272492347489368,0.0004508893836522599,0.002608289164222376
1589996021.9754393,-3.951749759875135,-0.9087487993756753,8.980752641373515,0.32,-0.3244444444444444,-0.6111111111111112,-0.003272492347489368,-0.0016090539848605653,0.003981584743230926
1589996021.9854393,-3.949201168589725,-0.902396494230826,9.030798831410275,0.32666666666666666,-0.3422222222222222,-0.6322222222222222,0.0,-0.0009165528040257795,0.002181661564992912
1589996021.9954393,-3.9425585983930014,-0.9325585983930015,9.009296819283982,0.32666666666666666,-0.3422222222222222,-0.6322222222222222,0.0008372993661395917,0.0005326312050700615,0.0016234619875665174
1589996022.0054393,-3.9476919739696315,-0.9423080260303687,8.922308026030368,0.32666666666666666,-0.3422222222222222,-0.6322222222222222,0.0027689591793434985,-0.0013425973665693908,0.0005035331681458695
1589996022.0154393,-3.9413274499365247,-0.9460176501904255,8.933982349809574,0.32666666666666666,-0.3422222222222222,-0.6322222222222222,0.001090830782496456,-0.002036859239694486,0.002036859239694486
1589996022.0254393,-3.9499156394610755,-0.9202530816167739,8.959746918383226,0.32666666666666666,-0.3422222222222222,-0.6322222222222222,0.001090830782496456,-0.0011000330897651513,0.0011000330897651513
1589996022.0354393,-3.9590746405628634,-0.9109253594371368,8.969074640562864,0.3085173855409401,-0.3422222222222222,-0.6130646477006221,0.001090830782496456,0.0008889486707159861,0.0040604999623151195
1589996022.0454392,-3.95,-0.893980333112166,8.906019666887834,0.30666666666666664,-0.3422222222222222,-0.6111111111111112,-0.0015250177708305054,0.0,0.0004341869883340493
1589996022.0554392,-3.95,-0.9082517565797309,8.89174824342027,0.30666666666666664,-0.3422222222222222,-0.6111111111111112,-0.003081788573676721,0.0,0.0019909577911802648
1589996022.0654392,-3.94,-0.9158378282609552,8.939729713768259,0.30666666666666664,-0.3422222222222222,-0.6111111111111112,-0.0052418844868163585,-0.0008785613568305348,0.0013031002081623773
1589996022.0754392,-3.9403201143709596,-0.94,8.98064022874192,0.3079471241505055,-0.34207994916846235,-0.6115734985358308,-0.004328404069009588,0.0,0.0022514996869453826
1589996022.0854392,-3.95,-0.942460742530255,9.002460742530255,0.3466666666666667,-0.3377777777777778,-0.6255555555555555,-0.003272492347489368,0.0,0.0035580470200457025
1589996022.0954392,-3.9523348876419298,-0.945330224716141,8.991320898864565,0.3466666666666667,-0.3377777777777778,-0.6255555555555555,-0.0030177956161406474,0.0005093934626974414,0.0005814373197990146
1589996022.1054392,-3.9537801984991527,-0.93,8.936219801500847,0.3466666666666667,-0.3377777777777778,-0.6255555555555555,-0.002860136658807096,0.002181661564992912,-7.311814177517998e-05
1589996022.1154392,-3.9436456079619213,-0.9281771960190395,8.948177196019039,0.3466666666666667,-0.3377777777777778,-0.6255555555555555,-0.003766811922119144,0.001982824495704019,0.002181661564992912
1589996022.1254392,-3.954988911726525,-0.9225055441367374,8.942505544136736,0.3466666666666667,-0.3377777777777778,-0.6255555555555555,-0.001910768183873437,0.0013641432496221163,0.002181661564992912
1589996022.1354392,-3.9599172846548774,-0.900248146035368,8.950082715345122,0.32,-0.3377777777777778,-0.6111111111111112,0.0010637622491030756,0.0010818079380319958,0.0010998536269609162
1589996022.1454391,-3.947493704845504,-0.932506295154496,8.937443343609536,0.32,-0.3377777777777778,-0.6111111111111112,-0.002728450345902109,0.00027339439045459855,0.0013614783936291162
1589996022.1554391,-3.94,-0.9423934783639034,8.886754348547324,0.32,-0.3377777777777778,-0.6111111111111112,-0.0035800591670102654,0.001090830782496456,-0.0008297427948379364
1589996022.1654391,-3.9437726088289393,-0.944341086756591,8.949431522072349,0.32,-0.3377777777777778,-0.6111111111111112,-0.001090830782496456,0.001090830782496456,-0.00020576389204624482
1589996022.1754391,-3.9598451870018394,-0.920232219497241,8.989612967504598,0.32,-0.3377777777777778,-0.6111111111111112,-0.001090830782496456,0.001090830782496456,-0.0010823870433002464
1589996022.185439,-3.9513074685583947,-0.9373850628832109,9.042155188649634,0.30840995807785937,-0.3377777777777778,-0.6159402952453364,-0.004883663132225067,0.0020390388699286087,-0.00014262269506430322
1589996022.195439,-3.933212199760987,-0.92,8.997151200956052,0.30666666666666664,-0.3377777777777778,-0.6166666666666667,0.0005652358256745955,0.003272492347489368,-0.0007404341446152157
1589996022.205439,-3.9473318072410835,-0.92,8.940672771035667,0.30666666666666664,-0.3377777777777778,-0.6166666666666667,-0.00174507954573384,0.003272492347489368,0.000799776102990408
1589996022.215439,-3.95,-0.9150399075637722,8.942519953781886,0.30666666666666664,-0.3377777777777778,-0.6166666666666667,0.0020442194072054286,0.004363323129985824,0.0
1589996022.225439,-3.95,-0.9448633899208959,8.957431694960448,0.30666666666666664,-0.3377777777777778,-0.6166666666666667,0.0012309100922956633,0.004363323129985824,0.0
1589996022.235439,-3.95,-0.9131989824310359,8.96,0.30053316373850597,-0.3377777777777778,-0.6176889171546934,0.0020944228522819307,0.0023561389904148745,-0.0010035920697854747
1589996022.245439,-3.95,-0.9186168729108096,8.94276625417838,0.3,-0.3377777777777778,-0.6177777777777778,0.0031216165869900024,-0.0006382035009983586,0.0036089443274889936
1589996022.255439,-3.95,-0.91,8.85799598118016,0.3,-0.3377777777777778,-0.6177777777777778,0.001090830782496456,0.0001744452481516338,0.002356106813144546
1589996022.265439,-3.9511559760385073,-0.9111559760385074,8.905779880192537,0.3,-0.3377777777777778,-0.6177777777777778,0.0007125385085068063,0.001090830782496456,0.0028942000734997184
1589996022.275439,-3.9574847977305994,-0.9174847977305992,8.937423988652995,0.3,-0.3377777777777778,-0.6177777777777778,-0.001358563547092707,0.001090830782496456,0.0008230980179002052
1589996022.285439,-3.9371351889267516,-0.9352432073821658,8.988108018455414,0.3050810691273886,-0.3377777777777778,-0.6016877255410472,-0.0005188855813485448,0.0002594427906742724,0.0
1589996022.295439,-3.947955076017656,-0.9479550760176557,8.971820304070624,0.30666666666666664,-0.3377777777777778,-0.5966666666666667,0.002627794770554189,0.00011153330139031934,0.001958594962212273
1589996022.305439,-3.9314987739087788,-0.9314987739087789,8.905995095635115,0.30666666666666664,-0.3377777777777778,-0.5966666666666667,0.006218002951839042,0.0010090853467115328,0.00016349087156984632
1589996022.315439,-3.9619051719498413,-0.9361896561003175,8.953336203648888,0.30666666666666664,-0.3377777777777778,-0.5966666666666667,0.008518824239088086,0.002597305606760035,0.0006751867407293332
1589996022.325439,-3.969429524783381,-0.9211409504332383,9.006006673483666,0.30666666666666664,-0.3377777777777778,-0.5966666666666667,0.00769804467016914,0.004238864744597929,-0.0009663723971085607
1589996022.335439,-3.952036286118127,-0.9110181430590635,9.018981856940936,0.30666666666666664,-0.3377777777777778,-0.6096404600257973,0.007635815477475192,0.005343091733501131,0.0008687064245341588
1589996022.345439,-3.9400134008597436,-0.920026801719487,8.979879392262308,0.30666666666666664,-0.3377777777777778,-0.6111111111111112,0.004364784937017833,0.004357475901857786,0.004360399515921805
1589996022.355439,-3.947313040602865,-0.9346260812057293,8.91418263457422,0.30666666666666664,-0.3377777777777778,-0.6111111111111112,0.005161052110310944,0.0011724072086853428,0.0027678651693355833
1589996022.365439,-3.969439636203609,-0.9302801818981957,8.919159454305413,0.30666666666666664,-0.3377777777777778,-0.6111111111111112,0.008634956948196604,0.004241070714285766,0.002181661564992912
1589996022.375439,-3.963453675441943,-0.93,8.93963897367417,0.30666666666666664,-0.3377777777777778,-0.6111111111111112,0.008726646259971648,0.003649229895971746,0.003609848033021068
1589996022.385439,-3.96,-0.9150314651662101,8.96496853483379,0.32163520150045655,-0.33361985143505835,-0.6161006227223744,0.006277425475136376,0.0016396784909325198,0.00762895084309952
1589996022.395439,-3.96,-0.9006069271473622,8.97,0.32666666666666666,-0.3322222222222222,-0.6177777777777778,0.0034049033105044654,0.0021154560834853635,0.004628145056016018
1589996022.405439,-3.948804694901576,-0.9011953050984245,8.86836713568897,0.32666666666666666,-0.3322222222222222,-0.6177777777777778,0.0009604432229128152,0.0,0.005714929031649561
1589996022.415439,-3.941446015649672,-0.9085539843503281,8.919877890452296,0.32666666666666666,-0.3322222222222222,-0.6177777777777778,0.00015773583826337396,0.0,0.007320343800948444
1589996022.425439,-3.9486174184310117,-0.9013825815689884,8.955852255293035,0.32666666666666666,-0.3322222222222222,-0.6177777777777778,-0.0018800290580399438,0.0,0.00669580094845522
1589996022.4354389,-3.95109396277803,-0.9467181116659101,9.028906037221969,0.32,-0.3377777777777778,-0.6255555555555555,-0.0033918251748074097,0.0,0.004482655957303866
1589996022.4454389,-3.9588556078893142,-0.92,9.005122902561084,0.32,-0.3377777777777778,-0.6255555555555555,-0.00411365550166937,0.0,0.005079652470007598
1589996022.4554389,-3.9514128227444156,-0.922825645488831,8.891412822744416,0.32,-0.3377777777777778,-0.6255555555555555,-0.0020275465110109643,-0.0004623451619458434,0.0023357766189748596
1589996022.4654388,-3.9588168873989207,-0.9364506621967618,8.905915563005397,0.32,-0.3377777777777778,-0.6255555555555555,-0.001090830782496456,-0.0030143772186059944,0.003272492347489368
1589996022.4754388,-3.9510910129123764,-0.9132730387371291,8.944544935438117,0.32,-0.3377777777777778,-0.6255555555555555,-0.001090830782496456,-0.0013288528762807035,0.003272492347489368
1589996022.4854388,-3.9423846170109305,-0.9176153829890695,8.95,0.3140769243418348,-0.3377777777777778,-0.6145555579046774,0.0022320068914943123,-0.0027522496194918407,0.003272492347489368
1589996022.4954388,-3.9479559960562502,-0.9040880078874993,8.957955996056251,0.31222222222222223,-0.3377777777777778,-0.6111111111111112,0.001536763266773716,-0.0006688987264158903,0.001536763266773716
1589996022.5054388,-3.9406532712094737,-0.9306532712094739,8.892613084837896,0.31222222222222223,-0.3377777777777778,-0.6111111111111112,-0.0012333524514190177,0.0012333524514190177,0.0001425216689225616
1589996022.5154388,-3.9487959619491364,-0.9387959619491361,8.925183847796545,0.31222222222222223,-0.3377777777777778,-0.6111111111111112,-0.003009811993653491,0.003009811993653491,0.0019189812111570347
1589996022.5254388,-3.95,-0.9340955197251041,8.977235842199168,0.31222222222222223,-0.3377777777777778,-0.6111111111111112,-0.0039165712313393285,0.003272492347489368,0.002825740448842873
1589996022.5354388,-3.956446423873417,-0.93,9.01,0.31222222222222223,-0.3377777777777778,-0.6068134951955,-0.005769714649614434,0.003272492347489368,0.003272492347489368
1589996022.5454388,-3.9528514533412547,-0.93,8.981405813365019,0.31222222222222223,-0.3377777777777778,-0.6044444444444445,-0.006544984694978735,0.005611848771130853,0.0024927068729422063
1589996022.5554388,-3.9388639578819187,-0.9294319789409595,8.90943197894096,0.31222222222222223,-0.3377777777777778,-0.6044444444444445,-0.004487246101247352,0.007387969534952136,0.0014006382106502764
1589996022.5654387,-3.9238422004548466,-0.9219211002274234,8.901921100227424,0.31222222222222223,-0.3377777777777778,-0.6044444444444445,-0.006125865642111877,0.004110730453223084,0.00549718706281159
1589996022.5754387,-3.935953287506708,-0.927976643753354,8.947859862520124,0.31222222222222223,-0.3377777777777778,-0.6044444444444445,-0.0056748678402620805,0.003272492347489368,0.007415101549695391
1589996022.5854387,-3.925127958563717,-0.9225639792818585,8.974872041436283,0.31222222222222223,-0.3229057363414948,-0.6044444444444445,-0.007076441972208307,0.003272492347489368,0.0141249677163793
1589996022.5954387,-3.96,-0.9287942948882013,8.956382884664604,0.31222222222222223,-0.31777777777777777,-0.6044444444444445,-0.004166040092401307,-0.002181661564992912,0.02214542071256998
1589996022.6054387,-3.959189470940839,-0.9095947354704196,8.903242116236644,0.31222222222222223,-0.31777777777777777,-0.6044444444444445,-0.0010466232801044312,-0.0022258690673849367,0.027447599571979498
1589996022.6154387,-3.941995214287104,-0.9019952142871039,8.980997607143552,0.31222222222222223,-0.31777777777777777,-0.6044444444444445,0.00010882205810248091,-0.003598958521796811,0.031851736808602184
1589996022.6254387,-3.9583144952629223,-0.9183144952629224,8.98915724763146,0.31222222222222223,-0.31777777777777777,-0.6044444444444445,0.0009989007599340639,-0.0062691946272915595,0.03363189421226535
1589996022.6354387,-3.961466842693206,-0.9114668426932061,9.001466842693207,0.30666666666666664,-0.3322222222222222,-0.6177777777777778,-0.001090830782496456,-0.006995784612343525,0.035997415822383035
1589996022.6454387,-3.969985782471819,-0.9199857824718188,9.00998578247182,0.30666666666666664,-0.3322222222222222,-0.6177777777777778,-0.001090830782496456,-0.003278695914445781,0.035997415822383035
1589996022.6554387,-3.969687587168759,-0.9287503486750349,8.880312412831241,0.30666666666666664,-0.3322222222222222,-0.6177777777777778,3.407895331648621e-05,-0.007533578617525734,0.036883772884980584
1589996022.6654387,-3.9618878661087864,-0.8975514644351464,8.888112133891214,0.30666666666666664,-0.3322222222222222,-0.6177777777777778,0.0008848965360268321,-0.004981125869394695,0.03177886738871851
1589996022.6754386,-3.9651896047927653,-0.9055688143782955,8.921137628756592,0.30666666666666664,-0.3322222222222222,-0.6177777777777778,0.003921321110966137,-0.006061617327067632,0.027712771581431084
1589996022.6854386,-3.96035226789374,-0.9103522678937397,8.95,0.31309848807084023,-0.3322222222222222,-0.6134898968416621,0.006018782536839325,-0.006583411161196371,0.021405692890442612
1589996022.6954386,-3.95,-0.9082983174962951,8.958298317496295,0.32,-0.3322222222222222,-0.6088888888888889,0.00545415391248228,-0.00635935992927103,0.0192637045535208
1589996022.7054386,-3.9687736012471855,-0.8812263987528148,8.881226398752815,0.32,-0.3322222222222222,-0.6088888888888889,-0.0002675587022371352,-0.005387264236922996,0.014381469199131776
1589996022.7154386,-3.9542428546682835,-0.8957571453317166,8.895757145331718,0.32,-0.3322222222222222,-0.6088888888888889,-0.0034376758344213617,-0.004594734953876939,0.016759057048269948
1589996022.7254386,-3.9644996460047364,-0.9144996460047362,8.979748053026048,0.32,-0.3322222222222222,-0.6088888888888889,-0.0027816571102590223,-0.001990824100395622,0.019825791549533497
1589996022.7354386,-3.976127266916993,-0.9016181992490213,9.022254533833985,0.31523434795345,-0.3383494891392151,-0.6136545409354389,-0.002850042701555712,-0.0037643553287476563,0.02072578486743266
1589996022.7454386,-3.963138574258906,-0.89,9.013138574258907,0.31222222222222223,-0.3422222222222222,-0.6166666666666667,-0.00511178857100569,-0.006373802024240441,0.021645432979190825
1589996022.7554386,-3.95,-0.9296207225068878,8.919873574168962,0.31222222222222223,-0.3422222222222222,-0.6166666666666667,-0.0021954524838127426,-0.008699064422331986,0.019524626734377565
1589996022.7654386,-3.951348807559622,-0.9,8.911348807559623,0.31222222222222223,-0.3422222222222222,-0.6166666666666667,-0.003051794226634425,-0.006250720533838811,0.010687609704109617
1589996022.7754385,-3.967076646167692,-0.9,8.927076646167691,0.31222222222222223,-0.3422222222222222,-0.6166666666666667,-0.00047833265226164545,-0.002819438434675106,0.008114148129736837
1589996022.7854385,-3.9502288287033815,-0.9002288287033814,8.97,0.2933333333333333,-0.3377777777777778,-0.6311111111111111,-0.0022066229043496274,-0.0032475310081326527,0.0064950620162653044
1589996022.7954385,-3.959962867553204,-0.9099628675532039,8.97,0.2933333333333333,-0.3377777777777778,-0.6311111111111111,-0.003268441825889901,-0.002185712086592379,0.004371424173184758
1589996022.8054385,-3.950302193338749,-0.919697806661251,8.892417546709993,0.2933333333333333,-0.3377777777777778,-0.6311111111111111,-0.002214625744610189,-0.003239528167872091,0.002247589924227466
1589996022.8154385,-3.965712131755973,-0.904287868244027,8.91356819763396,0.2933333333333333,-0.3377777777777778,-0.6311111111111111,-0.0013246977160901348,-0.002415528498586591,0.007323444658409575
1589996022.8254385,-3.965277658727729,-0.9141670238168126,8.953056388905896,0.2933333333333333,-0.3377777777777778,-0.6311111111111111,0.0009696793076021577,-0.002181661564992912,0.007696391214922341
1589996022.8354385,-3.9630650129368763,-0.9208049611893713,8.993065012936876,0.2991228022140996,-0.3377777777777778,-0.6222566292934686,0.00260381025543047,-0.0031846847030812583,0.007548007833067083
1589996022.8454385,-3.963405358458785,-0.9,8.98681071691757,0.31222222222222223,-0.3377777777777778,-0.6022222222222222,-0.000347896816040953,-0.004734790113213575,0.0090981132431994
1589996022.8554385,-3.9521988219155975,-0.9,8.925391753409183,0.31222222222222223,-0.3377777777777778,-0.6022222222222222,-0.001090830782496456,-0.004363323129985824,0.007024693221131055
1589996022.8654385,-3.95,-0.9,8.921751113585746,0.31222222222222223,-0.3377777777777778,-0.6022222222222222,-0.001090830782496456,-0.0037223993085886164,0.0046222132307871125
1589996022.8754385,-3.95,-0.8874304813755557,8.95513903724889,0.31222222222222223,-0.3377777777777778,-0.6022222222222222,0.0009658518930095083,-0.0019013705638187253,0.003272492347489368
1589996022.8854384,-3.9557531894466704,-0.8972595683400107,8.987259568340011,0.3051905462318475,-0.3377777777777778,-0.6022222222222222,0.002181661564992912,-0.001090830782496456,0.0020173411182970386
1589996022.8954384,-3.96,-0.9026173214842532,9.0,0.3,-0.3377777777777778,-0.6022222222222222,0.00459763745966847,-0.0043121319753972,0.0002855054842712699
1589996022.9054384,-3.9515119388959836,-0.9,8.923607450063852,0.3,-0.3377777777777778,-0.6022222222222222,0.006380057746079493,-0.004528250078885066,-0.003703615334388854
1589996022.9154384,-3.949823413689733,-0.9194702410691982,8.96070634524107,0.3,-0.3377777777777778,-0.6022222222222222,0.006583509851580144,-0.007635815477475192,-0.002181661564992912
1589996022.9254384,-3.9432747314514116,-0.8998241943542343,8.986901074194355,0.3,-0.3377777777777778,-0.6022222222222222,0.008012210685649869,-0.007635815477475192,-0.002181661564992912
1589996022.9354384,-3.9566315038071065,-0.8816842480964467,8.991684248096448,0.3101636967710096,-0.34147366751269037,-0.6262455054991539,0.008726646259971648,-0.011264246739874967,-0.0003674459337930241
1589996022.9454384,-3.96,-0.8867089058161886,8.969873282551434,0.31222222222222223,-0.3422222222222222,-0.6311111111111111,0.010190302456205235,-0.01492645099992819,-0.004390968588700762
1589996022.9554384,-3.940482709833132,-0.8802413549165661,8.891689484415963,0.31222222222222223,-0.3422222222222222,-0.6311111111111111,0.011972810870211298,-0.014233455646953358,-0.004415978604485258
1589996022.9654384,-3.948392954974332,-0.9135718198973277,8.898392954974332,0.31222222222222223,-0.3422222222222222,-0.6311111111111111,0.012914667971671815,-0.014180800172453925,-0.004363323129985824
1589996022.9754384,-3.9428159378365253,-0.891263751346101,8.964656559471273,0.31222222222222223,-0.3422222222222222,-0.6311111111111111,0.013873629005086102,-0.016531779017839827,-0.005146982745114457
1589996022.9854383,-3.945982850569905,-0.8859828505699049,9.007948551709715,0.31222222222222223,-0.3362393716523174,-0.6098387535292272,0.013528172415581059,-0.017453292519943295,-0.004801526155609413
1589996022.9954383,-3.9409389821051373,-0.8718779642102746,9.029061017894863,0.31222222222222223,-0.3322222222222222,-0.5955555555555555,0.01308996938995747,-0.01251127389970956,-0.004363323129985824
1589996023.0054383,-3.949149044350459,-0.8608509556495413,8.901913379093578,0.31222222222222223,-0.3322222222222222,-0.5955555555555555,0.01408797531074804,-0.012997144528251585,-0.0023673112884046825
1589996023.0154383,-3.9322160420184993,-0.8481440280123328,8.9077839579815,0.31222222222222223,-0.3322222222222222,-0.5955555555555555,0.012240871292369476,-0.008563468669760418,-0.0028283045250210625
1589996023.0254383,-3.9308474458874456,-0.8508474458874459,8.941694891774892,0.31222222222222223,-0.3322222222222222,-0.5955555555555555,0.00795012585359192,-0.004270881123933224,-0.004455765136038424
1589996023.0354383,-3.956995888425474,-0.876995888425474,8.976995888425474,0.31883173438768436,-0.3322222222222222,-0.5993324196501053,-0.0038156652227088602,0.0013624172201062018,-0.004527171998963166
1589996023.0454383,-3.9452651984491784,-0.88,8.943162996122947,0.32,-0.3322222222222222,-0.6,-0.00545415391248228,0.0037889790755541593,-0.0019523468641439523
1589996023.0554383,-3.948580375782881,-0.888580375782881,8.887098121085595,0.32,-0.3322222222222222,-0.6,-0.012005970533029885,0.008107218341727314,-0.004834725994237946
1589996023.0654383,-3.95,-0.89,8.921648402934643,0.32,-0.3322222222222222,-0.6,-0.015361537388103664,0.009483835592687046,-0.0024253965816206876
1589996023.0754383,-3.95,-0.89,8.957601404861924,0.32,-0.3322222222222222,-0.6,-0.01508245145487553,0.009177471901182451,-0.0017308359237821094
1589996023.0854383,-3.9411471469250396,-0.8988528530749602,8.97,0.32,-0.3322222222222222,-0.6206566571749073,-0.011283710778328414,0.004863860401137631,-0.00411305449440992
1589996023.0954382,-3.946469402711616,-0.9,8.995877610846463,0.32,-0.3322222222222222,-0.6233333333333333,-0.01231971254940391,0.008597537303303874,-0.0029519184055464736
1589996023.1054382,-3.95,-0.9143655437454559,8.93817228127272,0.32,-0.3322222222222222,-0.6233333333333333,-0.01073941279123108,0.008557751226238166,-0.0029651804312350433
1589996023.1154382,-3.95,-0.9036413345914689,8.92635866540853,0.32,-0.3322222222222222,-0.6233333333333333,-0.008033023463649532,0.004959135109247335,-0.004164719136898654
1589996023.1254382,-3.95,-0.8931526907390829,8.943694618521834,0.32,-0.3322222222222222,-0.6233333333333333,-0.006141964333658897,0.003616397558077677,-0.0013756208423532346
1589996023.1354382,-3.9445752000831513,-0.8845752000831515,8.966274399750546,0.323616533277899,-0.3376470221390708,-0.6197168000554343,-0.009596431029210116,0.00386424622130763,0.0017752616214547876
1589996023.1454382,-3.94,-0.8877111136899927,8.995422227379985,0.32666666666666666,-0.3422222222222222,-0.6166666666666667,-0.01308996938995747,0.0026810190939110605,0.00831940445571366
1589996023.1554382,-3.9336970099900275,-0.89,8.955879069930193,0.32666666666666666,-0.3422222222222222,-0.6166666666666667,-0.015840167599815744,0.0028692111174574804,0.013942774357255511
1589996023.1654382,-3.93,-0.89,8.946042549911354,0.32666666666666666,-0.3422222222222222,-0.6166666666666667,-0.013078365701683015,-0.00022744910711885525,0.027737271464923566
1589996023.1754382,-3.923058834621912,-0.8761176692438243,8.984705826890439,0.32666666666666666,-0.3422222222222222,-0.6166666666666667,-0.011999138607461015,-0.001090830782496456,0.044929371945452885
1589996023.1854382,-3.937188105579686,-0.8442178416304711,9.008594052789842,0.29801982403385674,-0.3489064855032112,-0.6223960351932286,-0.009186741408592939,-0.004840693714320558,0.07095582716940997
1589996023.1954381,-3.9475353954909442,-0.8550707909818879,8.987393813527168,0.2933333333333333,-0.35,-0.6233333333333333,-0.008726646259971648,-0.00545415391248228,0.08979419179339164
1589996023.2054381,-3.9185822697481894,-0.828582269748189,8.89360124180752,0.2933333333333333,-0.35,-0.6233333333333333,-0.008726646259971648,-0.008024510958095695,0.11203799171461443
1589996023.2154381,-3.9230563214623144,-0.8265281607311571,8.896112642924628,0.2933333333333333,-0.35,-0.6233333333333333,-0.011575093731423935,-0.00943875812783472,0.12953690734865608
1589996023.225438,-3.93,-0.8385691272284671,8.944276508913868,0.2933333333333333,-0.35,-0.6233333333333333,-0.011687849225966404,-0.011686970594456194,0.1428970752440153
1589996023.235438,-3.921255513341194,-0.85,8.998744486658806,0.30790747776467675,-0.3446561470418407,-0.6141030418601491,-0.010294414803695867,-0.015611613456137211,0.1625950472752459
1589996023.245438,-3.9256887025071543,-0.8447704324976152,9.01,0.32666666666666666,-0.3377777777777778,-0.6022222222222222,-0.009767393182815677,-0.018594207162092178,0.189835105149138
1589996023.255438,-3.8102639520226136,-0.751543603651782,8.927440696741662,0.32666666666666666,-0.3377777777777778,-0.6022222222222222,-0.010013192393909558,-0.01770513488402934,0.2165989753021303
1589996023.265438,-3.916934505025004,-0.7354464242365393,8.960892848473078,0.32666666666666666,-0.3377777777777778,-0.6022222222222222,-0.014213265059071898,-0.013057504503339501,0.2461717199582223
1589996023.275438,-3.993874267012137,-0.8070960043638348,9.034516568934952,0.32666666666666666,-0.3377777777777778,-0.6022222222222222,-0.011119616310787036,-0.01530666309040353,0.29505128086997845
1589996023.285438,-3.865146120536368,-0.8149070142041295,8.984933581574378,0.32332447754325044,-0.34000590386005525,-0.6033362852633609,-0.005465746114593198,-0.02563887046445831,0.36330171353134666
1589996023.295438,-3.897006604013208,-0.78,8.944671069342139,0.32,-0.3422222222222222,-0.6044444444444445,-0.008145350100033227,-0.028106833033628834,0.39149700667970944
1589996023.305438,-3.991931641015391,-0.7508766739956027,8.925438336997802,0.32,-0.3422222222222222,-0.6044444444444445,-0.003664737915690672,-0.02915581585726476,0.39776099004300514
1589996023.315438,-3.8903921375437216,-0.746980393122814,8.996784324350953,0.32,-0.3422222222222222,-0.6044444444444445,0.0016255522811530888,-0.03173675943509192,0.4137114790090577
1589996023.325438,-3.877464023025264,-0.6669379597057883,9.018133994243684,0.32,-0.3422222222222222,-0.6044444444444445,0.003919682564702848,-0.03272492347489368,0.4309720849537647
1589996023.335438,-3.818343649418173,-0.495429561772716,9.04055211686061,0.30981596104646364,-0.3422222222222222,-0.5866223762757559,-0.0031352945169599794,-0.03105856399779461,0.4601766477658632
1589996023.345438,-3.7408707160769015,-0.4763764279743661,9.058188213987183,0.30666666666666664,-0.3422222222222222,-0.5811111111111111,-0.006347349499571012,-0.02786367514863457,0.4999238116307662
1589996023.355438,-2.650829766216661,-0.49498847546921304,8.962574909450115,0.30666666666666664,-0.3422222222222222,-0.5811111111111111,-0.0008225230464000274,-0.02400079147750928,0.5203162262004605
1589996023.365438,-1.507608160572458,-0.6859148925372377,8.728592199751326,0.30666666666666664,-0.3422222222222222,-0.5811111111111111,0.04418618941962609,0.011737841883698256,0.44610395239544126
1589996023.375438,-1.4877393607988316,-0.8579061236966341,8.698072886594437,0.30666666666666664,-0.3422222222222222,-0.5811111111111111,0.05366092380474134,0.032228357059181964,0.350360153743855
1589996023.385438,-1.8130186439187406,-1.049228739776625,8.67747339723859,0.30666666666666664,-0.34773492998759026,-0.587411348557246,0.030393849462117966,0.00015665523417612848,0.21843740124799482
1589996023.395438,-1.9039927239654388,-1.0700060633621344,8.703986660603304,0.30666666666666664,-0.35,-0.59,0.016582215278440896,-0.014835761629096106,0.1736644935987552
1589996023.405438,-2.028294438827098,-0.9718107178968656,8.890105156723964,0.30666666666666664,-0.35,-0.59,-0.0023791802470247273,-0.009167566900629668,0.10392072432888957
1589996023.415438,-2.1525906823849468,-0.8916062117433688,8.959378258898209,0.30666666666666664,-0.35,-0.59,0.0077432045655049095,-0.003125535604687618,0.020703157114859906
1589996023.425438,-2.20042070320439,-0.8685922362983538,9.03042070320439,0.30666666666666664,-0.35,-0.59,0.010078711837951131,0.009709805445008763,-0.04592079087388288
1589996023.435438,-2.328732488154693,-0.85,9.12239441669868,0.30262910317155417,-0.34528950925570207,-0.5987480542394104,0.008066001477958747,0.01308996938995747,-0.13414151056005727
1589996023.445438,-2.407873887590896,-0.85,9.080315281022761,0.3,-0.3422222222222222,-0.6044444444444445,0.01295681203457437,0.01917110831235653,-0.20890247087526476
1589996023.455438,-2.42,-0.8429226721307658,8.950917409830723,0.3,-0.3422222222222222,-0.6044444444444445,0.015271630954950384,0.025676699198719462,-0.28157160058780445
1589996023.465438,-2.42,-0.8327013335319973,8.888104000595993,0.3,-0.3422222222222222,-0.6044444444444445,0.016067791960397582,0.028863091573305803,-0.35738990590442443
1589996023.4754379,-2.42,-0.83,8.86865184752233,0.3,-0.3422222222222222,-0.6044444444444445,0.0157435160350915,0.031309268234470326,-0.41951575850393674
1589996023.4854379,-2.4373983610722907,-0.8357994536907636,8.871598907381527,0.2916230113355638,-0.35059921088665846,-0.6121770493654625,0.01590425321570514,0.03525541251791271,-0.49462225768485624
1589996023.4954379,-2.4621270216629365,-0.84,8.892127021662937,0.2855555555555556,-0.3566666666666667,-0.6177777777777778,0.01834674101693672,0.03907252588436938,-0.5740645662975454
1589996023.5054379,-2.481596446258368,-0.84,8.865210661224896,0.2855555555555556,-0.3566666666666667,-0.6177777777777778,0.02026744211224589,0.04352317908891728,-0.649052758169901
1589996023.5154378,-2.50893054995971,-0.8715509165995166,8.959893483078162,0.2855555555555556,-0.3566666666666667,-0.6177777777777778,0.023479121750851144,0.04719156130656039,-0.7295501379584666
1589996023.5254378,-2.5026774152596167,-0.89,9.042991938555287,0.2855555555555556,-0.3566666666666667,-0.6177777777777778,0.026978708864139844,0.048941354863204736,-0.7911954090026607
1589996023.5354378,-2.4965748781230954,-0.89,9.074207038391226,0.287397208680344,-0.35508810684541947,-0.6146206581352833,0.029452431127404314,0.05301941970913409,-0.8515327708955716
1589996023.5454378,-2.5794908043191427,-0.9253889651829711,9.055120230497886,0.2933333333333333,-0.35,-0.6044444444444445,0.03202598929955633,0.06861125003267804,-0.9483007005520252
1589996023.5554378,-2.5724559666707916,-0.9610176133316833,8.927367900012374,0.2933333333333333,-0.35,-0.6044444444444445,0.03501758943457448,0.07609025037022343,-1.0098339309008022
1589996023.5654378,-2.573178461626871,-0.9873838462201534,8.86,0.2933333333333333,-0.35,-0.6044444444444445,0.037261604794058246,0.08170028876893283,-1.0748470070077267
1589996023.5754378,-2.6188662590954737,-1.004811043182579,8.86,0.2933333333333333,-0.35,-0.6044444444444445,0.03765427398742827,0.08504357705212248,-1.131169304701092
1589996023.5854378,-2.6584108814221263,-1.0184108814221264,8.868410881422125,0.3008096723752235,-0.3465733446058003,-0.6081826139653895,0.03739407488365227,0.08739894493231111,-1.1800844800850918
1589996023.5954378,-2.692674990379271,-1.0526749903792705,8.89,0.32,-0.3377777777777778,-0.6177777777777778,0.04002258001051659,0.09053895494720583,-1.2534545426882668
1589996023.6054378,-2.7403995980501152,-1.07,8.865680321559907,0.32,-0.3377777777777778,-0.6177777777777778,0.0451952659036486,0.09120217129377754,-1.3265021003188264
1589996023.6154377,-2.771928654438886,-1.1296432721944318,8.927536253852761,0.32,-0.3377777777777778,-0.6177777777777778,0.04690572364734761,0.09423221442084234,-1.3849306888882182
1589996023.6254377,-2.7945482556266716,-1.173637063906668,9.005459447346677,0.32,-0.3377777777777778,-0.6177777777777778,0.04769920790080766,0.09718333523987818,-1.430083357173076
1589996023.6354377,-2.818045405526533,-1.1795113513816333,9.046579459671435,0.32,-0.3377777777777778,-0.6177777777777778,0.048980778621392766,0.09910569132075585,-1.4653265519891665
1589996023.6454377,-2.82891046436185,-1.1978209287237,9.058910464361851,0.34970154787283336,-0.3328275197989722,-0.6118374682032112,0.052975308737237964,0.10509748649452368,-1.5158852964202234
1589996023.6554377,-2.7875098714001085,-1.2599210287991307,8.980157942401739,0.3533333333333333,-0.3322222222222222,-0.6111111111111112,0.05345501555316829,0.112351263386293,-1.58574464032683
1589996023.6654377,-2.7935320886318205,-1.3425534810530346,8.864510696210607,0.3533333333333333,-0.3322222222222222,-0.6111111111111112,0.05067025662253898,0.11759622545543238,-1.6449127415007074
1589996023.6754377,-2.81,-1.3926890536765741,8.863517413235265,0.3533333333333333,-0.3322222222222222,-0.6111111111111112,0.05162261703699231,0.11999138607461016,-1.682436887090135
1589996023.6854377,-2.8054219455767324,-1.4560231904814365,8.859156108846536,0.3663044875325915,-0.324337795159928,-0.6144174837501377,0.05310895996315654,0.1207404684779368,-1.7167306059604854
1589996023.6954377,-2.7999401282965075,-1.5348503207412687,8.885029935851747,0.41,-0.2977777777777777,-0.6255555555555555,0.05671666970009869,0.12380602831848923,-1.7615937488860212
1589996023.7054377,-2.8387656082030928,-1.5887656082030928,8.84548127015629,0.41,-0.2977777777777777,-0.6255555555555555,0.05844159969041549,0.1256098456408026,-1.789350403395083
1589996023.7154377,-2.8495921990127178,-1.630815601974564,8.835611701480923,0.41,-0.2977777777777777,-0.6255555555555555,0.06060783470906227,0.1259687132848377,-1.8113129091881885
1589996023.7254376,-2.8582325428735538,-1.6819069500287191,8.913813900057438,0.41,-0.2977777777777777,-0.6255555555555555,0.06168013912705652,0.12544553998709246,-1.832818946888421
1589996023.7354376,-2.874893158853735,-1.7455342057313235,9.000213682292529,0.42021368229252937,-0.28813152227927774,-0.6329321038779379,0.06275773367690103,0.12823088974892496,-1.8496317918950422
1589996023.7454376,-2.845313543346431,-1.7823432283267846,8.979141929183038,0.43,-0.2788888888888889,-0.64,0.06705189085013867,0.1322461312409986,-1.8656014410871506
1589996023.7554376,-2.8142995274900646,-1.8057004725099353,8.908973464342711,0.43,-0.2788888888888889,-0.64,0.0661533554902402,0.1322250275288888,-1.878716246249349
1589996023.7654376,-2.7821764705882353,-1.8422941176470589,8.83,0.43,-0.2788888888888889,-0.64,0.06229927098387112,0.13138735942586724,-1.8909038282443125
1589996023.7754376,-2.722794923940454,-1.9511796957618157,8.827205076059546,0.43,-0.2788888888888889,-0.64,0.06326818538479445,0.13587277484335722,-1.907158262339096
1589996023.7854376,-2.729618807451395,-1.9784752298055803,8.820381192548606,0.43,-0.2788888888888889,-0.64,0.06326818538479445,0.13736151528133814,-1.916090704966981
1589996023.7954376,-2.746365216257902,-2.0572521886472748,8.830904351226295,0.4833333333333333,-0.24444444444444444,-0.6677777777777778,0.05999569303730508,0.13883335336082672,-1.9415763519540525
1589996023.8054376,-2.717022900763359,-2.135404580152672,8.817832061068701,0.4833333333333333,-0.24444444444444444,-0.6677777777777778,0.06350467083687765,0.13794596113734953,-1.9657969781751625
1589996023.8154376,-2.7009693102400485,-2.179361896080219,8.801938620480097,0.4833333333333333,-0.24444444444444444,-0.6677777777777778,0.07062292383292994,0.14092864163156962,-1.9949206821665793
1589996023.8254375,-2.697156860609493,-2.249967325244516,8.845686278781015,0.4833333333333333,-0.24444444444444444,-0.6677777777777778,0.06981673434268242,0.1396299044224556,-2.0217621726406647
1589996023.8354375,-2.6650874469298524,-2.3297668081870606,8.919766808187061,0.49658893606235344,-0.21627628864527665,-0.6716439952404086,0.06544984694978735,0.14014313860991925,-2.0544939280094487
1589996023.8454375,-2.6561257577893698,-2.400628788946849,8.929371211053152,0.51,-0.18777777777777774,-0.6755555555555556,0.06945914604744455,0.14842157665340966,-2.090020706400339
1589996023.8554375,-2.6123459621369904,-2.414043245267124,8.826605433739733,0.51,-0.18777777777777774,-0.6755555555555556,0.07004548821684523,0.15053464798451094,-2.1232649640750156
1589996023.8654375,-2.5684519043940353,-2.4850626214387717,8.810418334620877,0.51,-0.18777777777777774,-0.6755555555555556,0.0655730847557271,0.15620330615930023,-2.1577225828847846
1589996023.8754375,-2.531567923517861,-2.53526132058631,8.854216038241068,0.51,-0.18777777777777774,-0.6755555555555556,0.0653358243339285,0.15725066660327794,-2.1899929400632963
1589996023.8854375,-2.4592753367966895,-2.5209500748437086,8.820225411640397,0.5155305098177336,-0.1661585121266375,-0.6841027070920529,0.07503546121960895,0.1538071403320003,-2.2217658525770267
1589996023.8954375,-2.434213973799127,-2.543899563318777,8.76968558951965,0.5222222222222223,-0.14,-0.6944444444444444,0.0787113006548971,0.1617311447279953,-2.252085409772755
1589996023.9054375,-2.4011700817603714,-2.621527001110326,8.77307883314828,0.5222222222222223,-0.14,-0.6944444444444444,0.070065733686202,0.16639469114312144,-2.280671893959639
1589996023.9154375,-2.283131472957422,-2.727474108170311,8.794342635212889,0.5222222222222223,-0.14,-0.6944444444444444,0.06473363620371354,0.1615090144630185,-2.317287904616959
1589996023.9254375,-2.27,-2.79378617889728,8.85655345527568,0.5222222222222223,-0.14,-0.6944444444444444,0.07033732315188819,0.16731011777087695,-2.350697811641596
1589996023.9354374,-2.27,-2.8181996769546425,8.85045008076134,0.5222222222222223,-0.14,-0.6944444444444444,0.07899239658843939,0.1699732172898158,-2.3680079585146987
1589996023.9454374,-2.157378244030374,-2.9352435119392517,8.84,0.5422222222222223,-0.06333333333333334,-0.7111111111111111,0.07567313792643479,0.1794151006887429,-2.4081417675205468
1589996023.9554374,-2.130150016096148,-2.97,8.805525056336517,0.5422222222222223,-0.06333333333333334,-0.7111111111111111,0.06603617288492254,0.1766982225468711,-2.4399920898339142
1589996023.9654374,-2.1067566638316353,-2.986554170210456,8.763378331915817,0.5422222222222223,-0.06333333333333334,-0.7111111111111111,0.0661574331358746,0.1806946652980025,-2.45905692533669
1589996023.9754374,-2.065705671213209,-3.0271471643933956,8.751429432878679,0.5422222222222223,-0.06333333333333334,-0.7111111111111111,0.07277446633755393,0.18637613686833643,-2.4735384072485096
1589996023.9854374,-1.9776474249260931,-3.0864680255173487,8.764705150147813,0.5484957557526408,-0.052616046885534985,-0.7176460418719638,0.07539597651024711,0.1854412330243975,-2.4937028161407864
1589996023.9954374,-1.9667607952908246,-3.1432392047091757,8.782159469806116,0.5688888888888889,-0.017777777777777778,-0.7388888888888889,0.0681334352626807,0.1854412330243975,-2.5057252846810556
1589996024.0054374,-1.9252916565900846,-3.1847083434099153,8.76568053204353,0.5688888888888889,-0.017777777777777778,-0.7388888888888889,0.06647704813500736,0.18597604348276633,-2.5175950262703033
1589996024.0154374,-1.8852073382286543,-3.254543855896961,8.73,0.5688888888888889,-0.017777777777777778,-0.7388888888888889,0.07305852191659802,0.19031830761652296,-2.519278215594009
1589996024.0254374,-1.8558323950458422,-3.2933295801833684,8.763340839633264,0.5688888888888889,-0.017777777777777778,-0.7388888888888889,0.07317584853345575,0.19416787928436915,-2.5155459705430205
1589996024.0354373,-1.865287339341114,-3.2661781651647215,8.825287339341115,0.5688888888888889,-0.0037643833817567023,-0.7444093169842911,0.06705474926370111,0.19583546931794477,-2.5035883061557516
1589996024.0454373,-1.8515512576776836,-3.3292077361801695,8.811551257677683,0.5688888888888889,0.01888888888888889,-0.7533333333333333,0.06310078401708719,0.19853120241435496,-2.4801334178700722
1589996024.0554373,-1.768781335261059,-3.44,8.736497213347947,0.5688888888888889,0.01888888888888889,-0.7533333333333333,0.058771926553730654,0.1968478589481216,-2.456955045695801
1589996024.0654373,-1.6680152996175095,-3.447190820229494,8.687190820229494,0.5688888888888889,0.01888888888888889,-0.7533333333333333,0.048041522804643105,0.18954309055245894,-2.424843582033763
1589996024.0754373,-1.6206091064428585,-3.476260595704761,8.735042382819044,0.5688888888888889,0.01888888888888889,-0.7533333333333333,0.044041137031202854,0.19007957547419055,-2.3766932059522743
1589996024.0854373,-1.598551622647355,-3.492534660367129,8.788189528309193,0.5700154046076128,0.01888888888888889,-0.7535747295587741,0.04238440705726819,0.19303755013684928,-2.345769414236367
1589996024.0954373,-1.5416142506804646,-3.5370178133505807,8.762982186649419,0.6,0.01888888888888889,-0.76,0.0316609614593469,0.18747367592304842,-2.2800049854350877
1589996024.1054373,-1.5061981716927604,-3.533003047178733,8.702588420720815,0.6,0.01888888888888889,-0.76,0.02851491496660243,0.18267058931598373,-2.2302437776098154
1589996024.1154373,-1.479987265856063,-3.583363046335853,8.646726092671706,0.6,0.01888888888888889,-0.76,0.0316313145331582,0.17925476529831272,-2.1798175842025205
1589996024.1254373,-1.462215772664755,-3.6432946359885308,8.74886309065902,0.6,0.01888888888888889,-0.76,0.025820549744573953,0.16763488330734996,-2.1251003729031215
1589996024.1354373,-1.4632290759363369,-3.698463655079579,8.78,0.6030092995838502,0.024719406832598694,-0.7652662742717379,0.022018323036485838,0.15342078463557882,-2.0629255974002243
1589996024.1454372,-1.4300174202232956,-3.739978224720881,8.78,0.617770035456313,0.05331833258549547,-0.7910975620485479,0.02835827490464131,0.14617512535768687,-1.9995260787186693
1589996024.1554372,-1.3931630751588704,-3.781224616560753,8.7622953796168,0.6177777777777778,0.05333333333333334,-0.7911111111111111,0.03735541649312437,0.13905306633964679,-1.8989524589405289
1589996024.1654372,-1.3530818481532803,-3.80794543456448,8.64873190310096,0.6177777777777778,0.05333333333333334,-0.7911111111111111,0.04318499465551453,0.13249479090695784,-1.8413853745869262
1589996024.1754372,-1.341745642759058,-3.875502904827295,8.74100580965459,0.6177777777777778,0.05333333333333334,-0.7911111111111111,0.038969771270934345,0.11969124917567207,-1.725571906396013
1589996024.1854372,-1.32,-3.887698362435538,8.733173798968606,0.5985974647405933,0.04514973310413463,-0.772698010595414,0.03918335622956215,0.11664092789719475,-1.6373105553595595
1589996024.1954372,-1.3125530756668482,-3.9097876973326073,8.654681545998912,0.5344444444444445,0.017777777777777778,-0.7111111111111111,0.03685606650909501,0.10258441081162643,-1.5309456714800695
1589996024.2054372,-1.2901436563298572,-3.9665708957800954,8.680718281649286,0.5344444444444445,0.017777777777777778,-0.7111111111111111,0.03157141079371382,0.09449687988390391,-1.4396813145462386
1589996024.2154372,-1.279335362883585,-3.9862235752557234,8.629788602045787,0.5344444444444445,0.017777777777777778,-0.7111111111111111,0.03798463533922468,0.09730144162991712,-1.3383702277729064
1589996024.2254372,-1.2747877445551865,-3.985993191419548,8.725993191419548,0.5344444444444445,0.017777777777777778,-0.7111111111111111,0.03516957274914848,0.08931663031007844,-1.2445804753601521
1589996024.2354372,-1.2071679327689346,-3.9528320672310655,8.709824470617457,0.5292523211874913,0.03414083289060002,-0.6997828421868496,0.03975245137230523,0.08493990937172177,-1.1573414522779637
1589996024.2454371,-1.1893318501253662,-3.97,8.828663700250733,0.4977777777777778,0.13333333333333333,-0.6311111111111111,0.0294706520886686,0.07730321786713407,-1.0696652676653193
1589996024.2554371,-1.1530520619114621,-4.046301547786557,8.963644333802359,0.4977777777777778,0.13333333333333333,-0.6311111111111111,0.031874975143143976,0.06439427128923629,-0.951932993092021
1589996024.2654371,-1.0518643351917554,-3.9912514782902515,9.009139212704849,0.4977777777777778,0.13333333333333333,-0.6311111111111111,0.07891388523326945,0.030723154999538264,-0.8711065892022546
1589996024.275437,-0.6658969656552184,-3.1582288540624655,7.273273313326665,0.4977777777777778,0.13333333333333333,-0.6311111111111111,0.23334479343288173,-0.04708176969560646,-0.7895339724712648
1589996024.285437,-0.9537743384922616,-3.59257979697121,8.205229821933766,0.49700907897413144,0.16139083966642628,-0.6234241230746472,-0.012061985273611797,0.09604150551247785,-0.6665591477351009
1589996024.295437,-1.0028058029014506,-3.739424512256128,9.472158679339671,0.4955555555555556,0.21444444444444444,-0.6088888888888889,-0.17870794223315867,0.08360162041099901,-0.5877459119375619
1589996024.305437,-0.8454807005003574,-3.616442101501072,8.032770647865359,0.4955555555555556,0.21444444444444444,-0.6088888888888889,-0.000646566572392062,-0.019258401623807035,-0.5265071024285307
1589996024.315437,-0.920432451751251,-3.8412973552537526,8.3939018129833,0.4955555555555556,0.21444444444444444,-0.6088888888888889,0.08408619007469952,0.07810994154083328,-0.4388012666008394
1589996024.325437,-0.9449318283153028,-3.879727313261211,8.852329570788257,0.4955555555555556,0.21444444444444444,-0.6088888888888889,-0.03269389803879705,-0.012939961918401157,-0.37442266797606866
1589996024.335437,-0.96,-3.9577972080682606,8.90186480537884,0.5034654258081158,0.22828671738642492,-0.6088888888888889,0.022990721481157175,0.014504362545843141,-0.29518922899134437
1589996024.345437,-0.9631239405890744,-4.031239405890744,8.92375211882185,0.5222222222222223,0.2611111111111111,-0.6088888888888889,0.017116221505974596,0.00845624984044538,-0.23092090389615824
1589996024.355437,-0.97,-4.096610484714634,8.896818551668023,0.5222222222222223,0.2611111111111111,-0.6088888888888889,-0.006280106686768217,-0.006051999680176199,-0.1920316108868915
1589996024.365437,-0.9770309706323599,-4.041639367845619,8.57406194126472,0.5222222222222223,0.2611111111111111,-0.6088888888888889,0.02260940094745279,0.0019432251770146892,-0.1213385202816793
1589996024.375437,-0.9961766804058338,-4.112353360811667,8.64941344324667,0.5222222222222223,0.2611111111111111,-0.6088888888888889,0.014469633418247318,-0.006095803820290317,-0.08040026386249184
1589996024.385437,-1.0176807577763072,-4.153815354070153,8.830336490734613,0.5212773457607177,0.26239957901316274,-0.6086311953084786,0.02366095710696606,-0.004869303291919778,-0.03531731603811066
1589996024.395437,-0.9656336863004632,-4.015023163467902,8.613473692918596,0.5000729833075962,0.29131461872196485,-0.6028481873667182,0.016091017413013574,-0.016224212832848514,0.0044248673551399095
1589996024.405437,-0.9918818948734588,-4.115412070084361,8.82776119402985,0.4977777777777778,0.29444444444444445,-0.6022222222222222,0.01677302750892506,-0.013385152022209919,0.08516266695690047
1589996024.415437,-0.9783375278636658,-4.13555835190911,8.690570935500109,0.4977777777777778,0.29444444444444445,-0.6022222222222222,0.010180172198739306,-0.016606088717416204,0.14381655165244514
1589996024.425437,-0.9905898747785232,-4.135884812167785,8.720596842587247,0.4977777777777778,0.29444444444444445,-0.6022222222222222,0.005967396625418937,-0.022394203719488918,0.20462424947292326
1589996024.435437,-0.9654849238420888,-4.106454771526266,8.597297482126205,0.501190619279522,0.29663841398128005,-0.6045380789555487,0.00643919072415533,-0.02168308467008855,0.2635249824065863
1589996024.445437,-1.0157843584893353,-4.2110782075533235,8.853725132085318,0.5288888888888889,0.3144444444444445,-0.6233333333333333,-0.002957004532631284,-0.03008340675712048,0.34230178880222994
1589996024.455437,-1.0333302138075013,-4.136669786192498,8.735004679288748,0.5288888888888889,0.3144444444444445,-0.6233333333333333,-0.002908201511696332,-0.03326880757247992,0.40450535583265473
1589996024.465437,-1.0484273990353468,-4.121572600964654,8.712358901446981,0.5288888888888889,0.3144444444444445,-0.6233333333333333,-0.006201896386813231,-0.04067962104149295,0.45802789755330436
1589996024.475437,-1.0663002482189485,-4.0418498758905255,8.706648883014731,0.5288888888888889,0.3144444444444445,-0.6233333333333333,-0.004281443130081147,-0.04969275568189559,0.5283160095116389
1589996024.485437,-1.0527794074981465,-4.048610296250927,8.76749266625834,0.5288888888888889,0.3144444444444445,-0.6233333333333333,-0.007968680445951754,-0.051905098071417945,0.5615011453544745
1589996024.495437,-1.0779645972942218,-4.105929194588444,8.764070805411556,0.5255555555555556,0.3244444444444444,-0.6233333333333333,-0.01242388541208563,-0.052379186740453165,0.6179508247813583
1589996024.505437,-1.0499707623361374,-4.079985381168068,8.747452488796222,0.5255555555555556,0.3244444444444444,-0.6233333333333333,-0.010909902492152047,-0.056450094327394715,0.6482361591684407
1589996024.515437,-1.0136055719224155,-4.062710692573608,8.677237198372017,0.5255555555555556,0.3244444444444444,-0.6233333333333333,-0.013586576684190738,-0.055830444403406974,0.6732349830803452
1589996024.5254369,-1.1064582872128468,-4.112708308499225,8.784374946784055,0.5255555555555556,0.3244444444444444,-0.6233333333333333,-0.011249193605486544,-0.056609572096308375,0.6911549200170773
1589996024.5354369,-1.1481374308170538,-4.033352624529304,8.720745027673178,0.5289495705111464,0.32340968378725204,-0.6233333333333333,-0.022744906608482614,-0.0587829573868514,0.7131658350458863
1589996024.5454369,-1.10528382720457,-4.118943234559086,8.730489111031774,0.6166666666666667,0.2966666666666667,-0.6233333333333333,-0.01854412330243975,-0.056093470816450205,0.7366032501300042
1589996024.5554368,-1.1567915509957754,-4.128110802655402,8.663583101991552,0.6166666666666667,0.2966666666666667,-0.6233333333333333,-0.019778862116954146,-0.060242640800207956,0.7497916033699861
1589996024.5654368,-1.1887724663697006,-4.1812275336303,8.694648183853024,0.6166666666666667,0.2966666666666667,-0.6233333333333333,-0.023041349579473597,-0.06180421954638786,0.7570079886673065
1589996024.5754368,-1.2297602092719082,-4.155577262441091,8.656731787323272,0.6166666666666667,0.2966666666666667,-0.6233333333333333,-0.020699627756676685,-0.0643590161672909,0.7649765710076557
1589996024.5854368,-1.2888376252995377,-4.188339464713626,8.75933578588545,0.6191943703803706,0.29622385725696676,-0.623683890782679,-0.02719831504217943,-0.06432278890717491,0.7670351763955884
1589996024.5954368,-1.22,-4.078523032801577,8.725738483599212,0.7688888888888888,0.27,-0.6444444444444445,-0.022907446432425576,-0.06280332605778506,0.7796402622864343
1589996024.6054368,-1.2261981926788175,-4.045351355490887,8.721405421963548,0.7688888888888888,0.27,-0.6444444444444445,-0.022907446432425576,-0.06418998668304343,0.7859976274574264
1589996024.6154368,-1.2518946239852964,-4.026079032011028,8.64431612804411,0.7688888888888888,0.27,-0.6444444444444445,-0.022907446432425576,-0.06348922522630812,0.7930052420247795
1589996024.6254368,-1.3162678858948265,-4.091789348968618,8.713732114105174,0.7688888888888888,0.27,-0.6444444444444445,-0.03215496878193392,-0.06738724221779753,0.8091689094232394
1589996024.6354368,-1.28441276544035,-4.02170808396877,8.74558723455965,0.7688888888888888,0.27,-0.6444444444444445,-0.027290172345871364,-0.06530232945948498,0.8258482114897396
1589996024.6454368,-1.2787406279733586,-3.9113343482397718,8.698815604186489,1.322461993868274,0.24474929696585263,-0.890153208584417,-0.02794947181292527,-0.0672193799827977,0.8581845375616846
1589996024.6554368,-1.3212315901814302,-3.9742168623265743,8.805448452508005,1.4022222222222225,0.2411111111111111,-0.9255555555555556,-0.03016066785615516,-0.06853104227040392,0.8860437295740388
1589996024.6654367,-1.3372410617373287,-4.116205308686642,8.675517876525342,1.4022222222222225,0.2411111111111111,-0.9255555555555556,-0.03118266247480783,-0.06714258468906967,0.9261908238624452
1589996024.6754367,-1.3234453836792421,-4.047226918396211,8.703109232641516,1.4022222222222225,0.2411111111111111,-0.9255555555555556,-0.02892534993113209,-0.07015233474730398,0.9374773865808238
1589996024.6854367,-1.328879984197308,-4.038879984197308,8.736639952591924,1.4022222222222225,0.2411111111111111,-0.9255555555555556,-0.02933025635595841,-0.07380996889542131,0.9364215104677428
1589996024.6954367,-1.3461036427632416,-4.007792714473517,8.820518213816207,1.1427746443699967,-0.06306880775011897,-0.8459319885595277,-0.029452431127404314,-0.0732981757479355,0.9245146843782536
1589996024.7054367,-1.3813066666666667,-3.8786933333333335,8.72728,1.08,-0.13666666666666666,-0.8266666666666667,-0.02306161718301841,-0.07246897942489122,0.8864410915595733
1589996024.7154367,-1.4463503776154512,-3.81,8.657299244769098,1.08,-0.13666666666666666,-0.8266666666666667,-0.023865573200203567,-0.06832422725312134,0.8451417377143416
1589996024.7254367,-1.4278075167407347,-3.7995899776790205,8.703493736049388,1.08,-0.13666666666666666,-0.8266666666666667,-0.02233966779271558,-0.06502401297000486,0.797696721663078
1589996024.7354367,-1.4784134006314222,-3.73211546582477,8.661322166140481,1.08,-0.13666666666666666,-0.8266666666666667,-0.018659504064488682,-0.062263890173834685,0.7572149206525823
1589996024.7454367,-1.6319368104967686,-3.7703159475161563,8.849326979567858,0.6788888888888889,0.10777777777777778,-0.6944444444444444,-0.018966669804387264,-0.05827104250188735,0.696437028704734
1589996024.7554367,-1.6378043356172076,-3.7267065034258113,8.683293496574189,0.6788888888888889,0.10777777777777778,-0.6944444444444444,-0.020606029952593613,-0.05539286007764115,0.6583021277004992
1589996024.7654366,-1.624151969869074,-3.708765269723601,8.712767979912718,0.6788888888888889,0.10777777777777778,-0.6944444444444444,-0.01963495408493621,-0.053299738457620205,0.62692576016605
1589996024.7754366,-1.6993770550606804,-3.8675737829058807,8.76291803670712,0.6788888888888889,0.10777777777777778,-0.6944444444444444,-0.01963495408493621,-0.05056447717285613,0.6214552375965217
1589996024.7854366,-1.9020167001374062,-3.804454074622133,8.717058450480922,0.6751916053036442,0.11181117805259017,-0.6944444444444444,-0.02072578486743266,-0.05252486845400094,0.6277776695826991
1589996024.7954366,-1.9374827185286967,-3.706922524046084,8.841189514850438,0.6101705715862782,0.18274321483517125,-0.6944444444444444,-0.02072578486743266,-0.055426425298536336,0.6374495257311504
1589996024.8054366,-1.8821053413565112,-3.825438427060892,8.782456231582596,0.6055555555555555,0.18777777777777774,-0.6944444444444444,-0.01756812107791057,-0.05352726071430451,0.7107622749194349
1589996024.8154366,-1.8123648761414302,-3.839662160551224,8.76067567889755,0.6055555555555555,0.18777777777777774,-0.6944444444444444,-0.03537092218293052,-0.07136833800531354,0.7945596543438596
1589996024.8254366,-1.7576388940160212,-3.8025992100114436,8.565515892059507,0.6055555555555555,0.18777777777777774,-0.6944444444444444,-0.022942077259438268,-0.0687309970040299,0.8545144082177927
1589996024.8354366,-1.7855879983241485,-3.835587998324148,8.901174385252505,0.6055555555555555,0.18777777777777774,-0.6944444444444444,-0.030479033354690446,-0.07160981186553048,0.928457127852477
1589996024.8454366,-1.6486697909156454,-3.7928899303052153,8.798669790915646,0.6055555555555555,0.18702999889373356,-0.7198689265019474,-0.02429279066545082,-0.07199483164476607,0.9579774465058895
1589996024.8554366,-1.5712681643083262,-3.796195507075022,8.852245699683435,0.6055555555555555,0.18666666666666668,-0.7322222222222222,-0.02167828038345058,-0.07485231819281986,0.9640335925432418
1589996024.8654366,-1.5865508078686839,-3.8496524236060514,8.704491921313162,0.6055555555555555,0.18666666666666668,-0.7322222222222222,-0.026330148324515343,-0.07526732399225547,0.9162628411286738
1589996024.8754365,-1.548415039139717,-3.7263398434411323,8.677132323871273,0.6055555555555555,0.18666666666666668,-0.7322222222222222,-0.01604964679790236,-0.06384033893865625,0.7931899874285598
1589996024.8854365,-1.5318328457341663,-3.792668617063335,8.751752194196252,0.6055555555555555,0.18666666666666668,-0.7322222222222222,-0.02418941195154037,-0.058413828836230905,0.6692846734231814
1589996024.8954365,-1.4413881763407503,-3.748329058044503,8.765552705363001,0.56,0.11666666666666667,-0.7466666666666667,-0.012332836647945523,-0.039331598057231874,0.4444980888586054
1589996024.9054365,-1.4497285688719204,-3.798371413231522,8.798914275487682,0.56,0.11666666666666667,-0.7466666666666667,-0.007783858192393729,-0.026594458381686843,0.2707271118565269
1589996024.9154365,-1.3284142691639313,-3.5098216354508596,8.598235904614791,0.56,0.11666666666666667,-0.7466666666666667,0.010855335447710678,-0.0038108781041815386,0.02969457176040827
1589996024.9254365,-1.3002397634505367,-3.7513869426410404,8.81081335304579,0.56,0.11666666666666667,-0.7466666666666667,0.02264127727061054,0.015626523170703767,-0.185518690400781
1589996024.9354365,-1.1923963489104583,-3.8772042596044654,8.819800304257463,0.56,0.11666666666666667,-0.7466666666666667,0.019700304363864454,0.01954782037969855,-0.3551147946898052
1589996024.9454365,-19.31364001955208,-9.948549146818342,-4.337635087095629,0.5114030098352886,0.12172885314215744,-0.6282115031401825,-0.633395445447861,2.209324406399628,-0.9572460375155257
1589996024.9554365,-0.514866736372783,-1.9017536349109274,0.4043583420465979,0.5066666666666667,0.12222222222222222,-0.6166666666666667,-0.4760927926636074,-1.4220023726394964,-5.939429705991145
1589996024.9654365,-0.9782430113042277,-2.3237570281520643,0.46228037641302844,0.5066666666666667,0.12222222222222222,-0.6166666666666667,-0.19267128759903435,-0.8217625609581554,-6.676867188913936
1589996024.9754364,-0.431674643731107,-1.4904059306175328,-0.04020836332229749,0.5066666666666667,0.12222222222222222,-0.6166666666666667,-0.1449085944032309,-0.45992180345830336,-6.593914155466806
1589996024.9854364,-0.13824816610717394,-1.085912387583406,0.057226159393261256,0.5066666666666667,0.12222222222222222,-0.6166666666666667,-0.05026582965708895,-0.25234023164781094,-6.188912147638978
1589996024.9954364,-0.17222680292648937,-1.2992811520148648,1.059717028606821,0.4933333333333334,0.2733333333333333,-0.6522222222222223,-0.09666549859239754,-0.10087739838068738,-5.857865178587277
1589996025.0054364,1.8004726512600162,-3.6860039484380445,6.742390353423916,0.4933333333333334,0.2733333333333333,-0.6522222222222223,-0.08161118504626991,0.0027317007308969438,-5.586887534756978
1589996025.0154364,1.8471052254831783,1.1694173228346456,9.282823192555476,0.4933333333333334,0.2733333333333333,-0.6522222222222223,1.6751929711215736,2.333473039387973,-4.8900226135564155
1589996025.0254364,-0.7349810561212409,-1.2491345015391901,4.35317191569974,0.4933333333333334,0.2733333333333333,-0.6522222222222223,1.0227333525931064,2.3464915077613715,-4.353170757819153
1589996025.0354364,2.3936111768884683,-2.4906393559081224,17.01652143026285,0.4933333333333334,0.2733333333333333,-0.6522222222222223,-0.384806379834038,0.5236417837264746,-3.8529930722741645
1589996025.0454364,1.4743426395561572,-0.5877370558224628,7.810677663577813,0.42777777777777776,0.3855555555555555,-0.6466666666666666,0.41420096254597494,-0.04669027033026515,-3.4333921026359464
1589996025.0554364,1.4431494399904805,-0.5752597759961922,6.656529279647781,0.42777777777777776,0.3855555555555555,-0.6466666666666666,0.6891351010555988,0.27928362161555154,-3.3040913939309258
1589996025.0654364,0.5204592314901593,-2.4088541624220694,10.005889328063242,0.42777777777777776,0.3855555555555555,-0.6466666666666666,0.06199524573485615,0.23552121602019954,-3.0349774460819674
1589996025.0754364,-1.2989844980518943,-1.7203879631932355,8.28077592638647,0.42777777777777776,0.3855555555555555,-0.6466666666666666,-0.4555988641482711,0.10296871082949469,-2.803953443275302
1589996025.0854363,0.5351307717814808,-2.763486694852027,10.366973389704054,0.42777777777777776,0.3855555555555555,-0.6466666666666666,-0.05166417113314192,0.28312737672826127,-2.5356118514366126
1589996025.0954363,0.4082855964039869,-2.88,9.596766194002301,0.38013316154312005,0.4287053966737361,-0.6232938360609855,-0.03566903669624576,0.12497645740504695,-2.133203460590278
1589996025.1054363,0.01432867166245048,-2.9569834375447472,10.046094219846307,0.3688888888888889,0.4388888888888889,-0.6177777777777778,-0.0490412549047995,0.09606537620378174,-2.0277032255490615
1589996025.1154363,0.1877184604419102,-2.8888189593727724,9.03124661439772,0.3688888888888889,0.4388888888888889,-0.6177777777777778,-0.10855896632485523,0.24416260556810906,-1.7991771844612299
1589996025.1254363,0.15194342417662696,-2.532310517664725,7.788706548428337,0.3688888888888889,0.4388888888888889,-0.6177777777777778,0.12594302027293072,0.08357916723201159,-1.6207034233387703
1589996025.1354363,0.04129608961220804,-2.8387185210738854,8.86964589378843,0.3688888888888889,0.4388888888888889,-0.6177777777777778,-0.01703711707925426,0.09286359173540022,-1.2873925836671185
1589996025.1454363,0.14,-2.95,9.02,0.3388888888888889,0.5166666666666667,-0.6466666666666666,0.12544553998709246,0.05563236990731925,-1.0591966898040588
1589996025.1554363,0.14,-2.9459313402695466,8.924386496334343,0.3388888888888889,0.5166666666666667,-0.6466666666666666,0.10125724492481339,0.05807339050993457,-1.0163678737763537
1589996025.1654363,0.14,-2.964326678975306,8.48821197784445,0.3388888888888889,0.5166666666666667,-0.6466666666666666,0.02227171589157647,0.05115588535643979,-0.7026324162424066
1589996025.1754363,0.1,-3.0319581808380853,8.853636621556443,0.3388888888888889,0.5166666666666667,-0.6466666666666666,-0.011724504387133794,0.02157249634297159,-0.4081685953677575
1589996025.1854362,0.1,-3.0736072573552358,8.930984906516867,0.3388888888888889,0.5166666666666667,-0.6466666666666666,-0.00588323506503206,0.016380256945547823,-0.2731703710347396
1589996025.1954362,0.1,-2.961668667466987,8.501604141656664,0.3164740896358543,0.5365197745764972,-0.6505092036814726,-0.009097731701736271,0.004916431955624408,-0.05873249658644597
1589996025.2054362,0.11176938140767192,-2.989463195484391,8.2971172675959,0.3,0.5511111111111111,-0.6533333333333333,-5.8556288980915125e-05,-0.012003473783361964,0.1611718502440756
1589996025.2154362,0.11267780634104542,-3.204477292202228,8.788076263924593,0.3,0.5511111111111111,-0.6533333333333333,-0.010949435977860739,-0.03001841059510063,0.3988701740946467
1589996025.2254362,2.814714224075938,-22.5792946929383,4.620290522076801,0.3,0.5511111111111111,-0.6533333333333333,-0.4421892255454419,-0.2985939431592665,1.8381972789197647
1589996025.2354362,0.5157807448461185,-3.81673930385859,8.992521518243272,0.3,0.5511111111111111,-0.6533333333333333,-0.4575873685769581,-0.497414394168768,4.406485509127163
1589996025.2454362,-1.201252023308514,-3.0428318225963094,11.73095702492716,0.3016154994424661,0.5381871155713823,-0.6702960774792274,0.3488337972496436,-0.16734152880249253,4.858129834949845
1589996025.2554362,-0.7940230836334355,-1.4941689220927372,1.7596383116737873,0.3022222222222222,0.5333333333333333,-0.6766666666666666,0.2726235171688472,-0.1332958031293038,4.810259805586977
1589996025.2654362,-1.4601274968125797,-3.1172120696982573,8.392537186570335,0.3022222222222222,0.5333333333333333,-0.6766666666666666,-0.5604162847713985,-0.5580028274600188,4.640376995854692
1589996025.2754362,0.04329064943354077,-3.622154140737195,10.184148316578906,0.3022222222222222,0.5333333333333333,-0.6766666666666666,-0.4102756518477887,-0.4176280114565396,4.646296723396527
1589996025.2854362,3.5485796633157816,-7.035418860698899,7.281200135631083,0.3022222222222222,0.5333333333333333,-0.6766666666666666,0.021370958100107196,-0.3163325067964625,4.594280112895407
1589996025.2954361,5.366519273371733,-18.78603234381923,10.255509968985379,0.38666666666666666,0.4955555555555556,-0.6555555555555556,-0.46707755017831265,-0.44314176495283536,0.46354329710782816
1589996025.3054361,-1.8253021710234822,1.2377082410279137,5.089291980505094,0.38666666666666666,0.4955555555555556,-0.6555555555555556,0.03869571166515606,0.2683869521095194,-1.4450159254397699
1589996025.3154361,-1.8898433078515013,-0.4401034759471217,6.2796940068420835,0.38666666666666666,0.4955555555555556,-0.6555555555555556,0.9161904650364328,0.5758436821644335,-1.0776929219632623
1589996025.325436,-0.9509663386408749,-1.0601165688220635,4.446226717911898,0.38666666666666666,0.4955555555555556,-0.6555555555555556,0.27271138133018313,-0.11304608762919388,-0.7907360332834483
1589996025.335436,-1.0113131738417815,-1.711411214531675,6.693441047772281,0.38666666666666666,0.4955555555555556,-0.6555555555555556,-0.2836735442274645,-0.05676356780943023,-0.5751609391686072
1589996025.345436,-0.9937346889205038,-2.4959040910510426,9.42000104097991,0.4046787420336121,0.4710776069799631,-0.6606358845052068,-0.4688203643045298,0.01366159666631201,-0.328037635261398
1589996025.355436,-0.37204125368336466,-3.131392981516207,8.848510581301902,0.43,0.43666666666666665,-0.6677777777777778,0.09153656981231242,0.025583824449271285,-0.08045059653978351
1589996025.365436,1.691797027766914,-11.435175596402033,6.475822057098162,0.43,0.43666666666666665,-0.6677777777777778,0.013038008815335622,-0.03551424220319825,-0.450683670131084
1589996025.375436,0.6373251751483446,-7.65480544207627,8.306389263729967,0.43,0.43666666666666665,-0.6677777777777778,-0.06880751350703447,0.07173225149337749,-1.305505663462682
1589996025.385436,-5.53155140186916,-9.988130841121496,6.425289719626168,0.43,0.43666666666666665,-0.6677777777777778,0.1929485955312236,0.20481928116803544,-1.4874731665005039
1589996025.395436,-3.3584533090866886,-7.142477800777699,7.910367181907876,0.42493694367598916,0.44389960427239644,-0.6677777777777778,-0.0005235633227010372,0.08297071100376083,-0.35294203383754863
1589996025.405436,1.2459284716606631,-2.373049694920238,9.318785194442404,0.4222222222222222,0.4477777777777778,-0.6677777777777778,0.00854581678011207,-0.22510247062296818,0.7931557881786515
1589996025.415436,0.33461724415793714,-2.4903016000920917,8.756612562833354,0.4222222222222222,0.4477777777777778,-0.6677777777777778,0.004667036270609527,-0.04961762750360579,0.20796907988787106
1589996025.425436,-1.4803356119791666,-3.4544957682291666,8.180176106770833,0.4222222222222222,0.4477777777777778,-0.6677777777777778,-0.012447685952659427,0.11688816424600619,-0.4150793287617577
1589996025.435436,-1.1403104667747797,-6.760865946347277,8.940833317051249,0.4222222222222222,0.4477777777777778,-0.6677777777777778,-0.047765732496422734,0.023710421163879697,-0.13998817432055227
1589996025.445436,0.6148994854421681,-3.8955946179168395,8.732152833264086,0.41033007695285173,0.4477777777777778,-0.6904809642011215,0.035586659061880216,-0.00757689687916847,0.09201610347398442
1589996025.455436,0.1471790113581828,-4.47376131818909,8.654253719404895,0.41,0.4477777777777778,-0.6911111111111111,0.0037544053676369024,-0.01050453814578678,0.014951693479885744
1589996025.465436,-0.14194420692603676,-4.617872666381644,8.539537907937865,0.41,0.4477777777777778,-0.6911111111111111,-0.004605833607496793,-0.004019999803330071,-0.010514578073736413
1589996025.475436,-0.09743430433896924,-4.6538923405989,8.816633224689346,0.41,0.4477777777777778,-0.6911111111111111,0.008465882372569003,-0.0001351594669899102,-0.004363323129985824
1589996025.485436,-0.1462640712945591,-4.59327626641651,8.788391181988743,0.41,0.4477777777777778,-0.6911111111111111,0.005911821893224813,-0.0005579507356061845,-0.003247421658773455
1589996025.495436,-0.1875614121948433,-4.529950870244125,8.739901740488252,0.4113820653116841,0.44943625615179866,-0.6888998066124166,-0.00026064943936408413,-0.0016335665612424552,-0.0019102936756199124
1589996025.505436,-0.15425395852878668,-4.615301460874227,8.753206456183346,0.4155555555555556,0.4544444444444444,-0.6822222222222222,-0.010420024823873504,-0.0037365272385557536,-0.0034110052378283845
1589996025.515436,-0.15583234369542437,-4.685832343695425,8.652491093258819,0.4155555555555556,0.4544444444444444,-0.6822222222222222,-0.011453075499716019,-0.004817943908775475,-0.004726501579820131
1589996025.525436,-0.15,-4.675401304284465,8.632190870008744,0.4155555555555556,0.4544444444444444,-0.6822222222222222,-0.0021177767470512386,-0.004952514027898284,-0.0036865812187448993
1589996025.535436,-0.15797741506311452,-4.634101632215985,8.697920952720901,0.4155555555555556,0.4544444444444444,-0.6822222222222222,0.0074090266004445005,-0.003928222634206013,-0.0032786514335832245
1589996025.545436,-0.16009956243262097,-4.58495021878369,8.769701312702137,0.4188557014113486,0.4544444444444444,-0.6750719062013374,0.0087592279898566,-0.002732507244555299,-0.002699925514670345
1589996025.555436,-0.1570564784053156,-4.618225913621262,8.8,0.4222222222222222,0.4544444444444444,-0.6677777777777778,-0.0037827547201654517,0.0001275655931690209,-0.003914669140374325
1589996025.565436,-0.16,-4.647358465185882,8.672704588636861,0.4222222222222222,0.4544444444444444,-0.6677777777777778,-0.007004643872086729,0.00045965917710799327,-0.003903663952877831
1589996025.5754359,-0.16,-4.6777998805046925,8.597799880504692,0.4222222222222222,0.4544444444444444,-0.6677777777777778,-0.003308875098432647,0.0,-0.004363323129985824
1589996025.5854359,-0.14846924829157176,-4.6265808656036445,8.650357630979498,0.4222222222222222,0.4544444444444444,-0.6677777777777778,0.002682598890166682,0.0,-0.0037344181845419674
1589996025.5954359,-0.1625249512446943,-4.6100332683262595,8.740066536652519,0.4022000433380496,0.44943889972340123,-0.6786231246733713,0.0021780325535563625,0.0,-0.004091522687220847
1589996025.6054358,-0.14530072042760867,-4.595300720427608,8.710601440855216,0.3955555555555556,0.4477777777777778,-0.6822222222222222,-0.006991989556418662,-0.005388546892610079,-0.004363323129985824
1589996025.6154358,-0.14767100031273733,-4.659039002814636,8.600276995934415,0.3955555555555556,0.4477777777777778,-0.6822222222222222,-0.008726646259971648,-0.0023611030581418176,-0.006036875784720591
1589996025.6254358,-0.1579480002017451,-4.656155999394765,8.57,0.3955555555555556,0.4477777777777778,-0.6822222222222222,-0.002657699964425533,-0.002824815438366775,-0.007411977022913895
1589996025.6354358,-0.1538220029239766,-4.662355994152047,8.650313961988303,0.3955555555555556,0.4477777777777778,-0.6822222222222222,0.004300488725263075,-0.003272492347489368,-0.0049401557235954265
1589996025.6454358,-0.15,-4.603641527295677,8.766358472704324,0.3911316573752674,0.4617867886820238,-0.6822222222222222,0.010531250065688252,-0.002548633700436103,-0.0018247750533828375
1589996025.6554358,-0.15,-4.601449468419333,8.8,0.3888888888888889,0.4688888888888889,-0.6822222222222222,0.004280277752345343,-0.000466359152744985,-0.0028061331947443835
1589996025.6654358,-0.15,-4.6035065540343725,8.670131080687446,0.3888888888888889,0.4688888888888889,-0.6822222222222222,-0.0034849390300344106,-0.0021249752231352463,-0.0025641672731109527
1589996025.6754358,-0.15,-4.655490049301774,8.624662244134122,0.3888888888888889,0.4688888888888889,-0.6822222222222222,-0.006544984694978735,-0.0012548172174686911,-0.002181661564992912
1589996025.6854358,-0.15536980870254732,-4.679260382594905,8.656109426107642,0.3888888888888889,0.4688888888888889,-0.6822222222222222,-0.001273187329008352,-0.0011715105257711963,-0.005110437879420903
1589996025.6954358,-0.156048474540236,-4.642339321781652,8.693709152758585,0.39723099819283514,0.463181129891452,-0.6800269303001311,0.004134581469355175,-0.002181661564992912,-0.005480592672810673
1589996025.7054358,-0.15823985589106343,-4.595880072054468,8.73,0.41,0.4544444444444444,-0.6766666666666666,0.002757667377690259,-0.002631075987458249,-0.002631075987458249
1589996025.7154357,-0.1656396209368933,-4.607441516252426,8.673315072179612,0.41,0.4544444444444444,-0.6766666666666666,-0.00346904863519138,-0.002321205206411398,-0.004699423059106323
1589996025.7254357,-0.16,-4.652237120677487,8.595552575864502,0.41,0.4544444444444444,-0.6766666666666666,-0.005574707265015057,-0.001090830782496456,-0.004604429835051378
1589996025.7354357,-0.14952034389683097,-4.664280515845246,8.64763810856743,0.41,0.4544444444444444,-0.6766666666666666,-0.002077016836523093,-0.0022339839292278216,-0.0033248147117242773
1589996025.7454357,-0.15029958824364617,-4.639700411756354,8.730898764730938,0.4128609967343462,0.458449839872529,-0.6841052581759667,0.004494043161283142,-0.0015872261620081898,-0.003801567734825431
1589996025.7554357,-0.15312854102755438,-4.595642705137772,8.753128541027554,0.4155555555555556,0.4622222222222222,-0.6911111111111111,0.007977086363191133,-0.0014991197935610306,-0.004022052244269884
1589996025.7654357,-0.1572352037802717,-4.616176018901358,8.70658877731837,0.4155555555555556,0.4622222222222222,-0.6911111111111111,0.0021111473766666205,-0.0013924232648774015,-0.004363323129985824
1589996025.7754357,-0.1532565503400602,-4.63,8.66302620136024,0.4155555555555556,0.4622222222222222,-0.6911111111111111,-0.005149173728494308,-0.0018264270294242144,-0.005098919376913582
1589996025.7854357,-0.14501940208777395,-4.65490298956113,8.664941793736679,0.4155555555555556,0.4622222222222222,-0.6911111111111111,-0.004919320718528315,-0.003268259468571663,-0.003824257057114153
1589996025.7954357,-0.14888415594036486,-4.666673766089453,8.688884155940364,0.41012634914755486,0.45876727268985806,-0.6807462625140188,-0.0012125504873680393,-0.002909656513548515,-0.0026662171038053482
1589996025.8054357,-0.16,-4.618870942571785,8.731129057428214,0.4033333333333333,0.4544444444444444,-0.6677777777777778,0.0006791306814559318,-0.0004117001010405241,-0.002593361666033436
1589996025.8154356,-0.14896895608814542,-4.6,8.683813736528872,0.4033333333333333,0.4544444444444444,-0.6677777777777778,0.0016924808956025115,-0.0024066004524242223,-0.0015800114518868564
1589996025.8254356,-0.14,-4.617762669962917,8.659604449938195,0.4033333333333333,0.4544444444444444,-0.6677777777777778,-0.0023394207758113115,-0.003071585318327474,-0.00432017531164233
1589996025.8354356,-0.14539279139066563,-4.662356748343994,8.663821625828003,0.4033333333333333,0.4544444444444444,-0.6677777777777778,-0.004277629341978292,-0.002769923850244906,-0.004191935553970761
1589996025.8454356,-0.14553124762892333,-4.654249981031387,8.681281266597537,0.40631250158071774,0.4544444444444444,-0.6677777777777778,0.0006272297690901874,-0.0027850270829169236,-0.0031565920941378006
1589996025.8554356,-0.15579224798069863,-4.615264082660233,8.72,0.41,0.4544444444444444,-0.6677777777777778,0.007176820934698636,-0.0004589945427765558,-0.004937545470724609
1589996025.8654356,-0.1620742006670096,-4.616037100333505,8.700185501667525,0.41,0.4544444444444444,-0.6677777777777778,0.007429790376724272,-0.00020602510075091941,-0.005886439206898071
1589996025.8754356,-0.146099649122807,-4.619750877192983,8.673900350877194,0.41,0.4544444444444444,-0.6677777777777778,0.003965035932699574,-0.0019689304250239538,-0.00611952241504082
1589996025.8854356,-0.13321598429328235,-4.653568031413435,8.69,0.41,0.4544444444444444,-0.6677777777777778,-0.0035848994302479027,-0.0028448781140651947,-0.004714132596299572
1589996025.8954356,-0.14,-4.642016178541764,8.69,0.41037336639662303,0.4544444444444444,-0.6687485304089977,-0.006398364053887702,-0.006178433092251152,-0.005600774553573313
1589996025.9054356,-0.15035717346588962,-4.6527380442235176,8.703809564621187,0.4155555555555556,0.4544444444444444,-0.6822222222222222,-0.0021037384027362445,-0.0014674282370380526,-0.005752828204767209
1589996025.9154356,-0.15654532561162984,-4.62448489146279,8.6851510853721,0.4155555555555556,0.4544444444444444,-0.6822222222222222,0.0026708873313696074,-0.0031601130977463024,-0.002181661564992912
1589996025.9254355,-0.14,-4.611324184637319,8.654901087150241,0.4155555555555556,0.4544444444444444,-0.6822222222222222,0.0005562051093784283,-0.0036842513204580893,-0.002860733374520647
1589996025.9354355,-0.1544558596761758,-4.624093099460293,8.679637239784117,0.4155555555555556,0.4544444444444444,-0.6822222222222222,-0.002667720454718636,-0.002221232566007914,-0.0037981222382300946
1589996025.9454355,-0.16331231684575082,-4.65,8.68331231684575,0.4114686380724033,0.4544444444444444,-0.6822222222222222,-0.0029042970003382244,-0.0003613177176726561,-0.004363323129985824
1589996025.9554355,-0.15,-4.637649549115441,8.67,0.4033333333333333,0.4544444444444444,-0.6822222222222222,0.002245375333764733,-0.0007054694845153304,-0.0034651729964799306
1589996025.9654355,-0.15510162184356394,-4.62,8.654695134469309,0.4033333333333333,0.4544444444444444,-0.6822222222222222,0.006010654527243867,-0.0016029905032046053,-0.003294662794516087
1589996025.9754355,-0.15443497261032807,-4.603304917830984,8.667825136948359,0.4033333333333333,0.4544444444444444,-0.6822222222222222,0.00350973310393371,-0.0012141006364180104,-0.0031492224935678135
1589996025.9854355,-0.15,-4.621230172984214,8.700410057661404,0.4033333333333333,0.4544444444444444,-0.6822222222222222,-0.0011802914864282004,-0.0010461004305305837,-0.003885003266686404
1589996025.9954355,-0.1553239997431122,-4.644676000256887,8.688704001027551,0.4098404441304705,0.4508951112823696,-0.6745320003710602,-0.003853250628068369,-0.0011615165611580014,-0.00545415391248228
1589996026.0054355,-0.14091295659447906,-4.6527246956036805,8.695449391207362,0.4155555555555556,0.4477777777777778,-0.6677777777777778,-0.0036692986468662156,-0.0014876370818733037,-0.003372080463123455
1589996026.0154355,-0.14252903328302485,-4.647470966716975,8.6765892445786,0.4155555555555556,0.4477777777777778,-0.6677777777777778,-0.000994649817481676,-0.00017969377049337914,-0.002181661564992912
1589996026.0254354,-0.15785226718673817,-4.632147732813261,8.642886396879572,0.4155555555555556,0.4477777777777778,-0.6677777777777778,0.00171309895193617,0.0001537055563829721,-0.002415942871521283
1589996026.0354354,-0.1532883583651987,-4.64,8.69,0.4155555555555556,0.4477777777777778,-0.6677777777777778,0.0003587042528638443,-0.003272492347489368,-0.003631196600353212
1589996026.0454354,-0.15938658602189623,-4.64,8.69,0.4155555555555556,0.4477777777777778,-0.6677777777777778,0.0010239176975235349,-0.003272492347489368,-0.004296410045012903
1589996026.0554354,-0.14308840935991987,-4.6530884093599205,8.71,0.41,0.4544444444444444,-0.6611111111111111,-0.004443474312857047,-0.001090830782496456,-0.003609385547364446
1589996026.0654354,-0.15,-4.635574306507753,8.677432408677005,0.41,0.4544444444444444,-0.6611111111111111,0.0018149831867821527,-0.001090830782496456,-0.004807394769071942
1589996026.0754354,-0.15,-4.6,8.658323131479683,0.41,0.4544444444444444,-0.6611111111111111,0.007635815477475192,-0.002326660529485755,-0.0029824944185036814
1589996026.0854354,-0.15,-4.604491766378391,8.706950598270348,0.41,0.4544444444444444,-0.6611111111111111,0.0046959612574761535,-0.002292540940823022,-0.002560757892495975
1589996026.0954354,-0.15285470398146453,-4.615709407962929,8.731435888055607,0.41570940796292905,0.45254130845680135,-0.6655517617489448,0.0004680309869171124,-0.001090830782496456,-0.004363323129985824
1589996026.1054354,-0.15516097978393412,-4.632419510108033,8.705160979783935,0.43,0.4477777777777778,-0.6766666666666666,-0.0018826136138175545,-0.001090830782496456,-0.0040993955195454575
1589996026.1154354,-0.14447720483179635,-4.644477204831796,8.649705156513832,0.43,0.4477777777777778,-0.6766666666666666,-0.0024097739899596993,-0.0020676053525095187,-0.0037608796324958994
1589996026.1254354,-0.14560480419430774,-4.645604804194308,8.621975979028461,0.43,0.4477777777777778,-0.6766666666666666,0.0004794414879948445,-0.002313609371499679,-0.0034044401539961348
1589996026.1354353,-0.14417122076270344,-4.631657558474593,8.670856103813517,0.43,0.4477777777777778,-0.6766666666666666,0.0006358211816419298,-0.001090830782496456,-0.0030916807667019644
1589996026.1454353,-0.15,-4.627536076006095,8.703768038003048,0.42455727844004265,0.4502898031131427,-0.6766666666666666,0.0,-0.0002687724138283372,-0.004363323129985824
1589996026.1554353,-0.15,-4.64,8.71,0.4155555555555556,0.4544444444444444,-0.6766666666666666,-0.0010683827852536478,0.0016250221751232799,-0.004897514522612648
1589996026.1654353,-0.15,-4.634653192343729,8.65653192343729,0.4155555555555556,0.4544444444444444,-0.6766666666666666,0.00015132338682630544,-0.0019010621006907186,-0.003704415198617867
1589996026.1754353,-0.15,-4.624555429939482,8.659001130544656,0.4155555555555556,0.4544444444444444,-0.6766666666666666,0.005151213874728393,-0.004860243450535184,-0.002775572026940008
1589996026.1854353,-0.14688539149171592,-4.613770782983432,8.709343825524853,0.4155555555555556,0.4544444444444444,-0.6766666666666666,0.00559730897571821,-0.0050428252972381515,-0.0029327412638632043
1589996026.1954353,-0.14077890690970504,-4.60155781381941,8.727663279270885,0.4155555555555556,0.4544444444444444,-0.6766666666666666,0.0016006241627797187,-0.006375053568217647,-0.002266627128373456
1589996026.2054353,-0.14617910346924298,-4.625283586123029,8.71179103469243,0.3955555555555556,0.4477777777777778,-0.6966666666666667,-0.004106082657986102,-0.004620563601985546,-0.0034320470307380134
1589996026.2154353,-0.14,-4.65,8.616627628051361,0.3955555555555556,0.4477777777777778,-0.6966666666666667,-0.004240700225599081,-0.002665765504047769,-0.00545415391248228
1589996026.2254353,-0.1360888286150195,-4.653911171384981,8.609555856924903,0.3955555555555556,0.4477777777777778,-0.6966666666666667,-0.0028458497332537647,-0.002181661564992912,-0.004600868684011074
1589996026.2354352,-0.13165544717681002,-4.65503365846957,8.64827723588405,0.3955555555555556,0.4477777777777778,-0.6966666666666667,-0.0012787551953623104,-0.001639917743214551,-0.003272492347489368
1589996026.2454352,-0.14242057267156094,-4.627579427328439,8.699682290686244,0.40039670089867746,0.451274160525588,-0.6896739011710462,0.002744405311207697,3.465670993311413e-05,-0.003800579383771039
1589996026.2554352,-0.15227363303044794,-4.624547266060896,8.725452733939104,0.4155555555555556,0.4622222222222222,-0.6677777777777778,0.0005948010029537905,-0.0027764625679467026,-0.004710109243168281
1589996026.2654352,-0.155207784482026,-4.64,8.652493413784313,0.4155555555555556,0.4622222222222222,-0.6677777777777778,0.00047741807851251383,-0.0016135804028327792,-0.0016589119446565887
1589996026.2754352,-0.1544898642557247,-4.63102027148855,8.630408778301522,0.4155555555555556,0.4622222222222222,-0.6677777777777778,0.002671429778930416,-0.0016918933510554077,-0.0025601354243089684
1589996026.2854352,-0.16,-4.623804543014236,8.691413629042708,0.4155555555555556,0.4622222222222222,-0.6677777777777778,0.003272492347489368,-0.0015058420458225323,-0.003533300603333671
1589996026.2954352,-0.15413315800401411,-4.624133158004014,8.721733683991973,0.41197026322467534,0.45994067255711657,-0.6677777777777778,0.003272492347489368,-0.0018616749727296945,-0.0028216347495193467
1589996026.3054352,-0.14,-4.614834448986927,8.73549665303922,0.4033333333333333,0.4544444444444444,-0.6677777777777778,0.0006357094618151772,-3.611762822677963e-05,-0.004890679707120662
1589996026.3154352,-0.14490017069259814,-4.634700512077795,8.66609812238142,0.4033333333333333,0.4544444444444444,-0.6677777777777778,-0.0037852386742848235,0.0005563050793991521,-0.00545415391248228
1589996026.3254352,-0.14478481250293332,-4.655215187497067,8.6256455624912,0.4033333333333333,0.4544444444444444,-0.6677777777777778,-0.003747487794994982,-0.0011377774116581986,-0.004316376500824081
1589996026.3354352,-0.14282506684842447,-4.651524799454727,8.656950401090548,0.4033333333333333,0.4544444444444444,-0.6677777777777778,-0.00033265963646991205,-0.002181661564992912,-0.003580659335576535
1589996026.3454351,-0.1483227599224034,-4.6350317202327895,8.68993655953442,0.4033333333333333,0.4544444444444444,-0.6677777777777778,0.0032655720662183537,-0.002181661564992912,-0.004180364619357912
1589996026.3554351,-0.1414917692079306,-4.628508230792069,8.735524692376208,0.43666666666666665,0.4544444444444444,-0.6822222222222222,0.0031097655702502637,-0.0009281040052573515,-0.001416284336974665
1589996026.3654351,-0.15,-4.62329055127735,8.68038503850385,0.43666666666666665,0.4544444444444444,-0.6822222222222222,0.002181661564992912,0.0,-0.0036314358099610046
1589996026.375435,-0.15464297678253924,-4.63464297678254,8.624642976782539,0.43666666666666665,0.4544444444444444,-0.6822222222222222,0.001675191365311897,0.0005064701996810149,-0.004616558229826331
1589996026.385435,-0.16736956097983582,-4.644739121959672,8.663673951181478,0.43666666666666665,0.4544444444444444,-0.6822222222222222,0.0008608091564024686,0.0016077887940579329,-0.005741090297949769
1589996026.395435,-0.15852109913511292,-4.628521099135113,8.732957801729775,0.4335445426185717,0.45263689894291576,-0.6843584123603924,0.003433815406257314,0.00032264611753589156,-0.0062223385774428435
1589996026.405435,-0.15068611884258307,-4.620686118842583,8.748627762314834,0.41700402866767544,0.44306081191871266,-0.6956756061162689,0.004288479174591778,0.002031973654204819,-0.004513011040773916
1589996026.415435,-0.14,-4.644628583723307,8.68611424883008,0.4155555555555556,0.44222222222222224,-0.6966666666666667,-0.0011967982072282402,-0.001090830782496456,0.002181661564992912
