time,acc_x,acc_y,acc_z,mag_x,mag_y,mag_z,gyr_x,gyr_y,gyr_z
1589996032.3523998,-3.91,-0.93,8.88,0.3233333333333333,-0.3388888888888889,-0.6311111111111111,0.00545415391248228,0.004363323129985824,-0.07417649320975901
1589996032.3623998,-4.080602678571428,-0.9174246651785715,8.980301339285715,0.3233333333333333,-0.3388888888888889,-0.6311111111111111,0.01090830782496456,0.0019336071320312457,-0.08364730276861566
1589996032.3723998,-4.122428880866425,-0.9136606498194946,9.012928519855596,0.3222758122743682,-0.33848215002005616,-0.6294841556357802,0.010508992874260081,0.004203597149704032,-0.07108719742545279
1589996032.3823998,-3.918602231673298,-0.9525591073306809,9.035118214661363,0.3088888888888889,-0.3333333333333333,-0.6088888888888889,0.003424965219245915,-0.0022825535601270906,-0.003145809914044005
1589996032.3923998,-3.9457336476134355,-0.9442663523865644,8.997200942840307,0.3088888888888889,-0.3333333333333333,-0.6088888888888889,0.0013961605536725412,-0.010282863893692285,-0.0015562176337206362
1589996032.4023998,-3.9323280612854243,-0.95,8.98,0.3088888888888889,-0.3333333333333333,-0.6088888888888889,0.0024356136563608143,-0.018021776699557263,-0.0017632222194286353
1589996032.4123998,-3.9109035447235865,-0.95,8.98545787316585,0.3088888888888889,-0.3333333333333333,-0.6088888888888889,0.0020831001252078554,-0.03064315433865799,-0.0004954691768696163
1589996032.4223998,-3.873399771841839,-0.9466002281581609,8.979402053423449,0.30473361219330786,-0.33522209546768833,-0.6137996704382119,0.0069158422728330055,-0.03265969762169461,0.001810803987138642
1589996032.4323997,-3.888031187695813,-0.9359844061520934,8.90795321845628,0.2966666666666667,-0.3388888888888889,-0.6233333333333333,0.008949915491265158,-0.020047472048895097,0.00021476410663647818
1589996032.4423997,-3.8943011971703245,-0.947096408489026,8.884301197170325,0.2966666666666667,-0.3388888888888889,-0.6233333333333333,0.010286664869965786,-0.00780009304997069,-0.00046918782749768206
1589996032.4523997,-3.89,-0.9544997246630115,8.907501376684943,0.2966666666666667,-0.3388888888888889,-0.6233333333333333,0.009217490077488788,-0.0036541930175443323,0.0005999869649793158
1589996032.4623997,-3.8988289250367094,-0.95,8.987388012738611,0.2966666666666667,-0.3388888888888889,-0.6233333333333333,0.011134362061570691,-0.0007370320840334851,0.0001277444618568381
1589996032.4723997,-3.9216103872270143,-0.9422597418486572,9.079350645378357,0.29924675271711426,-0.3315786450792874,-0.6143030321567667,0.014602965765251616,0.00024649959690107714,-0.0006686651896987666
1589996032.4823997,-3.929932197936059,-0.9400678020639408,9.11,0.3033333333333333,-0.32,-0.6,0.014722517534778984,-0.006032851564039043,-0.001098226840342797
1589996032.4923997,-3.895371796734971,-0.9302974373879765,9.011487186939883,0.3033333333333333,-0.32,-0.6,0.016867320396361296,-0.014669436138434876,-0.0011070534754299643
1589996032.5023997,-3.8659572091590118,-0.922128372522965,8.922128372522964,0.3033333333333333,-0.32,-0.6,0.01919395401528173,-0.01854412330243975,-0.0013230002089634353
1589996032.5123997,-3.8618405082337204,-0.9381594917662793,8.941840508233721,0.3033333333333333,-0.32,-0.6,0.01633567196198103,-0.016937976873015227,-0.0024694191327771066
1589996032.5223997,-3.8688526289392295,-0.9311473710607707,8.948852628939228,0.3033333333333333,-0.32,-0.6,0.007921731134216466,-0.010818747180095546,0.0005901957136827348
1589996032.5323997,-3.8821477403712388,-0.9121477403712389,8.92785225962876,0.3088888888888889,-0.3333333333333333,-0.6233333333333333,0.001325112913472234,0.0007028463929273341,-0.0014788151720655778
1589996032.5423996,-3.8909384888477274,-0.9218769776954542,8.915307555761364,0.3088888888888889,-0.3333333333333333,-0.6233333333333333,0.002181661564992912,0.002965372590250264,0.0012955772873225254
1589996032.5523996,-3.896906098644187,-0.9369060986441871,8.897845112202315,0.3088888888888889,-0.3333333333333333,-0.6233333333333333,0.004206615267149852,0.00101247685107847,0.003272492347489368
1589996032.5623996,-3.8897702766057196,-0.93,8.962067510548524,0.3088888888888889,-0.3333333333333333,-0.6233333333333333,0.008726646259971648,0.003272492347489368,0.0032223744775012517
1589996032.5723996,-3.8849609919197547,-0.9324804959598775,9.05992198383951,0.30751083557784586,-0.33608943995541934,-0.6175455094269527,0.008726646259971648,0.0030019122126001318,0.001090830782496456
1589996032.5823996,-3.896846481243195,-0.94,9.080539443729585,0.3033333333333333,-0.34444444444444444,-0.6,0.006662673060109998,0.003213648164923737,0.001090830782496456
1589996032.5923996,-3.89,-0.9357959054118394,9.005346770353912,0.3033333333333333,-0.34444444444444444,-0.6,-0.0010285074875117355,0.007288536228199222,0.00017363962463798528
1589996032.6023996,-3.8941730605285594,-0.93,8.942519181585679,0.3033333333333333,-0.34444444444444444,-0.6,-0.006364574488836952,0.01027268733064544,-0.0020012513588511284
1589996032.6123996,-3.9089334023209403,-0.9389334023209402,8.95553329883953,0.3033333333333333,-0.34444444444444444,-0.6,-0.008123056989680535,0.007984858751732502,-0.0018107678108733394
1589996032.6223996,-3.9119671966527196,-0.9459835983263598,8.96606560669456,0.3055646675964667,-0.3373041748024175,-0.6093716039051603,-0.00828852480192395,0.003925201671938126,0.0004381214580476979
1589996032.6323996,-3.8874021147403686,-0.9441992950865438,8.948007049134562,0.3088888888888889,-0.32666666666666666,-0.6233333333333333,-0.00580352733939994,0.003272492347489368,0.001090830782496456
1589996032.6423995,-3.8615692546282836,-0.95,8.870328260799328,0.3088888888888889,-0.32666666666666666,-0.6233333333333333,-0.002046290138041638,0.0029659417951274354,0.001090830782496456
1589996032.6523995,-3.84483760011793,-0.95,8.863538401061373,0.3088888888888889,-0.32666666666666666,-0.6233333333333333,-0.001547670778526985,0.007458664687039793,0.0016185310947011442
1589996032.6623995,-3.8540373820959437,-0.9419252358081129,8.938261674671605,0.3088888888888889,-0.32666666666666666,-0.6233333333333333,-0.006124963398367925,0.020136530463485878,0.0017412514978973866
1589996032.6723995,-3.869234439747185,-0.9369258298103889,9.003086099367962,0.3122235476864835,-0.3294883010338621,-0.6199986745357386,-0.009733967373505481,0.033313394972118805,0.0008390005041129977
1589996032.6823995,-3.9097484040555766,-0.96,9.066352234322194,0.3233333333333333,-0.3388888888888889,-0.6088888888888889,-0.014366032496841798,0.04339310925528467,-0.0008507087379228839
1589996032.6923995,-3.95,-0.96,8.96417467483127,0.3233333333333333,-0.3388888888888889,-0.6088888888888889,-0.018635200578697,0.04240683286927116,-0.005363076636225033
1589996032.7023995,-3.9457875449158797,-0.9642124550841206,8.918424910168241,0.3233333333333333,-0.3388888888888889,-0.6088888888888889,-0.016534277384814805,0.03249317092923705,-0.006544984694978735
1589996032.7123995,-3.936298754489509,-0.9662987544895087,8.93,0.3233333333333333,-0.3388888888888889,-0.6088888888888889,-0.012445428179455901,0.021335019736210114,-0.0045262684267683906
1589996032.7223995,-3.91865306122449,-0.9562176870748299,8.94512925170068,0.3233333333333333,-0.3367876039304611,-0.6004837490551777,-0.006398056467132275,0.008551519685366774,0.0005595145646274339
1589996032.7323995,-3.89545543504852,-0.95454456495148,8.974544564951481,0.3233333333333333,-0.3333333333333333,-0.5866666666666667,-0.001388912324708445,9.936051407066315e-05,0.0017852869448506787
1589996032.7423995,-3.892712994067615,-0.96,8.950157065256237,0.3233333333333333,-0.3333333333333333,-0.5866666666666667,0.0030694867974982915,-0.001090830782496456,-0.0008878252325053798
1589996032.7523994,-3.899583258616361,-0.9591665172327224,8.872500448301832,0.3233333333333333,-0.3333333333333333,-0.5866666666666667,0.00545415391248228,-0.0009544524836124533,-0.0030906546156440314
1589996032.7623994,-3.8962004073319756,-0.9462004073319755,8.945501018329939,0.3233333333333333,-0.3333333333333333,-0.5866666666666667,0.007145052707916195,0.002519841324079695,0.0007526510234096729
1589996032.7723994,-3.91273742447899,-0.9545251510420202,8.98821227343697,0.3233333333333333,-0.33637491608776654,-0.5927498321755331,0.010012487759032112,0.002376672281556921,-0.001194426754576596
1589996032.7823994,-3.9131006229117347,-0.9434496885441327,8.999650934367601,0.3233333333333333,-0.34444444444444444,-0.6088888888888889,0.006130604895889055,-0.0007526052907930685,-0.004363323129985824
1589996032.7923994,-3.902184203660218,-0.9521842036602184,8.96689477803869,0.3233333333333333,-0.34444444444444444,-0.6088888888888889,0.0027959730299278317,-0.002300791394383296,-0.0038868038124242874
1589996032.8023994,-3.92,-0.9663140907790987,8.878429546104506,0.3233333333333333,-0.34444444444444444,-0.6088888888888889,-0.0014929011064611177,-0.003272492347489368,-0.00040207032396466177
1589996032.8123994,-3.92,-0.96,8.92776323657942,0.3233333333333333,-0.34444444444444444,-0.6088888888888889,-0.0013512321968101484,-0.0035493021368836228,-0.0008140209931022014
1589996032.8223994,-3.9157902668203173,-0.9578951334101586,8.988419466359366,0.32169621487456784,-0.34444444444444444,-0.6060824001024337,0.001090830782496456,-0.005970560418458906,-0.0009184213076989042
1589996032.8323994,-3.9,-0.95,9.018102946034414,0.31555555555555553,-0.34444444444444444,-0.5955555555555555,0.002125513213354757,-0.011999138607461015,-0.004363323129985824
1589996032.8423994,-3.9037701282665123,-0.9537701282665121,8.968528589068367,0.31555555555555553,-0.34444444444444444,-0.5955555555555555,0.0081900134818073,-0.010354109820632451,-0.004774580326692965
1589996032.8523993,-3.9141825953901828,-0.9558174046098171,8.912547786170549,0.31555555555555553,-0.34444444444444444,-0.5955555555555555,0.011364558205198485,-0.009004566618176972,-0.004997903532248353
1589996032.8623993,-3.92,-0.95,8.940167470424234,0.31555555555555553,-0.34444444444444444,-0.5955555555555555,0.011259739292869284,-0.01090830782496456,-0.004363323129985824
1589996032.8723993,-3.92,-0.9521204804358593,8.96424096087172,0.3172048181167795,-0.3420883550712674,-0.6014457789884982,0.009586168509156417,-0.0102143822250295,-0.003669397530050764
1589996032.8823993,-3.906780510292025,-0.9566951275730062,8.96347563786503,0.3233333333333333,-0.3333333333333333,-0.6233333333333333,0.007645129287295076,-0.008356826792592907,-0.001451336440055313
1589996032.8923993,-3.8724178653880306,-0.9525273782039898,8.91483573077606,0.3233333333333333,-0.3333333333333333,-0.6233333333333333,0.00600554230126682,-0.010644559625644916,-0.003284438342561992
1589996032.9023993,-3.839423763170675,-0.9635254122764416,8.884101649105766,0.3233333333333333,-0.3333333333333333,-0.6233333333333333,0.007251252654261847,-0.014628220682810854,-0.006544984694978735
1589996032.9123993,-3.822477487370964,-0.9675225126290358,8.917432462112892,0.3233333333333333,-0.3333333333333333,-0.6233333333333333,0.005734228848730546,-0.015831780827446917,-0.008436748336224511
1589996032.9223993,-3.862047490106228,-0.9493175032979241,8.956023745053114,0.3179920849822953,-0.3363006935283544,-0.6194757650798058,0.002689852535662302,-0.00916038838948336,-0.01738531913750279
1589996032.9323993,-3.965151735575664,-0.9109089586546015,8.990908958654602,0.3033333333333333,-0.34444444444444444,-0.6088888888888889,0.0007602711910128344,-0.003371644355534959,-0.026841057962882182
1589996032.9423993,-3.9956610608397103,-0.8926033634961739,8.972603363496175,0.3033333333333333,-0.34444444444444444,-0.6088888888888889,9.466096798846856e-05,-0.001374813686461862,-0.028172278408930912
1589996032.9523993,-3.9894497199902603,-0.9120550280009739,8.87616508400292,0.3033333333333333,-0.34444444444444444,-0.6088888888888889,0.0008666620022610022,-0.0017633371232028175,-0.015435773497824212
1589996032.9623992,-3.90927499284618,-0.9221750214614605,8.903625035769101,0.3033333333333333,-0.34444444444444444,-0.6088888888888889,-0.00015817202418343034,-0.0047587531904444,-0.007240385417016616
1589996032.9723992,-3.9,-0.9513286713286713,8.956643356643356,0.3068764568764568,-0.3437062937062937,-0.6077078477078477,-0.002036726006479397,-0.00938267036692756,-0.0018917904479658818
1589996032.9823992,-3.8996456165247557,-0.96,9.000708766950488,0.33,-0.3388888888888889,-0.6,-0.001245459743938322,-0.006544984694978735,3.865724036046649e-05
1589996032.9923992,-3.895937478763167,-0.96,9.0021875637105,0.33,-0.3388888888888889,-0.6,-0.005130314682218211,-0.0052496277739224615,0.0007669915522323875
1589996033.0023992,-3.91,-0.96,8.96102231847882,0.33,-0.3388888888888889,-0.6,-0.004318716071337375,-0.0022039650943171366,2.2303529324224578e-05
1589996033.0123992,-3.9194617388068957,-0.96,9.013153912935632,0.33,-0.3388888888888889,-0.6,-0.002181661564992912,-0.004992685005239887,0.000746792250946352
1589996033.0223992,-3.937174289008455,-0.96565142198309,9.02,0.3240346101289606,-0.3388888888888889,-0.6025117431035956,0.0018254227266276683,-0.012733730551592229,0.0012329490128063325
1589996033.0323992,-3.901288304928218,-0.9717966585509193,8.970779951305516,0.3088888888888889,-0.3388888888888889,-0.6088888888888889,0.011999138607461015,-0.022907446432425576,0.004363323129985824
1589996033.0423992,-3.8564931083409344,-0.9564931083409344,8.864931083409346,0.3088888888888889,-0.3388888888888889,-0.6088888888888889,0.012381681144719894,-0.023289988969684455,0.0039807805927269445
1589996033.0523992,-3.8590017654847726,-0.95,8.81500294247462,0.3088888888888889,-0.3388888888888889,-0.6088888888888889,0.010471461953263022,-0.0171246951935991,0.003272492347489368
1589996033.0623991,-3.88,-0.9463953677272622,8.85991273875003,0.3088888888888889,-0.3388888888888889,-0.6088888888888889,0.004166720937851695,-0.0009925296864293917,0.003174191251422304
1589996033.0723991,-3.8808886940710434,-0.9126660822131307,8.963554776284175,0.30839516996053135,-0.3388888888888889,-0.6095800953885895,0.0015030711707514155,-9.694148489164232e-05,0.0020847200801012698
1589996033.0823991,-3.894389495818248,-0.9356105041817521,9.0,0.3033333333333333,-0.3388888888888889,-0.6166666666666667,-0.005214744054573064,-0.0013302406404056717,0.0006120110666780246
1589996033.0923991,-3.9076518948317025,-0.9223481051682978,9.0,0.3033333333333333,-0.3388888888888889,-0.6166666666666667,-0.004491392399891733,-0.0020535922950870025,-0.0008346922426846371
1589996033.102399,-3.88,-0.9530219031016448,8.930576660855758,0.3033333333333333,-0.3388888888888889,-0.6166666666666667,-0.003437311593739156,-0.002016842318743124,0.0018520230724933357
1589996033.112399,-3.88,-0.9675007335554137,8.981252567443947,0.3033333333333333,-0.3388888888888889,-0.6166666666666667,-0.00422700929141506,-0.0012271446210672197,0.0002726276771415274
1589996033.122399,-3.888774491196309,-0.96,8.97877449119631,0.3048311774267332,-0.337391044795489,-0.615713493152685,-0.002470398711117547,0.0008234662370391822,0.00013368227272863683
1589996033.132399,-3.882918384373773,-0.96,8.97,0.31555555555555553,-0.32666666666666666,-0.6088888888888889,0.0029541459964825376,-0.0007724844314896256,0.002045869835516947
1589996033.142399,-3.886973538119911,-0.9630264618800888,8.936708919319024,0.31555555555555553,-0.32666666666666666,-0.6088888888888889,0.002181661564992912,-0.0003301357780852986,0.003372915795729928
1589996033.152399,-3.88,-0.9728296228768832,8.8769777372613,0.31555555555555553,-0.32666666666666666,-0.6088888888888889,0.0031076534860810293,0.000761153059679779,0.0013994947561924952
1589996033.162399,-3.88,-0.9758313736339742,8.932505879098077,0.31555555555555553,-0.32666666666666666,-0.6088888888888889,0.0045447007203248384,0.0052267906144429195,0.0017269349689141916
1589996033.172399,-3.88,-0.9613262553603541,8.976021233918939,0.31555555555555553,-0.32666666666666666,-0.6088888888888889,0.001380174817001499,0.004435659138612085,0.00014467201725252166
1589996033.182399,-3.896800019756013,-0.9363999604879736,9.00040005926804,0.3233333333333333,-0.32666666666666666,-0.6,-0.0010471910860563845,0.001090830782496456,0.002181661564992912
1589996033.192399,-3.8933345677583615,-0.9433308644832774,8.946654322416387,0.3233333333333333,-0.32666666666666666,-0.6,-0.003272492347489368,0.0018183206139245982,0.002545406480706983
1589996033.202399,-3.9,-0.9325288086031435,8.887586425809431,0.3233333333333333,-0.32666666666666666,-0.6,-0.003824192800959517,0.003272492347489368,0.0029966421207542936
1589996033.212399,-3.9018549622878065,-0.9424732830504089,8.913709924575613,0.3233333333333333,-0.32666666666666666,-0.6,-0.0053192572482216385,0.003205044015359047,0.002114213232862591
1589996033.222399,-3.926896057632988,-0.975861410177317,8.963792115265976,0.3233333333333333,-0.32666666666666666,-0.6,-0.0034982174062248286,0.002294524094360642,0.0012036933118641862
1589996033.232399,-3.8812830210468574,-0.9674339579062852,8.952566042093714,0.3088888888888889,-0.3388888888888889,-0.6088888888888889,-0.0008109190119958785,0.0012307866677467446,0.0020417056797426233
1589996033.242399,-3.89,-0.95,8.95659257399758,0.3088888888888889,-0.3388888888888889,-0.6088888888888889,0.0019683447623453816,0.0030591755448418374,0.0007983261225468141
1589996033.252399,-3.892537064158894,-0.95,8.937759449112258,0.3088888888888889,-0.3388888888888889,-0.6088888888888889,0.004086572361816806,0.004347150839806208,0.00027675076816901785
1589996033.262399,-3.902406882137792,-0.9427793535866238,8.994813764275584,0.3088888888888889,-0.3388888888888889,-0.6088888888888889,0.003272492347489368,0.0003031804447731248,0.0016159310076453435
1589996033.272399,-3.9095111197815062,-0.920244440109247,9.010733320327741,0.3094049291195214,-0.339187649022413,-0.6088888888888889,0.0032191637883606885,-0.002181661564992912,0.0031924995087963485
1589996033.282399,-3.8931463129145536,-0.9284268435427234,9.03528053062817,0.3266788919235271,-0.3491883643299952,-0.6088888888888889,0.0014340402803525393,-0.002181661564992912,0.0005148142467841254
1589996033.292399,-3.8751415199465122,-0.9517138399821706,8.903144640071318,0.33,-0.3511111111111111,-0.6088888888888889,-0.0009038798416139566,0.00037390188176499874,0.0005299779598489579
1589996033.302399,-3.896713068522741,-0.958904356174247,8.874382575303011,0.33,-0.3511111111111111,-0.6088888888888889,-0.00011951620117835876,0.0019426291626361944,-0.0018231129614578354
1589996033.312399,-3.898382409918636,-0.9751472297559085,8.90294072065091,0.33,-0.3511111111111111,-0.6088888888888889,0.0014437341933389747,0.002181661564992912,0.00017645170542125935
1589996033.322399,-3.891611294072065,-0.9548338822161953,8.95710964742348,0.33,-0.3511111111111111,-0.6088888888888889,0.0029209625127968354,0.002181661564992912,0.0009150658651501896
1589996033.332399,-3.911646196056309,-0.9367076078873817,9.015061411831072,0.3233333333333333,-0.3388888888888889,-0.6311111111111111,-0.00037254224959794595,-0.000359144266449255,-0.003285890330638059
1589996033.342399,-3.92,-0.9222862444455296,8.973996288881294,0.3233333333333333,-0.3388888888888889,-0.6311111111111111,0.0030231017657398485,-0.002181661564992912,0.0016828804014938732
1589996033.3523989,-3.912733974584006,-0.9372660254159938,8.929688033887992,0.3233333333333333,-0.3388888888888889,-0.6311111111111111,0.002445861704665168,-0.002445861704665168,-0.0007926004190167678
1589996033.3623989,-3.89,-0.96,8.96542120181406,0.3233333333333333,-0.3388888888888889,-0.6311111111111111,0.002484010505235883,-0.0028782514263626254,-0.0026811309657992543
1589996033.3723989,-3.89,-0.96,8.989198412698412,0.3233333333333333,-0.3388888888888889,-0.6311111111111111,-0.0009742446353724959,-0.0011491238560584357,-8.74396103429701e-05
1589996033.3823988,-3.89,-0.9742915009940357,8.981902833001989,0.3233333333333333,-0.3333333333333333,-0.6088888888888889,-0.0008832639012445831,0.0030649254662374953,-0.00020756688125187284
1589996033.3923988,-3.8842346781644594,-0.9423129042192793,8.957329842931937,0.3233333333333333,-0.3333333333333333,-0.6088888888888889,-0.0006288990529206547,0.0030201936355537845,-0.0004619317295758013
1589996033.4023988,-3.86,-0.9107468092445671,8.824480855467403,0.3233333333333333,-0.3333333333333333,-0.6088888888888889,-0.003353956598752039,0.007604019961393456,0.0022631258162555826
1589996033.4123988,-3.8675772054539097,-0.9275772054539099,8.897048712271298,0.3233333333333333,-0.3333333333333333,-0.6088888888888889,-0.005809776697010171,0.02444523689692384,0.002652583675907505
1589996033.4223988,-3.9000789444005863,-0.9600394722002932,8.970276305402054,0.3233026327331052,-0.3333552623334962,-0.6089108178890518,-0.011990527109234473,0.040334904457689245,8.611498226542452e-06
1589996033.4323988,-3.9158463967520016,-0.9679231983760008,9.025462388632006,0.3171708457075548,-0.3377351102088894,-0.613290665764445,-0.010270564870587473,0.03517501774174824,0.0017285737368735428
1589996033.4423988,-3.926717902350814,-0.9589059674502712,8.989059674502712,0.31555555555555553,-0.3388888888888889,-0.6144444444444445,-0.006664325133208456,0.024253724929810438,-0.0031531519092596475
1589996033.4523988,-3.9052519703845237,-0.9517506567948412,8.917506567948411,0.31555555555555553,-0.3388888888888889,-0.6144444444444445,-0.007444848445335259,0.01879006174492283,-0.0023726285971328457
1589996033.4623988,-3.900989255496677,-0.9570322335099687,8.904946277483386,0.31555555555555553,-0.3388888888888889,-0.6144444444444445,-0.012107049642213936,0.03184991476190307,0.00010791103475292107
1589996033.4723988,-3.9071289925930266,-0.938613022220921,8.935644962965132,0.31555555555555553,-0.3388888888888889,-0.6144444444444445,-0.01277679106432725,0.03318939760612969,0.000777652456866234
1589996033.4823987,-3.9400943396226418,-0.9450471698113208,8.980094339622642,0.3063600628930817,-0.3430686582809224,-0.6211320754716981,-0.01555205679290348,0.03381575425739013,0.0002701349815144526
1589996033.4923987,-3.942703438093229,-0.9572965619067707,8.97540687618646,0.3033333333333333,-0.34444444444444444,-0.6233333333333333,-0.016362461737446838,0.02983609709024186,-0.0015918628668593082
1589996033.5023987,-3.9207575918172664,-0.96,8.837575918172664,0.3033333333333333,-0.34444444444444444,-0.6233333333333333,-0.019717594532420373,0.023915636767437867,0.00033056178993665455
1589996033.5123987,-3.93,-0.96,8.936656866071091,0.3033333333333333,-0.34444444444444444,-0.6233333333333333,-0.020435324290420526,0.02261698585541344,0.004363323129985824
1589996033.5223987,-3.93,-0.96,8.976182479550681,0.3033333333333333,-0.34444444444444444,-0.6233333333333333,-0.01871069405519685,0.020892355620189762,0.004363323129985824
1589996033.5323987,-3.93,-0.96,9.008990105069877,0.3087018713092364,-0.33370736849263827,-0.6233333333333333,-0.019598233269040685,0.022834004800634525,0.004363323129985824
1589996033.5423987,-3.9070713830465267,-0.9529286169534735,8.927071383046526,0.3088888888888889,-0.3333333333333333,-0.6233333333333333,-0.018863585854738744,0.025089107997418484,0.0018621990126939181
1589996033.5523987,-3.891028227672374,-0.97,8.91514113836187,0.3088888888888889,-0.3333333333333333,-0.6233333333333333,-0.020837947107076673,0.024528296799198417,0.0
1589996033.5623987,-3.8987126016260163,-0.9687126016260162,8.961287398373985,0.3088888888888889,-0.3333333333333333,-0.6233333333333333,-0.021114448762090444,0.019283870641016873,0.00035108344391933697
1589996033.5723987,-3.881662601626016,-0.9516626016260162,8.978337398373984,0.3088888888888889,-0.3333333333333333,-0.6233333333333333,-0.011815116341308158,0.014634204430625724,0.0050007496543104804
1589996033.5823987,-3.941718153418952,-0.8885352308226311,8.995605692467894,0.3088888888888889,-0.3333333333333333,-0.6088888888888889,-0.004363323129985824,-0.0008265475870148429,0.02083634459963987
1589996033.5923986,-4.0042158400313665,-0.8750421485983141,8.95925798862968,0.3088888888888889,-0.3333333333333333,-0.6088888888888889,-0.004633731976185935,-0.01208927488952772,0.050511174930015765
1589996033.6023986,-3.956251225249951,-0.8339296216428151,8.870180846892767,0.3088888888888889,-0.3333333333333333,-0.6088888888888889,-0.006876072473649611,-0.012836721722015611,0.08040904822953143
1589996033.6123986,-3.7532019464720197,-0.9783990267639903,9.145197080291972,0.3088888888888889,-0.3333333333333333,-0.6088888888888889,-0.026397574118515208,0.006762620033579003,0.13316867500895724
1589996033.6223986,-3.804227493917275,-0.9528862530413624,9.068658759124087,0.3088888888888889,-0.3333333333333333,-0.6088888888888889,-0.012482514656760693,-0.007152439428175512,0.1345601809551327
1589996033.6323986,-3.879983144714664,-0.925719101510096,8.937174159815624,0.31920287113159734,-0.32857303383669867,-0.6088888888888889,0.01246059631318636,-0.03209555039812257,0.12747399519231328
1589996033.6423986,-3.864181488976462,-0.9486548088188306,8.914327404409415,0.3233333333333333,-0.32666666666666666,-0.6088888888888889,0.013383444579709955,-0.030674082600186316,0.1141960062586033
1589996033.6523986,-3.6788023630504836,-0.9091445450360596,8.901197636949517,0.3233333333333333,-0.32666666666666666,-0.6088888888888889,0.004307333733523485,-0.01403149511522102,0.08796536760697655
1589996033.6623986,-3.6224879162191193,-0.8689199401565137,8.957512083780882,0.3233333333333333,-0.32666666666666666,-0.6088888888888889,0.0016746395005415421,-0.0070109771606025086,0.06953650797610296
1589996033.6723986,-3.52506360587487,-0.7184393431247831,9.0360616398751,0.3233333333333333,-0.32666666666666666,-0.6088888888888889,0.0021202889298958232,-0.0033952376176835455,0.05721418177059241
1589996033.6823986,-3.504306593686854,-0.8433939536617425,9.087080218939438,0.3285644687710487,-0.34061636116724103,-0.6019140416386017,0.0038935466338533183,-0.004984377416349774,0.07213016630955936
1589996033.6923985,-3.36,-0.74,8.85,0.33,-0.34444444444444444,-0.6,0.02836160034490785,-0.017453292519943295,0.008726646259971648
1589996033.7023985,-3.3133795571460523,-0.7458275553567435,8.834848356072467,0.33,-0.34444444444444444,-0.6,0.022767548787450517,-0.008680802577567022,-0.017336548496363666
1589996033.7123985,-2.934983110528794,-0.7889993244211518,8.729006080209635,0.33,-0.34444444444444444,-0.6,-0.02099941374081136,0.06021548046665243,-0.22231632467976267
1589996033.7223985,-2.5056527524720043,-0.7718261100988802,8.883565009110079,0.33,-0.34444444444444444,-0.6,-0.04441575226223993,0.1014282362643667,-0.34970120623633405
1589996033.7323985,-2.0299823587402064,-1.1699911793701032,9.14994707622062,0.3033333333333333,-0.34444444444444444,-0.6088888888888889,-0.06103167947651097,0.10035162108236774,-0.5400738125667105
1589996033.7423985,-2.012829457364341,-1.1481162790697674,9.075286821705426,0.3033333333333333,-0.34444444444444444,-0.6088888888888889,0.0033748105836770206,0.09484054889337597,-0.6730206070636119
1589996033.7523985,-2.0474187695860135,-1.0028411677387432,8.89542239815273,0.3033333333333333,-0.34444444444444444,-0.6088888888888889,0.03129581460609509,0.09408592716304036,-0.7394273193331468
1589996033.7623985,-2.111110330918055,-1.208056920893404,9.191394935385075,0.3033333333333333,-0.34444444444444444,-0.6088888888888889,0.02054334144306503,0.09426640692650148,-0.8596344498116739
1589996033.7723985,-2.136175244640323,-1.1641933218794351,8.9971418540375,0.3033333333333333,-0.34444444444444444,-0.6088888888888889,0.04104952602971573,0.07991207771584598,-0.8856089502880982
1589996033.7823985,-2.192291174817313,-1.1259029417275623,8.918194116544875,0.317430391605771,-0.34052859492432286,-0.604189869464743,0.046977750772652406,0.08506571098505422,-0.9030108965808205
1589996033.7923985,-2.287927544105453,-1.1297409430131815,8.920259056986819,0.3233333333333333,-0.3388888888888889,-0.6022222222222222,0.029848053397303523,0.06397465372390018,-0.9149244391788842
1589996033.8023984,-2.369869599065784,-1.1832463993771896,8.928874399896198,0.3233333333333333,-0.3388888888888889,-0.6022222222222222,0.02267610311933482,0.06423623224309008,-0.9190792139477092
1589996033.8123984,-2.4197819848761033,-1.19,8.890218015123896,0.3233333333333333,-0.3388888888888889,-0.6022222222222222,0.031942212177983535,0.06942181443131809,-0.9188470927496515
1589996033.8223984,-2.4686204458109144,-1.19,8.848534665641814,0.3233333333333333,-0.3388888888888889,-0.6022222222222222,0.0370882466048795,0.07511683797469783,-0.919260020444499
1589996033.8323984,-2.5053789569706733,-1.2217236962133415,8.87806843545601,0.3353178407917068,-0.31844472910695765,-0.615616671734522,0.03570403923031633,0.072897636338344,-0.9223387643936387
1589996033.8423984,-2.5532064085063584,-1.2483016021265896,8.924904806379768,0.3422222222222222,-0.30666666666666664,-0.6233333333333333,0.03037876346802563,0.06818730791915308,-0.9257448014032427
1589996033.8523984,-2.5817292720903073,-1.25,8.879298365122615,0.3422222222222222,-0.30666666666666664,-0.6233333333333333,0.032612825644384114,0.06842160714402522,-0.9292757288564708
1589996033.8623984,-2.609596472663139,-1.308789417989418,8.918789417989418,0.3422222222222222,-0.30666666666666664,-0.6233333333333333,0.03488457603785527,0.06872233929727672,-0.9304786574694768
1589996033.8723984,-2.6339074238163116,-1.3339074238163118,8.95984570636052,0.3422222222222222,-0.30666666666666664,-0.6233333333333333,0.03142939119601705,0.06785304083630934,-0.9365637466962484
1589996033.8823984,-2.649512269009391,-1.34,8.97,0.3496206536739708,-0.3119512605607728,-0.5810565821804841,0.03261851707926695,0.06659388093009717,-0.9412273557010014
1589996033.8923984,-2.6126814091739723,-1.3866482385325345,8.979329647706507,0.35,-0.31222222222222223,-0.5788888888888889,0.030689510093272643,0.07162921118633639,-0.9485109121301151
1589996033.9023983,-2.571835331682523,-1.4090823341587384,8.897309885312133,0.35,-0.31222222222222223,-0.5788888888888889,0.031930968410049804,0.07130097839469157,-0.9545736067725128
1589996033.9123983,-2.579152013085988,-1.4418640098144913,8.842711996728502,0.35,-0.31222222222222223,-0.5788888888888889,0.031134927812596903,0.06851900736882448,-0.9656994053433722
1589996033.9223983,-2.604297563290486,-1.457148781645243,8.832851218354756,0.35,-0.31222222222222223,-0.5788888888888889,0.03132307301749846,0.06997094183757334,-0.975676034825232
1589996033.9323983,-2.6411011583865527,-1.4911011583865528,8.899977606369744,0.36382273706069007,-0.30790261689075654,-0.5918477048832859,0.030785940168913485,0.06920769581530216,-0.9895011947046095
1589996033.9423983,-2.719524144397562,-1.5198640412564464,8.880271917487109,0.36777777777777776,-0.30666666666666664,-0.5955555555555555,0.02945984652653521,0.07413941621410454,-1.0067404120555272
1589996033.9523983,-2.7566020814686114,-1.5419612488811667,8.84339791853139,0.36777777777777776,-0.30666666666666664,-0.5955555555555555,0.034243632387732814,0.0749750267531471,-1.0220089495686024
1589996033.9623983,-2.7432511732381375,-1.539300469295255,8.83,0.36777777777777776,-0.30666666666666664,-0.5955555555555555,0.034830278077282846,0.07526732399225547,-1.0374832679450132
1589996033.9723983,-2.756649514752817,-1.5849742721292257,8.91551553442324,0.36777777777777776,-0.30666666666666664,-0.5955555555555555,0.03248314029552578,0.07526732399225547,-1.0594328600327447
1589996033.9823983,-2.785997760313556,-1.62,8.97,0.383771805280594,-0.28267562541244223,-0.6168809255593105,0.03294260100760974,0.07592157814986172,-1.0796999109009433
1589996033.9923983,-2.7720863456275784,-1.6468704815586324,8.916259036882735,0.3944444444444444,-0.26666666666666666,-0.6311111111111111,0.03870094566150009,0.08222038445968385,-1.1090531323270505
1589996034.0023983,-2.7499339435208614,-1.6633773709860924,8.843113145069537,0.3944444444444444,-0.26666666666666666,-0.6311111111111111,0.03926990816987242,0.0814438946636802,-1.1261490154243932
1589996034.0123982,-2.747239677419355,-1.7279174193548388,8.831719032258064,0.3944444444444444,-0.26666666666666666,-0.6311111111111111,0.037690455572997064,0.07993175160630006,-1.1515368878778842
1589996034.0223982,-2.735424461373906,-1.7937266158782825,8.876438846565236,0.3944444444444444,-0.26666666666666666,-0.6311111111111111,0.03788321891511998,0.08122059174272225,-1.1759516818365268
1589996034.0323982,-2.73,-1.800313074297716,8.860939222893148,0.4267341967853913,-0.26666666666666666,-0.6149662349406377,0.04029243673613747,0.08498234771037647,-1.2046508413881543
1589996034.0423982,-2.7231894990446124,-1.847673506687713,8.853189499044612,0.42777777777777776,-0.26666666666666666,-0.6144444444444445,0.039617828543733045,0.08657062185199522,-1.221712043648572
1589996034.0523982,-2.7029431613677266,-1.9126420965806838,8.807357903419316,0.42777777777777776,-0.26666666666666666,-0.6144444444444445,0.04578205179112797,0.09098768752614822,-1.2526239476637042
1589996034.0623982,-2.7,-1.928706744532234,8.84353372266117,0.42777777777777776,-0.26666666666666666,-0.6144444444444445,0.042156931171800804,0.08783075174926486,-1.277531748328323
1589996034.0723982,-2.7073391972500254,-1.988713578000202,8.886695986250126,0.42777777777777776,-0.26666666666666666,-0.6144444444444445,0.04225215196277941,0.09126937373928694,-1.2982481476649492
1589996034.0823982,-2.6689468579741567,-2.0182106284051686,8.883578743189663,0.45605883117335894,-0.23382415304599174,-0.6336025773898382,0.045229322379761135,0.09630317899539789,-1.3279202720065557
1589996034.0923982,-2.651253494188613,-2.0374930116227747,8.923732529056936,0.4622222222222222,-0.22666666666666666,-0.6377777777777778,0.044860797087016596,0.09326755653084638,-1.3520771317673603
1589996034.1023982,-2.6420870125684823,-2.0479129874315176,8.842957138253304,0.4622222222222222,-0.22666666666666666,-0.6377777777777778,0.04472406208235469,0.09789965467528311,-1.3746648114857551
1589996034.1123981,-2.5917304128053917,-2.0922358887952823,8.78983150800337,0.4622222222222222,-0.22666666666666666,-0.6377777777777778,0.04669858526624002,0.1025564731803197,-1.3963552997237276
1589996034.1223981,-2.565800961377229,-2.1374028841316863,8.81640769101783,0.4622222222222222,-0.22666666666666666,-0.6377777777777778,0.04736376770600864,0.10155582150048267,-1.4242569509639842
1589996034.1323981,-2.53788530751029,-2.166057346244855,8.855352448748285,0.4830373006877749,-0.21239347000457337,-0.6342094786122544,0.04515413889043844,0.09984946279281387,-1.455891572873833
1589996034.142398,-2.489365138158382,-2.173121712719461,8.86,0.5011111111111111,-0.2,-0.6311111111111111,0.0481350597977379,0.10710917473649342,-1.4973816131085538
1589996034.152398,-2.5520728842718188,-2.2420728842718187,8.804559319790908,0.5011111111111111,-0.2,-0.6311111111111111,0.05138774400632935,0.11138343704363443,-1.5267618923649842
1589996034.162398,-2.589184352892218,-2.310407823553891,8.812039117769455,0.5011111111111111,-0.2,-0.6311111111111111,0.05292753627539867,0.11292322931270375,-1.5617796094279688
1589996034.172398,-2.57,-2.331701804408,8.848298195592,0.5011111111111111,-0.2,-0.6311111111111111,0.05664188045707616,0.11472287022553133,-1.6016755397947133
1589996034.182398,-2.546791577319225,-2.4096252680423245,8.863208422680774,0.5062685383735055,-0.17593200610882617,-0.6758088140518625,0.058060980192362686,0.12069135531929995,-1.6469909739078012
1589996034.192398,-2.4943026922664377,-2.43,8.862383782044406,0.5077777777777778,-0.1688888888888889,-0.6888888888888889,0.05282922847701387,0.11718824464430477,-1.6832975443037608
1589996034.202398,-2.44218168882783,-2.4602546489377364,8.784363377655659,0.5077777777777778,-0.1688888888888889,-0.6888888888888889,0.052094114336706084,0.11727819806336966,-1.7166305704331828
1589996034.212398,-2.43,-2.476520286785074,8.773040573570148,0.5077777777777778,-0.1688888888888889,-0.6888888888888889,0.05235987755982988,0.1185209774632036,-1.7459410557344879
1589996034.222398,-2.4060250753465944,-2.5219561181434598,8.797981193490054,0.5077777777777778,-0.1688888888888889,-0.6888888888888889,0.053013692205329074,0.1247848871016065,-1.7749813860302688
1589996034.232398,-2.376338161124147,-2.563661838875853,8.844154597189632,0.5259935629455817,-0.13245731855328102,-0.6926838441321813,0.05717639694014814,0.1287180323345818,-1.8031738515596107
1589996034.242398,-2.343567468191899,-2.6052433757441342,8.78951324851173,0.5344444444444445,-0.11555555555555555,-0.6944444444444444,0.06178820419036793,0.13448471620570043,-1.8367291763641507
1589996034.252398,-2.34,-2.6543592346739553,8.757820382663022,0.5344444444444445,-0.11555555555555555,-0.6944444444444444,0.05975793366878125,0.1320371224515382,-1.8636192657621828
1589996034.262398,-2.2909854567273347,-2.719014543272665,8.80718363381811,0.5344444444444445,-0.11555555555555555,-0.6944444444444444,0.05355820499562587,0.13179080344277183,-1.8887967040846636
1589996034.272398,-2.2587880295282248,-2.74414131364785,8.82,0.5344444444444445,-0.11555555555555555,-0.6944444444444444,0.05698761162943351,0.13893212578647662,-1.9064746098401621
1589996034.282398,-2.226196680599521,-2.773803319400479,8.810478672239809,0.5471395481247,-0.09862875064854812,-0.7023788842446042,0.06046278586646689,0.14232730959509202,-1.9215739033862371
1589996034.292398,-2.1902908295528194,-2.833982096565133,8.78543624432923,0.5611111111111111,-0.08,-0.7111111111111111,0.05900003600341107,0.14131017320759226,-1.940334165398255
1589996034.302398,-2.1440202785844367,-2.8843918885662254,8.734020278584437,0.5611111111111111,-0.08,-0.7111111111111111,0.057987237167263866,0.14198120741949097,-1.9626588561275193
1589996034.312398,-2.123954763129774,-2.92022618435113,8.726045236870226,0.5611111111111111,-0.08,-0.7111111111111111,0.05824542920825612,0.14487713164669325,-1.9744530620891314
1589996034.322398,-2.105747111514994,-2.9506896663637545,8.75494255484876,0.5611111111111111,-0.08,-0.7111111111111111,0.056259282522418796,0.14656001209199845,-1.9826539118233044
1589996034.332398,-2.0752053063802904,-2.9747946936197094,8.8,0.5597259773987506,-0.07232849020846494,-0.7131355373060996,0.05365991631804706,0.1477851755763234,-1.9901983672128378
1589996034.342398,-2.0123479966377134,-3.0288260016811432,8.777934995797143,0.5466666666666666,0.0,-0.7322222222222222,0.05852067220336618,0.15512322812954296,-1.9965736523340414
1589996034.352398,-1.99,-3.067959860383944,8.733224083769635,0.5466666666666666,0.0,-0.7322222222222222,0.05668744885369828,0.15573050535149738,-2.001451941171618
1589996034.362398,-1.9530726317304923,-3.105826014972646,8.73055067664843,0.5466666666666666,0.0,-0.7322222222222222,0.05466167813268484,0.1538071403320003,-2.002705247159562
1589996034.372398,-1.9343527582105937,-3.1582740218949166,8.768705516421187,0.5466666666666666,0.0,-0.7322222222222222,0.05828884373680014,0.15485090236332325,-1.9974994377557047
1589996034.382398,-1.9235225770690316,-3.2,8.794704515413807,0.5649066691302226,0.014121292229849772,-0.7510506118620219,0.05768510199936285,0.15772174517544985,-1.9871713620261695
1589996034.3923979,-1.879843829226245,-3.2335936179562585,8.796718723591251,0.5811111111111111,0.02666666666666667,-0.7677777777777778,0.053433672753592495,0.15779549614199806,-1.9710460460274268
1589996034.4023979,-1.8153984078205532,-3.3046015921794467,8.698597043095313,0.5811111111111111,0.02666666666666667,-0.7677777777777778,0.04640376780756404,0.15707963267948966,-1.951212232088825
1589996034.4123979,-1.8,-3.343289930760687,8.677763310253562,0.5811111111111111,0.02666666666666667,-0.7677777777777778,0.04557090786222032,0.1587733242392209,-1.9310428769387271
1589996034.4223979,-1.7885608622147084,-3.384317413355875,8.714317413355875,0.5811111111111111,0.02666666666666667,-0.7677777777777778,0.04207144377842682,0.1580134778823411,-1.9126811819051852
1589996034.4323978,-1.7441844691739095,-3.417163106165218,8.718510681504346,0.5858865152212565,0.0250748652966182,-0.7622064729826081,0.037707160829210405,0.15629825900915864,-1.8789676745638888
1589996034.4423978,-1.7156805800188424,-3.448638839962315,8.695680580018843,0.5877777777777777,0.024444444444444446,-0.76,0.03552624019458535,0.15833181151243442,-1.8478158714548072
1589996034.4523978,-1.6834433750325157,-3.4666391562418712,8.636886750065031,0.5877777777777777,0.024444444444444446,-0.76,0.02838860864129383,0.15708863544495164,-1.816689891693872
1589996034.4623978,-1.6592390376406674,-3.486141443538999,8.663804811796663,0.5877777777777777,0.024444444444444446,-0.76,0.022741430199249357,0.15598880189699318,-1.7853696837471973
1589996034.4723978,-1.6254796835913732,-3.5122601582043136,8.706934960448923,0.5877777777777777,0.024444444444444446,-0.76,0.02072578486743266,0.15498577004942757,-1.7558659723067793
1589996034.4823978,-1.57,-3.540328192961645,8.701640964808224,0.5887623566627125,0.02484556917534379,-0.7611669083080709,0.02065418427040047,0.1525015077584073,-1.7264797478322587
1589996034.4923978,-1.5635638923962591,-3.566090269009352,8.75321805380187,0.6177777777777778,0.03666666666666667,-0.7955555555555556,0.01749101765839674,0.14160786706367207,-1.6719942207991465
1589996034.5023978,-1.541697975708502,-3.6,8.72264089068826,0.6177777777777778,0.03666666666666667,-0.7955555555555556,0.016177241320370316,0.1279152780376815,-1.6257697819137604
1589996034.5123978,-1.5044939008364127,-3.612753049581794,8.67,0.6177777777777778,0.03666666666666667,-0.7955555555555556,0.019771862362363987,0.11985447779718238,-1.577063059498094
1589996034.5223978,-1.4633044854881265,-3.6383693931398415,8.681717150395778,0.6177777777777778,0.03666666666666667,-0.7955555555555556,0.023455221932490816,0.11562334272699029,-1.5371254026297894
1589996034.5323977,-1.4404631591000172,-3.68,8.736512280299994,0.59607641075552,0.016127872877744063,-0.7858674452777619,0.02732129238276061,0.1071302994245536,-1.4746547095708196
1589996034.5423977,-1.4366574606255131,-3.682917817421811,8.72708218257819,0.5555555555555556,-0.022222222222222227,-0.7677777777777778,0.029452431127404314,0.10208383178445354,-1.4221190305293918
1589996034.5523977,-1.3683631849618727,-3.695818407519064,8.673452739847491,0.5555555555555556,-0.022222222222222227,-0.7677777777777778,0.025644292311262223,0.09855140591564053,-1.3487216340373431
1589996034.5623977,-1.34687732150227,-3.706561339248865,8.66624535699546,0.5555555555555556,-0.022222222222222227,-0.7677777777777778,0.024338908597838407,0.09347081591177883,-1.2795181431231097
1589996034.5723977,-1.3351901287697947,-3.734049356151027,8.704049356151026,0.5555555555555556,-0.022222222222222227,-0.7677777777777778,0.027712485796294574,0.09167126539264832,-1.225156527849404
1589996034.5823977,-1.3340915979743466,-3.79682438176912,8.75454958784608,0.5373706756695704,0.007782829589653234,-0.7232248220571142,0.02965061370589727,0.08562938982518661,-1.1626224719580178
1589996034.5923977,-1.3168522894466985,-3.8384261447233494,8.755278434170048,0.5111111111111111,0.05111111111111112,-0.6588888888888889,0.02836160034490785,0.07664604869855537,-1.0828674357021713
1589996034.6023977,-1.3,-3.8361735472982024,8.643570337825167,0.5111111111111111,0.05111111111111112,-0.6588888888888889,0.029708459430923248,0.07190017627721698,-1.0110604463785724
1589996034.6123977,-1.2457181405617563,-3.84,8.657852324297805,0.5111111111111111,0.05111111111111112,-0.6588888888888889,0.02758264574958167,0.06315178371905522,-0.9365595072466978
1589996034.6223977,-1.1895280965362751,-3.7546786703015704,9.549307677677042,0.5111111111111111,0.05111111111111112,-0.6588888888888889,0.02551514497392511,0.05933089923131525,-0.871569392148681
1589996034.6323977,-1.0827020993263354,-3.575945088516372,8.795126116246278,0.5131531672672202,0.09195223423329331,-0.642552439640016,0.08974339016572118,0.026828319163557685,-0.8132288745326075
1589996034.6423976,-0.9885108108642757,-3.4129783782714487,7.305390991276137,0.5155555555555555,0.14,-0.6233333333333333,0.15373726812227698,0.010754019282802193,-0.7525334955031079
1589996034.6523976,-1.0209295763907424,-3.407160559728524,7.747887291722271,0.5155555555555555,0.14,-0.6233333333333333,0.04481502356942221,0.07808750441845573,-0.6822873077767517
1589996034.6623976,-1.0748192417307194,-3.5770481043267988,8.738464288798687,0.5155555555555555,0.14,-0.6233333333333333,-0.1515599667429856,0.07153496625210022,-0.6308583699006258
1589996034.6723976,-1.0886748526927357,-3.642265029461453,8.371109234002224,0.5155555555555555,0.14,-0.6233333333333333,0.015486839566207255,-0.0010437258065989618,-0.579943743108556
1589996034.6823976,-1.1231315490468374,-3.788949943188991,8.740426082565332,0.509867546185246,0.18794179326403793,-0.6078944507567787,0.004041279475792164,0.028932286213190304,-0.4844764277343783
1589996034.6923976,-1.163119579294376,-3.8268804207056237,8.654809465876536,0.5077777777777778,0.20555555555555555,-0.6022222222222222,0.010959336838454445,0.021441346914818096,-0.43515547777975944
1589996034.7023976,-1.1865091638675354,-3.8530183277350707,8.610061092450236,0.5077777777777778,0.20555555555555555,-0.6022222222222222,0.028522892508896995,0.026618936753925328,-0.3808994496206798
1589996034.7123976,-1.1601359311282282,-3.8733559885213715,8.686711977042743,0.5077777777777778,0.20555555555555555,-0.6022222222222222,0.0026218820529600624,0.012424531309531073,-0.3164669631040975
1589996034.7223976,-1.1808500047317119,-3.945864294501751,8.79087858427179,0.5077777777777778,0.20555555555555555,-0.6022222222222222,0.014190152805073799,0.007091958858330276,-0.25832898300950974
1589996034.7323976,-1.21,-4.0,8.787657503539405,0.5175804559278486,0.2258144237323685,-0.6146389478789785,0.02156108892521856,0.004043222980886684,-0.196802938306504
1589996034.7423975,-1.21,-4.0356994003317315,8.747849700165865,0.5244444444444445,0.24,-0.6233333333333333,0.022410998501345127,-0.0006490334133086131,-0.1332020227918025
1589996034.7523975,-1.2039311935116224,-4.0417935805348675,8.668967902674336,0.5244444444444445,0.24,-0.6233333333333333,0.022636740911035815,-0.005062855340818386,-0.06609034031893693
1589996034.7623975,-1.2,-4.010938620544189,8.622707586303875,0.5244444444444445,0.24,-0.6233333333333333,0.018248771453786596,-0.008328906793049998,0.003304013928843934
1589996034.7723975,-1.2092297198027075,-4.032304019309477,8.685378318816246,0.5244444444444445,0.24,-0.6233333333333333,0.014936276901290674,-0.012250468126085316,0.05655217527381721
1589996034.7823975,-1.2224224128569876,-4.072422412856988,8.745155174286024,0.5244444444444445,0.24296072682520722,-0.6233333333333333,0.010149428848838835,-0.016362461737446838,0.10451004648491857
1589996034.7923975,-1.2244092755921117,-4.070216232286196,8.731397681101972,0.5244444444444445,0.25222222222222224,-0.6233333333333333,0.0045157864870002925,-0.016667388451475775,0.1592486466177308
1589996034.8023975,-1.1911574670498464,-4.012025567337231,8.73971063323754,0.5244444444444445,0.25222222222222224,-0.6233333333333333,0.005422588895289834,-0.018480993268054857,0.20458876703220788
1589996034.8123975,-1.1881323462334654,-3.9943970387003964,8.643553910389109,0.5244444444444445,0.25222222222222224,-0.6233333333333333,-0.0009988597509418093,-0.02468164915350223,0.258855204860181
1589996034.8223975,-1.21,-4.06,8.680759156235512,0.5244444444444445,0.25222222222222224,-0.6233333333333333,0.002131974905567656,-0.029452431127404314,0.2895835861756218
1589996034.8323975,-1.1945256682781842,-4.0290513365563685,8.736189732688727,0.5265076886740199,0.2560048366431105,-0.6212700891037579,-0.0007532332348820972,-0.03046522377024739,0.3306506552140812
1589996034.8423975,-1.1744140317759948,-3.9702957369828535,8.762354884379425,0.5311111111111111,0.2644444444444444,-0.6166666666666667,-0.0002246181365876767,-0.03272492347489368,0.353141236757886
1589996034.8523974,-1.225008834530393,-4.0199823309392135,8.735132517955897,0.5311111111111111,0.2644444444444444,-0.6166666666666667,-0.002724185862930639,-0.033813826861849805,0.3801419996290027
1589996034.8623974,-1.2054348193381768,-3.9620291569114916,8.655144939779392,0.5311111111111111,0.2644444444444444,-0.6166666666666667,-0.004363323129985824,-0.03596579486778918,0.3988962358931704
1589996034.8723974,-1.19,-3.937157309150489,8.689297757625408,0.5311111111111111,0.2644444444444444,-0.6166666666666667,-0.004363323129985824,-0.0370882466048795,0.4198166457413397
1589996034.8823974,-1.2165249586528342,-4.01,8.780314238460383,0.5466892614310296,0.26191825790607925,-0.6246662573714897,-0.0051900157414988875,-0.03915497813366216,0.44215343937773677
1589996034.8923974,-1.2393528054842586,-3.976964488774814,8.78457617206537,0.5722222222222222,0.2577777777777778,-0.6377777777777778,-0.007445888508977238,-0.04209194861036253,0.4674184917269979
1589996034.9023974,-1.2167786384336927,-3.954855007590207,8.697404538554357,0.5722222222222222,0.2577777777777778,-0.6377777777777778,-0.009959037504452579,-0.04145156973486533,0.48880211858363065
1589996034.9123974,-1.2609433380017565,-4.04,8.682830014005269,0.5722222222222222,0.2577777777777778,-0.6377777777777778,-0.01532308206148112,-0.042022710679378926,0.5253070196591642
1589996034.9223974,-1.2842751597834372,-4.0143490412993765,8.727174520649688,0.5722222222222222,0.2577777777777778,-0.6377777777777778,-0.01916054727256538,-0.04534048605248032,0.5489719179112269
1589996034.9323974,-1.279026257019579,-3.977256564254895,8.712743435745105,0.6048386249695848,0.2596067349411813,-0.6359488206143743,-0.021411134352144614,-0.047591073132059555,0.5717403373681288
1589996034.9423974,-1.2530618880739912,-3.9638762238520178,8.713876223852019,0.6911111111111111,0.2644444444444444,-0.6311111111111111,-0.01845529304904378,-0.04563723235805921,0.6000031189520126
1589996034.9523973,-1.2754887269259587,-3.9913032718025567,8.674185455123402,0.6911111111111111,0.2644444444444444,-0.6311111111111111,-0.017909854848679747,-0.05074140199858756,0.6303635009792574
1589996034.9623973,-1.2945086945124082,-3.9758956658511013,8.663526083537224,0.6911111111111111,0.2644444444444444,-0.6311111111111111,-0.01723892006015349,-0.05274451360623576,0.6543030655216312
1589996034.9723973,-1.3217858917575889,-3.931785891757589,8.712678837636384,0.6911111111111111,0.2644444444444444,-0.6311111111111111,-0.01963495408493621,-0.054937617814044694,0.6762047647655435
1589996034.9823973,-1.3481528420252202,-3.97394905265826,8.75420378936696,0.8653082117032437,0.25303607009836016,-0.6710404213224059,-0.0239427022862656,-0.05692469436771807,0.6997436502209506
1589996034.9923973,-1.334678380536954,-3.965964858389138,8.734678380536954,1.1322222222222222,0.23555555555555555,-0.7322222222222222,-0.026460604708347404,-0.05890486225480863,0.7268123006219468
1589996035.0023973,-1.3331379547604714,-3.9362759095209428,8.695396705943063,1.1322222222222222,0.23555555555555555,-0.7322222222222222,-0.022190882158837178,-0.05965339527262474,0.7459458011840341
1589996035.0123973,-1.3375142980136523,-3.931017157616383,8.638022876821843,1.1322222222222222,0.23555555555555555,-0.7322222222222222,-0.02520006268127859,-0.060704421111659364,0.762712626332743
1589996035.0223973,-1.3740434005517348,-3.9821302016552047,8.694043400551735,1.1322222222222222,0.23555555555555555,-0.7322222222222222,-0.029011364548624758,-0.05823142672218686,0.7738637626976717
1589996035.0323973,-1.38686420053541,-3.9759752981260648,8.717160501338524,1.204296327844028,0.07615356534436601,-0.8115418728536276,-0.02648968003459436,-0.05563236990731925,0.7676539782442803
1589996035.0423973,-1.4397746111880139,-3.9465727546616725,8.753314550932334,1.3422222222222222,-0.2288888888888889,-0.9633333333333334,-0.022907446432425576,-0.05563236990731925,0.7483099167925688
1589996035.0523973,-1.5206634647604156,-3.9803317323802077,8.755355746677091,1.3422222222222222,-0.2288888888888889,-0.9633333333333334,-0.022907446432425576,-0.055813301853259965,0.7474776298412414
1589996035.0623972,-1.5513982982822283,-3.981451276288329,8.6399470219939,1.3422222222222222,-0.2288888888888889,-0.9633333333333334,-0.020420723505559357,-0.05766727979536049,0.7036378657460788
1589996035.0723972,-1.5794393623765963,-3.956636174259578,8.693924463363825,1.3422222222222222,-0.2288888888888889,-0.9633333333333334,-0.014241956250197363,-0.0492096973678274,0.6529084114765442
1589996035.0823972,-1.57,-3.9,8.764578473413378,1.2007982656756242,-0.1652989803697351,-0.9071198542024014,-0.016020781915373712,-0.051019329790525654,0.6178962085883092
1589996035.0923972,-1.5971643260021955,-3.9181095506681305,8.770945224665935,0.7244444444444444,0.048888888888888885,-0.7177777777777777,-0.017803331227715654,-0.04993128530326227,0.5827315325833418
1589996035.1023972,-1.7350661134511012,-3.907894218478238,8.694933886548899,0.7244444444444444,0.048888888888888885,-0.7177777777777777,-0.017238011106947934,-0.04662941002234358,0.5480742241337007
1589996035.1123972,-1.7592467126167082,-3.8507532873832915,8.678441609229115,0.7244444444444444,0.048888888888888885,-0.7177777777777777,-0.02005428699169439,-0.04321389839310005,0.5400434082423218
1589996035.1223972,-1.7397496745176944,-3.8173620152286265,8.670584092792046,0.7244444444444444,0.048888888888888885,-0.7177777777777777,-0.016398870103012466,-0.043263552978098474,0.5493817297822798
1589996035.1323972,-1.8518616619282398,-3.664406017202289,8.674060172022887,0.6937116077462282,0.08346333017438211,-0.7158569754841393,-0.015493078986190262,-0.0456669337034005,0.5633860501223125
1589996035.1423972,-1.904933420835362,-3.7562999343734784,8.861100196879564,0.6177777777777778,0.1688888888888889,-0.7111111111111111,-0.01801781713642843,-0.047484773584284726,0.6175474398311906
1589996035.1523972,-1.8238124943495164,-3.8428749660970976,8.76149986438839,0.6177777777777778,0.1688888888888889,-0.7111111111111111,-0.016791949854052215,-0.05355978155862153,0.6820964587091706
1589996035.1623971,-1.821289763214542,-3.9322614207127478,8.811283983098143,0.6177777777777778,0.1688888888888889,-0.7111111111111111,-0.034413219574758444,-0.06214202413866175,0.7334969513519998
1589996035.1723971,-1.8,-4.04911333264626,8.585241334295235,0.6177777777777778,0.1688888888888889,-0.7111111111111111,-0.009513862662043276,-0.058029506995324096,0.7832691528080783
1589996035.1823971,-1.8,-3.977068604211756,8.686103954103542,0.6177777777777778,0.1688888888888889,-0.7111111111111111,-0.029161014535282158,-0.06667425381954921,0.8052739629061059
1589996035.192397,-1.75,-3.9913040558689232,8.834351329572925,0.5844444444444444,0.18666666666666668,-0.7244444444444444,-0.011287153971020942,-0.05947386396837514,0.8127175705934602
1589996035.202397,-1.75,-3.9993511377153603,8.737786347415678,0.5844444444444444,0.18666666666666668,-0.7244444444444444,-0.027087562228272757,-0.06298506580331999,0.779361153161484
1589996035.212397,-1.7086789134598641,-3.867624412328052,8.753151662893957,0.5844444444444444,0.18666666666666668,-0.7244444444444444,-0.016218353551014655,-0.056493144230864,0.6916700811785738
1589996035.222397,-1.584522375065297,-3.69964791920599,8.607085147135644,0.5844444444444444,0.18666666666666668,-0.7244444444444444,-0.0026749761581149403,-0.04693311312999361,0.6271398712476987
1589996035.232397,-1.7580805353706523,-3.9095355717034783,8.846161070741303,0.5844444444444444,0.17554183301260878,-0.7278878453373672,-0.02035768391492237,-0.04082342640378362,0.46252249682160484
1589996035.242397,-1.669747406405052,-3.9477311682453764,8.742940911141181,0.5844444444444444,0.14,-0.7388888888888889,-0.004931617921949471,-0.02372323237621408,0.2887395131189638
1589996035.252397,-1.5777345039508341,-3.9783982440737486,8.7,0.5844444444444444,0.14,-0.7388888888888889,0.004770215462076644,-0.01234858754154118,0.12347331027066522
1589996035.262397,-1.4932648870636551,-3.992683093771389,8.693696098562627,0.5844444444444444,0.14,-0.7388888888888889,0.01641360609651666,-6.346380322532407e-05,-0.036070959170826505
1589996035.272397,-1.052823968765914,-3.8242359531488708,8.618588015617043,0.5844444444444444,0.14,-0.7388888888888889,0.04044197260782315,0.03233142075958503,-0.30739270739726565
1589996035.282397,-1.144475948764722,-3.9255240512352776,8.612168775032716,0.574078950267236,0.13338752957660838,-0.720302485536653,0.025180425116102315,0.04408337148793209,-0.4989303492584835
1589996035.292397,-0.36497070633927986,-2.5708761766835626,5.869480284378907,0.52,0.09888888888888887,-0.6233333333333333,-0.4980615516441843,0.9632716905485571,-1.907217164221667
1589996035.302397,1.4941497659906395,-0.09087948517940718,0.24858502340093605,0.52,0.09888888888888887,-0.6233333333333333,-1.3232003726306147,2.360948921254604,-4.470677854080285
1589996035.312397,2.334058149779736,-0.9341162995594713,0.054366519823788546,0.52,0.09888888888888887,-0.6233333333333333,-0.15113436464378652,-1.3845358654365785,-7.30855528636421
1589996035.322397,-0.17432155074116307,-2.2074458380843787,0.12984036488027367,0.52,0.09888888888888887,-0.6233333333333333,-0.31531104335737353,-0.6612549037173955,-7.125050444195934
1589996035.332397,0.06837522762470433,-1.2937638489422898,0.07273524055889312,0.52,0.09888888888888887,-0.6233333333333333,-0.3371132529641906,-0.34668016510474836,-6.935838410822486
1589996035.342397,-0.10214473684210527,-1.3455049342105263,0.3063092105263158,0.5255555555555556,0.2488888888888889,-0.6522222222222223,-0.2753436307978702,-0.05160149898785413,-6.5337586468057784
1589996035.352397,0.14191486025635996,-2.266154207988711,2.4399506095409818,0.5255555555555556,0.2488888888888889,-0.6522222222222223,0.13007897318932277,0.6027735665419427,-6.1158366599615235
1589996035.362397,1.4045299222292287,-3.979051436807495,9.079518061435907,0.5255555555555556,0.2488888888888889,-0.6522222222222223,1.3297616364827516,2.0546214592263548,-5.55080476908071
1589996035.372397,2.012366296002118,1.0964043332450797,9.131168475862676,0.5255555555555556,0.2488888888888889,-0.6522222222222223,2.082607323681857,1.8896871946200577,-4.887098993504377
1589996035.382397,0.5420308309735011,-0.2302904937831705,-2.494483243628453,0.5042362166002996,0.2765407047615476,-0.6507446442748283,1.1668224084725658,-0.4488838735337394,-4.376168003570873
1589996035.392397,-0.4018695497252591,-0.5213264444986216,0.054047784258199894,0.4159640513682859,0.3910323250129712,-0.644626771436966,0.03164916953141028,-0.23437645876783708,-3.864782326768962
1589996035.402397,-0.5169701304451482,-0.7366051905589046,5.98967422771704,0.4133333333333333,0.3944444444444444,-0.6444444444444445,-0.47831688923258214,0.8496916613574256,-3.31930346262244
1589996035.412397,-2.774043799598106,-0.20090732604475325,7.411059228227922,0.4133333333333333,0.3944444444444444,-0.6444444444444445,-0.13783228928743801,1.7573908808908185,-3.0863403152915527
1589996035.422397,0.7152173070212848,-1.3716558756251696,7.189173806846819,0.4133333333333333,0.3944444444444444,-0.6444444444444445,0.055933487077534955,-0.052263875315954916,-2.693918288707576
1589996035.432397,1.2792319054652879,-2.958776688599436,11.558229152678932,0.406717246318428,0.40462303985199105,-0.6446989093296331,-0.18062715670179225,-0.5990197562967231,-2.415522201347566
1589996035.4423969,0.41935839958555005,-2.3019255982624984,8.120910395122243,0.3555555555555556,0.4833333333333333,-0.6466666666666666,0.06326809844349232,0.3450755923963189,-2.019711241479533
1589996035.4523969,0.2766874512860483,-1.7375136399064692,6.664259547934528,0.3555555555555556,0.4833333333333333,-0.6466666666666666,0.19442507048601,0.646808665123525,-1.7861627126264086
1589996035.4623969,0.5153415007656967,-2.745809341500766,9.427708269525269,0.3555555555555556,0.4833333333333333,-0.6466666666666666,0.1087932480187679,-0.041168003846153545,-1.6604434064667963
1589996035.4723969,0.5988770053475936,-3.188663101604278,9.983315508021391,0.3555555555555556,0.4833333333333333,-0.6466666666666666,-0.009992476633242934,-0.13593384879419734,-1.4645657418748808
1589996035.4823968,0.32547361817801634,-2.8931281801073396,9.876545619293232,0.34726570789092576,0.4905029313135537,-0.6437540174872021,-0.07295541964964936,0.3433604868324233,-1.1860340711729298
1589996035.4923968,0.12556107491856677,-2.593469055374593,8.543655537459284,0.3144444444444445,0.5188888888888888,-0.6322222222222222,-0.07342712444093652,0.17160562572008536,-0.9763122046066671
1589996035.5023968,0.28435796202293667,-2.94546781976562,9.24998871968415,0.3144444444444445,0.5188888888888888,-0.6322222222222222,0.07297348261187891,0.001240403869674639,-0.7628437996868123
1589996035.5123968,0.15362926260565435,-2.7496519965024775,8.030152725153016,0.3144444444444445,0.5188888888888888,-0.6322222222222222,0.016101374521303995,0.05487428861388161,-0.5336943811072572
1589996035.5223968,0.2352577763206426,-3.20078398426294,9.436084381787632,0.3144444444444445,0.5188888888888888,-0.6322222222222222,-0.014014410591188742,0.016083596017959403,-0.27946880348691283
1589996035.5323968,0.2066247305678969,-2.901152949456737,8.17836449214798,0.3102119776927326,0.5214651729986265,-0.6381108716159084,0.014235694397376989,-0.005634815413212459,-0.07750848629055658
1589996035.5423968,0.23615364924967203,-3.301025181582568,9.412047803410873,0.2888888888888889,0.5344444444444445,-0.6677777777777778,-0.029312573867446443,-0.009342129894136127,0.14278839867361753
1589996035.5523968,0.20540100760396782,-3.242299496198016,8.904010076039677,0.2888888888888889,0.5344444444444445,-0.6677777777777778,-0.019833172139007517,-0.03312748669526392,0.38379809434848744
1589996035.5623968,0.1922761836217417,-3.248861908189129,8.772761836217416,0.2888888888888889,0.5344444444444445,-0.6677777777777778,0.004505663285914428,-0.04672860060919089,0.5233884739914221
1589996035.5723968,0.9971283668333902,-9.139620056541053,7.149423560843767,0.2888888888888889,0.5344444444444445,-0.6677777777777778,-0.1406620854955565,-0.12890392665429923,1.1079512579324606
1589996035.5823967,4.95180247910777,-19.055623349591475,7.103817763832365,0.2888888888888889,0.5344444444444445,-0.6677777777777778,-0.5308301679946497,-0.40251906647606767,2.53643549440455
1589996035.5923967,-0.9341936029785074,-3.0528225306030348,12.249838100073333,0.2911111111111111,0.5522222222222222,-0.6755555555555556,0.052300127083731045,-0.27886205619728494,4.758087756721839
1589996035.6023967,-1.287090075041759,-2.434238488195258,5.83550223130812,0.2911111111111111,0.5522222222222222,-0.6755555555555556,0.48862148277165823,-0.05037122105737285,4.771597124654069
1589996035.6123967,-0.9103455056179776,-2.4621573033707866,5.777966292134832,0.2911111111111111,0.5522222222222222,-0.6755555555555556,-0.20237117189925544,-0.38824720517094574,4.687582998129695
1589996035.6223967,-1.0060721558988763,-3.699240168539326,10.755752106741575,0.2911111111111111,0.5522222222222222,-0.6755555555555556,-0.6618261099586364,-0.5496990278106934,4.626536537828098
1589996035.6323967,-0.45589098532494765,-3.7939832285115305,9.961383647798742,0.30149235189067475,0.5451036571162357,-0.6761487693143878,-0.14525429520299243,-0.3531196855500302,4.662723782640461
1589996035.6423967,0.22,-3.69,6.14,0.3688888888888889,0.4988888888888889,-0.68,0.12980886311707826,-0.23780111058422734,4.687299872387271
1589996035.6523967,5.363182564750473,-14.740692356285534,7.683447883765003,0.3688888888888889,0.4988888888888889,-0.68,-0.21229827245300545,-0.3937933579353662,3.3941779322764516
1589996035.6623967,0.2532306849776731,-7.670390091835877,13.357940433060914,0.3688888888888889,0.4988888888888889,-0.68,-0.34469246357600924,-0.08522261388823721,-0.6656301545422214
1589996035.6723967,-1.7470823500691675,-1.3229880380828383,9.920991130279111,0.3688888888888889,0.4988888888888889,-0.68,0.8025413560444441,0.509777073475368,-1.166861528259796
1589996035.6823967,-0.7146340222963625,-0.33320286435023205,2.053905525266499,0.3688888888888889,0.4988888888888889,-0.68,0.5875344945653269,0.11047861644272178,-0.9202086352209821
1589996035.6923966,-0.7276535314586664,-2.025057838803724,7.2987482366218375,0.42183725717629605,0.4385277490412447,-0.68,-0.4094141424580312,-0.06821862640890487,-0.6811347249636291
1589996035.7023966,-0.742391214802366,-2.7912372102219365,9.342323002652694,0.4244444444444445,0.4355555555555555,-0.68,-0.3066835527040781,-0.00041767282148575877,-0.32635154102654124
1589996035.7123966,-0.6525523536486909,-2.5424526716425286,7.925633269075512,0.4244444444444445,0.4355555555555555,-0.68,0.11546596512729218,0.053104855332134396,-0.10472304416507183
1589996035.7223966,1.4926028311329298,-7.132538804950511,7.251063025276838,0.4244444444444445,0.4355555555555555,-0.68,-0.014311506458483957,0.0004509557503032946,-0.059863738958568315
1589996035.7323966,-0.4865006434393022,-3.307604817056702,9.796576585164356,0.4244444444444445,0.4355555555555555,-0.68,-0.14951327766268915,-0.054792778720232166,-0.7969314593943965
1589996035.7423966,-2.2207713414634145,-4.612045731707317,7.013121951219512,0.4311111111111111,0.4511111111111111,-0.6944444444444444,0.29081282605067105,0.2559641082535144,-1.4069365821755426
1589996035.7523966,-3.6370283508263967,-7.893302931596092,7.713437085293763,0.4311111111111111,0.4511111111111111,-0.6944444444444444,0.03713417493677615,0.06866667257982034,-0.3337819806620634
1589996035.7623966,-0.06914985903274777,-2.066875587363551,9.611774741560037,0.4311111111111111,0.4511111111111111,-0.6944444444444444,-0.13609882382950844,-0.1848998787757285,0.6690745805004189
1589996035.7723966,0.29470180004337454,-3.582924166847394,8.944713366587148,0.4311111111111111,0.4511111111111111,-0.6944444444444444,-0.02695116158428243,-0.10882726569572247,0.37139913801343877
1589996035.7823966,-1.9413117763343688,-3.7577852301609713,7.744823496187517,0.4305594778624996,0.45124901942326395,-0.6940537042266779,0.08851578884609163,0.14702934135747575,-0.40601578123720394
1589996035.7923965,-1.5185486617613984,-6.007382321755615,8.918621598174983,0.4044444444444445,0.4577777777777778,-0.6755555555555556,-0.05838438424433173,0.031579871851844514,-0.10427589427624702
1589996035.8023965,-0.39274816159615633,-4.7891058297115405,8.736837578625002,0.4044444444444445,0.4577777777777778,-0.6755555555555556,-0.009817477042468105,-0.060100393268652144,0.10525331822067621
1589996035.8123965,-0.17738369001118626,-4.6352740642937045,8.536856283581816,0.4044444444444445,0.4577777777777778,-0.6755555555555556,-0.009817477042468105,-0.0030468887538454698,-0.028151199688945222
1589996035.8223965,-0.11604531829497536,-4.637796067672611,8.611750749377634,0.4044444444444445,0.4577777777777778,-0.6755555555555556,-0.0022063788605776002,-0.00021569442694082238,0.00043138885388164475
1589996035.8323965,-0.10183915053599553,-4.70172382258802,8.689884672052024,0.4044444444444445,0.4577777777777778,-0.6755555555555556,0.005541883685824345,-0.000990520681581017,0.001981041363162034
1589996035.8423965,-0.13429646675296036,-4.662072966105758,8.72570353324704,0.4044444444444445,0.4455555555555555,-0.6755555555555556,0.0020199640349349494,0.00038782305398119357,0.00023433590950508747
1589996035.8523965,-0.15,-4.582851528492898,8.689433624356392,0.4044444444444445,0.4455555555555555,-0.6755555555555556,-0.008040613737407649,-0.002181661564992912,0.0005922877683534845
1589996035.8623965,-0.1476468688086829,-4.671765655956586,8.608234344043414,0.4044444444444445,0.4455555555555555,-0.6755555555555556,-0.010779788245090363,-0.002181661564992912,-0.000834143988622333
1589996035.8723965,-0.14,-4.709146344699483,8.574268276502588,0.4044444444444445,0.4455555555555555,-0.6755555555555556,-0.0029000149557110904,-0.0020885422170483425,0.00018623869588913885
1589996035.8823965,-0.14,-4.70358139843439,8.602093007828048,0.4044444444444445,0.4455555555555555,-0.6755555555555556,-0.00047184908015058353,-0.0014815007481582157,0.0014003216336693923
1589996035.8923965,-0.14642927794263105,-4.616419386745797,8.74215628090999,0.41730300032970663,0.45341356192988236,-0.6798417408506429,0.008104085071543898,0.0003118200753130325,0.0007790107071834235
1589996035.9023964,-0.13077860734420235,-4.6212570470821275,8.758742952917874,0.4244444444444445,0.4577777777777778,-0.6822222222222222,0.007805681249181937,0.00039192122278327646,0.0006989095597131795
1589996035.9123964,-0.12844796661664043,-4.641552033383359,8.662416267066877,0.4244444444444445,0.4577777777777778,-0.6822222222222222,0.001768033098508751,0.0009215302034933821,-0.0016737598279836909
1589996035.9223964,-0.14537642740619902,-4.678441068515498,8.596182504078303,0.4244444444444445,0.4577777777777778,-0.6822222222222222,-0.003941093319354752,-0.0005864772514539468,-0.0005043535310425091
1589996035.9323964,-0.1328873357562203,-4.655774671512441,8.674119653340789,0.4244444444444445,0.4577777777777778,-0.6822222222222222,0.00014595236581012132,-0.002024181828878523,-0.0018667020927641336
1589996035.9423964,-0.137349479447675,-4.6426505205523245,8.69,0.4244444444444445,0.4577777777777778,-0.6707896986369499,0.0034959423075511383,-0.002181661564992912,-0.0013799577233080179
1589996035.9523964,-0.15,-4.613345243326901,8.717455337524123,0.4244444444444445,0.4577777777777778,-0.6666666666666666,0.0015430700457061948,-9.122735989810245e-05,0.0020904342050948096
1589996035.9623964,-0.15,-4.645401341307298,8.597244970097636,0.4244444444444445,0.4577777777777778,-0.6666666666666666,-0.004576291181948083,-0.0009654218209915708,0.001216239744001341
1589996035.9723964,-0.13857222490616525,-4.64285555018767,8.64,0.4244444444444445,0.4577777777777778,-0.6666666666666666,-0.008337281004262462,-0.001090830782496456,0.0008572116290709449
1589996035.9823964,-0.12298524657177895,-4.674029506856442,8.64,0.4244444444444445,0.4577777777777778,-0.6666666666666666,-0.004086592060948994,-0.001090830782496456,-0.0016932017369171361
1589996035.9923964,-0.15098157848955213,-4.630981578489552,8.701963156979104,0.4177777777777778,0.4511111111111111,-0.6888888888888889,0.005775374722034229,-0.0001070736031839832,0.0020745879618089286
1589996036.0023963,-0.15908916938897802,-4.639089169388978,8.718178338777957,0.4177777777777778,0.4511111111111111,-0.6888888888888889,0.0084285776395288,-0.000991474575682173,0.001190186989310739
1589996036.0123963,-0.13176439424442138,-4.613528788488843,8.66,0.4177777777777778,0.4511111111111111,-0.6888888888888889,0.004588058913058797,-0.0030800267920619274,-0.00019246555542744057
1589996036.0223963,-0.14954099472334653,-4.649081989446693,8.66,0.4177777777777778,0.4511111111111111,-0.6888888888888889,-0.004138009441689972,-0.0011409004910066453,-0.002131591856482723
1589996036.0323963,-0.15,-4.656044825800725,8.67208965160145,0.4177777777777778,0.4511111111111111,-0.6888888888888889,-0.004363323129985824,0.0008873338349813986,-0.00020349694751505736
1589996036.0423963,-0.15,-4.653677558825975,8.68,0.4219927385604612,0.4553260718937945,-0.6832689411786443,-0.002294309094040937,0.0008023188743629874,-0.0002885119081334686
1589996036.0523963,-0.1304489889898271,-4.6295510110101725,8.677306066061037,0.4244444444444445,0.4577777777777778,-0.68,0.0020347302616612944,-0.0009928765802753776,-9.795420222107832e-05
1589996036.0623963,-0.13922845062167707,-4.620771549378323,8.624629296269937,0.4244444444444445,0.4577777777777778,-0.68,-0.0008383418388692573,0.000922504820078323,-0.002013335602574779
1589996036.0723963,-0.15331141266527487,-4.626655706332637,8.633311412665275,0.4244444444444445,0.4577777777777778,-0.68,-0.004720955455945213,0.0018168557171862076,-0.0007296116956134089
1589996036.0823963,-0.13894996911673874,-4.651050030883261,8.64,0.4244444444444445,0.4577777777777778,-0.68,-0.006544984694978735,-0.0016453420450008313,0.0015308014439974972
1589996036.0923963,-0.13,-4.646336105644086,8.680991683067742,0.4198898129924732,0.45322314632580646,-0.6655770004020909,-0.0005829860660945436,0.00045375679556325203,0.000691161907771864
1589996036.1023962,-0.12077012658227848,-4.6392298734177215,8.698716455696202,0.4177777777777778,0.4511111111111111,-0.6588888888888889,0.003384502718471789,2.800259274560522e-05,-0.0010628281897508507
1589996036.1123962,-0.14200708860759492,-4.617992911392405,8.663321518987342,0.4177777777777778,0.4511111111111111,-0.6588888888888889,0.0064732936389949175,0.0008002003228763875,-0.0002906304596200685
1589996036.1223962,-0.14044248757673197,-4.619557512423268,8.640442487576733,0.4177777777777778,0.4511111111111111,-0.6588888888888889,0.005550689726396574,0.0031759565335750736,0.0
1589996036.1323962,-0.14,-4.661065451465903,8.664639270879542,0.4177777777777778,0.4511111111111111,-0.6588888888888889,-0.001713119456497137,0.0005847648341220867,0.0008959091711224271
1589996036.1423962,-0.13018804686341393,-4.660188046863414,8.689623906273171,0.4177777777777778,0.4576524132021685,-0.6796030121772374,-0.0054131284510495195,0.0,0.002161148834276532
1589996036.1523962,-0.14735307708464607,-4.66,8.698676538542323,0.4177777777777778,0.4577777777777778,-0.68,0.00022462728400746233,-0.0009464635327482903,0.0012351980322446218
1589996036.1623962,-0.15,-4.621545018071965,8.632703781625938,0.4177777777777778,0.4577777777777778,-0.68,0.001090830782496456,-0.001090830782496456,0.001090830782496456
1589996036.1723962,-0.14159418184836287,-4.628405818151637,8.663623272606548,0.4177777777777778,0.4577777777777778,-0.68,0.00017389826330913136,-0.0038416283400584308,0.002924695820871106
1589996036.1823962,-0.12322616444168816,-4.652365114077749,8.67,0.4177777777777778,0.4577777777777778,-0.68,-0.002439655489005358,-0.0037534092577344844,0.002052664602986689
1589996036.1923962,-0.1217149919566838,-4.664142504021658,8.675857495978342,0.4177777777777778,0.4577777777777778,-0.6721900053622109,-0.003085415745680916,-0.002633538655336914,0.0004518770903440021
1589996036.2023962,-0.15,-4.6495862922069,8.6493104870115,0.4177777777777778,0.4577777777777778,-0.6666666666666666,0.003332663706912364,-0.001075787942640707,6.017135942299597e-05
1589996036.2123961,-0.15,-4.620762129472672,8.601270215787785,0.4177777777777778,0.4577777777777778,-0.6666666666666666,0.007524968238936816,-2.77118096345941e-05,0.0042524758914474475
1589996036.2223961,-0.15,-4.62745949105789,8.644756946347345,0.4177777777777778,0.4577777777777778,-0.6666666666666666,0.006822111230704758,0.0016274084935408665,0.001108506142904091
1589996036.2323961,-0.12863598262592393,-4.6371213391246915,8.674242678249383,0.4177777777777778,0.4577777777777778,-0.6666666666666666,0.0018840791370924844,0.000628026379030828,0.0
1589996036.242396,-0.13133304948258948,-4.634333475258705,8.68,0.41022241145605154,0.4508520253161953,-0.6792589438695438,-0.002472487847032823,-0.0006181219617582057,-0.0006181219617582057
1589996036.252396,-0.14732656046171483,-4.637326560461714,8.672673439538285,0.4044444444444445,0.4455555555555555,-0.6888888888888889,-0.003564119361839826,-0.001890034550642454,-0.0002916270143504578
1589996036.262396,-0.14382720381807973,-4.65234559236384,8.626790426726558,0.4044444444444445,0.4455555555555555,-0.6888888888888889,0.0007675933060997666,-0.004201704391787479,0.0006733476089315223
1589996036.272396,-0.13332482260096823,-4.6399744678029045,8.646726241793223,0.4044444444444445,0.4455555555555555,-0.6888888888888889,0.0018161945503916718,-0.00181340941973804,0.00036268188394760815
1589996036.282396,-0.13600760456273764,-4.636007604562737,8.688022813688212,0.4044444444444445,0.4455555555555555,-0.6888888888888889,0.001090830782496456,-0.0013106559972200762,0.0006553279986100381
1589996036.292396,-0.14818515594157125,-4.656370311883142,8.691814844058428,0.420814756327587,0.450102864411984,-0.6888888888888889,-0.0024806172417434214,0.0004969244531869959,0.001090830782496456
1589996036.302396,-0.14085441410554672,-4.66,8.69,0.4244444444444445,0.4511111111111111,-0.6888888888888889,-0.00027960636219885896,9.320212073295306e-05,-0.0009044265410305498
1589996036.312396,-0.14962480915075213,-4.650375190849248,8.584127099341726,0.4244444444444445,0.4511111111111111,-0.6888888888888889,0.005249519048647,0.0,-4.0926972767055866e-05
1589996036.322396,-0.15901098411425263,-4.631978031771495,8.652087872914022,0.4244444444444445,0.4511111111111111,-0.6888888888888889,0.003488262141999618,0.0,0.0009829458852413312
1589996036.332396,-0.16,-4.622327018290438,8.706037890257376,0.4244444444444445,0.4511111111111111,-0.6888888888888889,0.003272492347489368,0.0016739849284646297,0.001090830782496456
1589996036.342396,-0.1478167470407716,-4.626091626479615,8.707816747040772,0.41699912319158267,0.4551721954308539,-0.6922731258220078,-4.99744922274792e-05,0.0008526748291061731,-0.0009026493213336523
1589996036.352396,-0.14,-4.654068551719182,8.667908597707758,0.4122222222222222,0.4577777777777778,-0.6944444444444444,-0.0030568188018393126,-0.0008751572368464003,-0.0013065043281465117
1589996036.362396,-0.14,-4.667743800072253,8.598049599421978,0.4122222222222222,0.4577777777777778,-0.6944444444444444,-0.0024277747982582045,-0.0019355483317276194,0.0005986043159658708
1589996036.372396,-0.14597391204851443,-4.658052175902971,8.615843472291086,0.4122222222222222,0.4577777777777778,-0.6944444444444444,0.00042494929678549157,-0.0034849669958821137,-0.00021247464839274578
1589996036.382396,-0.15,-4.631612134408286,8.689034308244572,0.4122222222222222,0.4577777777777778,-0.6944444444444444,0.00017585658380798183,-0.0023575181488008938,-0.0017594324428914327
1589996036.392396,-0.14131871777087543,-4.628681282229125,8.72,0.4122222222222222,0.46452988617820806,-0.6780464669005425,-0.001090830782496456,-0.001090830782496456,0.0035002243672482103
1589996036.402396,-0.13080788804071247,-4.648384223918575,8.701615776081425,0.4122222222222222,0.4655555555555556,-0.6755555555555556,-0.001090830782496456,-0.002093534650630921,0.003360619261851359
1589996036.412396,-0.13604379447876752,-4.656043794478768,8.62747446625479,0.4122222222222222,0.4655555555555556,-0.6755555555555556,0.0008869963356600574,-0.002181661564992912,0.002613216641437197
1589996036.422396,-0.15401136124552914,-4.645988638754471,8.636045444982116,0.4122222222222222,0.4655555555555556,-0.6755555555555556,0.0044742651876880715,-0.0014174603574278585,0.0014174603574278585
1589996036.432396,-0.14239934638320811,-4.645866884538931,8.701068191772515,0.4122222222222222,0.4655555555555556,-0.6755555555555556,0.004814176087240474,-0.0023707864329800678,0.0017308086077382618
1589996036.442396,-0.13,-4.643628810891922,8.723628810891924,0.4157617717267097,0.4563527268438881,-0.6783871951591456,0.0036683342099661223,-0.0018825145074499647,0.0014866726449732103
1589996036.452396,-0.14221859799713876,-4.646109298998569,8.689453505007153,0.4177777777777778,0.4511111111111111,-0.68,-0.002058876778202037,0.0002420114989263953,-0.0015748537803492466
1589996036.462396,-0.1335451351764167,-4.65,8.595953108293875,0.4177777777777778,0.4511111111111111,-0.68,-0.0036592066053439997,0.000193357128927316,-0.0005800713867819478
1589996036.472396,-0.13,-4.643537259386316,8.592925481227368,0.4177777777777778,0.4511111111111111,-0.68,-0.002567516707419713,-0.0021149269202089664,0.0007049756400696554
1589996036.482396,-0.13,-4.645671118838747,8.65671118838747,0.4177777777777778,0.4511111111111111,-0.68,-0.001563038464942826,-0.0026538692474392823,-0.00014641541760371571
1589996036.4923959,-0.13,-4.625128205128205,8.70621794871795,0.40948717948717955,0.4600925925925926,-0.6889814814814815,0.0009439881771603948,-0.0008251155918883449,0.00026571519060811103
1589996036.5023959,-0.1380178403470979,-4.634053521041293,8.718017840347098,0.4044444444444445,0.4655555555555556,-0.6944444444444444,-0.00044217055293402883,0.0008746107059756469,0.001090830782496456
1589996036.5123959,-0.13191773943211907,-4.664246781703643,8.606848352049667,0.4044444444444445,0.4655555555555556,-0.6944444444444444,-0.001090830782496456,-0.0024357206653442733,0.001972468644456638
1589996036.5223958,-0.13886765016920474,-4.6433970494923855,8.642073551184433,0.4044444444444445,0.4655555555555556,-0.6944444444444444,0.0008437903720992311,0.0005967499617020059,0.0012143509876950684
1589996036.5323958,-0.13292570677186064,-4.625851413543721,8.692445759368837,0.4044444444444445,0.4655555555555556,-0.6944444444444444,0.0026342021460285885,-0.00045254058103567636,0.0003191451007303898
1589996036.5423958,-0.15277947359327304,-4.635186315728848,8.71,0.43059865486635057,0.4748360818342965,-0.683476549751387,0.003272492347489368,0.0005657392844773705,0.0008282850334869132
1589996036.5523958,-0.139405392146843,-4.64,8.730594607853158,0.4388888888888889,0.4777777777777778,-0.68,0.002523651274167138,0.00034198970917422565,0.00034198970917422565
1589996036.5623958,-0.15313344153962088,-4.647711147179874,8.624332792301896,0.4388888888888889,0.4777777777777778,-0.68,-0.002024116791090535,-0.0008411556712166892,-0.0016823113424333784
1589996036.5723958,-0.14655928623596062,-4.65,8.61016107064606,0.4388888888888889,0.4777777777777778,-0.68,-0.004738646778743166,-0.00035775356686955687,-0.0014485843493660128
1589996036.5823958,-0.1442826465565344,-4.654282646556535,8.637130586226137,0.4388888888888889,0.4777777777777778,-0.68,-0.0035854968347142175,0.00046716426944201547,0.0003106620258295906
1589996036.5923958,-0.14337786104097092,-4.643444652602428,8.676555347397573,0.43189885332102484,0.4711556388187487,-0.6829431728706796,-0.0003684674802486603,0.001090830782496456,0.0014592982627451164
1589996036.6023958,-0.12492270348779372,-4.620154593024413,8.71,0.4177777777777778,0.4577777777777778,-0.6888888888888889,0.0016446779152341066,0.0005369836497588053,-0.0011076942654753012
1589996036.6123958,-0.12687627423545872,-4.643752548470918,8.627484709174496,0.4177777777777778,0.4577777777777778,-0.6888888888888889,-6.859391648478654e-05,0.0,-0.0006814912440077799
1589996036.6223958,-0.14131298064173958,-4.66131298064174,8.59,0.4177777777777778,0.4577777777777778,-0.6888888888888889,-0.00047380340620665313,-0.0006170273762898028,0.0
1589996036.6323957,-0.14101929003538408,-4.656528935053076,8.639393904805386,0.4177777777777778,0.4577777777777778,-0.6888888888888889,0.0004898217439037847,-0.00011118729468888658,0.0004898217439037847
1589996036.6423957,-0.1348443017656501,-4.64,8.70484430176565,0.4177777777777778,0.45185696450864987,-0.6845828428749777,0.002147693479631064,0.001090830782496456,0.001090830782496456
1589996036.6523957,-0.14,-4.64,8.742288577009333,0.4177777777777778,0.4455555555555555,-0.68,0.003976919821985108,-0.002431306589982244,0.0017952582569921958
1589996036.6623957,-0.14590808019552715,-4.645908080195527,8.665470716871566,0.4177777777777778,0.4455555555555555,-0.68,0.0011409652586164857,-0.0030743799814380883,0.0008927184164451765
1589996036.6723957,-0.14259521300617192,-4.657404786993828,8.629619147975312,0.4177777777777778,0.4455555555555555,-0.68,-0.0018985677415661634,-0.0037971354831323268,0.0016154739181394148
1589996036.6823957,-0.15110470366439063,-4.66,8.656657055496586,0.4177777777777778,0.4455555555555555,-0.68,-0.002181661564992912,-0.004363323129985824,0.0009703263062310642
1589996036.6923957,-0.1545181818181818,-4.654518181818182,8.680963636363636,0.4068141414141414,0.4522555555555555,-0.6684272727272728,-0.002181661564992912,-0.0013734551215978104,0.0
1589996036.7023957,-0.15,-4.6371281824126225,8.677128182412622,0.3977777777777778,0.4577777777777778,-0.6588888888888889,-0.0007775640798938013,-0.0017173641877017652,0.0007020487425495553
1589996036.7123957,-0.14258225973641345,-4.622582259736413,8.603240337627721,0.3977777777777778,0.4577777777777778,-0.6588888888888889,0.0008091499416083589,0.0007732573605524267,0.001090830782496456
1589996036.7223957,-0.14,-4.6445002703898535,8.61266702718647,0.3977777777777778,0.4577777777777778,-0.6588888888888889,-0.0006908791588860843,0.0012908065943016418,-0.0006908791588860843
1589996036.7323956,-0.14,-4.6561228294449775,8.656736976669862,0.3977777777777778,0.4577777777777778,-0.6588888888888889,-0.001090830782496456,0.001090830782496456,0.0002449633844148853
1589996036.7423956,-0.1441607516089647,-4.655839248391035,8.700803758044824,0.40609928099570713,0.4577777777777778,-0.67368267238743,0.0007246395908556741,0.001090830782496456,0.001090830782496456
1589996036.7523956,-0.15,-4.644384945796687,8.727192472898343,0.4177777777777778,0.4577777777777778,-0.6944444444444444,0.003272492347489368,0.00017206968694237392,0.00047832338546040134
1589996036.7623956,-0.14505128298718836,-4.632474358506405,8.695256414935942,0.4177777777777778,0.4577777777777778,-0.6944444444444444,0.003272492347489368,-0.0027214828501367946,-0.0005510094973525734
1589996036.7723956,-0.1436253274551147,-4.646812663727557,8.660875982365344,0.4177777777777778,0.4577777777777778,-0.6944444444444444,0.0010430533560443875,-0.003620176799504164,0.00034768445201479594
1589996036.7823956,-0.15596915147893636,-4.661938302957873,8.674030848521063,0.4177777777777778,0.4577777777777778,-0.6944444444444444,-0.003906800507164816,-0.001970225511767762,0.0006511334178608028
1589996036.7923956,-0.1456415862883744,-4.655641586288374,8.68076881028372,0.4177777777777778,0.46056969155503835,-0.6924502203178298,-0.005761854711755715,-0.001090830782496456,0.0003077007992734356
1589996036.8023956,-0.12619783388163974,-4.632065944627213,8.706197833881639,0.4177777777777778,0.4655555555555556,-0.6888888888888889,-0.003011165533407398,-0.0013161903819261936,-0.00018939238477750535
1589996036.8123956,-0.1439799517902287,-4.633979951790229,8.657759421482744,0.4177777777777778,0.4655555555555556,-0.6888888888888889,0.0034950323448591546,-0.0015249761750597906,0.003272492347489368
1589996036.8223956,-0.15506723602896322,-4.637533618014482,8.640134472057927,0.4177777777777778,0.4655555555555556,-0.6888888888888889,0.0018979523998559132,-0.0019126210258730927,0.0016289118607360944
