time,acc_x,acc_y,acc_z,mag_x,mag_y,mag_z,gyr_x,gyr_y,gyr_z
1589996046.5179412,-3.92,-0.97,8.91,0.31222222222222223,-0.35,-0.6255555555555555,-0.008726646259971648,0.004363323129985824,0.0
1589996046.5279412,-3.911562801738011,-0.9531256034760218,8.91,0.31222222222222223,-0.35,-0.6255555555555555,-0.008726646259971648,0.0025226120135451715,-0.0018407111164406523
1589996046.5379412,-3.9188037195769274,-0.9388037195769275,8.92521487830771,0.32666666666666666,-0.3377777777777778,-0.6255555555555555,-0.003841347325991727,-0.0008298428804994074,0.002051167613994388
1589996046.5479412,-3.910557936539142,-0.9305579365391421,8.892231746156568,0.32666666666666666,-0.3377777777777778,-0.6255555555555555,-0.00024344574063027858,0.0009691079121813167,0.0011516922176540256
1589996046.5579412,-3.9207960017510577,-0.9384079964978841,8.823184007004231,0.32666666666666666,-0.3377777777777778,-0.6255555555555555,0.0019211706011003904,-0.0012644914250914705,-0.0009171701399014416
1589996046.5679412,-3.9292509185296214,-0.9229963258815143,8.861498162940757,0.32666666666666666,-0.3377777777777778,-0.6255555555555555,-0.0008456944445504631,-0.0027822196715973826,0.0010091186698477916
1589996046.5779412,-3.9215840751640556,-0.9536636993437768,8.87683184967189,0.32666666666666666,-0.3377777777777778,-0.6255555555555555,0.0016632741797708592,0.002235717577045262,0.0001727957950740178
1589996046.5879412,-3.9271967386837954,-0.9456065226324099,8.92318043210277,0.3122731892990765,-0.33377958962011384,-0.608763165293367,0.002181661564992912,0.0009173651205293624,0.0007850424089866685
1589996046.5979412,-3.93,-0.9456038750096681,8.928792249980663,0.30666666666666664,-0.3322222222222222,-0.6022222222222222,0.0009590856926311752,-0.001833863808542605,-0.00013174508986528075
1589996046.6079412,-3.9225823518053677,-0.95,8.85324116624831,0.30666666666666664,-0.3322222222222222,-0.6022222222222222,0.0016182797968868064,-0.006509051941262981,-0.0027091105793832625
1589996046.6179411,-3.92,-0.9375457901337054,8.861135524665738,0.30666666666666664,-0.3322222222222222,-0.6022222222222222,0.00014384624091913273,-0.0049187283787101525,-0.0019139487981068484
1589996046.6279411,-3.9341301661403265,-0.9441301661403267,8.887065083070164,0.30666666666666664,-0.3322222222222222,-0.6022222222222222,-0.00032014977311357613,-0.002501811338106488,-0.00032014977311357613
1589996046.6379411,-3.9009775071123753,-0.96,8.923910028449502,0.31222222222222223,-0.35,-0.6177777777777778,0.001304089752154147,-0.003272492347489368,0.0004265179393153817
1589996046.647941,-3.9102428049460936,-0.96,8.957571950539068,0.31222222222222223,-0.35,-0.6177777777777778,0.003351950080291671,-0.003272492347489368,0.004283865397183521
1589996046.657941,-3.917792076891233,-0.96,8.882079231087673,0.31222222222222223,-0.35,-0.6177777777777778,0.005822443547250157,-0.003272492347489368,0.001813371930225034
1589996046.667941,-3.9394003706389493,-0.94,8.911199258722101,0.31222222222222223,-0.35,-0.6177777777777778,0.008726646259971648,-0.001090830782496456,-0.001090830782496456
1589996046.677941,-3.9326413665296913,-0.94,8.924717266940617,0.31222222222222223,-0.35,-0.6177777777777778,0.008726646259971648,-0.001090830782496456,-0.001090830782496456
1589996046.687941,-3.93,-0.9221719867434154,8.921085993371708,0.31222222222222223,-0.35,-0.6177777777777778,0.0038648098472122824,-0.0030355653476002026,0.0018262710651591638
1589996046.697941,-3.93758754103486,-0.9427626231045803,8.88964983586056,0.31222222222222223,-0.35,-0.6177777777777778,0.0024448200150613275,-0.004100164679917408,0.0013539892325648718
1589996046.707941,-3.92,-0.9680095646842428,8.81,0.31222222222222223,-0.35,-0.6177777777777778,0.001090830782496456,-0.002235942267817812,5.428070282490029e-05
1589996046.717941,-3.920553372682741,-0.9316601180482232,8.816640472192894,0.31222222222222223,-0.35,-0.6177777777777778,0.0008493763998858129,-0.0029103107735734034,0.0010304671868437952
1589996046.727941,-3.9278133384106764,-0.9534400152320288,8.903760060928114,0.31222222222222223,-0.35,-0.6177777777777778,-0.0023183812384745877,0.0018413256839671975,0.0002385277772536951
1589996046.737941,-3.923708005066226,-0.9537080050662259,8.942583989867547,0.30453200619205384,-0.3339204573914661,-0.613583114488595,0.00015925853104691414,0.0018997919960748553,0.0
1589996046.747941,-3.9262272819063004,-0.9437727180936994,8.956227281906301,0.3,-0.3244444444444444,-0.6111111111111112,0.00286095264446049,0.000411539703028878,-0.000679291079467578
1589996046.757941,-3.910247301993781,-0.9498763490031095,8.841483811962686,0.3,-0.3244444444444444,-0.6111111111111112,0.006504520000870397,0.0010773425511270101,0.0021411968708845742
1589996046.767941,-3.916435620591511,-0.943564379408489,8.872178102957555,0.3,-0.3244444444444444,-0.6111111111111112,0.007247001999547555,-0.0003132038266411832,0.0007776269558552728
1589996046.777941,-3.9263029413726405,-0.9463029413726405,8.90260588274528,0.3,-0.3244444444444444,-0.6111111111111112,0.006260726983565832,-0.0004032865355417766,0.0006875442469546794
1589996046.787941,-3.93948424773321,-0.9405157522667895,8.91948424773321,0.325291327288561,-0.33182108157027473,-0.6047882792889708,0.0013158701619990281,0.0,5.62598448756431e-05
1589996046.797941,-3.9128903900534135,-0.94,8.856744243457964,0.32666666666666666,-0.3322222222222222,-0.6044444444444445,0.00010509754812283506,0.000985733234373621,0.001971466468747242
1589996046.807941,-3.901268147873278,-0.957463704253444,8.780145182986223,0.32666666666666666,-0.3322222222222222,-0.6044444444444445,-0.0009524973088035522,0.002043328091300008,0.00027666694738580746
1589996046.817941,-3.9,-0.940068306010929,8.849726775956285,0.32666666666666666,-0.3322222222222222,-0.6044444444444445,0.0010833797525613708,0.0010945562974639985,0.0
1589996046.827941,-3.9197040946143336,-0.9334319684618888,8.895976220766778,0.32666666666666666,-0.3322222222222222,-0.6044444444444445,0.002523752978932298,0.0018072918807143768,0.0
1589996046.837941,-3.922129426512065,-0.9614822939517392,8.943611720463803,0.3152980605174275,-0.32610066506493957,-0.609691493436401,0.005848131498451307,-0.001252523969623007,-0.0008585463836539797
1589996046.847941,-3.912770175264878,-0.9627701752648776,8.942770175264878,0.31222222222222223,-0.3244444444444444,-0.6111111111111112,0.0049676816203536,-0.000604358490367776,-0.001879482319809024
1589996046.857941,-3.939282472067039,-0.9502391759776536,8.861913407821229,0.31222222222222223,-0.3244444444444444,-0.6111111111111112,0.005428063860596453,0.0,-5.218010377165336e-05
1589996046.867941,-3.9240277186326504,-0.9420138593163253,8.87597228136735,0.31222222222222223,-0.3244444444444444,-0.6111111111111112,0.00545415391248228,-0.0008711528091099605,0.0008711528091099605
1589996046.877941,-3.92,-0.9472099030724214,8.901629709217264,0.31222222222222223,-0.3244444444444444,-0.6111111111111112,0.006240632333503579,-0.002663787624539055,0.0003043523614751565
1589996046.887941,-3.9107700425214937,-0.9315400850429871,8.91,0.3070944680674964,-0.3367510544157864,-0.6162388652658369,0.00453132034724109,-0.0012588279997517216,-0.001006832173868823
1589996046.8979409,-3.9177482819556255,-0.9532448458668761,8.89450343608875,0.30666666666666664,-0.3377777777777778,-0.6166666666666667,0.002672910236254226,0.000599582111235142,-0.001090830782496456
1589996046.9079409,-3.92783701074937,-0.95216298925063,8.83514092475441,0.30666666666666664,-0.3377777777777778,-0.6166666666666667,0.0030365468218097485,-0.0006189397311372165,0.0014738249879540529
1589996046.9179409,-3.9477356993626533,-0.9588678496813265,8.87320709808796,0.30666666666666664,-0.3377777777777778,-0.6166666666666667,0.004239824688183604,-0.001090830782496456,0.00024699688360443916
1589996046.9279408,-3.942604708700689,-0.9452094174013784,8.909581165197244,0.30666666666666664,-0.3377777777777778,-0.6166666666666667,0.0051700242694674645,-0.001090830782496456,0.0
1589996046.9379408,-3.949172850562948,-0.94,8.96586425281474,0.3117626947571932,-0.33268174968725117,-0.6309355453201411,0.00545415391248228,-0.0020914335582267966,0.0010006027757303404
1589996046.9479408,-3.926052935807727,-0.955964709461515,8.922105871615456,0.31222222222222223,-0.3322222222222222,-0.6322222222222222,0.004583414086770627,-0.0013109217392812595,0.00022009095678480355
1589996046.9579408,-3.92,-0.9542504672225417,8.835256073893042,0.31222222222222223,-0.3322222222222222,-0.6322222222222222,0.004990499863848211,-0.001718007516358843,0.000627176733862387
1589996046.9679408,-3.92,-0.9643035895831704,8.794303589583171,0.31222222222222223,-0.3322222222222222,-0.6322222222222222,0.00545415391248228,-0.002181661564992912,0.0003106909916205593
1589996046.9779408,-3.926703479488618,-0.9565930410227645,8.846924356420324,0.31222222222222223,-0.3322222222222222,-0.6322222222222222,0.0025292092020751723,-0.003644133920196466,0.0007312361776017768
1589996046.9879408,-3.93,-0.9247107018316011,8.886859532112267,0.3187787069325479,-0.3369054255867405,-0.6144260494370526,0.002929920443151178,-0.005282867960313185,0.002010375612823817
1589996046.9979408,-3.93,-0.9265067238763016,8.916026895505206,0.32,-0.3377777777777778,-0.6111111111111112,0.0011431719382470314,-0.00545415391248228,0.0014718880952454667
1589996047.0079408,-3.9126436462994496,-0.9386781768502752,8.843218231497248,0.32,-0.3377777777777778,-0.6111111111111112,-0.0018932844888456684,-0.004507511668059446,0.00014418853807362175
1589996047.0179408,-3.9353574321809384,-0.9315475226063539,8.889167341755524,0.32,-0.3377777777777778,-0.6111111111111112,-0.00125963931205845,-0.0025192786241169,0.000922022252934462
1589996047.0279408,-3.9133996910931867,-0.9499502316801098,8.91995023168011,0.32,-0.3377777777777778,-0.6111111111111112,0.0003599910064768636,-0.0014562506705062522,0.001090830782496456
1589996047.0379407,-3.9080690545550847,-0.9438618908898304,8.962276218220339,0.3253793697033898,-0.3377777777777778,-0.6057317414077213,0.001090830782496456,-0.0019710280919294247,0.00021063347306348736
1589996047.0479407,-3.9268773807576363,-0.956877380757636,8.902490476969456,0.32666666666666666,-0.3377777777777778,-0.6044444444444445,0.001090830782496456,0.0005798934037584864,0.0009205183229171326
1589996047.0579407,-3.923170117569583,-0.9463402351391659,8.814871293265412,0.32666666666666666,-0.3377777777777778,-0.6044444444444445,0.0003458061829033971,0.003325904581275633,-0.00039921841668966174
1589996047.0679407,-3.9285641575140637,-0.9228716849718726,8.814256630056255,0.32666666666666666,-0.3377777777777778,-0.6044444444444445,-0.004671023321244535,0.006231732458483638,-0.001090830782496456
1589996047.0779407,-3.937057445412801,-0.9270574454128011,8.848229781651204,0.32666666666666666,-0.3377777777777778,-0.6044444444444445,-0.008533545393310998,0.004235441084357198,0.001218712828125082
1589996047.0879407,-3.94,-0.9459459213124715,8.907837763937414,0.30540543825003796,-0.3377777777777778,-0.6141891741353993,-0.008947761951322592,0.003272492347489368,-0.00042748370844362124
1589996047.0979407,-3.925058143229332,-0.9649418567706678,8.927470928385334,0.3,-0.3377777777777778,-0.6166666666666667,-0.009541598125626528,0.004902396078799126,-0.00027587891684157685
1589996047.1079407,-3.927406502258757,-0.9774065022587572,8.870747981929942,0.3,-0.3377777777777778,-0.6166666666666667,-0.006585780780675301,0.004646229847034079,0.0
1589996047.1179407,-3.921740364152282,-0.9717403641522818,8.924336722629462,0.3,-0.3377777777777778,-0.6166666666666667,-0.006355140415972495,0.0034623366264956087,0.0036039460139608613
1589996047.1279407,-3.9148809334009713,-0.964880933400971,8.945119066599029,0.3,-0.3377777777777778,-0.6166666666666667,-0.005428177610204699,0.003272492347489368,0.002688112502824769
1589996047.1379406,-3.9165341447992414,-0.9534658552007588,8.959801217198862,0.2978219517335862,-0.3377777777777778,-0.6242898355991148,-0.004363323129985824,0.0025597277190592222,0.0014472130967115287
1589996047.1479406,-3.9222822348238355,-0.9322822348238357,8.941411174119178,0.2933333333333333,-0.3377777777777778,-0.64,-0.0035214455473618973,-0.0022766795479992503,0.0013397839823689854
1589996047.1579406,-3.92,-0.9438661426795525,8.832937001243131,0.2933333333333333,-0.3377777777777778,-0.64,-0.003272492347489368,-0.00024736929362062293,0.0018471115459636422
1589996047.1679406,-3.91436852783296,-0.9443685278329599,8.80126294433408,0.2933333333333333,-0.3377777777777778,-0.64,-0.003272492347489368,0.0017051291015543844,0.0015673632459349833
1589996047.1779406,-3.9152978681012156,-0.9505957362024308,8.836489340506077,0.2933333333333333,-0.3377777777777778,-0.64,-0.003850400108130547,0.00044793828306937517,0.002246646303778814
1589996047.1879406,-3.92,-0.9650723585818597,8.885361792909299,0.3068596228849594,-0.3377777777777778,-0.6326732598262026,-0.0038100146418905533,-0.0005375222944011854,0.0021658753712988266
1589996047.1979406,-3.92,-0.9625612031220254,8.902561203122026,0.32,-0.3377777777777778,-0.6255555555555555,-0.003272492347489368,0.0,0.0002793839205731453
1589996047.2079406,-3.927885002910752,-0.96,8.836919976713986,0.32,-0.3377777777777778,-0.6255555555555555,0.00016798921055954973,-0.0008601203895122295,0.001720240779024459
1589996047.2179406,-3.93,-0.9519916705685206,8.876058306020356,0.32,-0.3377777777777778,-0.6255555555555555,0.00021725755647345564,-0.001090830782496456,-0.0004390581130760893
1589996047.2279406,-3.9356818525044046,-0.9556818525044047,8.918409262522024,0.32,-0.3377777777777778,-0.6255555555555555,0.0024791758453637045,-0.00047103682115552984,0.0001487571401853963
1589996047.2379405,-3.94,-0.9653688185220761,8.945368818522075,0.30926236295584775,-0.34016391934314494,-0.621379807816163,0.0020207341261787217,-0.0017569417528553266,0.0016764780334482315
1589996047.2479405,-3.9231051359516615,-0.9643683786505538,8.92184189325277,0.3,-0.3422222222222222,-0.6177777777777778,0.0018429437770020186,-0.0014295485704873495,0.0009530323803248998
1589996047.2579405,-3.9246709644706823,-0.945329035529318,8.82664517764659,0.3,-0.3422222222222222,-0.6177777777777778,0.0024723153648127816,0.0024005309480297585,0.001600353965353172
1589996047.2679405,-3.9142454334259558,-0.9321227167129778,8.815754566574045,0.3,-0.3422222222222222,-0.6177777777777778,0.0004631049466071594,-0.00016462088928213695,0.0030409398741857883
1589996047.2779405,-3.919201241009731,-0.9346006205048654,8.843003102524326,0.3,-0.3422222222222222,-0.6177777777777778,0.000501849846529148,-0.002094530475554752,0.002268792654431072
1589996047.2879405,-3.93,-0.9358825737667993,8.876862377055334,0.299085016392622,-0.3422222222222222,-0.6188452586530521,0.0007914030971742064,-0.003422206190150493,0.0009411169398353312
1589996047.2979405,-3.911018119931925,-0.9416364667801248,8.8946908265759,0.2933333333333333,-0.3422222222222222,-0.6255555555555555,-0.00040063014623272256,-0.0036731224937220906,0.0013804012725274668
1589996047.3079405,-3.90718913392048,-0.9671891339204796,8.829676062556644,0.2933333333333333,-0.3422222222222222,-0.6255555555555555,0.0023526385739845836,-0.002488279489494507,0.0006132358490031898
1589996047.3179405,-3.9178180579930326,-0.9621819420069675,8.864726405951227,0.2933333333333333,-0.3422222222222222,-0.6255555555555555,0.00497812801111782,-0.0030344793968071384,-0.0017056356636284528
1589996047.3279405,-3.92,-0.96,8.88,0.2933333333333333,-0.3422222222222222,-0.6255555555555555,0.00545415391248228,-0.003272492347489368,-0.002181661564992912
1589996047.3379405,-3.9073072215422275,-0.9526927784577723,8.92,0.299828641370869,-0.3411396708826329,-0.623390452876377,0.006544984694978735,-0.000531396146185544,-0.0008251327094036839
1589996047.3479404,-3.9268195480351777,-0.9236390960703551,8.92,0.32,-0.3377777777777778,-0.6166666666666667,0.005851117713882805,-0.0011408610933490153,-0.00034693349054796554
1589996047.3579404,-3.910867517972368,-0.9236987230414478,8.865205107834209,0.32,-0.3377777777777778,-0.6166666666666667,0.0023709246267185164,0.00208703003413011,-0.0005927311566796291
1589996047.3679404,-3.9057920833333335,-0.94,8.81737625,0.32,-0.3377777777777778,-0.6166666666666667,0.0,0.003904310626967836,0.0006318182794784682
1589996047.3779404,-3.9218209996844666,-0.9518209996844664,8.859552499211167,0.32,-0.3377777777777778,-0.6166666666666667,-0.004513148617493921,0.005008058646770669,-0.00019864025107323591
1589996047.3879404,-3.9237009617818273,-0.9411028853454821,8.917794229309036,0.3241993588121151,-0.34057735031918784,-0.6264651705616019,-0.008322933956325624,0.0047670354336318485,0.0002834061752044069
1589996047.3979404,-3.92,-0.9373154508513931,8.94,0.32666666666666666,-0.3422222222222222,-0.6322222222222222,-0.011120621952933526,0.004363323129985824,-0.002101136808119383
1589996047.4079404,-3.9266715694756877,-0.94,8.899970583145873,0.32666666666666666,-0.3422222222222222,-0.6322222222222222,-0.011999138607461015,0.004363323129985824,-0.0003614710068317556
1589996047.4179404,-3.923857559215396,-0.958427322353812,8.898427322353813,0.32666666666666666,-0.3422222222222222,-0.6322222222222222,-0.009989029561208698,0.0010131413862319626,0.001090830782496456
1589996047.4279404,-3.924109896544993,-0.97,8.93465937926996,0.32666666666666666,-0.3422222222222222,-0.6322222222222222,-0.007381685760725334,0.0007024498831652954,0.001090830782496456
1589996047.4379404,-3.9322537149146948,-0.97,8.963238855255916,0.32341130067877455,-0.33996850730752765,-0.6307197456124258,-0.005208311752090261,0.003272492347489368,0.001090830782496456
1589996047.4479403,-3.9214585475667714,-0.9638195158555904,8.909097579277953,0.31222222222222223,-0.3322222222222222,-0.6255555555555555,-0.003014950658895182,0.00462086481858001,0.002439203253587098
1589996047.4579403,-3.92121473026983,-0.9543926348650852,8.828318983515937,0.31222222222222223,-0.3322222222222222,-0.6255555555555555,-0.0027933302147791573,0.004230816612909789,0.0020491550479168775
1589996047.4679403,-3.917554385304997,-0.95,8.798668422042505,0.31222222222222223,-0.3322222222222222,-0.6255555555555555,-0.0012360834050293675,0.0025936893666693678,-0.0002667751791435443
1589996047.4779403,-3.9153135554054534,-0.9393728891890931,8.825940666216361,0.31222222222222223,-0.3322222222222222,-0.6255555555555555,0.0011592379601538113,0.0016020425849160064,-0.001090830782496456
1589996047.4879403,-3.9232513775254634,-0.9430055101018534,8.85950826515278,0.308248316357767,-0.33402854306970187,-0.6179690079961411,0.002181661564992912,0.001090830782496456,-0.0007361605134671984
1589996047.4979403,-3.9261570148776195,-0.9623140297552392,8.91152895536714,0.3,-0.3377777777777778,-0.6022222222222222,0.0009240476245423704,0.00025242148886276165,0.0
1589996047.5079403,-3.924546357502483,-0.95,8.893629139980135,0.3,-0.3377777777777778,-0.6022222222222222,-9.896944010799429e-05,-0.001586761453690687,-0.0004959306711942308
1589996047.5179403,-3.92223904688701,-0.9461195234435049,8.869402382782475,0.3,-0.3377777777777778,-0.6022222222222222,0.0006675364546383962,-0.0030282502207090315,-0.0006675364546383962
1589996047.5279403,-3.9196610106560725,-0.94,8.919322021312144,0.3,-0.3377777777777778,-0.6022222222222222,-0.0010538527813670137,-0.003836396739302317,0.0
1589996047.5379403,-3.920539561103282,-0.9494604388967183,8.94,0.3094604388967183,-0.3377777777777778,-0.6132594009350603,-0.001665674666769553,-0.0017245316528192915,0.0
1589996047.5479403,-3.923160455434619,-0.96,8.900518633696143,0.32,-0.3377777777777778,-0.6255555555555555,-0.001090830782496456,-0.0021533744849632852,0.0
1589996047.5579402,-3.93,-0.96,8.819165432924208,0.32,-0.3377777777777778,-0.6255555555555555,-0.0018281665425644435,-0.0010604850672854059,0.001474671520135975
1589996047.5679402,-3.93,-0.9476145367237804,8.80238546327622,0.32,-0.3377777777777778,-0.6255555555555555,-0.0008306171052749397,0.0,0.0008306171052749397
1589996047.5779402,-3.920586336740183,-0.94,8.828827326519635,0.32,-0.3377777777777778,-0.6255555555555555,-0.003594049780952551,0.0020537427319728863,0.0
1589996047.5879402,-3.914956602603844,-0.9350433973961563,8.874783013019218,0.31614486464145486,-0.3377777777777778,-0.6112364813666735,-0.0060137710684127306,0.0032819601906108496,-0.000540681469687487
1589996047.5979402,-3.92,-0.93,8.893971114350073,0.31222222222222223,-0.3377777777777778,-0.5966666666666667,-0.0037056737248766583,-0.0004489360554437516,0.0002244680277218758
1589996047.6079402,-3.9358710147487415,-0.940580676499161,8.847677294003356,0.31222222222222223,-0.3377777777777778,-0.5966666666666667,-0.004426665109981533,-0.0010274888025007464,0.001090830782496456
1589996047.6179402,-3.93895272805231,-0.944476364026155,8.848665451816915,0.31222222222222223,-0.3377777777777778,-0.5966666666666667,-0.0048516186973247884,0.0006025352151574914,0.0016933659976539474
1589996047.6279402,-3.925333629153031,-0.9493327416939376,8.903331854234844,0.31222222222222223,-0.3377777777777778,-0.5966666666666667,-0.0028362568412605453,0.001090830782496456,0.0016726394687511523
1589996047.6379402,-3.92,-0.962513918218468,8.935027836436936,0.31752938290565474,-0.3377777777777778,-0.6092362577590068,-0.00026815296928138065,0.001090830782496456,0.0013650567202348144
1589996047.6479402,-3.9210414017238944,-0.9689585982761056,8.954165606895577,0.3333333333333333,-0.3377777777777778,-0.6466666666666666,0.0020680622592560336,0.0012044300882333343,0.0020680622592560336
1589996047.6579401,-3.93,-0.9539482519524122,8.932508393547916,0.3333333333333333,-0.3377777777777778,-0.6466666666666666,0.0020810457412296906,0.0025117332179039904,0.0017509740883186126
1589996047.6679401,-3.931134306524853,-0.94,8.805671532624265,0.3333333333333333,-0.3377777777777778,-0.6466666666666666,0.0036209212455281135,0.003025025052670131,0.0033962259948989867
1589996047.6779401,-3.94,-0.94,8.85241311327663,0.3333333333333333,-0.3377777777777778,-0.6466666666666666,-0.0013919720918534732,0.000827600958116643,0.004363323129985824
1589996047.6879401,-3.9393804702940347,-0.9406195297059653,8.863717178235792,0.3316812541174256,-0.33743359460779704,-0.6444638943787897,0.0008880901603150471,-6.758020739380295e-05,0.0046336439595610355
1589996047.69794,-3.919129094188144,-0.95,8.909129094188144,0.30666666666666664,-0.3322222222222222,-0.6111111111111112,-0.001786384275219825,-0.002276662651815717,0.009517200839517822
1589996047.70794,-3.906801260882618,-0.9534006304413088,8.85939432602822,0.30666666666666664,-0.3322222222222222,-0.6111111111111112,-0.0003489283094416012,-0.003621420656930969,0.01202116153454684
1589996047.71794,-3.92,-0.9515648213883742,8.81265276791744,0.30666666666666664,-0.3322222222222222,-0.6111111111111112,0.001090830782496456,-0.0012615263164512008,0.011880462051099648
1589996047.72794,-3.92,-0.9356522402481818,8.845217159131364,0.30666666666666664,-0.3322222222222222,-0.6111111111111112,0.001090830782496456,-0.0002371335086091187,0.00825237924275341
1589996047.73794,-3.922613274667665,-0.9278398240029957,8.913066373338326,0.3118932160019971,-0.3336740414820362,-0.6093689279993343,0.00023563864731422678,-0.00023563864731422678,0.005974856604857249
1589996047.74794,-3.9336359497040383,-0.9318202514798081,8.939092150887884,0.32666666666666666,-0.3377777777777778,-0.6044444444444445,-0.002181661564992912,0.0009917998067607264,0.005156564302140614
1589996047.75794,-3.9455445937121,-0.9,8.8922770314395,0.32666666666666666,-0.3377777777777778,-0.6044444444444445,-0.005810589663549902,-0.0023004734820154527,0.00835944874425723
1589996047.76794,-3.9397031309875348,-0.9051484345062327,8.854554696481301,0.32666666666666666,-0.3377777777777778,-0.6044444444444445,-0.007603432091758539,-0.005518920683915584,0.011502298294787766
1589996047.77794,-3.9175050991270295,-0.9308248347882843,8.848329933915313,0.32666666666666666,-0.3377777777777778,-0.6044444444444445,-0.005636329861880195,-0.008544470310573734,0.014452951639605282
1589996047.78794,-3.9,-0.9637214299667903,8.86744285993358,0.3241857133554731,-0.3377777777777778,-0.6094063510668316,-0.002333597948645964,-0.00859964193366419,0.015144626628642922
1589996047.79794,-3.9046135047926356,-0.9746135047926354,8.889227009585271,0.32,-0.3377777777777778,-0.6177777777777778,0.001090830782496456,-0.006544984694978735,0.01107694817275679
1589996047.80794,-3.920087822781492,-0.9699121772185083,8.905043911390747,0.32,-0.3377777777777778,-0.6177777777777778,0.001641036163417463,-0.0032437524094526935,0.008726646259971648
1589996047.81794,-3.9197419685197143,-0.949741968519714,8.920258031480286,0.32,-0.3377777777777778,-0.6177777777777778,0.0027411503903185873,-0.0011189776506513505,0.009845623910622998
1589996047.82794,-3.918485335476095,-0.9315146645239052,8.951213338690238,0.32,-0.3377777777777778,-0.6177777777777778,0.004198098861202712,-0.0012560550512795672,0.013685127366104593
1589996047.83794,-3.921104573846464,-0.92,8.974069715897643,0.31604647726509505,-0.3433786016522265,-0.620083999373139,0.004807260267702194,-0.0009703404671701297,0.01907052663189351
1589996047.84794,-3.9041181123121538,-0.92,8.949704719219616,0.30666666666666664,-0.3566666666666667,-0.6255555555555555,0.0025986677961080877,-0.0023740596123143277,0.023581270983806857
1589996047.85794,-3.9120850450834976,-0.9279149549165021,8.858552793042735,0.30666666666666664,-0.3566666666666667,-0.6255555555555555,0.00043169382324961114,0.00022744313599723368,0.027906714072913386
1589996047.86794,-3.9102799289520425,-0.9434266429840141,8.786853285968029,0.30666666666666664,-0.3566666666666667,-0.6255555555555555,0.0007170420177376349,-0.0018384083120140983,0.029421895615624305
1589996047.87794,-3.931400357538095,-0.9514003575380948,8.80280071507619,0.30666666666666664,-0.3566666666666667,-0.6255555555555555,0.0,-0.0031197370365838883,0.02635423769697852
1589996047.88794,-3.931836978061484,-0.957959244515371,8.830203777423145,0.30666666666666664,-0.35530616301024737,-0.6237415506803298,-0.00022261189021817966,-0.0024042734552110917,0.0202805610869963
1589996047.89794,-3.902415165810287,-0.9506037914525717,8.866981042737141,0.30666666666666664,-0.3504025276350478,-0.6172033701800638,-0.0010249673522291025,-0.003206628917222015,0.018675850162974458
1589996047.90794,-3.92,-0.9612648062638024,8.9341765375092,0.30666666666666664,-0.35,-0.6166666666666667,0.00017965164663881266,-0.0012287997431414603,0.014180800172453925
1589996047.91794,-3.92,-0.9336748786860769,8.932650242627846,0.30666666666666664,-0.35,-0.6166666666666667,0.003272492347489368,0.0014358126341090436,0.0148707638756791
1589996047.92794,-3.9240075485334565,-0.9079773543996307,8.984045291200738,0.30666666666666664,-0.35,-0.6166666666666667,0.003272492347489368,0.002181661564992912,0.019859707579561108
1589996047.93794,-3.925940657201356,-0.89,8.99970328600678,0.3147853522639546,-0.35,-0.6166666666666667,0.003272492347489368,0.000410439132406447,0.028631552862591416
1589996047.9479399,-3.92,-0.8953670415301515,8.910962543168335,0.32666666666666666,-0.35,-0.6166666666666667,0.0021015855250841576,-0.005108928621005938,0.0420121020142266
1589996047.9579399,-3.9149555928948634,-0.9201776284205473,8.799467114738357,0.32666666666666666,-0.35,-0.6166666666666667,0.0016410902374691641,-0.007085556022502483,0.05348946085212218
1589996047.9679399,-3.8954987403826515,-0.9448337532057829,8.725498740382651,0.32666666666666666,-0.35,-0.6166666666666667,0.002181661564992912,-0.006544984694978735,0.05623218943475449
1589996047.9779398,-3.801091607240812,-0.9026549643444871,8.738933077345036,0.32666666666666666,-0.35,-0.6166666666666667,0.0007470665013421967,-0.00310195654221702,0.051098510972061084
1589996047.9879398,-3.6285340098738343,-0.7991204059243007,8.802204196379595,0.32666666666666666,-0.35,-0.6166666666666667,-0.002390119148016612,0.004427289016244117,0.04356926541359995
1589996047.9979398,-3.783247626160248,-0.679188093459938,8.85441587538675,0.3,-0.35,-0.6255555555555555,-0.005542719177123249,0.018690995002803617,-0.003253056868915068
1589996048.0079398,-3.866039282482568,-0.8612732208442008,9.007146431042742,0.3,-0.35,-0.6255555555555555,-0.013833292734691577,-0.006185400139914034,-0.0006587835236176506
1589996048.0179398,-3.631609104362507,-1.2640606957500469,9.135248556600038,0.3,-0.35,-0.6255555555555555,-0.012109115231571224,-0.005805206026656682,0.030913912918014177
1589996048.0279398,-3.552928278133272,-0.7395218542218146,8.715617483377452,0.3,-0.35,-0.6255555555555555,0.058460135612758674,0.0113602874219641,0.09576133261280378
1589996048.0379398,-3.7205069865695073,-0.8824950095932091,9.21348902110506,0.30183455321054886,-0.35,-0.6223867818282438,-0.0025644322029487023,-0.013415258896542345,0.12757407537219015
1589996048.0479398,-3.77740750789744,-0.8418517800732572,9.124073916161166,0.31176956487098156,-0.35,-0.605226307142042,-0.010544711657826503,0.0025453000132132572,0.1391011456959025
1589996048.0579398,-4.013444955901472,-0.7360669735408834,8.849100460311325,0.31222222222222223,-0.35,-0.6044444444444445,0.007063779966811531,-0.004363323129985824,0.1544016180023727
1589996048.0679398,-3.8582371246304654,-0.6443363933405943,8.720871324101447,0.31222222222222223,-0.35,-0.6044444444444445,-0.005691770700329648,-0.004268276414846876,0.16130038573676705
1589996048.0779397,-3.355249077108134,-0.5991841221120744,8.775992782778216,0.31222222222222223,-0.35,-0.6044444444444445,-0.012086168887030135,-0.001003800502927335,0.1420730289470899
1589996048.0879397,-2.5131382220760714,-0.8887778143154663,8.751947824180643,0.30648702303092307,-0.347638447391818,-0.6128785609022374,0.002710755745914414,0.012020661082617142,0.08827467099147467
1589996048.0979397,-1.615172340425532,-1.147931205673759,8.475747281323878,0.2933333333333333,-0.3422222222222222,-0.6322222222222222,0.07044002385426311,0.06096109117379532,0.00496521415749096
1589996048.1079397,-1.7635054293183188,-1.0159345465513774,8.486029056907299,0.2933333333333333,-0.3422222222222222,-0.6322222222222222,0.0805937609887698,0.07334032853192339,-0.07082783134905389
1589996048.1179397,-2.0176877153189396,-1.0021541523120707,8.88968373526202,0.2933333333333333,-0.3422222222222222,-0.6322222222222222,0.007628276086835896,0.011412770086563714,-0.15578614867863283
1589996048.1279397,-2.2087747829467412,-0.981225217053259,9.186126085266295,0.2933333333333333,-0.3422222222222222,-0.6322222222222222,-0.019798736547894942,-0.01910885710847885,-0.22467250436468816
1589996048.1379397,-2.237149724606372,-0.952850275393628,9.063913119635663,0.2967095921752312,-0.343612446451239,-0.6284487564577481,0.0032408380648420434,0.010486696557967088,-0.27976906336190355
1589996048.1479397,-2.2698022615363658,-0.9201977384636345,8.990444911543177,0.312128845725506,-0.34996155085429326,-0.6112154730780294,0.03796877066443538,0.04343370953706845,-0.32696343330494065
1589996048.1579397,-2.3129554296456827,-0.9340891407086347,8.92898744092535,0.31222222222222223,-0.35,-0.6111111111111112,0.020354778789655206,0.039022570784687446,-0.41876432360506244
1589996048.1679397,-2.297115536775475,-0.9686533896735745,8.765577683877375,0.31222222222222223,-0.35,-0.6111111111111112,0.009209046115620532,0.03306043093093331,-0.4832580348736053
1589996048.1779397,-2.290054544536287,-0.9898363663911381,8.730272722681438,0.31222222222222223,-0.35,-0.6111111111111112,0.013060219960357897,0.039222309082513104,-0.5287018862415063
1589996048.1879396,-2.313065282549894,-0.993065282549894,8.72229896191242,0.3128182493847016,-0.3494039728375206,-0.6116219915360935,0.02181661564992912,0.0567232006898157,-0.5999362963745881
1589996048.1979396,-2.3437276116675196,-1.0237276116675196,8.745295708750639,0.31878036893535106,-0.34344185328687116,-0.6167323797223644,0.02181661564992912,0.0567232006898157,-0.654288341629471
1589996048.2079396,-2.460962556326443,-1.050962556326443,8.842299549388455,0.32,-0.3422222222222222,-0.6177777777777778,0.020369944334475747,0.05345070834232633,-0.7452123506030336
1589996048.2179396,-2.4684625563264433,-1.0584625563264431,8.782299549388455,0.32,-0.3422222222222222,-0.6177777777777778,0.026096805942582138,0.05345070834232633,-0.7975722281628633
1589996048.2279396,-2.5349314702265313,-1.1,8.94950184468961,0.32,-0.3422222222222222,-0.6177777777777778,0.029250020745873115,0.05587416972627069,-0.8904235463336166
1589996048.2379396,-2.6171623861550253,-1.1,9.00183060937138,0.32,-0.3422222222222222,-0.6177777777777778,0.03414274880229198,0.06321326181089898,-0.940166281573875
1589996048.2479396,-2.648185464432403,-1.1036290711351937,8.998185464432403,0.3388888888888889,-0.3377777777777778,-0.6255555555555555,0.04482521723831654,0.07695196015067268,-1.0274395660226159
1589996048.2579396,-2.6400975722632523,-1.1198048554734956,8.990097572263252,0.3388888888888889,-0.3377777777777778,-0.6255555555555555,0.04041395636650559,0.07959871667375926,-1.0803746964843475
1589996048.2679396,-2.5922352064113316,-1.1811760320566582,8.853177523064021,0.3388888888888889,-0.3377777777777778,-0.6255555555555555,0.0275145927582828,0.08194059388409475,-1.1581794130034522
1589996048.2779396,-2.5998531768148254,-1.2201468231851749,8.75990211787655,0.3388888888888889,-0.3377777777777778,-0.6255555555555555,0.028393632194902433,0.08621300230888038,-1.2067257775243687
1589996048.2879395,-2.5779378570433327,-1.2420621429566672,8.745291904695556,0.3388888888888889,-0.3377777777777778,-0.6255555555555555,0.03317481327790183,0.091791046905713,-1.24656895321603
1589996048.2979395,-2.5789549091152546,-1.2768647273457638,8.731045090884745,0.34585381820075356,-0.3138980201370989,-0.6255555555555555,0.03686024314336215,0.09381144729469522,-1.3069113499975789
1589996048.3079395,-2.722641599238458,-1.372641599238458,8.782641599238458,0.3466666666666667,-0.3111111111111111,-0.6255555555555555,0.04427132317595921,0.09846292420111394,-1.371565767377199
1589996048.3179395,-2.7432433861162506,-1.3932433861162505,8.80854074056275,0.3466666666666667,-0.3111111111111111,-0.6255555555555555,0.049954162806746055,0.10013237880158302,-1.4156154321763925
1589996048.3279395,-2.78,-1.434464419180992,8.884554305495456,0.3466666666666667,-0.3111111111111111,-0.6255555555555555,0.05260337385325957,0.10229459726123717,-1.449870175850065
1589996048.3379395,-2.7784707571312652,-1.4561169714749391,8.970764621434368,0.3501499420898959,-0.3111111111111111,-0.6255555555555555,0.05345070834232633,0.10203111359046557,-1.479487097292895
1589996048.3479395,-2.7651746025095836,-1.5351746025095838,8.974825397490417,0.3922222222222223,-0.3111111111111111,-0.6255555555555555,0.052604015986630726,0.10851861667918186,-1.517894495746819
1589996048.3579395,-2.781107470400459,-1.555537352002297,8.94560288479403,0.3922222222222223,-0.3111111111111111,-0.6255555555555555,0.05005740971448449,0.1073846418060626,-1.5438808275548939
1589996048.3679395,-2.7881915989663386,-1.5909579948316923,8.8535092134376,0.3922222222222223,-0.3111111111111111,-0.6255555555555555,0.04928465116380216,0.11047567600879192,-1.5601087571192231
1589996048.3779395,-2.709746246472654,-1.6522786118949657,8.760885552420136,0.3922222222222223,-0.3111111111111111,-0.6255555555555555,0.04871454821288182,0.1151586271612257,-1.5885812179621182
1589996048.3879395,-2.6319026979807143,-1.6716308839834693,8.69054362799449,0.3929470595482087,-0.3102352660088775,-0.6255555555555555,0.045903843787443596,0.11984313453695608,-1.6171152748877713
1589996048.3979394,-2.70415335667578,-1.748690105041009,8.74322685340624,0.4188888888888889,-0.2788888888888889,-0.6255555555555555,0.04659555009039524,0.1118188665745512,-1.6403655436717095
1589996048.4079394,-2.7175650310966155,-1.809042639934769,8.850520248772922,0.4188888888888889,-0.2788888888888889,-0.6255555555555555,0.03854912307370799,0.10304094619271056,-1.6571898910702374
1589996048.4179394,-2.78,-1.8969397726870374,8.745614488545835,0.4188888888888889,-0.2788888888888889,-0.6255555555555555,0.05410784090378917,0.115005111781827,-1.6741361189847042
1589996048.4279394,-2.78,-1.9266412916474878,8.812442906206847,0.4188888888888889,-0.2788888888888889,-0.6255555555555555,0.06625759009214971,0.12634487769096348,-1.6822359517769445
1589996048.4379394,-2.7703431805202223,-1.9589704584393333,8.85862727791911,0.4188888888888889,-0.2788888888888889,-0.6255555555555555,0.06552471732486966,0.1244670147672194,-1.6947392489365396
1589996048.4479394,-2.7607755018621125,-2.0245714869652103,8.943020483240984,0.4619365468656958,-0.22969156548682396,-0.6317052209808137,0.06041866368884307,0.11831728929146285,-1.7142695323910808
1589996048.4579394,-2.738476694814179,-2.096093220743285,8.840197032584323,0.4655555555555556,-0.2255555555555556,-0.6322222222222222,0.06201118778351495,0.12577787362465853,-1.7288729603870845
1589996048.4679394,-2.7272965104012825,-2.1327034895987174,8.735406979197435,0.4655555555555556,-0.2255555555555556,-0.6322222222222222,0.05946454649885967,0.12615267671486546,-1.7373699938438045
1589996048.4779394,-2.708698445973659,-2.151301554026341,8.769783074328943,0.4655555555555556,-0.2255555555555556,-0.6322222222222222,0.04904005937244002,0.11678988248697152,-1.7564978519387466
1589996048.4879394,-2.6513548739917057,-2.208645126008294,8.760225812331951,0.4655555555555556,-0.2255555555555556,-0.6322222222222222,0.04695498825589949,0.11991748916178233,-1.7679657430797198
1589996048.4979393,-2.6531963857921643,-2.253401807103918,8.746803614207836,0.4777777777777778,-0.18666666666666668,-0.6466666666666666,0.05073483538059728,0.12382049780785985,-1.7788187426392612
1589996048.5079393,-2.621549054005621,-2.2692254729971895,8.778450945994377,0.4777777777777778,-0.18666666666666668,-0.6466666666666666,0.053323976657845246,0.12640963908510783,-1.7874492135634208
1589996048.5179393,-2.6256443456941465,-2.30980022218817,8.687422617223413,0.4777777777777778,-0.18666666666666668,-0.6466666666666666,0.061442869954406905,0.12848046824484488,-1.8032402731328296
1589996048.5279393,-2.5935090407600367,-2.3821046582899172,8.815963836959853,0.4777777777777778,-0.18666666666666668,-0.6466666666666666,0.06407193344143468,0.12672775925349306,-1.8120038180895888
1589996048.5379393,-2.5804234268870947,-2.409153146225811,8.86830629245162,0.4777777777777778,-0.18666666666666668,-0.6466666666666666,0.0633143740930524,0.1254917286953504,-1.8202732550287792
1589996048.5479393,-2.573131461144569,-2.455110785481949,8.870384045602396,0.5511111111111111,-0.17333333333333334,-0.6677777777777778,0.06669052600456936,0.13432203451934963,-1.828789891676705
1589996048.5579393,-2.539362017326334,-2.5294035618820647,8.823106824256868,0.5511111111111111,-0.17333333333333334,-0.6677777777777778,0.06742726098106366,0.13505876949584392,-1.836893976418142
1589996048.5679393,-2.4773165604115746,-2.5726834395884253,8.71201257969132,0.5511111111111111,-0.17333333333333334,-0.6677777777777778,0.05643048283921331,0.13169780683146878,-1.850927160665796
1589996048.5779393,-2.4486410173141673,-2.6013589826858325,8.733519237014375,0.5511111111111111,-0.17333333333333334,-0.6677777777777778,0.05330246632766776,0.12856979031992322,-1.860311210200433
1589996048.5879393,-2.4490556242274413,-2.646222496909765,8.749055624227442,0.5511111111111111,-0.17333333333333334,-0.6677777777777778,0.055323323658433975,0.13059064765068942,-1.872029314799759
1589996048.5979393,-2.3557066792877004,-2.71071555345205,8.72214666035615,0.5511111111111111,-0.11,-0.6766666666666666,0.05586653422692455,0.1341721862470641,-1.8894769608725936
1589996048.6079392,-2.3022329398823875,-2.7356305791767146,8.727670601176122,0.5511111111111111,-0.11,-0.6766666666666666,0.05963559012256041,0.13563364198256764,-1.9088478644482332
1589996048.6179392,-2.3050493876874247,-2.7961882653907195,8.659901224625152,0.5511111111111111,-0.11,-0.6766666666666666,0.06298739664771248,0.14125719897231914,-1.9214822612845914
1589996048.6279392,-2.265976841036059,-2.8490521076688675,8.739052107668869,0.5511111111111111,-0.11,-0.6766666666666666,0.0688320539382953,0.14519020871304722,-1.9347075808400174
1589996048.6379392,-2.231894159471813,-2.9257381411884205,8.81573814118842,0.5511111111111111,-0.11,-0.6766666666666666,0.06976151489330291,0.14611966966805484,-1.949578956120139
1589996048.6479392,-2.2201681632361603,-2.925899102058304,8.864100897941695,0.5377777777777778,-0.04444444444444445,-0.6911111111111111,0.06326818538479445,0.14726215563702155,-1.9809487010135638
1589996048.6579392,-2.1827304211221596,-2.9483617473267048,8.841638252673295,0.5377777777777778,-0.04444444444444445,-0.6911111111111111,0.06326818538479445,0.14726215563702155,-1.9809487010135638
1589996048.6679392,-2.1224846479744848,-3.0160122816204122,8.678496929594896,0.5377777777777778,-0.04444444444444445,-0.6911111111111111,0.06261234719833611,0.14398966328953214,-2.000041588999653
1589996048.6779392,-2.075091002004796,-3.048772750501199,8.672454498997602,0.5377777777777778,-0.04444444444444445,-0.6911111111111111,0.05890486225480863,0.1446590240550799,-2.010916767195787
1589996048.6879392,-2.0421156492000474,-3.0405289123000117,8.688942175399976,0.5377777777777778,-0.04444444444444445,-0.6911111111111111,0.05890486225480863,0.14915534029296754,-2.021707926166717
1589996048.6979392,-1.9910390420356743,-3.048160159660721,8.706320319321442,0.5704184164206616,0.0017964602996410409,-0.7436988067024239,0.05445418558080847,0.15211422320641457,-2.0232904060832295
1589996048.7079391,-1.9362468599490037,-3.043749551421286,8.697499102842572,0.5777777777777777,0.012222222222222223,-0.7555555555555555,0.05481434468514077,0.15407994589231827,-2.014627465302632
1589996048.7179391,-1.91,-3.1091159702426476,8.666961343252451,0.5777777777777777,0.012222222222222223,-0.7555555555555555,0.059820915901918646,0.1557356803134166,-2.000933209369273
1589996048.7279391,-1.8761574482785093,-3.13,8.646462979311405,0.5777777777777777,0.012222222222222223,-0.7555555555555555,0.06330151365036336,0.15746546178403442,-1.985112054550136
1589996048.7379391,-1.8121384087442807,-3.1938154550076256,8.727746250635485,0.5777777777777777,0.012222222222222223,-0.7555555555555555,0.05826797817917401,0.1564301668939527,-1.9622342220522537
1589996048.747939,-1.7989155742964524,-3.245422128517738,8.79,0.5666666666666667,0.057777777777777775,-0.7533333333333333,0.05383178416156678,0.15672475519786164,-1.9276948801779508
1589996048.757939,-1.7879117348954665,-3.2926103313806667,8.782691072134131,0.5666666666666667,0.057777777777777775,-0.7533333333333333,0.04771181144758927,0.15357934594619646,-1.9005865295873883
1589996048.767939,-1.7590903781072307,-3.3286370273659616,8.681816323375307,0.5666666666666667,0.057777777777777775,-0.7533333333333333,0.043781908550349156,0.15043542362840437,-1.8754351510450515
1589996048.777939,-1.66,-3.35,8.67173027384774,0.5666666666666667,0.057777777777777775,-0.7533333333333333,0.036946688906734824,0.14408403508829526,-1.8245407811188576
1589996048.787939,-1.66,-3.35,8.70497483454207,0.5666666666666667,0.057777777777777775,-0.7533333333333333,0.0342268746450389,0.1458972445960926,-1.7955294289941006
1589996048.797939,-1.6456117273800976,-3.3913670364280586,8.657050554642089,0.6111111111111112,0.06333333333333334,-0.7744444444444445,0.03334489913696793,0.14430356670314695,-1.7404480867529892
1589996048.807939,-1.5505593742093278,-3.34,8.577902083157628,0.6111111111111112,0.06333333333333334,-0.7744444444444445,0.029627873001590088,0.14502708871913675,-1.6939610074189675
1589996048.817939,-1.4709677827443703,-3.34,8.560215062832082,0.6111111111111112,0.06333333333333334,-0.7744444444444445,0.02191045451289162,0.13538031560826366,-1.6563385922865623
1589996048.827939,-1.4503606982269432,-3.36216418936166,8.641082094680831,0.6111111111111112,0.06333333333333334,-0.7744444444444445,0.009581400604983059,0.14184734779745345,-1.607480253411534
1589996048.837939,-1.4585962810972137,-3.4115776865832825,8.665788843291642,0.6111111111111112,0.06333333333333334,-0.7744444444444445,0.004191224220968191,0.1427457105281226,-1.5733424696461065
1589996048.847939,-1.4125011037527593,-3.4600044150110376,8.807494481236203,0.6088888888888889,0.05666666666666665,-0.7677777777777778,0.004272862034189392,0.1266273134683798,-1.5093441057679535
1589996048.857939,-1.437279758835429,-3.565466264725715,8.660025782396573,0.6088888888888889,0.05666666666666665,-0.7677777777777778,0.01398579107576155,0.1259457186331461,-1.4528000304581352
1589996048.867939,-1.4123245805402402,-3.5238743009004008,8.568523461980881,0.6088888888888889,0.05666666666666665,-0.7677777777777778,0.0021896445200272445,0.11051998852180124,-1.4110598195686137
1589996048.877939,-1.3969350461992924,-3.5918572459038915,8.638389722804245,0.6088888888888889,0.05666666666666665,-0.7677777777777778,0.0039411615380376365,0.09910692060525146,-1.368692244220622
1589996048.887939,-1.3973338727622129,-3.644667745524426,8.635996763426721,0.6088888888888889,0.05666666666666665,-0.7677777777777778,0.015054170909203388,0.09301144587830179,-1.3034667678475875
1589996048.897939,-1.3516845675522895,-3.6067382702091577,8.641057094403617,0.5877777777777777,0.022222222222222227,-0.7911111111111111,0.011827096895580569,0.07600235524874828,-1.2220276954108205
1589996048.907939,-1.3699230334391443,-3.679692133756577,8.869037917989303,0.5877777777777777,0.022222222222222227,-0.7911111111111111,0.02177463690302694,0.08396038725470537,-1.1543844233601852
1589996048.917939,-1.3277515223856442,-3.6968993910457426,8.574260656699508,0.5877777777777777,0.022222222222222227,-0.7911111111111111,0.027346928437371344,0.08307225145432007,-1.093265527219386
1589996048.927939,-1.3103985659468393,-3.7384057362126435,8.692825812956894,0.5877777777777777,0.022222222222222227,-0.7911111111111111,0.014745998577221085,0.0755716615948224,-1.0203102512908289
1589996048.937939,-1.31,-3.73238846623462,8.69238846623462,0.5877777777777777,0.022222222222222227,-0.7911111111111111,0.02165340597241274,0.07360674492559795,-0.9587945632028515
1589996048.947939,-1.2694582617194083,-3.7865008593671012,8.698916523438816,0.5022222222222222,0.031111111111111114,-0.6666666666666666,0.01993042648119932,0.06297271298853134,-0.8686462014079864
1589996048.957939,-1.262390725575439,-3.8713112930947324,8.684781451150878,0.5022222222222222,0.031111111111111114,-0.6666666666666666,0.023785169472323304,0.059117969997407344,-0.8162216967287002
1589996048.967939,-1.2777116237516353,-3.8468651287450943,8.582586069366007,0.5022222222222222,0.031111111111111114,-0.6666666666666666,0.02122503111816267,0.053949954593056335,-0.7366629027193127
1589996048.977939,-1.190208811273936,-3.768167049019149,8.749582377452128,0.5022222222222222,0.031111111111111114,-0.6666666666666666,0.03345889391314677,0.06618381738804045,-0.6571736580663148
1589996048.987939,-1.2040653148345783,-3.8321959445037352,8.87428303094984,0.5022222222222222,0.031111111111111114,-0.6666666666666666,0.0069053197470580335,0.015129136090726733,-0.610542575807752
1589996048.9979389,-1.197566628041715,-3.836523754345307,8.842618771726535,0.5044444444444445,0.12444444444444445,-0.6088888888888889,-0.0009303029616655753,0.033701994384360376,-0.5311410551801719
1589996049.0079389,-1.1311814576207164,-3.7428354982897196,8.368742786393302,0.5044444444444445,0.12444444444444445,-0.6088888888888889,0.03296516583240108,0.030388609468993667,-0.4667291861637228
1589996049.0179389,-1.1751902293664616,-3.848456550479508,8.694407697311817,0.5044444444444445,0.12444444444444445,-0.6088888888888889,0.0012811247051223718,0.024627874718579357,-0.4206433081604083
1589996049.0279388,-0.9668347539289901,-3.161324432258449,8.647496970058215,0.5044444444444445,0.12444444444444445,-0.6088888888888889,-0.06343121073986266,0.06885090436059296,-0.3610822191522029
1589996049.0379388,-1.175170570821164,-3.8113321809620313,9.180836661302179,0.5044444444444445,0.12444444444444445,-0.6088888888888889,0.1311025978312616,-0.06023227702772316,-0.32835690556079883
1589996049.0479388,-0.9845783582089552,-3.417889033095393,7.533316190785204,0.5255555555555556,0.17888888888888888,-0.6166666666666667,0.009325470595113034,0.10782249975680348,-0.23227781527221217
1589996049.0579388,-1.1410820895522389,-3.7172874756651524,8.642451330304997,0.5255555555555556,0.17888888888888888,-0.6166666666666667,-0.05450862307590256,-0.02281471519783307,-0.23153555836906078
1589996049.0679388,-1.151426596227661,-3.781426596227661,8.595854141730983,0.5255555555555556,0.17888888888888888,-0.6166666666666667,-0.013191200683632137,-0.019598193866441488,-0.1859242033169903
1589996049.0779388,-1.2626935668685546,-4.061460140775904,8.883102799148798,0.5255555555555556,0.17888888888888888,-0.6166666666666667,0.002216659573401697,0.0014196513563984395,-0.10956635431984146
1589996049.0879388,-1.2038192646297254,-3.9175820494562403,8.707356130243397,0.5255555555555556,0.17888888888888888,-0.6166666666666667,-0.008947276812788205,-0.007641976468268358,-0.06756989860684862
1589996049.0979388,-1.208054298642534,-3.9877737556561086,8.690968325791856,0.5157254901960784,0.22047762694821518,-0.6166666666666667,0.007999096679247768,-0.006848048088848792,-0.007212316467800094
1589996049.1079388,-1.270838803792852,-4.151677607585704,8.839342086068562,0.5111111111111111,0.24,-0.6166666666666667,0.01770805839635129,-0.010163742218647867,0.048585014274289254
1589996049.1179388,-1.297599317306994,-4.129205461544049,8.60402389425521,0.5111111111111111,0.24,-0.6166666666666667,0.015228295604668911,-0.01723475401217102,0.11427163479134426
1589996049.1279387,-1.2908926408042274,-4.137322077587318,8.510892640804228,0.5111111111111111,0.24,-0.6166666666666667,0.019148094051454418,-0.021524499629840044,0.1773001403420902
1589996049.1379387,-1.273061143636924,-4.097652859092309,8.713266276356913,0.5111111111111111,0.24,-0.6166666666666667,0.010396241114371516,-0.02089274435287265,0.22374294904444925
1589996049.1479387,-1.2961606519788655,-4.142321303957731,8.81104152128402,0.5178935023648911,0.24,-0.6166666666666667,0.010629102557886535,-0.02643315376117733,0.2740613925923337
1589996049.1579387,-1.255634838367524,-4.016904515102572,8.482824771593183,0.5188888888888888,0.24,-0.6166666666666667,0.0002614333495547516,-0.03017446260115953,0.3084125438094878
1589996049.1679387,-1.27582674982675,-4.051653499653499,8.336693000693002,0.5188888888888888,0.24,-0.6166666666666667,0.0026655177138840405,-0.03336052328218614,0.3382720432686499
1589996049.1779387,-1.3302977829638274,-4.194127421236873,8.772680046674445,0.5188888888888888,0.24,-0.6166666666666667,-0.009529660640439985,-0.03564463325566575,0.35715189769009215
1589996049.1879387,-1.3034539913159653,-4.154217184368737,8.699197561790248,0.5188888888888888,0.24,-0.6166666666666667,-3.948523248265001e-05,-0.03759203627238016,0.3767176729488001
1589996049.1979387,-1.2809016034072405,-4.039016034072404,8.585409620443443,0.5441622127576655,0.24404373181900427,-0.6166666666666667,-0.007546450159705848,-0.03718659627990165,0.39776882126837065
1589996049.2079387,-1.3359042121833709,-4.076586843486142,8.412287363449888,0.5466666666666666,0.24444444444444444,-0.6166666666666667,-0.0026284427078882306,-0.040137348380921214,0.4144895752739114
1589996049.2179387,-1.3694157273770768,-4.1756011139755005,8.627971887172347,0.5466666666666666,0.24444444444444444,-0.6166666666666667,-0.004588230133425857,-0.03875635990674691,0.4260349919276925
1589996049.2279387,-1.3715558180386456,-4.159334908231874,8.583337270579685,0.5466666666666666,0.24444444444444444,-0.6166666666666667,-0.002690801827548272,-0.0427846641955993,0.445446323451563
1589996049.2379386,-1.3226079758663822,-4.007823927599147,8.566770289161946,0.5466666666666666,0.24444444444444444,-0.6166666666666667,-0.003658709529843348,-0.042156183335007806,0.4623634072721225
1589996049.2479386,-1.316174714778456,-4.028960931281507,8.650873573892278,0.5628413814451225,0.2489374207717933,-0.6283484051177736,-0.0025989354521418285,-0.04145156973486533,0.48846550092976004
1589996049.2579386,-1.3310986347599325,-4.038901365240068,8.747690443319527,0.5666666666666667,0.25,-0.6311111111111111,-0.007629691162911704,-0.043267579600838255,0.5027408996402537
1589996049.2679386,-1.3448951234287445,-4.054475617143723,8.71209753142511,0.5666666666666667,0.25,-0.6311111111111111,-0.009863238079383371,-0.04312213668629646,0.5275960104329624
1589996049.2779386,-1.35,-4.044755417956656,8.563007223942208,0.5666666666666667,0.25,-0.6311111111111111,-0.014684225895810395,-0.04337386348532038,0.5595122120848983
1589996049.2879386,-1.3860298703430165,-4.0680398271240215,8.680124459762569,0.5666666666666667,0.25,-0.6311111111111111,-0.018979912557277562,-0.050619435831282485,0.5851346651269574
1589996049.2979386,-1.3831712104261125,-4.067805452511335,8.73707393668178,0.6131699019280719,0.24642282805681495,-0.6311111111111111,-0.020300063473898747,-0.053956225734336456,0.6102264420052232
1589996049.3079386,-1.3802474044621162,-3.9927560562550624,8.62575951697224,0.6533333333333333,0.2433333333333333,-0.6311111111111111,-0.019607966444635874,-0.05197827553879751,0.6361162720372359
1589996049.3179386,-1.39,-3.975736037971175,8.555583772172948,0.6533333333333333,0.2433333333333333,-0.6311111111111111,-0.021672646696702946,-0.053771865492743987,0.6525106057520548
1589996049.3279386,-1.4253574926542605,-4.029500489715964,8.713858961802154,0.6533333333333333,0.2433333333333333,-0.6311111111111111,-0.02322689638733884,-0.05408960825215285,0.6699805741689373
1589996049.3379385,-1.426270584054022,-4.0088117521620665,8.659570548513209,0.6533333333333333,0.2433333333333333,-0.6311111111111111,-0.017665682093575913,-0.05494835529628338,0.6793751879216595
1589996049.3479385,-1.4614648891151485,-4.089515733876357,8.740980622991504,0.8781651765354714,0.21476863194289775,-0.6836333039902991,-0.018890125150118876,-0.05472774635852713,0.6853877332554534
1589996049.3579385,-1.454475850946439,-4.055665478312537,8.707903403785757,0.9244444444444444,0.2088888888888889,-0.6944444444444444,-0.02302179801687368,-0.0570816720737759,0.681899007275349
1589996049.3679385,-1.3887196252561727,-3.902119156826388,8.63637967209915,0.9244444444444444,0.2088888888888889,-0.6944444444444444,-0.019820369769079194,-0.0594851944506493,0.6781716638102828
1589996049.3779385,-1.3778749817438294,-3.86,8.572750109537024,0.9244444444444444,0.2088888888888889,-0.6944444444444444,-0.022839259551323123,-0.05484152953864502,0.664520507183649
1589996049.3879385,-1.466182966209203,-3.965334736477915,8.684486506746627,0.9244444444444444,0.2088888888888889,-0.6944444444444444,-0.02817654532460428,-0.049794723746354366,0.6547760520283289
1589996049.3979385,-1.557558835934205,-4.048264867144665,8.758970898355125,1.0852900323351609,0.14270621866066827,-0.7939896902385304,-0.03086089563922829,-0.046081182555660495,0.6428939806775174
1589996049.4079385,-1.61570295404814,-4.032128692560175,8.684980169584247,1.5833333333333333,-0.06222222222222223,-1.1022222222222222,-0.025984993057126753,-0.04690572364734761,0.6137894240398382
1589996049.4179385,-1.6669443158720894,-4.05,8.613944778732568,1.5833333333333333,-0.06222222222222223,-1.1022222222222222,-0.017313939441774458,-0.04448772382785475,0.5915212396420725
1589996049.4279385,-1.667638474012119,-4.012915422036357,8.654169155927285,1.5833333333333333,-0.06222222222222223,-1.1022222222222222,-0.01620345013238548,-0.046330097913100304,0.57120096635189
1589996049.4379385,-1.6657173091099327,-3.9442615271205383,8.63710959979074,1.5833333333333333,-0.06222222222222223,-1.1022222222222222,-0.01371132245784609,-0.04487824604476306,0.5547610819669606
1589996049.4479384,-1.6798951894651974,-3.974318731523784,8.674109110454179,1.2177610558690914,-0.0820126011526173,-0.929606139329332,-0.01198770555169177,-0.04308209938072539,0.5427511960987177
1589996049.4579384,-1.7796014333772123,-3.963198771390961,8.70239907854322,0.8444444444444444,-0.10222222222222224,-0.7533333333333333,-0.01169368365161935,-0.04363323129985824,0.5241221733432133
1589996049.4679384,-1.862606111910607,-3.9308687039702024,8.67,0.8444444444444444,-0.10222222222222224,-0.7533333333333333,-0.013279491196272187,-0.04304043545703133,0.5087546491037435
1589996049.4779384,-1.9301393728222995,-3.905594823295172,8.612658038825286,0.8444444444444444,-0.10222222222222224,-0.7533333333333333,-0.013395119663607551,-0.04191689675358084,0.5061606862948363
1589996049.4879384,-1.8611905287006034,-3.812068488481665,8.674985063255608,0.8444444444444444,-0.10222222222222224,-0.7533333333333333,-0.018062011832837493,-0.04481983263785226,0.5215437218765979
1589996049.4979384,-1.8908567698725771,-3.731061384340324,8.610204614467747,0.7196966572384458,0.04199487281361447,-0.7208844869502701,-0.010489831492762978,-0.04407402760805607,0.5453351817367075
1589996049.5079384,-2.0800737878599027,-3.7321169138726162,8.768541443350367,0.6522222222222223,0.12,-0.7033333333333334,-0.026880746231653662,-0.04495498156396905,0.5758552669276651
1589996049.5179384,-2.069543233942194,-3.959155776959546,8.691300989098261,0.6522222222222223,0.12,-0.7033333333333334,-0.025838721093805903,-0.049936649203978736,0.6536643264007729
1589996049.5279384,-2.028782701548318,-3.9592756718277275,8.760231357892865,0.6522222222222223,0.12,-0.7033333333333334,-0.020592998205174688,-0.060526839686336986,0.7295473943745732
1589996049.5379384,-1.9470839578627372,-3.9725343579134034,8.658091578880702,0.6522222222222223,0.12,-0.7033333333333334,-0.020960605139955124,-0.05839358641970578,0.792014766318135
1589996049.5479383,-1.9108733299194636,-3.961943345281877,8.64698663935571,0.6262470451923923,0.15020369422073254,-0.7111862938307237,-0.02300271194836819,-0.06343726136311584,0.8448102535872212
1589996049.5579383,-1.7960411753280985,-3.8742185288976443,8.571249410393719,0.6044444444444445,0.17555555555555555,-0.7177777777777777,-0.02129391518063821,-0.06887572933655678,0.8773518297132469
1589996049.5679383,-1.7599305134731145,-3.8913392316082898,8.645426412960045,0.6044444444444445,0.17555555555555555,-0.7177777777777777,-0.020879452178003712,-0.07136500279398279,0.8761059452637243
1589996049.5779383,-1.7600870898674845,-3.912052253920491,8.650348359469938,0.6044444444444445,0.17555555555555555,-0.7177777777777777,-0.02246921411326108,-0.06960830396643528,0.8417686320455656
1589996049.5879383,-1.751637977518769,-3.841810112406155,8.639827865112613,0.6044444444444445,0.17555555555555555,-0.7177777777777777,-0.0203684336077306,-0.061462652082893865,0.7755146727454707
1589996049.5979383,-1.7346301220956188,-3.774630122095619,8.673086748063746,0.6096123825360776,0.15817249106551667,-0.7299929041761835,-0.018082885906335156,-0.05643031928399839,0.6984086168637583
1589996049.6079383,-1.6773899033297528,-3.7626100966702474,8.695220193340495,0.6166666666666667,0.13444444444444445,-0.7466666666666667,-0.014493637786768163,-0.04960878123619758,0.5790471923016955
1589996049.6179383,-1.6077524030150059,-3.8087767097711085,8.665504806030011,0.6166666666666667,0.13444444444444445,-0.7466666666666667,-0.009884197174348203,-0.03544034609492738,0.4262648523302798
1589996049.6279383,-1.510512974291312,-3.843496461556915,8.619487025708688,0.6166666666666667,0.13444444444444445,-0.7466666666666667,-0.0038191943529506884,-0.021763232063596077,0.24420653034761647
1589996049.6379383,-1.3267720174890694,-3.837995003123048,8.68,0.6166666666666667,0.13444444444444445,-0.7466666666666667,0.008902705394385816,-0.006760970552599832,0.03165494180041996
1589996049.6479383,-1.1727616714305158,-3.81,8.693808357152578,0.5948801476037082,0.12032923491069673,-0.7386885047562876,0.021670815210510105,0.011479186327577717,-0.16347347190875705
1589996049.6579382,-1.1644563397129186,-3.6752882775119615,8.673006578947367,0.5377777777777778,0.08333333333333333,-0.7177777777777777,0.032159740037766484,0.03744407143070101,-0.4697662112410233
1589996049.6679382,-1.202098204470502,-3.6020982044705017,8.665585928911689,0.5377777777777778,0.08333333333333333,-0.7177777777777777,0.02666143924184064,0.051167998033538956,-0.7371879196541845
1589996049.6779382,-6.277705912508544,-9.414637730690362,5.371036397812714,0.5377777777777778,0.08333333333333333,-0.7177777777777777,0.03246004470833055,0.06312129976336464,-0.9265488146854747
1589996049.6879382,-6.3035890239168735,-5.71325699441641,-0.8916013257293005,0.5377777777777778,0.08333333333333333,-0.7177777777777777,-0.5502111251592722,1.3040652868721876,-2.191428426913825
1589996049.6979382,0.9801560262304969,0.9463729554533806,-1.1229840958769874,0.5425264021841998,0.13081957739755282,-0.6777536577807928,-0.4552187238225066,0.17076702247086573,-5.383238236186896
1589996049.7079382,1.1273834259482967,-1.24398163807683,0.705035032616574,0.5455555555555556,0.16111111111111112,-0.6522222222222223,-0.08982499974310271,-0.9439549902146265,-6.49598349040565
1589996049.7179382,0.3534200560559704,-1.3900487815314835,0.05034147072038336,0.5455555555555556,0.16111111111111112,-0.6522222222222223,-0.1152815989003324,-0.44675699482652326,-6.273882800102581
1589996049.7279382,0.051179369334865304,-1.1582535427039449,-0.045677007532235414,0.5455555555555556,0.16111111111111112,-0.6522222222222223,-0.029895531521090923,-0.0979082807291129,-5.986984517252154
1589996049.7379382,0.8889485829364996,-3.894090079506598,6.2278959071933535,0.5455555555555556,0.16111111111111112,-0.6522222222222223,-0.008113049654172071,0.07886208384923522,-5.716105200567448
1589996049.7479382,0.5310491856282585,-3.1949076506486684,7.623461989249485,0.5234981386430281,0.23831207030495719,-0.6590495179332426,0.3202587565787478,0.5562025495363417,-5.413860273091442
1589996049.7579381,0.9796219767313832,2.1357991705508863,6.987548353947224,0.4988888888888889,0.3244444444444444,-0.6666666666666666,1.4856410643450744,1.9778654936493625,-4.814533450852282
1589996049.7679381,1.0171365025569643,1.5985945774200383,4.3015768450994045,0.4988888888888889,0.3244444444444444,-0.6666666666666666,1.2085948067846202,1.4051898811098074,-4.27758093233827
1589996049.7779381,0.2655937984496124,-0.9889612403100775,1.2994480620155036,0.4988888888888889,0.3244444444444444,-0.6666666666666666,0.19958719426023214,-0.03966768088311762,-3.8955518899883326
1589996049.787938,1.7669382492571468,-0.707809351412275,8.65612589227774,0.4988888888888889,0.3244444444444444,-0.6666666666666666,0.11747266565893089,0.26790666541915426,-3.558323561911535
1589996049.797938,1.0042661075104842,-1.1483339687380862,10.676492565764391,0.48735332740288895,0.34250010590079216,-0.6588927013174058,0.0031506420160858223,0.6532862042554118,-3.3644286304690514
1589996049.807938,-0.9652417523584471,-1.587893920652796,9.295709749478466,0.4477777777777778,0.4044444444444445,-0.6322222222222222,-0.08858701086215343,0.27984317527366576,-3.068042400800277
1589996049.817938,0.46020077669902915,-2.011550291262136,8.135979417475728,0.4477777777777778,0.4044444444444445,-0.6322222222222222,0.33415052925795735,-0.015164411820562093,-2.762881072612629
1589996049.827938,0.41486878565607177,-2.7554713393099703,10.046460201032328,0.4477777777777778,0.4044444444444445,-0.6322222222222222,0.021700390756450416,0.22438569963889432,-2.3971066009876676
1589996049.837938,-0.0819298297036668,-2.8651930122812677,10.41985989389454,0.4477777777777778,0.4044444444444445,-0.6322222222222222,-0.24088607992150657,0.3181743040643752,-2.128379291640831
1589996049.847938,0.007394134157751295,-2.528315502583086,8.034988406622462,0.4213582557051621,0.43177498451956414,-0.6354107852309862,0.052922798249198544,0.20494674996201476,-1.8688322141839147
1589996049.857938,0.08532834850455137,-2.5716124837451235,8.102734070221066,0.38333333333333336,0.4711111111111111,-0.64,0.13934441217772428,0.12523701966846176,-1.6351291006091626
1589996049.867938,0.08,-2.8329695342593673,9.213825142990544,0.38333333333333336,0.4711111111111111,-0.64,-0.02212551672128856,0.08782098204150146,-1.4191269193924319
1589996049.877938,0.06876022057425366,-2.631403308613805,8.02139665335615,0.38333333333333336,0.4711111111111111,-0.64,0.04124497770988595,0.08449852356624549,-1.2155540800829678
1589996049.887938,0.06,-2.78491823873883,8.19765962189216,0.38333333333333336,0.4711111111111111,-0.64,0.0455036974161922,0.06916726103788728,-1.0227292426431052
1589996049.897938,0.09874431074256498,-3.038744310742565,8.946232932227694,0.35032892047855574,0.5026805494939418,-0.64,0.022995452856301776,0.06329266939761935,-0.8201631492298308
1589996049.907938,0.11293820146875433,-3.0388146044062627,8.882887626437578,0.3322222222222222,0.52,-0.64,0.04768156324919799,0.04516835986330915,-0.6215890706218385
1589996049.917938,0.10195849902990106,-3.090311257275742,8.862166003880397,0.3322222222222222,0.52,-0.64,0.021433212038170862,0.035097588874973454,-0.48850971247407815
1589996049.927938,0.09041556011173338,-3.1768832991619997,8.908337759553067,0.3322222222222222,0.52,-0.64,-0.024525372749138942,0.02754275301952526,-0.37707588360621735
1589996049.937938,0.026893019537300757,-2.9705488099402055,8.29151618114892,0.3322222222222222,0.52,-0.64,0.004833147630803222,0.006131991898347764,-0.13344262196266318
1589996049.947938,0.04785089691700395,-3.124239910724696,8.84340695214777,0.3322222222222222,0.52,-0.64,-0.030221148967598605,0.001559692342034482,0.0014402149485786275
1589996049.957938,-0.2097861793575545,-6.651413930798434,7.518814839585342,0.3144444444444445,0.5277777777777778,-0.6666666666666666,0.010808681031032363,-0.022746344134591645,0.26538432161690517
1589996049.967938,-0.6793961757799396,-14.999836371090984,5.0623504416862355,0.3144444444444445,0.5277777777777778,-0.6666666666666666,-0.07013327559062317,-0.06141309405518158,0.5915445347790718
1589996049.977938,0.6424344801654446,-7.9252859560067686,6.747879676630945,0.3144444444444445,0.5277777777777778,-0.6666666666666666,-0.42539541675265896,-0.33801136017462263,2.623809078640692
1589996049.987938,0.4575826119333518,-0.7410639486177046,7.033382357504111,0.3144444444444445,0.5277777777777778,-0.6666666666666666,-0.3195615668168777,-0.4543900995386748,4.813319647847257
1589996049.997938,-1.180142813849534,-2.414935222365331,4.899896961891052,0.3245093904420369,0.5281803756176815,-0.6638484817873408,0.478163553664184,-0.12496661246344919,5.123901360009582
1589996050.007938,-0.9645626708317064,-3.083688402967591,8.057871534556813,0.3422222222222222,0.5288888888888889,-0.6588888888888889,0.17097824800485112,-0.16127713760423307,5.077526929637587
1589996050.017938,6.518559906801684,-10.147159243659825,8.95363518236401,0.3422222222222222,0.5288888888888889,-0.6588888888888889,-0.5276729928909127,-0.5679041596412743,4.906775240883155
1589996050.027938,3.6934397332062883,-5.931746863585834,9.001966015562967,0.3422222222222222,0.5288888888888889,-0.6588888888888889,-0.4534636860006379,-0.4301356654321522,2.762765358198056
1589996050.0379379,-2.4920955895397934,0.4230089060781322,11.860516623496434,0.3422222222222222,0.5288888888888889,-0.6588888888888889,-0.1084340294829535,-0.04353867431154479,0.07270975679054525
1589996050.0479379,-1.958938332165382,0.24233707077785566,7.793160476524177,0.39011796309273533,0.500151444366581,-0.6588888888888889,0.5450152161153359,0.356476543475889,-1.1310554542594173
1589996050.0579379,-1.1992651688300486,-0.8501517961102245,4.919169433783259,0.4477777777777778,0.4655555555555556,-0.6588888888888889,0.4211748031992807,0.07917496219447201,-0.8170557765258819
1589996050.0679379,-0.9076606538895153,-2.1856170142803455,8.371144071777527,0.4477777777777778,0.4655555555555556,-0.6588888888888889,-0.3077040559144202,-0.05918807447459715,-0.6072842715311616
1589996050.0779378,-0.7401074939916976,-2.564955210836793,8.945474765129998,0.4477777777777778,0.4655555555555556,-0.6588888888888889,-0.339738901631804,0.003309623969930474,-0.37004178514379654
1589996050.0879378,-0.4874397411345176,-2.8286072772898367,8.186041075084198,0.4477777777777778,0.4655555555555556,-0.6588888888888889,0.0651468664128277,0.019990520402205062,-0.1292496529629133
1589996050.0979378,-0.24309933071284393,-3.456991394879422,7.69139445447785,0.4411779690026795,0.4585890907373963,-0.6658553537070482,0.10254226543485065,0.03275878523571863,-0.06000454669413954
1589996050.1079378,-0.43189588209573293,-3.48706191002855,8.741288356182,0.42777777777777776,0.4444444444444444,-0.68,-0.16760905784577385,-0.03201137609814917,-0.538378061107861
1589996050.1179378,-1.1269420035149385,-2.674200351493849,8.484718804920915,0.42777777777777776,0.4444444444444444,-0.68,0.1298654176128316,0.12304437029451455,-1.45202996861135
1589996050.1279378,-2.912,-7.4079999999999995,7.484,0.42777777777777776,0.4444444444444444,-0.68,0.26289021858164596,0.22274764578577633,-1.1999138607461015
1589996050.1379378,-3.554046947761903,-11.90168276998131,9.732329648050179,0.42777777777777776,0.4444444444444444,-0.68,-0.013564320267498216,0.10692401634036128,-0.5791820759167707
1589996050.1479378,3.0431590969657747,-4.978670194540679,8.712923820763697,0.4303638701708523,0.4499398907797278,-0.68,-0.11570621970149257,-0.1545024530738946,0.6597661186308152
1589996050.1579378,-0.1550996046520554,-3.360741565270794,8.929867193797259,0.43666666666666665,0.4633333333333333,-0.68,-0.05864619136952619,-0.12904733737063656,0.30465359182617424
1589996050.1679378,0.060481034066199535,-3.591779898526214,8.229350567769993,0.43666666666666665,0.4633333333333333,-0.68,0.02254799146643212,0.08151779228244081,-0.30122278711367656
1589996050.1779377,0.2789406444029947,-4.184599483864374,8.630826839052558,0.43666666666666665,0.4633333333333333,-0.68,-0.012588243531671994,-0.004563444882249024,-0.06239723768079439
1589996050.1879377,-0.18842930901465846,-4.521006903918814,8.775275860022552,0.43666666666666665,0.4633333333333333,-0.68,-0.0017238885393380324,-0.019580035995453243,0.06402160978333973
1589996050.1979377,-0.11534938735897124,-4.765132233410166,8.646746936794855,0.4299491150740696,0.45661578174073625,-0.6779330610484317,-0.0022815738834188262,-0.002967594358544587,0.0008884256288111073
1589996050.2079377,-0.12252275615704325,-4.597477243842957,8.536514958953045,0.4222222222222222,0.4488888888888889,-0.6755555555555556,-0.011533869097563385,-0.004903773897915233,-0.0025419620769458516
1589996050.2179377,-0.12155932722884182,-4.58,8.542937818474387,0.4222222222222222,0.4488888888888889,-0.6755555555555556,-0.0012609269966170097,-0.0007555698906843962,0.0013410435672482387
1589996050.2279377,-0.08,-4.58,8.82,0.4222222222222222,0.4488888888888889,-0.6755555555555556,0.003272492347489368,0.0,0.004363323129985824
1589996050.2379377,-0.09853144463010785,-4.619710238493089,8.774995063041167,0.4222222222222222,0.4488888888888889,-0.6755555555555556,-0.00019287969479354038,-0.0005775620070471514,0.0032081991158915213
1589996050.2479377,-0.1356980100258241,-4.699352878626766,8.684733404223,0.4222222222222222,0.4488888888888889,-0.6755555555555556,-0.0071430111713618,-0.0017359172531418612,0.0008914886237021014
1589996050.2579377,-0.10659389421370252,-4.640218317358892,8.510899538516153,0.4222222222222222,0.4488888888888889,-0.6522222222222223,-0.01308996938995747,-0.0011651404832991076,0.0008679016800885008
1589996050.2679377,-0.08807323036555549,-4.745688273997654,8.5976150436321,0.4222222222222222,0.4488888888888889,-0.6522222222222223,-0.006284826312876991,-0.001841404411138888,-0.001501147257284864
1589996050.2779377,-0.15,-4.665840145322434,8.494665455646382,0.4222222222222222,0.4488888888888889,-0.6522222222222223,0.009634185766571787,-0.0012420873669298125,-0.0001512565844333566
1589996050.2879376,-0.15,-4.642030540417801,8.69307882985165,0.4222222222222222,0.4488888888888889,-0.6522222222222223,0.014828635756382057,-0.002107829031898191,-0.0010169982494017348
1589996050.2979376,-0.11518801772658427,-4.618019970455693,8.649623964546832,0.4202617849997195,0.4501364398486633,-0.6559648751015456,0.007017979235177886,0.001090830782496456,0.003663448678163269
1589996050.3079376,-0.0916593429196507,-4.657234428467249,8.696681314160697,0.4106760285968947,0.45623646665046086,-0.6742649555069383,-0.006670448898556511,0.001090830782496456,0.00024134164472967064
1589996050.3179376,-0.13,-4.646913134075666,8.529329296086475,0.41,0.4566666666666666,-0.6755555555555556,-0.0046634667434154505,0.0,0.0007906871690668294
1589996050.3279376,-0.13,-4.69470909031712,8.583953246076707,0.41,0.4566666666666666,-0.6755555555555556,-0.0024290110142569793,0.0,0.0030251428982253008
1589996050.3379376,-0.13,-4.617461041209742,8.632556273808149,0.41,0.4566666666666666,-0.6755555555555556,0.005998624916004694,-0.0013640106719834768,0.0021797727895412847
1589996050.3479376,-0.13,-4.56014354718008,8.717827743383904,0.41202870943601605,0.4566666666666666,-0.6746539069173262,0.003146184844134788,-0.0022923105000702787,-0.001090830782496456
1589996050.3579376,-0.1243030636580444,-4.6585454045129335,8.612848468170977,0.43,0.4566666666666666,-0.6666666666666666,-0.009189413859407174,-0.0035832120238757648,-0.0014015504588828524
1589996050.3679376,-0.11317256162915328,-4.688460164344408,8.603079671311182,0.43,0.4566666666666666,-0.6666666666666666,-0.011821035832326724,-0.004247965533837574,-0.0020663039688446623
1589996050.3779376,-0.12759103915478492,-4.693818875492186,8.505499523099123,0.43,0.4566666666666666,-0.6666666666666666,0.0025187896091712417,-0.003272492347489368,0.00026277686437893057
1589996050.3879375,-0.11325471441769469,-4.629292429759252,8.599292429759252,0.43,0.4566666666666666,-0.6666666666666666,0.009766021082509029,-0.003627526614995008,0.002181661564992912
1589996050.3979375,-0.12,-4.678109382565312,8.667927078289793,0.42735764057006925,0.4573272565241493,-0.6675474531433102,0.013099912545733335,-0.00371479055395347,0.002073572802320853
1589996050.4079375,-0.12,-4.572154811275078,8.73856345914995,0.40381218028335053,0.463213621595829,-0.6753959399055498,0.003468370219933103,0.0020641348415266717,0.0011104185697408296
1589996050.4179375,-0.1263658803530261,-4.680927042824209,8.617292923177235,0.4033333333333333,0.4633333333333333,-0.6755555555555556,-0.006941405652798164,0.0003964209578194279,-0.00029798886685760014
1589996050.4279375,-0.1175013685507048,-4.644991788695771,8.56499726289859,0.4033333333333333,0.4633333333333333,-0.6755555555555556,-0.006000465018072232,0.0005457139626954694,0.001090830782496456
1589996050.4379375,-0.11032622827425756,-4.688042630354455,8.579347543451485,0.4033333333333333,0.4633333333333333,-0.6755555555555556,-0.0013043466887049616,-0.001019658813760287,0.001090830782496456
1589996050.4479375,-0.13,-4.600910093670664,8.690910093670665,0.4050523991556995,0.4633333333333333,-0.6747465834038539,0.006048605599520749,-0.002181661564992912,0.0017845582886265227
1589996050.4579375,-0.13,-4.608253698678106,8.698253698678105,0.4189236530586439,0.4633333333333333,-0.6682189345083506,0.0020432904012148007,-0.002181661564992912,-0.001419693870018236
1589996050.4679375,-0.12,-4.662797819091884,8.569741329996425,0.4222222222222222,0.4633333333333333,-0.6666666666666666,-0.00674844784093097,-0.001090830782496456,0.00010173157297611746
1589996050.4779375,-0.12,-4.685291383625313,8.487264926707187,0.4222222222222222,0.4633333333333333,-0.6666666666666666,-0.008384226014339939,-0.001090830782496456,0.0009196206596806017
1589996050.4879375,-0.1348632491691814,-4.689726498338363,8.570273501661637,0.4222222222222222,0.4633333333333333,-0.6666666666666666,0.003944891458881909,0.001090830782496456,0.0009787642639310327
1589996050.4979374,-0.09480919821230757,-4.609618396424615,8.650381603575385,0.4222222222222222,0.4633333333333333,-0.6666666666666666,0.009187954468574663,0.001090830782496456,0.00010492042898224067
1589996050.5079374,-0.13310637601585368,-4.638446811992073,8.712234059960366,0.4444444444444444,0.4566666666666666,-0.68,0.008292638281422253,0.0,0.001673381977977628
1589996050.5179374,-0.14835754413395633,-4.630821227933022,8.67410613966511,0.4444444444444444,0.4566666666666666,-0.68,0.0008062386379075401,0.0,-0.0008220845698606095
1589996050.5279374,-0.11811687061253785,-4.68058435306269,8.551298776324773,0.4444444444444444,0.4566666666666666,-0.68,-0.006814145276168231,-0.0006162526509802204,0.0012962483328231961
1589996050.5379374,-0.11077429406718835,-4.643871470335942,8.59535423559687,0.4444444444444444,0.4566666666666666,-0.68,-0.0036103418687667395,-0.0030191052065313396,0.002097199184673569
1589996050.5479374,-0.13808364729289252,-4.666806078821487,8.661916352707108,0.4430249239206611,0.4570925228238016,-0.6791482876857301,0.002181661564992912,-0.0001393611015355503,6.968055076777515e-05
1589996050.5579374,-0.11145091647970198,-4.622418194132837,8.688549083520298,0.42329697517014964,0.4630109074489551,-0.667311518435423,0.002181661564992912,-0.0020761479410668906,0.0010380739705334453
1589996050.5679374,-0.11234353546413613,-4.624687070928272,8.678442219789005,0.4222222222222222,0.4633333333333333,-0.6666666666666666,-0.0012782003120759,-0.001090830782496456,-0.00025564006241517997
1589996050.5779374,-0.11963327945495941,-4.6392665589099185,8.518067851990892,0.4222222222222222,0.4633333333333333,-0.6666666666666666,-0.005254138882930207,-0.001090830782496456,-0.0010508277765860414
1589996050.5879374,-0.12253520592142722,-4.677464794078572,8.560140823685709,0.4222222222222222,0.4633333333333333,-0.6666666666666666,-0.002427486668643755,-0.0005377346506844362,-0.00026118658477842637
1589996050.5979373,-0.12915386609631213,-4.667461598288936,8.599307472940566,0.42184616270947206,0.46276924406420805,-0.6685469642304175,0.003918584583268995,0.0009062330008451341,0.002089362674167251
1589996050.6079373,-0.11732766189928001,-4.63465532379856,8.69732766189928,0.4177777777777778,0.4566666666666666,-0.6888888888888889,0.009742280360363169,-0.001090830782496456,0.0016738445147971512
1589996050.6179373,-0.11242591773551526,-4.62,8.676657452454666,0.4177777777777778,0.4566666666666666,-0.6888888888888889,0.005751104972467494,-0.001223144069581663,0.003007865773318954
1589996050.6279373,-0.13,-4.6373073645539415,8.576153918988012,0.4177777777777778,0.4566666666666666,-0.6888888888888889,-0.0012586270679551775,-0.0019718903870003823,0.0008810596045039263
1589996050.6379373,-0.13,-4.708791637472305,8.560268525006155,0.4177777777777778,0.4566666666666666,-0.6888888888888889,-0.006457110092203727,-0.001105476549625624,1.464576712916811e-05
1589996050.6479373,-0.13,-4.664273864442867,8.660597498225693,0.4177777777777778,0.4566666666666666,-0.6888888888888889,-0.00355221612115917,-0.001090830782496456,0.000997589524606522
1589996050.6579373,-0.12192054642261702,-4.654238360732149,8.67576163926785,0.4222222222222222,0.4711111111111111,-0.6588888888888889,0.0024344958846877307,-0.004153824014285414,-0.0011341659864908653
1589996050.6679373,-0.12943977339954466,-4.631680679801366,8.698319320198634,0.4222222222222222,0.4711111111111111,-0.6588888888888889,-0.000846385814116439,-0.003333603589584372,0.0029669361370143472
1589996050.6779373,-0.11,-4.6681061686575145,8.553787662684972,0.4222222222222222,0.4711111111111111,-0.6588888888888889,-0.0037435682724139604,-0.001090830782496456,0.00041316990504790886
1589996050.6879373,-0.11,-4.661874665715814,8.566250668568372,0.4222222222222222,0.4711111111111111,-0.6588888888888889,-0.0017043137034066127,-0.001090830782496456,0.0017726729510528073
1589996050.6979373,-0.12,-4.679121660953366,8.602049457775477,0.42166919393360114,0.470688207125695,-0.6588888888888889,0.006608859312947827,-0.002181661564992912,6.387461796909157e-05
1589996050.7079372,-0.12,-4.65199340275532,8.665348726904254,0.404588438771868,0.45762645317848727,-0.6588888888888889,0.008581681920810573,-0.002181661564992912,0.002036697225831837
1589996050.7179372,-0.12161208482964392,-4.65,8.650654982044273,0.4033333333333333,0.4566666666666666,-0.6588888888888889,0.004399046858779592,-0.0020058103893757975,0.0009149796068793414
1589996050.7279372,-0.12910578692537206,-4.65,8.560730556895535,0.4033333333333333,0.4566666666666666,-0.6588888888888889,-0.0005055696937474857,-0.0011883742972879508,9.754351479149487e-05
1589996050.7379372,-0.11,-4.645241127501095,8.608735212501825,0.4033333333333333,0.4566666666666666,-0.6588888888888889,-0.004882435591163924,-0.0005717183213183559,0.002181661564992912
1589996050.7479372,-0.11,-4.6636183730100775,8.639363955016796,0.4033333333333333,0.4566666666666666,-0.6588888888888889,-0.0028777890812946884,-0.0025763648311875917,0.002181661564992912
1589996050.7579372,-0.11,-4.648103293143783,8.666422530142164,0.4069827844760362,0.45240897366684657,-0.6704454841741148,0.0008040386692649785,-0.002078212253786212,0.000987381471289756
1589996050.7679372,-0.11733252316572991,-4.63,8.68,0.41,0.4488888888888889,-0.68,0.003272492347489368,-0.0018906849807511106,0.0015997083965093096
1589996050.7779372,-0.1170228546092144,-4.606946672578499,8.570992381796929,0.41,0.4488888888888889,-0.68,-0.0013073349049122144,0.00010825206120787918,-0.0009825787212885768
1589996050.7879372,-0.0916633076706034,-4.666118948768592,8.579445564109799,0.41,0.4488888888888889,-0.68,-0.003151533200298923,0.0010303512089012334,-6.0479573595222536e-05
1589996050.7979372,-0.11449857270851999,-4.67,8.60449857270852,0.41,0.4488888888888889,-0.68,0.0020722671000468693,-0.0006907557000156231,0.001781586482512079
1589996050.8079371,-0.12743677364238626,-4.683591934105966,8.628971292251647,0.4177777777777778,0.4566666666666666,-0.6888888888888889,0.005314351601812712,-0.001090830782496456,0.00013980231066956786
1589996050.8179371,-0.1139152790986315,-4.649788197746578,8.67629652315479,0.4177777777777778,0.4566666666666666,-0.6888888888888889,0.004576868478128435,-0.001090830782496456,0.0008772854343538447
1589996050.8279371,-0.14,-4.638047492958696,8.583254178402173,0.4177777777777778,0.4566666666666666,-0.6888888888888889,0.0017556906082539555,-0.001090830782496456,0.0
1589996050.837937,-0.14,-4.616825932234834,8.618623446275278,0.4177777777777778,0.4566666666666666,-0.6888888888888889,-0.002874135729787519,-0.001090830782496456,0.0
1589996050.847937,-0.1495332551516167,-4.6671995309097,8.63,0.4177777777777778,0.4566666666666666,-0.6888888888888889,-0.007483073583018744,-5.091396481881607e-05,-0.00103991681767764
1589996050.857937,-0.1331955409129525,-4.67,8.63,0.4177777777777778,0.4688032204517565,-0.6888888888888889,-0.0021365691008690766,0.0,-0.0029239129080318284
1589996050.867937,-0.12170346749126282,-4.65,8.62807572756116,0.4177777777777778,0.4711111111111111,-0.6888888888888889,0.002367481042638062,-0.0009050113048513058,0.001090830782496456
1589996050.877937,-0.12845855276932244,-4.65,8.580790130614742,0.4177777777777778,0.4711111111111111,-0.6888888888888889,0.003104346538607669,-0.000168145808881699,0.001090830782496456
1589996050.887937,-0.11876657163932137,-4.642466856721357,8.602466856721357,0.4177777777777778,0.4711111111111111,-0.6888888888888889,-0.0023162077273761496,0.002181661564992912,-0.0009562846201132185
1589996050.897937,-0.11040489623412611,-4.659190207531748,8.619190207531746,0.4177777777777778,0.4711111111111111,-0.6888888888888889,-0.0032283250198992027,0.002181661564992912,-4.4167327590165836e-05
1589996050.907937,-0.12646143554421346,-4.68,8.617077128911573,0.4222222222222222,0.4488888888888889,-0.6755555555555556,0.003465491099200356,0.0037843268748528596,0.00019299875171098813
1589996050.917937,-0.11197464629315224,-4.674076061120543,8.64012676853424,0.4222222222222222,0.4488888888888889,-0.6755555555555556,0.004363323129985824,0.0008754302863851581,0.0008754302863851581
1589996050.927937,-0.12134729544605422,-4.6459581136618375,8.602694590892108,0.4222222222222222,0.4488888888888889,-0.6755555555555556,0.003775454591716531,0.00014696713456732318,0.00014696713456732318
1589996050.937937,-0.13,-4.62,8.620167265599477,0.4222222222222222,0.4488888888888889,-0.6755555555555556,-3.64916929525113e-05,0.001078666884845619,0.001090830782496456
1589996050.947937,-0.13,-4.62,8.647572035282588,0.4222222222222222,0.4488888888888889,-0.6755555555555556,-0.0060152849644649386,-0.0009142642056585235,0.001090830782496456
1589996050.957937,-0.13,-4.652209466433552,8.641947633391613,0.4123804408119703,0.4488888888888889,-0.6862920443667394,-0.003909853884465896,-0.00460433852984691,0.00021245384565884257
1589996050.967937,-0.11147814085492681,-4.659260929572537,8.599260929572536,0.41,0.4488888888888889,-0.6888888888888889,0.0013326910143094252,0.0009295906279544765,-0.0008489705506834868
1589996050.977937,-0.12778473261668255,-4.651107633691659,8.591107633691658,0.41,0.4488888888888889,-0.6888888888888889,0.004000850852008365,-0.0008491825971781502,0.001819189287015453
1589996050.987937,-0.1306317623248307,-4.631263524649661,8.593158811624154,0.4104913706970905,0.44938025958597944,-0.6883273223779283,0.001090830782496456,0.0,6.891457911468544e-05
1589996050.997937,-0.1342135421559167,-4.638427084311833,8.611067710779583,0.41327719945460184,0.45216608834349076,-0.6851435180836296,0.001090830782496456,0.0,0.00045962614870204035
1589996051.007937,-0.13779532198700267,-4.645590643974006,8.628976609935014,0.4160630282121132,0.454951917101002,-0.681959713789331,0.001090830782496456,0.0,0.0008503377182893954
1589996051.017937,-0.12672593324278716,-4.663274066757213,8.646637033378607,0.4177777777777778,0.4566666666666666,-0.68,0.00036684275111242305,-0.0014479760627680658,0.001090830782496456
1589996051.027937,-0.12914115577209365,-4.651717688455813,8.57687075382325,0.4177777777777778,0.4566666666666666,-0.68,0.003988581641517965,-0.0031788069753724037,0.002087976192875947
1589996051.037937,-0.12,-4.6291540028785585,8.641691994242883,0.4177777777777778,0.4566666666666666,-0.68,0.0048081661211020164,-0.001997093624598551,0.003994187249197102
1589996051.047937,-0.12,-4.621314043253145,8.65737191349371,0.4177777777777778,0.4566666666666666,-0.68,-0.00117828238394933,-0.000286679766012452,0.000573359532024904
1589996051.057937,-0.13,-4.641105374604458,8.647789250791083,0.4222222222222222,0.4566666666666666,-0.6888888888888889,-0.004725056123405814,0.0,0.002061083900519582
1589996051.067937,-0.12772855256272894,-4.653407171155907,8.619778486532281,0.4222222222222222,0.4566666666666666,-0.6888888888888889,-0.006644709563316002,-0.0002477764785397975,0.001090830782496456
1589996051.077937,-0.1136644032685004,-4.6763355967315,8.547328806537,0.4222222222222222,0.4566666666666666,-0.6888888888888889,0.001224072245321818,-0.0017819371765168254,0.0009575893196710939
1589996051.0879369,-0.1378000920704339,-4.652199907929567,8.595600184140867,0.4222222222222222,0.4566666666666666,-0.6888888888888889,0.0021016706553852863,0.0008508580536735789,7.99909096076256e-05
1589996051.0979369,-0.12284158170728962,-4.632841581707289,8.642896045731776,0.4222222222222222,0.4566666666666666,-0.6888888888888889,0.002181661564992912,0.001090830782496456,0.0
1589996051.1079369,-0.11266555507523827,-4.644668889849524,8.657334444924762,0.4222222222222222,0.450962098391852,-0.6725901223894184,-0.0002185299239435873,0.0018908946121419556,0.0016001276592909992
1589996051.1179368,-0.13,-4.679155749360128,8.650713242961418,0.4222222222222222,0.4488888888888889,-0.6666666666666666,0.0002762803758341105,-9.209345861137015e-05,0.001182924241107826
1589996051.1279368,-0.13,-4.671203715992037,8.56324087591241,0.4222222222222222,0.4488888888888889,-0.6666666666666666,0.0028785772102401506,-0.0009595257367467167,0.0020503565192431725
1589996051.1379368,-0.13,-4.649208375708267,8.596332994333865,0.4222222222222222,0.4488888888888889,-0.6666666666666666,0.001177183597055915,-0.001004477967936997,0.000918125153377538
1589996051.1479368,-0.13,-4.641591239285195,8.657270085718437,0.4222222222222222,0.4488888888888889,-0.6666666666666666,0.002008084285532031,-0.00017357727946088093,-0.0007436762235746941
1589996051.1579368,-0.11,-4.651022243652907,8.668977756347093,0.41,0.4633333333333333,-0.6588888888888889,-0.0034397565740597173,5.575474219011635e-05,0.0020143973384225628
1589996051.1679368,-0.11,-4.668608775865322,8.651391224134677,0.41,0.4633333333333333,-0.6588888888888889,-0.006317346178259942,0.001014951276923525,-0.0008631922657776629
