time,acc_x,acc_y,acc_z,mag_x,mag_y,mag_z,gyr_x,gyr_y,gyr_z
1589996237.5965257,-4.08,-0.38,8.85,0.29444444444444445,-0.3322222222222222,-0.5822222222222222,-0.002181661564992912,-0.001090830782496456,-0.004363323129985824
1589996237.6065257,-4.047938388625592,-0.38,8.882061611374407,0.29444444444444445,-0.3322222222222222,-0.5822222222222222,0.001315717697371318,-0.004588210044860686,-0.002614633498803709
1589996237.6165257,-4.001139535521373,-0.3854418579145074,8.966581393435881,0.3022222222222222,-0.3244444444444444,-0.5688888888888889,0.0031481883050431705,-0.0035211004323817633,0.0
1589996237.6265256,-4.020449599782933,-0.3473876000542667,8.9243256003256,0.3022222222222222,-0.3244444444444444,-0.5688888888888889,0.002181661564992912,-0.004884216657082693,-0.0002849686276997932
1589996237.6365256,-4.043565932144106,-0.34,8.892868135711788,0.3022222222222222,-0.3244444444444444,-0.5688888888888889,-0.00027480618086501334,-0.0015178725290194213,-0.0007399068188024666
1589996237.6465256,-4.032962892586661,-0.3444443388799913,8.918518553706669,0.3022222222222222,-0.3244444444444444,-0.5688888888888889,-0.005938956078296314,0.0023432622869309235,-0.00016160072193801157
1589996237.6565256,-4.044348380792095,-0.361522571188143,8.912825809603952,0.3022222222222222,-0.3244444444444444,-0.5688888888888889,-0.007801902229532051,0.0029642443373428355,-0.0007825827723499236
1589996237.6665256,-4.033630657160571,-0.37,8.926369342839429,0.3022222222222222,-0.32080681270234895,-0.5688888888888889,-0.007833837107047258,0.0005940648887162001,0.0006947875233523227
1589996237.6765256,-4.0313005655527,-0.38130056555269926,8.87439321336761,0.3022222222222222,-0.32,-0.5688888888888889,-0.00545415391248228,0.002181661564992912,-0.001090830782496456
1589996237.6865256,-4.039926375321337,-0.3899263753213368,8.77088349614396,0.3022222222222222,-0.32,-0.5688888888888889,-0.00545415391248228,0.002181661564992912,-0.001090830782496456
1589996237.6965256,-4.024382789047576,-0.3421913945237879,8.85972255071409,0.3022222222222222,-0.32,-0.5688888888888889,-0.006544984694978735,0.00047808812062839306,-0.00460236719030002
1589996237.7065256,-4.03964450104612,-0.3498222505230601,8.92840025470754,0.3022222222222222,-0.32,-0.5688888888888889,-0.006544984694978735,0.002142882644789181,-0.005434764452380414
1589996237.7165256,-4.021691991419377,-0.359154004290311,8.975770021451556,0.3083248917490962,-0.3240684463512493,-0.574991558415763,-0.0055464377286811445,-0.0008139793338998625,-0.0014599660472919135
1589996237.7265255,-4.036117176418086,-0.3738828235819135,8.960585882090433,0.3088888888888889,-0.3244444444444444,-0.5755555555555556,-0.004818828389559117,0.0015143811311118978,-0.006089479435405443
1589996237.7365255,-4.022747398116124,-0.3872526018838755,8.893736990580623,0.3088888888888889,-0.3244444444444444,-0.5755555555555556,-0.00263120353051912,0.0029727977038052295,-0.00827710429444544
1589996237.7465255,-3.987732588514247,-0.3811337057428767,8.879069645943012,0.3088888888888889,-0.3244444444444444,-0.5755555555555556,-0.005825158249269142,0.000618340561311438,-0.012021320835325148
1589996237.7565255,-3.970876502029498,-0.389561748985251,8.946493991882008,0.3088888888888889,-0.3244444444444444,-0.5755555555555556,-0.008583228950767085,0.005215125063808007,-0.02029553293981897
1589996237.7665255,-4.012254962258876,-0.3654900754822477,8.917745037741124,0.29444444444444445,-0.3322222222222222,-0.5822222222222222,-0.006651902579335252,0.004117344905450839,-0.037227306945057964
1589996237.7765255,-4.020351541209956,-0.35046872161327436,8.908945376370133,0.29444444444444445,-0.3322222222222222,-0.5822222222222222,-0.003272492347489368,0.003246927549280313,-0.0414387873357608
1589996237.7865255,-4.055124382676385,-0.3917081275587949,8.835373148029154,0.29444444444444445,-0.3322222222222222,-0.5822222222222222,-0.0034588201596457693,0.0012771585946528574,-0.039242772079430464
1589996237.7965255,-4.078225412620022,-0.3994084708733408,8.904676237860068,0.29444444444444445,-0.3322222222222222,-0.5822222222222222,-0.004298797311975514,0.0021171357469826017,-0.034202909165451996
1589996237.8065255,-4.041839952695378,-0.3904599881738445,8.929080023652311,0.29444444444444445,-0.3322222222222222,-0.5822222222222222,-0.0012413615603806246,0.002181661564992912,-0.024449869548574536
1589996237.8165255,-4.05649252042223,-0.4064925204222309,8.954738780633347,0.3063557091938334,-0.32214345974197,-0.5886359801642009,0.003406806456883775,-0.0005169207786352272,-0.02399827721492203
1589996237.8265254,-4.048504776628215,-0.40252388314107895,8.884019106512863,0.3088888888888889,-0.32,-0.59,0.002181661564992912,0.0,-0.019145643380741106
1589996237.8365254,-4.040191659729655,-0.36095829864827367,8.85076663891862,0.3088888888888889,-0.32,-0.59,0.002181661564992912,0.0,-0.016425182237308537
1589996237.8465254,-4.021794638881468,-0.3564107222370647,8.88,0.3088888888888889,-0.32,-0.59,0.0008950660489594662,0.0,-0.017257527786406306
1589996237.8565254,-4.02926511710749,-0.341469765785021,8.88,0.3088888888888889,-0.32,-0.59,8.016328806804496e-05,0.0,-0.016442625025514884
1589996237.8665254,-4.02243462640411,-0.38243462640411113,8.881623084269409,0.2888888888888889,-0.3388888888888889,-0.5611111111111111,-0.0003541020567310793,0.002093136050810142,-0.014180800172453925
1589996237.8765254,-4.049417571569595,-0.41,8.896796643632774,0.2888888888888889,-0.3388888888888889,-0.5611111111111111,-0.0042680235009128365,0.0011225973255207852,-0.014212566715478254
1589996237.8865254,-4.033492672184677,-0.41,8.809209697015717,0.2888888888888889,-0.3388888888888889,-0.5611111111111111,-0.0016623179323285368,0.0019911658483822182,-0.015081135238339689
1589996237.8965254,-4.046795736976381,-0.39679573697638054,8.91320426302362,0.2888888888888889,-0.3388888888888889,-0.5611111111111111,0.002531192439130839,0.0008578101997378379,-0.017336782228563986
1589996237.9065254,-4.029536663649082,-0.3795366636490824,8.930463336350916,0.2888888888888889,-0.3388888888888889,-0.5611111111111111,0.004413865285408876,-0.00039730503111418667,-0.016709224613137973
1589996237.9165254,-4.02,-0.3917101762233448,8.94723672540778,0.2888888888888889,-0.3284358410776488,-0.5763886425275389,0.0022965367767693286,-0.0003014264985682182,-0.016362461737446838
1589996237.9265254,-4.03,-0.3639084168978024,8.939838116065713,0.2888888888888889,-0.3244444444444444,-0.5822222222222222,0.0008350254947193241,-0.003187223918230324,-0.015442167813468471
1589996237.9365253,-4.028731605006189,-0.41,8.823805184981433,0.2888888888888889,-0.3244444444444444,-0.5822222222222222,-0.0020433011346315645,-0.0019049407042702172,-0.017453292519943295
1589996237.9465253,-4.021520939348095,-0.41,8.845437181955715,0.2888888888888889,-0.3244444444444444,-0.5822222222222222,-0.0012567395284176866,-0.0003318174918424614,-0.017453292519943295
1589996237.9565253,-4.055515302399451,-0.41,8.885515302399451,0.2888888888888889,-0.3244444444444444,-0.5822222222222222,-0.001090830782496456,-0.0015496474042796372,-0.015128821413523837
1589996237.9665253,-4.02,-0.38782479753621535,8.936737196304323,0.29444444444444445,-0.3244444444444444,-0.5755555555555556,-0.003272492347489368,-0.002063022674709991,-0.007754454367758113
1589996237.9765253,-4.02,-0.36576043629152205,8.890921963311849,0.29444444444444445,-0.3244444444444444,-0.5755555555555556,-0.0030412600176112398,-0.0013220631123745843,-0.009420343249606031
1589996237.9865253,-4.019372851013043,-0.35188144696087065,8.821254297973914,0.29444444444444445,-0.3244444444444444,-0.5755555555555556,-0.0020448388809561025,-0.0019080161969192932,-0.012341195317553039
1589996237.9965253,-4.01,-0.38310193199916903,8.85395869399626,0.29444444444444445,-0.3244444444444444,-0.5755555555555556,0.00033836829099043517,0.0018432932740024767,-0.018130029101924166
1589996238.0065253,-4.01,-0.3976241257530642,8.91930856588879,0.29444444444444445,-0.3244444444444444,-0.5755555555555556,0.0019224938886030953,0.0002591676763898166,-0.021298280297149485
1589996238.0165253,-4.019155705188433,-0.41831141037686603,8.9574671155653,0.29444444444444445,-0.33156554847989234,-0.5755555555555556,0.002181661564992912,0.0029961975165015797,-0.029806475693933333
1589996238.0265253,-4.028640371436863,-0.4286403714368624,8.968640371436862,0.29444444444444445,-0.3322222222222222,-0.5755555555555556,0.0031241798785461793,-0.0004975809067237005,-0.030543261909900768
1589996238.0365252,-4.031121837812279,-0.39887816218772165,8.841121837812278,0.29444444444444445,-0.3322222222222222,-0.5755555555555556,0.008481899216251306,-0.0002447470437203413,-0.029330057605544142
1589996238.0465252,-4.039385491370479,-0.39061450862952163,8.849385491370478,0.29444444444444445,-0.3322222222222222,-0.5755555555555556,0.006679049680817117,-0.0020475965791545304,-0.02842863283782704
1589996238.0565252,-4.04,-0.3839656190742641,8.868103142777208,0.29444444444444445,-0.3322222222222222,-0.5755555555555556,0.006544984694978735,-0.0015234127182826877,-0.027045102651487404
1589996238.0665252,-4.052139954186064,-0.39213995418606373,8.898209931279096,0.29916553773902477,-0.3322222222222222,-0.5755555555555556,0.008531380053616984,-0.005063621499772952,-0.024193543421276695
1589996238.0765252,-4.039838492273624,-0.38032301545275116,8.859515476820873,0.3022222222222222,-0.3322222222222222,-0.5755555555555556,0.008603321940292596,-0.001108448542450606,-0.012931409550370119
1589996238.0865252,-4.030210576126819,-0.40021057612681893,8.831263456760913,0.3022222222222222,-0.3322222222222222,-0.5755555555555556,0.0011597416588543298,-0.0022276021492314943,-0.0032954626396086593
1589996238.0965252,-4.038480421152253,-0.40848042115225364,8.880882526913522,0.3022222222222222,-0.3322222222222222,-0.5755555555555556,0.003866042114920156,-0.004031802453275378,-0.0041975627916306015
1589996238.1065252,-4.02412133017949,-0.40206066508974536,8.882060665089746,0.3022222222222222,-0.3322222222222222,-0.5755555555555556,0.00696146440378217,-0.005229370221251272,-0.004363323129985824
1589996238.1165252,-4.004757227832342,-0.40762138608382903,8.940971088670633,0.28697945005456416,-0.3262944774903552,-0.5645468867678025,0.00680445122292211,-0.0046227896579291985,-0.007688780148198149
1589996238.1265252,-4.022028526148969,-0.39797147385103016,8.957828843106181,0.2822222222222222,-0.3244444444444444,-0.5611111111111111,0.009485560227508802,-0.0053435149741625125,-0.012552333299059852
1589996238.1365252,-4.04,-0.38,8.853444483949614,0.2822222222222222,-0.3244444444444444,-0.5611111111111111,0.006044004812038216,-0.003862343247045304,-0.017453292519943295
1589996238.1465251,-4.036331389531072,-0.3787771298436907,8.883668610468929,0.2822222222222222,-0.3244444444444444,-0.5611111111111111,0.0013812949192938456,0.00013339444094984438,-0.016652925874244228
1589996238.1565251,-4.014622511300507,-0.37154083710016905,8.905377488699493,0.2822222222222222,-0.3244444444444444,-0.5611111111111111,-0.003354847606179622,0.0009227515285287556,-0.011916783348770763
1589996238.1665251,-4.002688865019692,-0.38268886501969207,8.911344432509846,0.29444444444444445,-0.3244444444444444,-0.5688888888888889,-0.012292448280806821,0.00545415391248228,-0.009459920443336165
1589996238.176525,-4.0192023955023215,-0.4023928134930335,8.912023955023221,0.29444444444444445,-0.3244444444444444,-0.5688888888888889,-0.014093795018621465,0.0051931384509848995,-0.014528820787783765
1589996238.186525,-4.01,-0.4291941474395048,8.824835115362971,0.29444444444444445,-0.3244444444444444,-0.5688888888888889,-0.012474635244558233,0.0019179469312503809,-0.018719933058268103
1589996238.196525,-4.01,-0.4213263927968486,8.872041643218909,0.29444444444444445,-0.3244444444444444,-0.5688888888888889,-0.00646696297722111,-0.0006567697547512426,-0.02043641084893585
1589996238.206525,-4.01,-0.4252876421531463,8.890575284306292,0.29444444444444445,-0.3244444444444444,-0.5688888888888889,-0.003723777064238925,-0.000514038499748671,-0.02418653856391937
1589996238.216525,-4.01,-0.4161521794544991,8.918463760727334,0.29444444444444445,-0.32803462014142615,-0.5688888888888889,-0.0026851825290435533,0.002014083856202565,-0.030291895346715246
1589996238.226525,-4.020005058517854,-0.41000505851785424,8.95997470741073,0.29444444444444445,-0.3322222222222222,-0.5688888888888889,-0.0021813856656434497,0.004363323129985824,-0.03381685785478798
1589996238.236525,-4.039293187096181,-0.4292931870961808,8.863534064519095,0.29444444444444445,-0.3322222222222222,-0.5688888888888889,-0.0011293814461440395,0.004363323129985824,-0.03802487473278563
1589996238.246525,-4.04,-0.4159533121273748,8.881070031808939,0.29444444444444445,-0.3322222222222222,-0.5688888888888889,-0.0033892147110333387,0.005129451106164785,-0.03664682143501803
1589996238.256525,-4.04,-0.3958170700345744,8.897091464982713,0.29444444444444445,-0.3322222222222222,-0.5688888888888889,-0.002816205470758059,0.007774830401323927,-0.03522385699276916
1589996238.266525,-4.033662283764641,-0.3836622837646402,8.9,0.29092349098035564,-0.3322222222222222,-0.5731140330457954,-0.0028729991610187194,0.007343971067920034,-0.028684546675654322
1589996238.276525,-4.048909732243065,-0.38,8.918909732243065,0.2888888888888889,-0.3322222222222222,-0.5755555555555556,-0.007397955951389705,0.0013881551901033145,-0.017869546690592895
1589996238.286525,-4.019944640906481,-0.3875138397733795,8.829833922719446,0.2888888888888889,-0.3322222222222222,-0.5755555555555556,-0.004357284389655772,0.001910463554451311,-0.008437332028439892
1589996238.296525,-4.01,-0.4004465058067841,8.891786023227137,0.2888888888888889,-0.3322222222222222,-0.5755555555555556,-0.0012856556939378563,0.0001948249114414004,0.00029223736716210057
1589996238.306525,-4.01,-0.4081661237185504,8.922664494874201,0.2888888888888889,-0.3322222222222222,-0.5755555555555556,-0.004653974432844145,0.0035631436503476893,0.0053447154755215335
1589996238.316525,-4.001713700538889,-0.42742944919166653,8.971431497305556,0.2877777777777778,-0.3322222222222222,-0.5688888888888889,0.0011842986474864994,0.002181661564992912,0.009443605582507932
1589996238.326525,-4.015796330182819,-0.406305504725771,8.901018349085904,0.2877777777777778,-0.3322222222222222,-0.5688888888888889,0.0019523869431913167,0.002181661564992912,0.0063712523996886615
1589996238.336525,-3.993612101118939,-0.4090969747202652,8.844515126398674,0.2877777777777778,-0.3322222222222222,-0.5688888888888889,0.00198465201049148,0.003173987570238652,0.001090830782496456
1589996238.346525,-4.02837629506838,-0.4004059262329051,8.887970368835475,0.2877777777777778,-0.3322222222222222,-0.5688888888888889,8.855936605514127e-05,0.0022259412480204826,0.001090830782496456
1589996238.356525,-4.03,-0.3767083495145631,8.897763883495147,0.2877777777777778,-0.3322222222222222,-0.5688888888888889,-0.0025407249324663084,0.0013347532541708091,0.003631555714962764
1589996238.366525,-4.023584185556141,-0.37,8.912831628887718,0.2884906460493177,-0.3272321443214432,-0.573166098518128,-0.003272492347489368,0.001090830782496456,0.009262320653088357
1589996238.376525,-4.01106298366294,-0.3878740326741187,8.902125967325881,0.2888888888888889,-0.3244444444444444,-0.5755555555555556,-0.003272492347489368,0.00206570803491026,0.02077303387918525
1589996238.386525,-3.9873779788838615,-0.38,8.78360527903469,0.2888888888888889,-0.3244444444444444,-0.5755555555555556,-0.0022174138318159105,-0.001162335316142453,0.036319186223790025
1589996238.396525,-3.9367680241327303,-0.38,8.853193966817496,0.2888888888888889,-0.3244444444444444,-0.5755555555555556,-0.0029075000386069943,-0.0025425077297246204,0.042529962084909785
1589996238.406525,-3.889862413371382,-0.386712528876206,8.916850115504824,0.2888888888888889,-0.3244444444444444,-0.5755555555555556,-0.0018080457221769971,-0.0010758224095208115,0.05240490267875682
1589996238.416525,-3.8177594688637364,-0.3711202655681318,8.962240531136265,0.2888888888888889,-0.3244444444444444,-0.5611111111111111,0.00024440403325781495,-0.0023038635816218195,0.05502135982417471
1589996238.4265249,-3.8009842818861737,-0.3795078590569132,8.979015718113827,0.2888888888888889,-0.3244444444444444,-0.5611111111111111,0.002074293066983722,-0.0032188080984847734,0.05044663723985994
1589996238.4365249,-3.703247330649396,-0.3247127603710835,8.91780185541747,0.2888888888888889,-0.3244444444444444,-0.5611111111111111,0.0014277987791619113,-0.004026355133320369,0.04716276485151297
1589996238.4465249,-3.5742899141546784,-0.24285994276978556,8.994756771588726,0.2888888888888889,-0.3244444444444444,-0.5611111111111111,-0.0020256758845198976,-0.004363323129985824,0.042698386197834795
1589996238.4565248,-3.50611075161284,-0.184096907661235,8.984027687903211,0.2888888888888889,-0.3244444444444444,-0.5611111111111111,-0.00043935259471100663,-0.0034921686448448714,0.05125394536877129
1589996238.4665248,-3.39948239477576,-0.5381708512653496,8.959025107592097,0.29444444444444445,-0.31222222222222223,-0.5688888888888889,0.005460733590022471,0.0010409484888584265,0.08528433020927569
1589996238.4765248,-3.239184460211695,-0.5102929496020339,8.791757697612203,0.29444444444444445,-0.31222222222222223,-0.5688888888888889,0.0221862738971871,0.0002806966567145796,0.08832533753785107
1589996238.4865248,-3.0474690590614735,-0.5907592822815578,8.731265470469264,0.29444444444444445,-0.31222222222222223,-0.5688888888888889,0.020629155877477785,0.008988924946992024,0.03857970109876617
1589996238.4965248,-2.891816191342104,-0.6374551425973689,8.809091904328948,0.29444444444444445,-0.31222222222222223,-0.5688888888888889,0.014686472995252973,0.025119064198745093,-0.0038680337742682327
1589996238.5065248,-2.378367158671587,-0.6657210947109471,8.94004766297663,0.29444444444444445,-0.31222222222222223,-0.5688888888888889,0.02080704371031697,0.03202478923419082,-0.06843369849520473
1589996238.5165248,-2.360110739119238,-0.7093252639711563,9.001460211176925,0.29444444444444445,-0.31222222222222223,-0.5688888888888889,0.02548127894059774,0.051599695201489576,-0.14295923132708122
1589996238.5265248,-2.4230432137530418,-0.650533008870398,8.988985595415652,0.29444444444444445,-0.31222222222222223,-0.5688888888888889,0.04866938611784672,0.07887623218374616,-0.21429796299424372
1589996238.5365248,-3.0403846455765757,-1.4078051652405998,8.783205118141142,0.29444444444444445,-0.31222222222222223,-0.5688888888888889,0.06123980014452629,0.08516143919708595,-0.24392822462855987
1589996238.5465248,-2.6978136867192206,-0.8759327449388471,8.427572479899432,0.29444444444444445,-0.31222222222222223,-0.5688888888888889,0.06929756591136065,0.05100424541225054,-0.22660168981178255
1589996238.5565248,-2.445748787347654,-0.5740078669547141,8.70153874373293,0.29444444444444445,-0.31222222222222223,-0.5688888888888889,0.006624419301139009,0.02981896858941505,-0.19354956546782018
1589996238.5665247,-2.3519314306228685,-0.5575857117214145,8.941791419852809,0.30184666626777557,-0.32385428508745684,-0.5752336504517442,-0.044076730083264175,-0.04342939808417366,-0.2342347146279555
1589996238.5765247,-2.497830725599522,-0.583341693515714,8.918877741979047,0.3022222222222222,-0.3244444444444444,-0.5755555555555556,-0.026294150549571498,-0.0019231435295292837,-0.27914667613929545
1589996238.5865247,-2.5698895769031687,-0.5599754615340375,8.670036807698944,0.3022222222222222,-0.3244444444444444,-0.5755555555555556,0.043623862739948754,0.04690572364734761,-0.33822981432177446
1589996238.5965247,-2.497522765178383,-0.5438939478174185,8.694159078273872,0.3022222222222222,-0.3244444444444444,-0.5755555555555556,0.03748408917301928,0.04690572364734761,-0.38559378183808757
1589996238.6065247,-2.548575928203137,-0.5742879641015683,8.878297413328156,0.3022222222222222,-0.3244444444444444,-0.5755555555555556,0.015052090464153463,0.03418891896556536,-0.44867767089006144
1589996238.6165247,-2.6637615583355996,-0.6551478787054664,8.9879205194452,0.3022222222222222,-0.3244444444444444,-0.5559077826126371,0.011545466327305262,0.033437694023927,-0.5312124154975876
1589996238.6265247,-2.67,-0.66,8.937877936878541,0.3022222222222222,-0.3244444444444444,-0.5544444444444444,0.025502521946237332,0.046608433209915055,-0.5739759510633347
1589996238.6365247,-2.68419661624341,-0.66,8.79642707005272,0.3022222222222222,-0.3244444444444444,-0.5544444444444444,0.03195061817461364,0.05499931894288641,-0.6409610944773708
1589996238.6465247,-2.703857219627134,-0.6738572196271341,8.805428878508536,0.3022222222222222,-0.3244444444444444,-0.5544444444444444,0.023320357741396687,0.05412078173441005,-0.7060560626840862
1589996238.6565247,-2.6980222015833,-0.7159333952500995,8.85994449604175,0.3022222222222222,-0.3244444444444444,-0.5544444444444444,0.017675091402015182,0.05475728346427368,-0.7630774045571654
1589996238.6665246,-2.714202371027106,-0.7254785773837362,8.87515952579458,0.31136534016579565,-0.315301326500871,-0.5544444444444444,0.019002530870023616,0.05563236990731925,-0.8182046269003318
1589996238.6765246,-2.773027705800279,-0.7265138529001395,8.88100923526676,0.3211111111111111,-0.3055555555555556,-0.5544444444444444,0.023617997558038173,0.062237436903719134,-0.8856747272373441
1589996238.6865246,-2.8,-0.7779936256045646,8.826677290659058,0.3211111111111111,-0.3055555555555556,-0.5544444444444444,0.029233569632228947,0.07108522654378899,-0.9493441196279191
1589996238.6965246,-2.843120347394541,-0.8215601736972704,8.840307071960297,0.3211111111111111,-0.3055555555555556,-0.5544444444444444,0.031634092692397225,0.07386961246542766,-1.0105139676239348
1589996238.7065246,-2.891043390436235,-0.836208678087247,8.909669424697976,0.3211111111111111,-0.3055555555555556,-0.5544444444444444,0.0336658778452513,0.07688554008023112,-1.0616893756453025
1589996238.7165246,-2.9742229950900163,-0.8858735679214402,8.921650572831425,0.3455770140025459,-0.31167203127841425,-0.5676968085106383,0.04191222703871745,0.08254304033907675,-1.1362376850101286
1589996238.7265246,-2.9705529659513052,-0.89,8.910552965951306,0.3477777777777778,-0.31222222222222223,-0.5688888888888889,0.04666444673480527,0.08908620879589588,-1.1884125299918926
1589996238.7365246,-2.9782018679202302,-0.9146056037606909,8.795173849116775,0.3477777777777778,-0.31222222222222223,-0.5688888888888889,0.044221668646940396,0.09034280916484512,-1.2341320944926453
1589996238.7465246,-2.966861544538811,-0.9397076831917835,8.776569227730594,0.3477777777777778,-0.31222222222222223,-0.5688888888888889,0.04363323129985824,0.09340532127751057,-1.2736439385141594
1589996238.7565246,-2.9926920774296546,-0.9663460387148274,8.792259529036121,0.3477777777777778,-0.31222222222222223,-0.5688888888888889,0.04318746224480793,0.09713112335244323,-1.3076385161678739
1589996238.7665246,-3.0343945912722803,-1.0040135218192994,8.812802704363861,0.35743153725329513,-0.3069282250904869,-0.574805709212593,0.042236672897928235,0.10005070437024038,-1.3457036965316405
1589996238.7765245,-3.030066786185701,-1.0500667861857012,8.845166965464252,0.38222222222222224,-0.2933333333333333,-0.59,0.04145156973486533,0.09816748518196021,-1.3996961692828112
1589996238.7865245,-3.0340065904939286,-1.0839736380242846,8.834039542963573,0.38222222222222224,-0.2933333333333333,-0.59,0.04145156973486533,0.0977377192003175,-1.4490315739250592
1589996238.7965245,-3.0244622891197492,-1.144301687042005,8.815537710880252,0.38222222222222224,-0.2933333333333333,-0.59,0.04568006357978538,0.10059105262177821,-1.4896353230969344
1589996238.8065245,-3.0252992588017293,-1.2117955528103768,8.841197035206918,0.38222222222222224,-0.2933333333333333,-0.59,0.04908738521234052,0.10485033140480357,-1.5305852317688975
1589996238.8165245,-3.0356535353107943,-1.2456535353107943,8.871307070621588,0.3998109987446931,-0.27825723917121536,-0.5937690235405295,0.05340432045520202,0.10936823682343068,-1.571038513107077
1589996238.8265245,-3.04,-1.3400459049003481,8.822698060517961,0.4133333333333333,-0.26666666666666666,-0.5966666666666667,0.060295013231744736,0.11483655235656753,-1.6228769139516337
1589996238.8365245,-3.077915711155277,-1.3915964259627307,8.772084288844724,0.4133333333333333,-0.26666666666666666,-0.5966666666666667,0.05901854257638051,0.11562806294462433,-1.650093178104131
1589996238.8465245,-3.06709244952282,-1.4297445302863079,8.75,0.4133333333333333,-0.26666666666666666,-0.5966666666666667,0.05709610009157089,0.12065358260981324,-1.681437360402858
1589996238.8565245,-3.037008292491263,-1.4594875612631055,8.788975122526212,0.4133333333333333,-0.26666666666666666,-0.5966666666666667,0.05247167434949947,0.1211381152519414,-1.7095932367366544
1589996238.8665245,-3.0063059618969383,-1.5568781397112257,8.81789801270102,0.44053759930351505,-0.25087064126462566,-0.5984217806002268,0.05017821599483697,0.11826830699964594,-1.7389647225765033
1589996238.8765244,-3.0,-1.58,8.82,0.4477777777777778,-0.2466666666666667,-0.5988888888888889,0.05104591391694449,0.12214821412015484,-1.765930869264521
1589996238.8865244,-2.9766086255159654,-1.6189856241400578,8.757623001375908,0.4477777777777778,-0.2466666666666667,-0.5988888888888889,0.0529701155328059,0.12326387842209953,-1.785117740818024
1589996238.8965244,-2.9777599562779202,-1.7308794316129645,8.786559737667522,0.4477777777777778,-0.2466666666666667,-0.5988888888888889,0.058529587849595624,0.12749627801149058,-1.8058920816517519
1589996238.9065244,-2.98,-1.7659660195956113,8.811932039191223,0.4477777777777778,-0.2466666666666667,-0.5988888888888889,0.05999569303730508,0.12806724055219482,-1.8192393921151475
1589996238.9165244,-2.973477678279626,-1.8091339303222433,8.852611608601869,0.4825634936197718,-0.2220267846119209,-0.5974394840621392,0.0621301178290838,0.13118457620504986,-1.8349205481448714
1589996238.9265244,-2.9649482755838164,-1.8552586220809193,8.854844826751448,0.5011111111111111,-0.2088888888888889,-0.5966666666666667,0.06161501243543576,0.13363241311435387,-1.8479463371685283
1589996238.9365244,-2.9231035892404544,-1.907672308069659,8.780043332515739,0.5011111111111111,-0.2088888888888889,-0.5966666666666667,0.062008080068312356,0.1341721862470641,-1.863049612392749
1589996238.9465244,-2.895149583903929,-1.9854487517117876,8.740299167807859,0.5011111111111111,-0.2088888888888889,-0.5966666666666667,0.0643590161672909,0.13499846787028502,-1.8842598471122325
1589996238.9565244,-2.893490305260018,-2.03254847369991,8.763019389479965,0.5011111111111111,-0.2088888888888889,-0.5966666666666667,0.06009843092307425,0.13455291948885778,-1.8995896451526098
1589996238.9665244,-2.830060614334471,-2.109939385665529,8.776659931740614,0.517390944254835,-0.184469139173303,-0.6107265225635191,0.05999348903790836,0.1341721862470641,-1.9180316365596872
1589996238.9765244,-2.8245801274096136,-2.1645801274096135,8.771806624196795,0.5255555555555556,-0.17222222222222222,-0.6177777777777778,0.06287404112754097,0.13685346220867323,-1.9447819493627514
1589996238.9865243,-2.8070862535001537,-2.2158274929996926,8.72990094362527,0.5255555555555556,-0.17222222222222222,-0.6177777777777778,0.06201843438357681,0.13744467859455345,-1.964936495836387
1589996238.9965243,-2.784491357325021,-2.2610172853499577,8.716525928024936,0.5255555555555556,-0.17222222222222222,-0.6177777777777778,0.06288922291969366,0.13864647799448154,-1.989805171282787
1589996239.0065243,-2.7736717702521516,-2.358595216469876,8.755312918991393,0.5255555555555556,-0.17222222222222222,-0.6177777777777778,0.06712022729035597,0.14376815684414398,-2.018531527398423
1589996239.0165243,-2.723060482607333,-2.425646505797556,8.77,0.5394635607089383,-0.13049820676207388,-0.6351627842195062,0.06786895478915259,0.15043824739514583,-2.052840021670884
1589996239.0265243,-2.71,-2.43,8.77,0.5433333333333333,-0.11888888888888888,-0.64,0.06763150851478028,0.15162547876700738,-2.0594885173533086
1589996239.0365243,-2.633007008920444,-2.4509980884762426,8.728003823047516,0.5433333333333333,-0.11888888888888888,-0.64,0.06686799647199795,0.153152502852572,-2.107589776048594
1589996239.0465243,-2.558144239866094,-2.5227836402008585,8.73790384008927,0.5433333333333333,-0.11888888888888888,-0.64,0.06654067773228381,0.15304618113901944,-2.1510396324400123
1589996239.0565243,-2.5213334318402496,-2.5748887575463333,8.774888757546332,0.5433333333333333,-0.11888888888888888,-0.64,0.06654067773228381,0.15678872297994856,-2.184012789564666
1589996239.0665243,-2.4898350757533403,-2.6370514899088726,8.776556717168893,0.5612577104414751,-0.08378698371877777,-0.6601649242466596,0.06654067773228381,0.15926129424448254,-2.220753764161823
1589996239.0765243,-2.4454559381716745,-2.7083616865596563,8.721638313440343,0.57,-0.06666666666666668,-0.67,0.06804794677207575,0.1600149287643785,-2.252941547544836
1589996239.0865242,-2.409827781983346,-2.783792581377744,8.646207418622256,0.57,-0.06666666666666668,-0.67,0.06798885675181687,0.1625525726633586,-2.2829205541705258
1589996239.0965242,-2.378174120206127,-2.831825879793873,8.649101173058497,0.57,-0.06666666666666668,-0.67,0.06921873128372856,0.1660054515278908,-2.316734646341774
1589996239.1065242,-2.3513539977054236,-2.84,8.697292004589153,0.57,-0.06666666666666668,-0.67,0.06845719452821164,0.16893107304930008,-2.3419229349011825
1589996239.1165242,-2.2850973312874205,-2.901765502301652,8.740588500767217,0.5799129818508824,-0.02777727632858963,-0.6646622405418326,0.06838012752819135,0.17466131614991362,-2.3630604522635252
1589996239.1265242,-2.214733566333126,-2.960177622444583,8.719822377555419,0.5844444444444444,-0.01,-0.6622222222222223,0.07283717423541508,0.17918348772730885,-2.3813611006018487
1589996239.1365242,-2.1950595627904077,-2.9897617488383696,8.685297813952038,0.5844444444444444,-0.01,-0.6622222222222223,0.07148190271615186,0.17998707911191522,-2.3899582661095207
1589996239.1465242,-2.1660217924664456,-3.016850916438158,8.663425458219079,0.5844444444444444,-0.01,-0.6622222222222223,0.06834867977032402,0.18036073863886795,-2.3973628437953423
1589996239.1565242,-2.1045714564464464,-3.049285679441942,8.681571407665166,0.5844444444444444,-0.01,-0.6622222222222223,0.0667900120029151,0.1802364133825465,-2.4014172208159623
1589996239.1665242,-2.0721123399742445,-3.0878876600257557,8.704732596015452,0.5833927564410103,-0.0008853706369046106,-0.6704604449157893,0.0657940110441058,0.179068330376578,-2.397188152285274
1589996239.1765242,-2.0341002059882234,-3.1423006179646698,8.734100205988224,0.5777777777777777,0.04777777777777778,-0.7144444444444444,0.06763150851478028,0.18132886838387433,-2.383999519670055
1589996239.1865242,-2.003923383273279,-3.16,8.67815437132562,0.5777777777777777,0.04777777777777778,-0.7144444444444444,0.06482054536807785,0.18269737883006412,-2.3634276519556057
1589996239.1965241,-1.9223379453099465,-3.128225296873298,8.625295783854451,0.5777777777777777,0.04777777777777778,-0.7144444444444444,0.05871127217476867,0.18332410148608458,-2.3351429653559803
1589996239.2065241,-1.8715536358608338,-3.1591245489741633,8.63,0.5777777777777777,0.04777777777777778,-0.7144444444444444,0.05517169220716042,0.18665379074269517,-2.3070068964475343
1589996239.2165241,-1.8428366786755876,-3.2614541516555158,8.660035812317721,0.5920805455481215,0.04444046529803092,-0.7144444444444444,0.04986096931718607,0.18371981540445556,-2.2738984984529216
1589996239.226524,-1.8100600162206002,-3.2850300081103,8.6602400648824,0.6111111111111112,0.04,-0.7144444444444444,0.04797036741349216,0.17725018202454212,-2.2336102356202967
1589996239.236524,-1.77334543163201,-3.319981852551985,8.600009073724006,0.6111111111111112,0.04,-0.7144444444444444,0.04799853400933593,0.17962313892116777,-2.175496357124615
1589996239.246524,-1.753183091902161,-3.34,8.59681690809784,0.6111111111111112,0.04,-0.7144444444444444,0.03912240898973622,0.17701264183408638,-2.1249444777218724
1589996239.256524,-1.734449106364429,-3.3659181560592852,8.631101787271142,0.6111111111111112,0.04,-0.7144444444444444,0.031473844229580605,0.1750583095328291,-2.08026351799493
1589996239.266524,-1.690311778290993,-3.419688221709007,8.66,0.6163890171927123,0.05913240954580447,-0.7230210418270464,0.027918466084766683,0.17194213911001183,-2.019263313495855
1589996239.276524,-1.68852659951208,-3.4338244668293068,8.66,0.62,0.07222222222222223,-0.7288888888888889,0.02566701567253977,0.16680137122898703,-1.9564752080510852
1589996239.286524,-1.6770978848991638,-3.456719134284309,8.621829808165273,0.62,0.07222222222222223,-0.7288888888888889,0.02274916060810858,0.16096809833652448,-1.905629867058141
1589996239.296524,-1.6379172989377844,-3.520827010622155,8.568330804248863,0.62,0.07222222222222223,-0.7288888888888889,0.020952972310372932,0.15194453435627323,-1.8474630429410681
1589996239.306524,-1.613312480202724,-3.5866499841621793,8.589987488121634,0.62,0.07222222222222223,-0.7288888888888889,0.023272876472200124,0.1385327797086363,-1.761658957710813
1589996239.316524,-1.5800981944884385,-3.5600785555907506,8.570058916693064,0.62,0.07222222222222223,-0.7288888888888889,0.026171369694262134,0.1341850398755433,-1.709486079713697
1589996239.326524,-1.58,-3.637608695652174,8.666195652173913,0.6166666666666667,0.045555555555555564,-0.7333333333333333,0.01812913333083784,0.10664293721662635,-1.59506256896291
1589996239.336524,-1.5449884079386513,-3.6608236732822093,8.476612570380372,0.6166666666666667,0.045555555555555564,-0.7333333333333333,0.03245790601907787,0.10926783387477709,-1.4966919794339404
1589996239.346524,-1.5142704929041502,-3.6629180283834,8.440213099341898,0.6166666666666667,0.045555555555555564,-0.7333333333333333,0.041599100728012206,0.11187810931941335,-1.4093846743176313
1589996239.356524,-1.4959640686705817,-3.6706427124470546,8.705860326164801,0.6166666666666667,0.045555555555555564,-0.7333333333333333,0.016814030102339842,0.0886686436427978,-1.3402526079790644
1589996239.366524,-1.4667923590104834,-3.6765095512368955,8.807923590104835,0.5994233575970203,0.056195044130443794,-0.7006811097759177,0.0013584646888968824,0.07265349762755059,-1.2693048780022256
1589996239.376524,-1.4480837467417809,-3.7221256201126716,8.64508870764315,0.5644444444444444,0.07777777777777778,-0.6344444444444445,0.025343815563465124,0.08506196265375647,-1.1676824847731515
1589996239.386524,-1.4502026776737047,-3.730202677673705,8.662837487431867,0.5644444444444444,0.07777777777777778,-0.6344444444444445,0.024130929442163225,0.07539997621949665,-1.0709893458106312
1589996239.396524,-1.4163712238047719,-3.731814388097614,8.571195681756327,0.5644444444444444,0.07777777777777778,-0.6344444444444445,0.022178708531463597,0.07001108911860043,-0.9899571880583264
1589996239.406524,-1.3617923292797007,-3.722688493919551,8.636344246959775,0.5644444444444444,0.07777777777777778,-0.6344444444444445,0.025480133587551922,0.0660363853349875,-0.8930351000334793
1589996239.416524,-1.34,-3.735812861666121,8.65435964624959,0.5351751161577561,0.1356801446057915,-0.6045388264123934,0.025723192841398304,0.05578148227108009,-0.7955782979060919
1589996239.426524,-1.34,-3.77,8.68,0.5133333333333333,0.17888888888888888,-0.5822222222222222,0.029452431127404314,0.05345070834232633,-0.7592182246175333
1589996239.436524,-1.0586515296367114,-3.3270258126195027,8.111316921606118,0.5133333333333333,0.17888888888888888,-0.5822222222222222,0.1287063523109069,-0.020989732545300586,-0.6671471529933631
1589996239.446524,-0.8575163187808692,-2.9488560720756496,7.055881214166936,0.5133333333333333,0.17888888888888888,-0.5822222222222222,0.21364244813301167,-0.04843498767031334,-0.5468554741489197
1589996239.456524,-1.0088588444494624,-3.376576533348387,8.121335487877163,0.5133333333333333,0.17888888888888888,-0.5822222222222222,0.09928355131432687,0.012541351921276075,-0.48106792103322016
1589996239.466524,-1.257469587061447,-4.1224087611843405,10.42394450873578,0.5133333333333333,0.17888888888888888,-0.5822222222222222,-0.09700798267076513,0.08679637300116286,-0.43328642920790167
1589996239.4765239,-1.1195848944394886,-3.5743773416592326,8.25894350282486,0.5255555555555556,0.23222222222222225,-0.5755555555555556,-0.12263844282447547,0.08451265818094851,-0.33199131586426933
1589996239.4865239,-1.1631228573088768,-3.6089273470336436,8.562206124464932,0.5255555555555556,0.23222222222222225,-0.5755555555555556,0.08270024481741678,0.037167498697020435,-0.25614233923435326
1589996239.4965239,-1.217843758194324,-3.6597395969905397,9.06353127458297,0.5255555555555556,0.23222222222222225,-0.5755555555555556,0.0558391738390756,0.014829617529580324,-0.19781362643538175
1589996239.5065238,-1.255452364962103,-3.73,9.119511656912596,0.5255555555555556,0.23222222222222225,-0.5755555555555556,0.04427079640846118,0.012641936522273758,-0.1151267601097248
1589996239.5165238,-1.2605900854832797,-3.760885128224919,8.866273276344481,0.5305124279867155,0.24823673315366196,-0.5656418106932357,-0.0009620941006033123,-0.004117721494222386,-0.05988726879786237
1589996239.5265238,-1.284012944983819,-3.82,8.734485436893204,0.54,0.2788888888888889,-0.5466666666666666,0.011123649824098164,-0.011301571738136422,-0.009876078307806097
1589996239.5365238,-1.2631259468212923,-3.9118816277490467,8.601881627749046,0.54,0.2788888888888889,-0.5466666666666666,0.01663503172349612,-0.01077202283193992,0.05474789454840742
1589996239.5465238,-1.28,-4.0237878153291025,8.679620799639164,0.54,0.2788888888888889,-0.5466666666666666,0.015197266512289132,-0.01403207128713143,0.1052240346034718
1589996239.5565238,-1.2878953941932634,-4.01,8.597895394193262,0.54,0.2788888888888889,-0.5466666666666666,0.014869530812156693,-0.02112788501022635,0.16962623029600135
1589996239.5665238,-1.3,-4.01,8.642421107087428,0.5452033875572416,0.2904964457473511,-0.5550721388745186,0.009729443104511844,-0.025089107997418484,0.2327999176174688
1589996239.5765238,-1.3346088693272182,-4.014326108665902,8.75623941265673,0.5544444444444444,0.3111111111111111,-0.57,0.005276289226879749,-0.030280065748728456,0.30883569079433704
1589996239.5865238,-1.345577528502002,-3.9270593269554053,8.695752361157808,0.5544444444444444,0.3111111111111111,-0.57,0.002181661564992912,-0.03633726477448704,0.3730972689714247
1589996239.5965238,-1.2992669566239567,-3.8078008698718704,8.570051957211708,0.5544444444444444,0.3111111111111111,-0.57,-0.0025471610433551897,-0.03805913344545199,0.4477773808629886
1589996239.6065238,-1.3290236749009767,-3.8730078916336588,8.68593686693073,0.5544444444444444,0.3111111111111111,-0.57,-0.007635815477475192,-0.042764010048628794,0.4923272267320197
1589996239.6165237,-1.3480465938983461,-3.879348864632782,8.635209082937745,0.5544444444444444,0.3111111111111111,-0.57,-0.007635815477475192,-0.04553078146399775,0.5206866337395515
1589996239.6265237,-1.3380575413819022,-3.932517872437119,8.686402789673314,0.5544444444444444,0.3033333333333333,-0.5844444444444444,-0.010696418459529886,-0.047753281109086304,0.5618642065298172
1589996239.6365237,-1.3307262589362185,-3.866536330425967,8.63508381255353,0.5544444444444444,0.3033333333333333,-0.5844444444444444,-0.009896699602837138,-0.0509521565358573,0.5786583025203649
1589996239.6465237,-1.3866833008763388,-3.9266833008763387,8.683391553067187,0.5544444444444444,0.3033333333333333,-0.5844444444444444,-0.008367572276127725,-0.05344798657613341,0.6025139965190452
1589996239.6565237,-1.3730781618450567,-3.870772416173003,8.676156323690114,0.5544444444444444,0.3033333333333333,-0.5844444444444444,-0.01032101461998674,-0.05126904677733343,0.6157318479523289
1589996239.6665237,-1.354498278508317,-3.7967474177624756,8.61858132492637,0.5617031936320939,0.3033333333333333,-0.5876201472140411,-0.008749293657268677,-0.05149174241329213,0.6235551111106494
1589996239.6765237,-1.4391197075845263,-3.94,8.719119707584527,0.59,0.3033333333333333,-0.6,-0.01207266442801221,-0.05219032673283901,0.6328739038608238
1589996239.6865237,-1.4192122969837586,-3.9301969257540605,8.627323085846868,0.59,0.3033333333333333,-0.6,-0.01046593291685412,-0.05305129596909497,0.649336321621425
1589996239.6965237,-1.4921989559164732,-3.911950261020882,8.566500870069605,0.59,0.3033333333333333,-0.6,-0.01776407489209683,-0.05636863323056892,0.6559709961443729
1589996239.7065237,-1.4795678294573644,-3.9343517441860465,8.613919573643411,0.59,0.3033333333333333,-0.6,-0.02072578486743266,-0.052620799632174114,0.6797070720882777
1589996239.7165236,-1.5132945627364538,-3.9701163117906386,8.683410874527093,0.6068388762085413,0.2956460202816079,-0.5926787494745472,-0.020366403822653714,-0.055247613566221085,0.6973241251710567
1589996239.7265236,-1.5293563701100106,-3.945321814944995,8.655965444834985,0.6411111111111111,0.28,-0.5777777777777777,-0.01963495408493621,-0.059925483907651546,0.7214278867161185
1589996239.7365236,-1.560756441116163,-3.9441512882232326,8.602638405990907,0.6411111111111111,0.28,-0.5777777777777777,-0.02235196587348649,-0.06018085322361811,0.7430006623956361
1589996239.7465236,-1.5985890118706807,-3.9614520158275743,8.575767035612042,0.6411111111111111,0.28,-0.5777777777777777,-0.025243022925938344,-0.05952947282412636,0.7654688057383298
1589996239.7565236,-1.619485111776484,-3.984336229541322,8.64,0.6411111111111111,0.28,-0.5777777777777777,-0.022907446432425576,-0.06142351737405539,0.7877246372122089
1589996239.7665236,-1.6117805249912747,-3.899585774904021,8.64,0.6411111111111111,0.28,-0.5777777777777777,-0.022907446432425576,-0.06646615763308832,0.8062143181619963
1589996239.7765236,-1.6421736587268059,-3.9089325057680435,8.7240707763299,0.84,0.25555555555555554,-0.6355555555555555,-0.025856549795132334,-0.06889911676818661,0.8401725936359422
1589996239.7865236,-1.565118368110789,-3.8302367362215777,8.57488163188921,0.84,0.25555555555555554,-0.6355555555555555,-0.023079308164439087,-0.06940088054686415,0.8705346122637376
1589996239.7965236,-1.5829338120224616,-3.8234704961796924,8.592397127865231,0.84,0.25555555555555554,-0.6355555555555555,-0.028616258069699443,-0.06949314083335725,0.8833182760973377
1589996239.8065236,-1.5499774774774775,-3.679954954954955,8.638536036036037,0.84,0.25555555555555554,-0.6355555555555555,-0.02477709108440711,-0.07090400086226964,0.8884055107346756
1589996239.8165236,-1.5069417047098386,-3.5897183865937743,8.576660091303614,0.9350242244724576,0.23704434299598587,-0.676588743395935,-0.026572833776289512,-0.07075255635865979,0.8921481355784912
1589996239.8265235,-1.5463403407916738,-3.644876477108343,8.671216817900017,1.4743477761704669,0.13198131344442565,-0.9094784589018936,-0.041185097085279544,-0.06989301145813095,0.8912885906779623
1589996239.8365235,-1.7667442731081202,-3.77348854621624,8.57337213655406,1.5244444444444445,0.12222222222222222,-0.9311111111111112,-0.030188117198594364,-0.06654067773228381,0.8837441570156382
1589996239.8465235,-1.7966528211070505,-3.8333056422141008,8.588326410553526,1.5244444444444445,0.12222222222222222,-0.9311111111111112,-0.03345063368029497,-0.06654067773228381,0.8796660114135125
1589996239.8565235,-1.8069160856338453,-3.6835515749296146,8.615046766056345,1.5244444444444445,0.12222222222222222,-0.9311111111111112,-0.027821286339043447,-0.06835532811285536,0.8670269664924718
1589996239.8665235,-1.9337206885475124,-3.7945056024790733,8.638822629102659,1.5244444444444445,0.12222222222222222,-0.9311111111111112,-0.03041483066817722,-0.06662629856009951,0.866162451716094
1589996239.8765235,-1.9301910699550746,-3.7372850463005407,8.605525442376456,1.0166666666666666,-0.14222222222222222,-0.73,-0.024569745729745976,-0.06981317007977318,0.8732048307636979
1589996239.8865235,-1.9874389044688057,-3.6682926029792036,8.76146301489602,1.0166666666666666,-0.14222222222222222,-0.73,-0.03197993098360281,-0.06976660804906751,0.8720859775524309
1589996239.8965235,-1.9599763305370879,-3.687227540116259,8.605426572452922,1.0166666666666666,-0.14222222222222222,-0.73,-0.01854154136456479,-0.06931686846266116,0.8874373733971281
1589996239.9065235,-2.039935588487005,-3.839935588487005,8.699967794243502,1.0166666666666666,-0.14222222222222222,-0.73,-0.0272637433562992,-0.07090400086226964,0.8977853519220881
1589996239.9165235,-2.021043196252421,-3.821043196252421,8.69052159812621,1.0166666666666666,-0.14222222222222222,-0.73,-0.02520290305585107,-0.07090400086226964,0.9070591332741046
1589996239.9265234,-1.9834036576802125,-3.832058132079504,8.62474918328092,0.6933333333333334,0.12777777777777774,-0.6644444444444444,-0.024145051289311,-0.0704319725082159,0.913868674760653
1589996239.9365234,-2.0250584556507127,-3.763976617739715,8.685789559657433,0.6933333333333334,0.12777777777777774,-0.6644444444444444,-0.03250165610053771,-0.07395322583540304,0.9099633869317585
1589996239.9465234,-2.0544017173791302,-3.74440171737913,8.58799141310435,0.6933333333333334,0.12777777777777774,-0.6644444444444444,-0.030063109028600293,-0.07151467876346562,0.9005041262624905
1589996239.9565234,-2.0331272479226095,-3.7368727520773906,8.65770908264087,0.6933333333333334,0.12777777777777774,-0.6644444444444444,-0.029384989834452,-0.07258586179216361,0.8794396461554331
1589996239.9665234,-2.0332462958717983,-3.7677487652905994,8.6577487652906,0.688167489806267,0.13186740390337195,-0.6635834705232667,-0.02308450440572803,-0.06995308429542045,0.8456707979277234
1589996239.9765234,-2.243018109071207,-3.8376727030237356,8.727672703023735,0.6415515313175096,0.16877170437363825,-0.6558141441084738,-0.03452578196262857,-0.06137212612774505,0.7989522479037128
1589996239.9865234,-2.265416328468383,-3.6429183576580857,8.641459178829043,0.64,0.17,-0.6555555555555556,-0.022066616150106147,-0.060427351101058784,0.7425140481970848
1589996239.9965234,-2.252569490175659,-3.7071525491217057,8.673576274560853,0.64,0.17,-0.6555555555555556,-0.022767302483479027,-0.05552254676744864,0.7109831631953053
1589996240.0065234,-2.2560335971355427,-3.6047114628473906,8.4677648200512,0.64,0.17,-0.6555555555555556,-0.016939351649491077,-0.051494542691763526,0.6439335798134121
1589996240.0165234,-2.234980340321582,-3.5766404537621095,8.615137617748925,0.64,0.17,-0.6555555555555556,-0.020001423730087314,-0.04690143457086917,0.6110163049470027
1589996240.0265234,-2.27,-3.5821369784876143,8.659402705345503,0.6322222222222222,0.18222222222222226,-0.67,-0.010143828510683208,-0.04472406208235469,0.5792030569685199
1589996240.0365233,-2.27,-3.624859232398957,8.84738062255541,0.6322222222222222,0.18222222222222226,-0.67,-0.016668213463660347,-0.04472406208235469,0.5568337371297412
1589996240.0465233,-2.272312679865469,-3.5846253597309388,8.47104226621823,0.6322222222222222,0.18222222222222226,-0.67,-0.009650473009316927,-0.042094698843619174,0.5392328380214116
1589996240.0565233,-2.315941194826809,-3.6718823896536184,8.616470649422698,0.6322222222222222,0.18222222222222226,-0.67,-0.016789172076482416,-0.04050832127313796,0.5289213838132838
1589996240.0665233,-2.2933630858227505,-3.6539402087946855,8.71115424594387,0.6311000386656824,0.1798816679471536,-0.6708656844579022,-0.00962861399154643,-0.04254240051736178,0.5140537227843333
1589996240.0765233,-2.07537397749356,-3.4549066751028157,8.749065395218512,0.5942419768708919,0.10300628191801872,-0.6992990464138834,-0.0034254166972568015,-0.04254240051736178,0.4871732011757449
1589996240.0865233,-1.8797745966466308,-3.302105544131604,8.724211088263207,0.5933333333333334,0.10111111111111112,-0.7,-0.0008365638555973197,-0.03130606269059817,0.4189941512663045
1589996240.0965233,-1.8459670807647777,-3.241934161529555,8.61865569358826,0.5933333333333334,0.10111111111111112,-0.7,-0.0016594404509517545,-0.023118430725901515,0.34881148137201223
1589996240.1065233,-1.8015912941003167,-3.1558124033291595,8.63103852102821,0.5933333333333334,0.10111111111111112,-0.7,-0.06528538273738621,0.11421927069628637,0.22617107241241405
1589996240.1165233,-1.7492358592099493,-2.820059791924104,8.147460039064057,0.590191865640903,0.10365824707794653,-0.6906605014549367,-0.3269716896903536,0.6189396992263265,-0.04102849070932656
1589996240.1265233,-1.74,0.08,1.59,0.5522222222222222,0.13444444444444445,-0.5777777777777777,-0.9828385350293068,2.2591105505501603,-2.0267635938784148
1589996240.1365232,-1.5136179420250033,-0.1759101524934743,1.0683369968402254,0.5522222222222222,0.13444444444444445,-0.5777777777777777,-0.6031166031334967,1.3343212272525415,-2.348507247765628
1589996240.1465232,-0.7898948555697873,-0.5843977135865721,0.021675428702517728,0.5522222222222222,0.13444444444444445,-0.5777777777777777,0.18162619265518704,-0.5078416103546245,-2.963547294560842
1589996240.1565232,0.01948401351702625,-0.21927475955289835,0.08564855731739017,0.5522222222222222,0.13444444444444445,-0.5777777777777777,0.20612136575874418,-0.3395207266099949,-2.817854805114588
1589996240.1665232,-0.17812889914218874,-0.2056462828177801,0.0038776969066805222,0.5522222222222222,0.13444444444444445,-0.5777777777777777,0.24626054299999442,-0.2421460558951099,-2.6788543209643323
1589996240.1765232,-0.2800550338669951,-0.29961476293103445,0.09107316040640394,0.5522222222222222,0.2255555555555556,-0.5988888888888889,0.2628031712591587,-0.1089420015545802,-2.4123173645201805
1589996240.1865232,-0.29619689039408864,-0.1866217672413793,0.4058393626847291,0.5522222222222222,0.2255555555555556,-0.5988888888888889,0.2372715219788859,-0.06756312168655187,-2.2362370246562295
1589996240.1965232,-1.423264598764889,1.667351725108644,4.360164505515773,0.5522222222222222,0.2255555555555556,-0.5988888888888889,0.671433647623949,1.69328504881405,-1.9482311089840127
1589996240.2065232,-1.0764269753857523,-0.24394496542745037,4.116640216760209,0.5522222222222222,0.2255555555555556,-0.5988888888888889,-0.2253153904747759,1.5685129654161125,-1.594844369553725
1589996240.2165232,-0.7472306080478057,-0.033880330604167466,3.7183430988320203,0.5506427552071881,0.22980796674987825,-0.5996178736650585,0.1820186461538112,-0.1656681208674397,-1.2219574382778258
1589996240.2265232,0.5385157735439058,-0.8069556866245005,6.533964921811338,0.5388883930688673,0.2614543263530497,-0.605042963882745,0.08348635362271765,-1.2362081640431044,-1.0612876639703672
1589996240.2365232,0.48279843764192937,-2.065006994277409,8.99871123626124,0.5377777777777778,0.2644444444444444,-0.6055555555555555,0.1469314285059636,-0.6326611251896015,-0.7524757826073253
1589996240.2465231,0.16276828049777453,-1.54686293032973,6.423230447815424,0.5377777777777778,0.2644444444444444,-0.6055555555555555,0.2857397397097343,0.20850061695540423,-0.5255615972263109
1589996240.2565231,-0.5810190053394979,-1.757820011865551,6.405619156727563,0.5377777777777778,0.2644444444444444,-0.6055555555555555,-0.3762309311540536,0.7783447744781937,-0.18949637152014356
1589996240.2665231,-1.214067650852802,-3.1671395298839045,11.71599362190053,0.5360075167614224,0.2670998359689774,-0.6020150335228449,-0.3859732820689658,0.21536250875679125,-0.09114202317649987
1589996240.276523,-1.11361559109467,-2.904133940856698,9.723261453093633,0.52,0.2911111111111111,-0.57,0.10500808108698195,-0.08121105136196671,0.07838389197936588
1589996240.286523,-1.2224159204204543,-2.989282024676877,10.030740644666501,0.52,0.2911111111111111,-0.57,-0.027606989922581537,-0.06882676457508141,0.19500259255586916
1589996240.296523,-1.2335804084302624,-2.8753410740203194,9.558744250700137,0.52,0.2911111111111111,-0.57,-0.09265534817677966,-0.05140872592084736,0.31116800439048065
1589996240.306523,-1.0634722285609968,-2.400019168454201,7.5935105654693995,0.52,0.2911111111111111,-0.57,-0.0009226085555759356,-0.025718634502126973,0.4246727552759468
1589996240.316523,-1.3075577299412917,-2.843825048923679,8.730184735812133,0.52,0.29187147205914327,-0.5718663405088062,0.0055371296316909634,-0.03196836508423895,0.5248001410538239
1589996240.326523,-1.1433972602739728,-2.6304164383561646,8.204871232876712,0.52,0.30190350076103495,-0.5964904109589041,-0.03654462436012305,-0.05077085091036859,0.5982193714225208
1589996240.336523,-1.2954971117906897,-2.8032456676860344,8.26801155283724,0.52,0.3033333333333333,-0.6,-0.005865578366634868,-0.061520335694702596,0.7259062614575164
1589996240.346523,-1.3084309162175405,-2.846338804507594,8.529016413522783,0.52,0.3033333333333333,-0.6,-0.026194075219991883,-0.05171815266000456,0.8098952779033272
1589996240.356523,-1.4151972516341917,-3.0948434726312053,9.19311530188167,0.52,0.3033333333333333,-0.6,-0.05506988002885258,-0.06601677915648299,0.8873990313916275
1589996240.366523,-1.3464468240447798,-2.9346702360671695,8.374441469944024,0.5228622806305941,0.30283983667288605,-0.5992104053432844,-0.03827597523006548,-0.06045522773784082,0.9578184501527082
1589996240.376523,-1.3342379527813713,-2.921204519728331,8.495137653622251,0.5522222222222222,0.2977777777777777,-0.5911111111111111,-0.03662595767001088,-0.0787377102246273,1.0279567752709977
1589996240.386523,-1.4139839285714284,-3.0595614285714285,8.75231,0.5522222222222222,0.2977777777777777,-0.5911111111111111,-0.02827468450648822,-0.08643637933247891,1.0738423786810671
1589996240.396523,-1.4514330357142857,-3.1494392857142857,8.962025,0.5522222222222222,0.2977777777777777,-0.5911111111111111,-0.027457671729519496,-0.0888874176633851,1.1089739280907227
1589996240.406523,-1.5779250971990795,-10.253562643814965,5.889578671744823,0.5522222222222222,0.2977777777777777,-0.5911111111111111,-0.04425182747557054,-0.04268166471866598,1.1071897821033545
1589996240.416523,-11.129334285487582,-18.39389256526224,7.18750535586765,0.5522222222222222,0.2977777777777777,-0.5911111111111111,-0.24101427932477215,0.2484686791615179,0.7732018564552632
1589996240.426523,0.23992200947786727,0.3835758760651975,8.202951951888135,0.5611111111111111,0.28444444444444444,-0.6144444444444445,-0.3583611278740582,-0.5539928906170977,-1.8475811754571945
1589996240.436523,1.0688526680408867,-1.051454618866481,13.399366725460613,0.5611111111111111,0.28444444444444444,-0.6144444444444445,0.5740581545776207,0.35411931982072087,-1.8971676023654696
1589996240.446523,0.24242837273991652,-0.7074881780250348,3.583780250347705,0.5611111111111111,0.28444444444444444,-0.6144444444444445,0.8288978855055684,0.20979907476706874,-1.714454037684971
1589996240.456523,-0.04091396781243789,-1.824190343731373,7.775580170872243,0.5611111111111111,0.28444444444444444,-0.6144444444444445,-0.01652284615609312,-0.11291529054464078,-1.543551782252291
1589996240.466523,-2.6354939145202376,-2.7026794980658555,13.253354090008493,0.5611111111111111,0.28444444444444444,-0.6144444444444445,-0.674552918466238,0.20368622436445155,-1.3302021686410133
1589996240.476523,-1.225767060030785,-2.3857188301693175,8.678367367880965,0.5675192976455162,0.28444444444444444,-0.6437390114588678,-0.06528406753584404,0.12739280446039244,-1.109790753552305
1589996240.486523,-0.8726190985403411,-2.1087755974977274,6.638121959044003,0.5688888888888889,0.28444444444444444,-0.65,0.2675251849971729,0.14738994317081025,-0.8990680034087292
1589996240.496523,-1.7408291108426348,-3.9664163225562143,9.719876120237302,0.5688888888888889,0.28444444444444444,-0.65,-0.1272825661383392,0.009914941141270235,-0.8426679498344918
1589996240.506523,-3.6013657428277766,-9.79004724381052,9.077007771787152,0.5688888888888889,0.28444444444444444,-0.65,-0.07035670700049959,0.04951553880237604,-0.8154425389424816
1589996240.516523,0.8197702316139153,-1.4559303005136723,8.989540463227831,0.5686747391481174,0.2850374744958117,-0.6496540658033692,0.11545905815696984,0.07065413414524306,-1.4304632332410374
1589996240.5265229,-0.1259151037327535,-2.0232477190986122,8.079235364639425,0.5544444444444444,0.3244444444444444,-0.6266666666666667,0.13298458088881773,0.1287338585020315,-1.802593002748005
1589996240.5365229,-1.1664128060844317,-2.7106793596957783,9.78323235437704,0.5544444444444444,0.3244444444444444,-0.6266666666666667,-0.033839354029194704,0.13662950547915667,-1.7305376605782115
1589996240.5465229,-1.0549349048782126,-3.0756232773881282,8.78080332534116,0.5544444444444444,0.3244444444444444,-0.6266666666666667,0.057156360263540575,0.12392154963087113,-1.5905155857931998
1589996240.5565228,-1.570481352432572,-5.560433604336043,9.098712091882824,0.5544444444444444,0.3244444444444444,-0.6266666666666667,0.06547870490699627,0.11334138656949559,-1.5118744313068089
1589996240.5665228,-1.577247225448445,-6.1287669376693765,8.658930345851077,0.5544444444444444,0.3244444444444444,-0.6266666666666667,0.03521897242667295,0.11186530205826031,-1.5576330511551029
1589996240.5765228,-1.0086377476224486,-4.567739728602038,8.71079464722024,0.5277777777777778,0.37666666666666665,-0.6288888888888889,0.06424756715526873,0.1266725862287271,-1.8141866996413534
1589996240.5865228,-0.9140401458482126,-3.7163613126339134,8.765976581588543,0.5277777777777778,0.37666666666666665,-0.6288888888888889,0.0565083189578429,0.13613166735891424,-1.8993184298130377
1589996240.5965228,-0.9334821428571428,-3.9976102941176475,8.694616596638655,0.5277777777777778,0.37666666666666665,-0.6288888888888889,0.053039928052909344,0.13374822890512744,-1.8784724823142067
1589996240.6065228,-0.7808620149206946,-4.471032537145007,8.240341044448623,0.5277777777777778,0.37666666666666665,-0.6288888888888889,0.07850227222968335,0.13027901932231073,-1.8647936528009363
1589996240.6165228,-0.7896269826343176,-4.786571374835433,8.853888784402233,0.5277777777777778,0.37666666666666665,-0.6288888888888889,0.06702895632215433,0.1350595676171145,-1.925984670974425
1589996240.6265228,-0.628564409505092,-4.091477130605681,8.727533053421476,0.5168161018799754,0.3936074385087249,-0.6478226927123658,0.07730227787964891,0.15287290817979432,-2.020551588349399
1589996240.6365228,-0.5874459765383824,-4.0654923852644576,8.781353159086231,0.5155555555555555,0.3955555555555556,-0.65,0.05858433670434365,0.15498356058472246,-2.080727839042096
1589996240.6465228,-0.4317469662921348,-4.190522247191011,8.276024269662923,0.5155555555555555,0.3955555555555556,-0.65,0.0674814641278216,0.15628889067091054,-2.0917107516853566
1589996240.6565228,-0.37189212665191407,-4.5493617769321455,8.67746965028023,0.5155555555555555,0.3955555555555556,-0.65,0.06742510951515128,0.15809006057263453,-2.1275808760991994
1589996240.6665227,-0.2764744690091618,-4.306480466568775,8.530005997559613,0.5155555555555555,0.3955555555555556,-0.65,0.07783356133019352,0.15714383768035795,-2.1843542496357924
1589996240.6765227,-0.26,-4.27,8.73,0.4566666666666666,0.4488888888888889,-0.6411111111111111,0.06763150851478028,0.1636246173744684,-2.2449297503777066
1589996240.6865227,-0.24516027238000332,-4.305615346287992,8.68251287161601,0.4566666666666666,0.4488888888888889,-0.6411111111111111,0.06763150851478028,0.16524338054364393,-2.252376060955914
1589996240.6965227,-11.357464598330461,-22.442300517084053,7.9276896819764096,0.4566666666666666,0.4488888888888889,-0.6411111111111111,0.06117813605727167,0.168156860935878,-2.2829256032901424
1589996240.7065227,-1.4078037980260838,-7.304899321466337,8.394382930912936,0.4566666666666666,0.4488888888888889,-0.6411111111111111,-0.08365791593291026,0.14733773421498575,-1.2366191438475034
1589996240.7165227,2.3608629180763137,-1.6117964969380327,9.442192625583486,0.4566666666666666,0.4488888888888889,-0.6411111111111111,0.09299071987327083,-0.1105704218873444,0.4113960549142439
1589996240.7265227,0.9199600636384297,-2.4230088639241534,6.216380888989902,0.4222222222222222,0.4811111111111111,-0.6355555555555555,0.2826004530597181,0.054673859778201384,0.4484354557812699
1589996240.7365227,0.4977927854800481,-3.53970940614955,8.878758401246793,0.4222222222222222,0.4811111111111111,-0.6355555555555555,-0.0375304015933105,-0.03445770068203858,0.05997040477539067
1589996240.7465227,-0.011653726991069802,-4.557137780207763,8.807519409513397,0.4222222222222222,0.4811111111111111,-0.6355555555555555,-0.18492239756309642,0.04901800304665959,-0.29350133187592176
1589996240.7565227,-0.21039948970293423,-4.213154729360307,8.509400765445598,0.4222222222222222,0.4811111111111111,-0.6355555555555555,0.008528121816851336,0.04067961859062736,-0.43275235229166
1589996240.7665226,0.5671734397677795,-3.8207946298984035,8.937525399129173,0.4222222222222222,0.4811111111111111,-0.6355555555555555,-0.006516486938687102,0.043160247705851244,-0.3549633027425514
1589996240.7765226,-0.25544611040139864,-3.8546796207893497,8.417929133328851,0.43200101600962215,0.47703661369969447,-0.6355555555555555,0.012948930756545202,-0.004877531064907008,0.018579034581433118
1589996240.7865226,-0.14624483785796494,-4.820746733464221,8.874128528874145,0.4355555555555555,0.4755555555555556,-0.6355555555555555,-0.006836930182143052,-0.010421732013024033,-0.014103849006293119
1589996240.7965226,-0.19593697109200459,-4.5083961817074,8.668261119761695,0.4355555555555555,0.4755555555555556,-0.6355555555555555,-0.009160031978411866,-0.006549895685909344,-0.004811441821217866
1589996240.8065226,-0.270903101741391,-4.522709305224173,8.513546526120864,0.4355555555555555,0.4755555555555556,-0.6355555555555555,-0.004370509615323306,-0.004067783776215195,-0.0008938045466493699
1589996240.8165226,-0.278371318685232,-4.545113956055696,8.62556978027848,0.4355555555555555,0.4755555555555556,-0.6355555555555555,0.004590707410650436,-0.0016238154964041736,0.0007355076398913108
1589996240.8265226,-0.26029219547160265,-4.450292195471603,8.609853902264199,0.43,0.4811111111111111,-0.6433333333333333,0.009785603460975081,0.0010270836195104085,0.001090830782496456
1589996240.8365226,-0.27797697853860104,-4.4679769785386005,8.601011510730698,0.43,0.4811111111111111,-0.6433333333333333,0.007856492885849692,-0.00283113753074037,0.001090830782496456
1589996240.8465226,-0.26111927211731517,-4.517201819706711,8.486715632703891,0.43,0.4811111111111111,-0.6433333333333333,0.00042732776784507997,-0.0022427083889707804,0.0021206147410150434
1589996240.8565226,-0.26,-4.52972709026826,8.62590635402389,0.43,0.4811111111111111,-0.6433333333333333,-0.004244243795495561,-0.0011206006161190217,-0.001001521281628759
1589996240.8665226,-0.26,-4.544318329271072,8.565567518280172,0.43,0.4811111111111111,-0.6433333333333333,-0.005925210562266428,-0.0034336619309173633,0.0004710566497841489
1589996240.8765225,-0.26,-4.526153038537549,8.635387845849802,0.43441610397452785,0.4811111111111111,-0.6203695926657883,0.0021260151824372,-0.002629123154502636,-0.0006433691929867316
1589996240.8865225,-0.26,-4.500436156062957,8.601308468188872,0.4355555555555555,0.4811111111111111,-0.6144444444444445,0.0011621966514133845,-4.757724594461931e-05,0.0031773378556001295
1589996240.8965225,-0.24341286474286636,-4.4751192971143,8.591706432371433,0.4355555555555555,0.4811111111111111,-0.6144444444444445,0.00018614289590077363,-0.0018093757731913647,0.000558428687702321
1589996240.9065225,-0.2585539297195433,-4.488553929719544,8.571446070280457,0.4355555555555555,0.4811111111111111,-0.6144444444444445,-0.0033731996123922752,0.0005168981249209087,-0.0006746399224784552
1589996240.9165225,-0.2574679223072396,-4.531330194231901,8.603862271924662,0.4355555555555555,0.4811111111111111,-0.6144444444444445,-0.0020365598835072147,0.001498142759197899,0.0002762068290935698
1589996240.9265225,-0.2558054849976187,-4.55,8.600972575011907,0.42781490889206397,0.4811111111111111,-0.6228301449965603,0.0031664008713619043,0.001724110956768837,0.001724110956768837
1589996240.9365225,-0.24423728171521647,-4.463305049433691,8.706101746278268,0.4222222222222222,0.4811111111111111,-0.6288888888888889,0.011472214324783837,0.002181661564992912,-0.0003975071831363278
1589996240.9465225,-0.25959674375977143,-4.479193487519543,8.596290545761676,0.4222222222222222,0.4811111111111111,-0.6288888888888889,0.006676949991001272,0.0014691038539977788,-0.0003782730715013228
1589996240.9565225,-0.2516416035020875,-4.5,8.602612784240605,0.4222222222222222,0.4811111111111111,-0.6288888888888889,0.002271197146629462,-0.0009117596192233562,0.0
1589996240.9665225,-0.2566819551389354,-4.5534556411114835,8.569908269166389,0.4222222222222222,0.4811111111111111,-0.6288888888888889,-0.00510722078781819,-0.0003619425472153456,0.0007288882352811104
1589996240.9765224,-0.26,-4.540778368794326,8.604910283687943,0.43791087470449175,0.492441804570528,-0.6288888888888889,-0.0018811802345520441,-0.0008556832531774505,-0.0006205357238584449
1589996240.9865224,-0.25158141827656627,-4.555255745170301,8.611581418276566,0.44222222222222224,0.4955555555555556,-0.6288888888888889,-0.0018366496177767142,-0.001090830782496456,-0.00017250597360809886
1589996240.9965224,-0.2585221853743555,-4.500344702379512,8.567389073128222,0.44222222222222224,0.4955555555555556,-0.6288888888888889,0.002466469505251119,-0.0029500832105940683,0.0
1589996241.0065224,-0.26,-4.519568087125119,8.54521595643744,0.44222222222222224,0.4955555555555556,-0.6288888888888889,-0.0007592301044626959,-0.0008534588763181297,-0.0008063444903904127
1589996241.0165224,-0.2659896557363644,-4.518020688527272,8.56994827868182,0.44222222222222224,0.4955555555555556,-0.6288888888888889,-0.002181661564992912,0.0,-0.0017442008678747302
1589996241.0265224,-0.2576464241250519,-4.5223535758749485,8.602353575874949,0.4381043635972395,0.4914376969305728,-0.6378109159096848,-0.0008340954811630115,0.0,0.0005134706026668889
1589996241.0365224,-0.26094042362826525,-4.519059576371735,8.637351059070664,0.4355555555555555,0.4888888888888889,-0.6433333333333333,0.0035802452601789814,0.0005967075433631636,0.0009882464782665847
1589996241.0465224,-0.2554436207569255,-4.51,8.587218103784627,0.4355555555555555,0.4888888888888889,-0.6433333333333333,0.007338912022980643,0.001090830782496456,0.0
1589996241.0565224,-0.2734578143518415,-4.517819271450613,8.575638542901228,0.4355555555555555,0.4888888888888889,-0.6433333333333333,0.005076964878967606,-0.00146801981601113,0.0
1589996241.0665224,-0.2588105581885203,-4.512936852729506,8.594126294540986,0.4355555555555555,0.4888888888888889,-0.6433333333333333,-0.0025709054875780414,0.00012974797419504358,0.0007704698463959851
1589996241.0765224,-0.2554902337742233,-4.52647070132267,8.610980467548446,0.4355555555555555,0.4815685771899245,-0.627472657985577,-0.004256370711677382,-0.0019036272195157892,0.001090830782496456
1589996241.0865223,-0.2667389719285454,-4.533261028071455,8.606522056142909,0.4355555555555555,0.4755555555555556,-0.6144444444444445,-0.002537384545285686,-0.004363323129985824,0.001090830782496456
1589996241.0965223,-0.27,-4.53,8.552252930111417,0.4355555555555555,0.4755555555555556,-0.6144444444444445,0.0012906033422388496,-0.0026271906763699433,0.001090830782496456
1589996241.1065223,-0.2613128665594021,-4.503938599678206,8.58343566720299,0.4355555555555555,0.4755555555555556,-0.6144444444444445,0.002181661564992912,-0.0031292808218587676,0.00014321152563060075
1589996241.1165223,-0.2671332701568453,-4.521399810470536,8.597133270156846,0.4355555555555555,0.4755555555555556,-0.6144444444444445,0.0006254234316028764,-0.0017162542140993322,0.0007781190666950177
1589996241.1265223,-0.27,-4.513825853585805,8.624261219621292,0.42477279127942613,0.4971210841078144,-0.6378071003760581,-0.0017643256789207627,0.0015556577358846878,-0.0006734948964243067
1589996241.1365223,-0.25447372446192507,-4.525526275538075,8.622236862230961,0.4222222222222222,0.5022222222222222,-0.6433333333333333,0.0020524732586205585,0.001334834600270218,0.0006028231469489319
1589996241.1465223,-0.25,-4.505711659261529,8.563327204943569,0.4222222222222222,0.5022222222222222,-0.6433333333333333,0.004155641338598929,-0.0006754671997226663,0.00020768179138689485
1589996241.1565223,-0.2576979910714286,-4.523093973214286,8.596187946428572,0.4222222222222222,0.5022222222222222,-0.6433333333333333,0.004363323129985824,0.002268051467142408,0.001679441124819432
1589996241.1665223,-0.2723660958636328,-4.517633904136368,8.616183047931816,0.4222222222222222,0.5022222222222222,-0.6433333333333333,0.0009909936231476328,0.0012490946433864531,0.0008327297622576354
1589996241.1765223,-0.26486564947339997,-4.5251343505266,8.6351343505266,0.4222222222222222,0.4862470744441444,-0.6433333333333333,-0.001090830782496456,-0.0016509015427506786,0.0008254507713753393
1589996241.1865222,-0.24510079780389465,-4.552348803294158,8.647449601098053,0.4222222222222222,0.4811111111111111,-0.6433333333333333,-0.0035287070410190318,-0.0029942869845004374,0.001090830782496456
1589996241.1965222,-0.2520973390765267,-4.54185399138521,8.577415965540839,0.4222222222222222,0.4811111111111111,-0.6433333333333333,-0.0017240931597913068,-0.003272492347489368,0.001090830782496456
1589996241.2065222,-0.25290127581050553,-4.508703827431517,8.579691069326461,0.4222222222222222,0.4811111111111111,-0.6433333333333333,0.0,-0.003272492347489368,0.001090830782496456
1589996241.2165222,-0.25,-4.493557226136966,8.612885547726068,0.4222222222222222,0.4811111111111111,-0.6433333333333333,0.0021083928163383716,-0.002569694742043244,0.001090830782496456
1589996241.2265222,-0.2709627739153393,-4.524937956525566,8.626987591305113,0.4276570154595324,0.4811111111111111,-0.6534265207740523,-0.0005386474980716019,0.0001050223423436701,0.00032860281338426196
1589996241.2365222,-0.26484497607655505,-4.532422488038278,8.59968995215311,0.43,0.4811111111111111,-0.6577777777777778,0.0002980734257816875,-0.0005623258780199434,-0.0008265783302581997
1589996241.2465222,-0.2544299919470607,-4.5355700080529395,8.556579951682364,0.43,0.4811111111111111,-0.6577777777777778,0.002306018031076329,0.0001243564660834166,0.000731950090373353
1589996241.2565222,-0.25,-4.5261378879400125,8.571586336179962,0.43,0.4811111111111111,-0.6577777777777778,0.004028553274761855,-0.0011773519993210034,0.0006695397104479392
1589996241.2665222,-0.26206251744348313,-4.52,8.614125034886966,0.43,0.4811111111111111,-0.6577777777777778,0.0030475065958106406,-0.0015237532979053203,0.0006579082670875918
1589996241.2765222,-0.256443683113764,-4.506443683113764,8.636778158443118,0.4337656435795099,0.4909017844178371,-0.6427152034597378,-0.001515250374202774,-0.001090830782496456,-0.0003879339931818183
1589996241.2865222,-0.2676122419776053,-4.511741494651736,8.622387758022395,0.4355555555555555,0.4955555555555556,-0.6355555555555555,-0.004553290727352574,-0.00045043159256485325,0.00018996759736674947
1589996241.2965221,-0.2662975476839237,-4.540553678474114,8.555190190735694,0.4355555555555555,0.4955555555555556,-0.6355555555555555,-0.0032120953951723977,-0.002242058517309882,0.00183818362159975
1589996241.3065221,-0.2746755165494278,-4.527986725175858,8.566688791373569,0.4355555555555555,0.4955555555555556,-0.6355555555555555,0.00021961421517988598,-0.002472067087431769,-0.0010200394752374851
1589996241.3165221,-0.2683263312164143,-4.52,8.615021006350757,0.4355555555555555,0.4955555555555556,-0.6355555555555555,0.00172753064518662,-0.002818361427683076,-0.001544961702302748
1589996241.326522,-0.2554061213132999,-4.5062183639399,8.6354061213133,0.42943038397328875,0.4955555555555556,-0.6457641748593335,0.0016805471367422305,-0.0022702634909880053,0.0004125125022555881
1589996241.336522,-0.2687510620220901,-4.515001416029453,8.604998583970547,0.4222222222222222,0.4955555555555556,-0.6577777777777778,0.001090830782496456,-0.00040902292722325335,0.0008180458544465067
1589996241.346522,-0.28,-4.514727689010132,8.536546911535464,0.4222222222222222,0.4955555555555556,-0.6577777777777778,-0.0014080952596445026,0.0008329753473803193,0.0008329753473803193
1589996241.356522,-0.28,-4.52435575445862,8.54871150891724,0.4222222222222222,0.4955555555555556,-0.6577777777777778,0.00016729326542060411,-0.00125812404791706,0.001873815725967628
1589996241.366522,-0.2684930214271673,-4.512739532140751,8.606027914291332,0.4222222222222222,0.4955555555555556,-0.6577777777777778,0.0017184391045351089,-0.002809269887031565,0.00029883659887695304
1589996241.376522,-0.26556921476289563,-4.511138429525791,8.645569214762896,0.429647841906083,0.49184274571362513,-0.6416889351294126,0.0015741544752228866,-0.0026649852577193423,0.0007316904868136206
1589996241.386522,-0.27,-4.52,8.636097093666514,0.4355555555555555,0.4888888888888889,-0.6288888888888889,-0.0004257410369767182,-0.0029399474747294992,0.0006650897455197377
1589996241.396522,-0.25609170536889403,-4.533908294631106,8.579002919685944,0.4355555555555555,0.4888888888888889,-0.6288888888888889,-0.0021022705102058305,-0.0017553327559253064,-0.0005057198638546872
1589996241.406522,-0.2446752685071722,-4.542987097239242,8.536363439775103,0.4355555555555555,0.4888888888888889,-0.6288888888888889,-0.0037824850278953374,-0.00025499634020298466,-0.001090830782496456
1589996241.416522,-0.2564372825300582,-4.523562717469941,8.600688152409825,0.4355555555555555,0.4888888888888889,-0.6288888888888889,-0.002733728592597011,-0.0007021985939414175,-0.0007021985939414175
1589996241.426522,-0.25180056710775045,-4.5263988657845,8.629002835538751,0.4355555555555555,0.4888888888888889,-0.6300892669607225,0.001985250162284429,0.00019641140270848287,0.00039282280541696573
1589996241.436522,-0.2663017989796832,-4.516301798979683,8.651094603060951,0.4355555555555555,0.4888888888888889,-0.6355555555555555,0.0017782504137107713,0.001090830782496456,0.002181661564992912
1589996241.446522,-0.276422841988566,-4.52,8.562925896137209,0.4355555555555555,0.4888888888888889,-0.6355555555555555,-0.0006208319359024893,0.001090830782496456,0.0007804148145452113
1589996241.456522,-0.2753135113268609,-4.52,8.557491909385114,0.4355555555555555,0.4888888888888889,-0.6355555555555555,-0.0011592283436966788,0.0005796141718483394,-0.0005112166106481166
1589996241.466522,-0.27,-4.516158987192698,8.607682025614602,0.4355555555555555,0.4888888888888889,-0.6355555555555555,0.00083797900123355,-0.00083797900123355,-0.00025285178126290594
1589996241.476522,-0.2657996523684894,-4.50579965236849,8.632601042894532,0.42202110207624355,0.4916891206432293,-0.6355555555555555,0.0008071010169015593,-0.0008071010169015593,0.001090830782496456
1589996241.486522,-0.26,-4.505291321806113,8.628834712775546,0.4033333333333333,0.4955555555555556,-0.6355555555555555,-0.002245218123737072,-0.0012179438999847753,0.0005136371118761482
1589996241.496522,-0.25440958325683866,-4.504409583256838,8.559686249311547,0.4033333333333333,0.4955555555555556,-0.6355555555555555,-0.003272492347489368,-0.00510195194861657,0.0
1589996241.506522,-0.25572487144271616,-4.522899485770864,8.531449742885432,0.4033333333333333,0.4955555555555556,-0.6355555555555555,-0.0026480057479344003,-0.004671524896313834,0.0
1589996241.516522,-0.25459977686591156,-4.523799330597734,8.583201785072706,0.4033333333333333,0.4955555555555556,-0.6355555555555555,-0.0010035156395902763,-0.0015052734593854148,0.0
1589996241.526522,-0.25569627210708396,-4.521392544214168,8.642785088428335,0.4292830173767158,0.49935307029361153,-0.6355555555555555,0.001242733791976628,-0.000621366895988314,-0.000621366895988314
1589996241.536522,-0.26561103707768285,-4.524388962922317,8.665611037077683,0.4488888888888889,0.5022222222222222,-0.6355555555555555,0.0027937307615994523,-0.001702899979102996,0.0007453768073231643
1589996241.546522,-0.25748110669911617,-4.507481106699116,8.601146086845139,0.4488888888888889,0.5022222222222222,-0.6355555555555555,0.001224093221180457,0.0019151366876249101,0.0001332624386840009
1589996241.556522,-0.25680136647637886,-4.513602732952758,8.573602732952757,0.4488888888888889,0.5022222222222222,-0.6355555555555555,-0.0014838279830946982,0.0006537531722490787,-0.0003489167909491069
1589996241.566522,-0.25613896977888007,-4.52,8.59544412088448,0.4488888888888889,0.5022222222222222,-0.6355555555555555,-0.001339315441523564,-0.000669657720761782,0.000421173061734674
1589996241.5765219,-0.2502949659333157,-4.52,8.618820136266736,0.4488888888888889,0.5022222222222222,-0.6355555555555555,-6.435158396970921e-05,-3.2175791984854606e-05,0.0010586549905116014
1589996241.5865219,-0.26561000930765377,-4.515203336435884,8.620813345743539,0.4222222222222222,0.5022222222222222,-0.6288888888888889,4.4361128693204454e-05,-0.0005232348269016258,0.001090830782496456
1589996241.5965219,-0.25581774957016407,-4.521635499140328,8.559275753008851,0.4222222222222222,0.5022222222222222,-0.6288888888888889,-0.001090830782496456,-0.00045621275089740556,0.001090830782496456
1589996241.6065218,-0.26399611887734936,-4.53,8.537992237754699,0.4222222222222222,0.5022222222222222,-0.6288888888888889,-0.0015267397306892396,0.0004359089481927836,0.0006549218343036723
1589996241.6165218,-0.2675785020725683,-4.532421497927432,8.557264493782295,0.4222222222222222,0.5022222222222222,-0.6288888888888889,-0.002181661564992912,0.0005625418866976783,0.0
1589996241.6265218,-0.26,-4.5302645074798376,8.599470985040325,0.4265491077867389,0.4978953366577055,-0.6288888888888889,-0.0007656915751586002,-0.001090830782496456,0.0
1589996241.6365218,-0.2642670682730924,-4.505732931726907,8.64,0.4355555555555555,0.4888888888888889,-0.6288888888888889,0.002181661564992912,-0.001090830782496456,0.0009309298846606301
