time,acc_x,acc_y,acc_z,mag_x,mag_y,mag_z,gyr_x,gyr_y,gyr_z
1589996247.7749135,-4.11,-0.69,8.87,0.33,-0.3388888888888889,-0.5755555555555556,-0.002181661564992912,-0.004363323129985824,0.02399827721492203
1589996247.7849135,-4.0828131555796165,-0.692813155579617,8.80515395547134,0.33,-0.3388888888888889,-0.5755555555555556,0.0003919815561383354,-0.0072438339213368565,0.015885366295389954
1589996247.7949135,-4.066177707527731,-0.68,8.869111462361342,0.33,-0.3388888888888889,-0.5755555555555556,0.001090830782496456,-0.006544984694978735,0.010171337388039013
1589996247.8049135,-4.06,-0.68,8.9,0.3274278671663191,-0.33580232948847183,-0.5755555555555556,0.0005857936815996458,-0.005029873392288305,0.004444079710688659
1589996247.8149135,-4.06,-0.672771737027435,8.892771737027436,0.3244444444444444,-0.3322222222222222,-0.5755555555555556,-0.0007884811754453352,-0.0009070488211533625,0.0016955299965986973
1589996247.8249135,-4.06792959576845,-0.67,8.810704042315496,0.3244444444444444,-0.3322222222222222,-0.5755555555555556,-0.00022584606679852974,-0.0017299694313958525,0.00022584606679852974
1589996247.8349135,-4.054928453494772,-0.6926073197578426,8.850286186020913,0.3244444444444444,-0.3322222222222222,-0.5755555555555556,0.002466076030159503,-0.003003686908379413,-0.002466076030159503
1589996247.8449135,-4.0555723854603904,-0.7,8.903434312762347,0.3244444444444444,-0.3322222222222222,-0.5755555555555556,0.003880345306702406,-0.0020567864290632915,-0.0014489334698502537
1589996247.8549135,-4.053526415094339,-0.6935264150943395,8.93647358490566,0.3071815513626834,-0.3228714884696017,-0.5712398322851153,0.0036571645611659484,-0.001090830782496456,-0.0007061585688198754
1589996247.8649135,-4.069145262333595,-0.6836182458888019,8.888945967110415,0.2977777777777777,-0.31777777777777777,-0.5688888888888889,0.002576350964407546,-0.001090830782496456,-0.001786972165578278
1589996247.8749135,-4.071875259731264,-0.6759376298656324,8.831563409059425,0.2977777777777777,-0.31777777777777777,-0.5688888888888889,0.003954204921977907,-0.002420238300235202,-0.002181661564992912
1589996247.8849134,-4.06,-0.6762249339027863,8.808674801708358,0.2977777777777777,-0.31777777777777777,-0.5688888888888889,0.00722401964699524,-0.005381875558010581,-0.0025211790410011644
1589996247.8949134,-4.06,-0.6825966491030726,8.861105026345392,0.2977777777777777,-0.31777777777777777,-0.5688888888888889,0.008322856107372092,-0.006828235172276081,-0.0028687021948898125
1589996247.9049134,-4.06,-0.670180865549701,8.879728701675448,0.2977777777777777,-0.31777777777777777,-0.5688888888888889,0.0076456801629305425,-0.0054738832833929815,-0.002191526250448263
1589996247.9149134,-4.049605830649123,-0.6544087459736857,8.92118250805263,0.31777777777777777,-0.31222222222222223,-0.5688888888888889,0.006544984694978735,-0.00545415391248228,-0.0037964091356649738
1589996247.9249134,-4.046486917018201,-0.67,8.815678043600107,0.31777777777777777,-0.31222222222222223,-0.5688888888888889,0.004333911662532455,-0.00398010522418476,-0.004363323129985824
1589996247.9349134,-4.04,-0.664793229920253,8.821654160637975,0.31777777777777777,-0.31222222222222223,-0.5688888888888889,0.004408433363563271,-0.0038404628555263193,-0.005499264146059727
1589996247.9449134,-4.043510790991414,-0.6670215819828283,8.881064745948485,0.31777777777777777,-0.31222222222222223,-0.5688888888888889,0.005071186024047695,-0.004363323129985824,-0.008076856248717072
1589996247.9549134,-4.046353483803464,-0.6836465161965365,8.923646516196536,0.31777777777777777,-0.3166790753513224,-0.5713198996865799,0.005556642764801991,-0.003965549918380435,-0.012499400671386116
1589996247.9649134,-4.04,-0.685784249299623,8.93,0.31777777777777777,-0.3244444444444444,-0.5755555555555556,0.008095682541005414,-0.002812625283959146,-0.016191365082010828
1589996247.9749134,-4.029574833095636,-0.68,8.851811248217276,0.31777777777777777,-0.3244444444444444,-0.5755555555555556,0.008726646259971648,-0.0016130569163957742,-0.020296315762928986
1589996247.9849133,-4.045449371591178,-0.6481882855110268,8.818174057386768,0.31777777777777777,-0.3244444444444444,-0.5755555555555556,0.007338598363629228,-0.0017848547306676657,-0.027071590121452837
1589996247.9949133,-4.071172374286174,-0.6467585614292619,8.873517122858525,0.31777777777777777,-0.3244444444444444,-0.5755555555555556,0.004107550737992509,-0.0003535860972532414,-0.03067114810589743
1589996248.0049133,-4.086970564516129,-0.666970564516129,8.927882258064516,0.31777777777777777,-0.3244444444444444,-0.5608399193548387,0.0014212909304358056,0.00033046014793934977,-0.02631149825049748
1589996248.0149133,-4.096923107858119,-0.67,8.884615137135043,0.31777777777777777,-0.3244444444444444,-0.5544444444444444,0.001090830782496456,-0.001510387832435976,-0.018711919801396113
1589996248.0249133,-4.064349373728723,-0.6842602505085108,8.802958997965955,0.31777777777777777,-0.3244444444444444,-0.5544444444444444,0.0018686067935361757,-0.0006261095429134728,-0.011695805671208523
1589996248.0349133,-4.062438494790733,-0.6837807526046336,8.817315484372198,0.31777777777777777,-0.3244444444444444,-0.5544444444444444,0.0008248322644275879,0.000678414650282662,-0.007103818441337456
1589996248.0449133,-4.052972980988819,-0.6765945961977637,8.850216211406709,0.31777777777777777,-0.3244444444444444,-0.5544444444444444,0.001857359647154893,-0.0003950569352274588,-0.005082681983051301
1589996248.0549133,-4.02187368389833,-0.6703747367796661,8.868875789661,0.31777777777777777,-0.3244444444444444,-0.5544444444444444,0.005249766705185623,-0.003108982581652043,-0.0044042005714451556
1589996248.0649133,-4.013210329929301,-0.67,8.913210329929301,0.3111111111111111,-0.3244444444444444,-0.5688888888888889,0.0029625524464454026,-0.0025318542358780173,-0.013399909291001436
1589996248.0749133,-4.034846299504451,-0.67,8.887338141090206,0.3111111111111111,-0.3244444444444444,-0.5688888888888889,0.0006477920202247194,-0.0019769083070399294,-0.019277525828458077
1589996248.0849133,-4.082314757395458,-0.67,8.834629514790915,0.3111111111111111,-0.3244444444444444,-0.5688888888888889,0.002629438779857627,0.001090830782496456,-0.025284384350185513
1589996248.0949132,-4.1,-0.67,8.873875991183121,0.3111111111111111,-0.3244444444444444,-0.5688888888888889,0.0026382847732042214,0.000668025732973025,-0.022941264591113453
1589996248.1049132,-4.091676063144329,-0.67,8.901098582474226,0.30741158361970217,-0.3266025021477663,-0.5707386526345933,0.00030266688512405694,-0.0019988314378686267,-0.01582012133632324
1589996248.1149132,-4.0679324347381,-0.6782702610476028,8.921729738952397,0.2977777777777777,-0.3322222222222222,-0.5755555555555556,0.00063975801599613,-0.003235641213735009,-0.007598964343720833
1589996248.1249132,-4.051994947873183,-0.7059974739365915,8.857979791492733,0.2977777777777777,-0.3322222222222222,-0.5755555555555556,-0.0015274386462674884,0.0015274386462674884,-0.0037091002112604006
1589996248.1349132,-4.0349933493906605,-0.6849800481719812,8.81500665060934,0.2977777777777777,-0.3322222222222222,-0.5755555555555556,0.0005490427359432322,0.002181661564992912,-0.0032710414096113662
1589996248.1449132,-4.034679087300264,-0.67,8.834037261900791,0.2977777777777777,-0.3322222222222222,-0.5755555555555556,0.0037829015936009383,0.0006504338266582013,-0.003712889303327622
1589996248.1549132,-4.0359334251235115,-0.6659334251235118,8.874399449258929,0.30862197744841297,-0.32905933065162024,-0.5696816140672948,0.006137701151825851,-0.00197801979341647,-0.008559315450702328
1589996248.1649132,-4.044599843075716,-0.664866614358572,8.900266771282856,0.3244444444444444,-0.3244444444444444,-0.5611111111111111,0.009788376809745562,-0.003272492347489368,-0.01680602631416617
1589996248.1749132,-4.055665238879736,-0.6743347611202636,8.850987149917628,0.3244444444444444,-0.3244444444444444,-0.5611111111111111,0.009016911479063621,-0.002326794174538898,-0.020252935780957427
1589996248.1849132,-4.066536080178174,-0.68,8.844096213808465,0.3244444444444444,-0.3244444444444444,-0.5611111111111111,0.0047411781669605985,0.00011170690284896881,-0.01722987871424536
1589996248.1949131,-4.073340260375282,-0.6766701301876414,8.883329869812359,0.3244444444444444,-0.3244444444444444,-0.5611111111111111,0.003272492347489368,-0.0003620990147141527,-0.012002538911226514
1589996248.2049131,-4.060522278589328,-0.6702611392946641,8.889738860705336,0.3244444444444444,-0.3244444444444444,-0.5611111111111111,0.003272492347489368,-0.003158548835033746,-0.005710526815507431
1589996248.2149131,-4.043973469072959,-0.68801326546352,8.92201989819528,0.31777777777777777,-0.31222222222222223,-0.5822222222222222,0.005017098080686113,-0.0008704940696044137,-0.002835436515693202
1589996248.2249131,-4.032855334274724,-0.6807169985879145,8.862867994351658,0.31777777777777777,-0.31222222222222223,-0.5822222222222222,0.004363323129985824,-0.0003114686521185771,-0.004986260434222978
1589996248.234913,-4.059467910430003,-0.6764893034766676,8.84595721390667,0.31777777777777777,-0.31222222222222223,-0.5822222222222222,0.004363323129985824,-0.002506577180358501,-0.007252857893909758
1589996248.244913,-4.074736686235911,-0.670526627528178,8.874210058707733,0.31777777777777777,-0.31222222222222223,-0.5822222222222222,0.005396707760617625,-0.004305876978121169,-0.007119123162159291
1589996248.254913,-4.08,-0.6576396965611606,8.89236030343884,0.3143684505883431,-0.3151070375363592,-0.5840580137857639,0.005515108036131446,-0.0051966847477704576,-0.005772577200843269
1589996248.264913,-4.073660714285714,-0.6563392857142857,8.892075892857143,0.3033333333333333,-0.3244444444444444,-0.59,0.0020087843650883398,-0.004536200329890396,-0.002580983547871079
1589996248.274913,-4.046953749603592,-0.6934768748017959,8.822185001585632,0.3033333333333333,-0.3244444444444444,-0.59,0.0007115625764279286,-0.004316349294276697,0.00033229437035940136
1589996248.284913,-4.058871756447669,-0.7,8.775641217761653,0.3033333333333333,-0.3244444444444444,-0.59,0.000492289118814159,-0.0020585892852893724,-0.001090830782496456
1589996248.294913,-4.05,-0.6967183070068853,8.849535236938031,0.3033333333333333,-0.3244444444444444,-0.59,0.004363323129985824,-0.0021647623031741635,-0.0007328536089372201
1589996248.304913,-4.05,-0.6884975699091357,8.91,0.30642166185344316,-0.3231089510303429,-0.5884141015707544,0.004527212829152193,-0.0044452679795690085,-8.19448495831845e-05
1589996248.314913,-4.034961930150937,-0.6730076139698127,8.916015227939626,0.34444444444444444,-0.30666666666666664,-0.5688888888888889,0.007529224065020129,-0.006110313492509875,-0.0020750701525378487
1589996248.324913,-3.9957547607988855,-0.6736321411983279,8.900283325592197,0.34444444444444444,-0.30666666666666664,-0.5688888888888889,0.010049018922449936,-0.0074042735974933615,-0.008067993209695107
1589996248.334913,-4.033750181523971,-0.6679167271746571,8.839270999730306,0.34444444444444444,-0.30666666666666664,-0.5688888888888889,0.008465293134501208,-0.0006817494378666931,-0.03110007147368985
1589996248.344913,-4.108623094662241,-0.6943115473311209,8.90215577366556,0.34444444444444444,-0.30666666666666664,-0.5688888888888889,0.0040432033477891165,0.0079559352596719,-0.04254240051736178
1589996248.354913,-4.132214410259294,-0.7061072051296473,8.908053602564824,0.34444444444444444,-0.30666666666666664,-0.5688888888888889,0.00018308335986103996,0.011816055247599974,-0.04254240051736178
1589996248.364913,-4.164049424686192,-0.6614500523012553,8.891299686192468,0.33,-0.3322222222222222,-0.5755555555555556,0.00031635233728780586,0.01694595921798986,-0.013673466870500488
1589996248.374913,-4.059437307640841,-0.67,8.815353717828627,0.33,-0.3322222222222222,-0.5755555555555556,0.006406435221177108,-0.003518013206068124,0.002181661564992912
1589996248.384913,-4.050977208866688,-0.6736590696222292,8.799272556977833,0.33,-0.3322222222222222,-0.5755555555555556,0.012185087282841303,-0.011200853451615967,0.0017825189870703873
1589996248.394913,-4.062237446538888,-0.68,8.861643830191667,0.33,-0.3322222222222222,-0.5755555555555556,0.009150027873279417,-0.012781148335622484,-0.00017931405742684895
1589996248.404913,-4.047922358962778,-0.675844717925558,8.88,0.32746066095450765,-0.32806694014778015,-0.5741704615307416,0.010270748002143818,-0.017679927999781152,-0.0024082970448307687
1589996248.414913,-4.040029731662338,-0.6600594633246774,8.88,0.3178141164761917,-0.3122816855468995,-0.5689087099971146,0.011992652164962259,-0.018540880081190373,-0.0032692491262399904
1589996248.424913,-4.019472888061438,-0.6389457761228764,8.782635559692809,0.31777777777777777,-0.31222222222222223,-0.5688888888888889,-0.0001716719377852522,-0.0016658207109010326,-0.0022966595506738277
1589996248.434913,-4.067799306587419,-0.6930743932639921,8.838673006438832,0.31777777777777777,-0.31222222222222223,-0.5688888888888889,-0.016397753003773073,0.014971557940290387,0.0010308161795644568
1589996248.444913,-4.083927401166007,-0.7071864760202562,8.933927401166008,0.31777777777777777,-0.31222222222222223,-0.5688888888888889,-0.022269329689092343,0.014682116272525013,0.0025371714823404206
1589996248.454913,-4.027287338091462,-0.6545746761829236,8.88,0.315969336505419,-0.3194559873116574,-0.5746156195846918,-0.008854500970243633,-0.0013692045698139497,0.001792964791319842
1589996248.464913,-4.025186909143393,-0.6477803637150898,8.887780363715091,0.3111111111111111,-0.3388888888888889,-0.59,0.004322545880557148,-0.00807928774515173,-0.001332955541049063
1589996248.474913,-4.040341873775593,-0.6706837475511851,8.906239388468482,0.3111111111111111,-0.3388888888888889,-0.59,0.000978952851053075,0.00018646321907230166,0.001090830782496456
1589996248.4849129,-4.05,-0.6930616707974923,8.81224668318997,0.3111111111111111,-0.3388888888888889,-0.59,-0.0018476850898153994,0.005788130387659792,0.001090830782496456
1589996248.4949129,-4.048899314737411,-0.6977986294748215,8.845503426312947,0.3111111111111111,-0.3388888888888889,-0.59,-0.001090830782496456,0.006184786285096984,0.0009707646458692053
1589996248.5049129,-4.04,-0.6749190969404802,8.9027022576488,0.31449837981745765,-0.3352193477903468,-0.59,-0.001090830782496456,0.003272492347489368,0.0
1589996248.5149128,-4.046848682945587,-0.66,8.922878292636032,0.3244444444444444,-0.3244444444444444,-0.59,-0.0025849816178175004,0.0036460300563196293,0.0011206131264907835
1589996248.5249128,-4.063841519178008,-0.6676830383560171,8.851584808219915,0.3244444444444444,-0.3244444444444444,-0.59,-0.0058731986495744945,0.00562045734126247,0.002853447610397153
1589996248.5349128,-4.064694362017804,-0.682652818991098,8.797958456973292,0.3244444444444444,-0.3244444444444444,-0.59,-0.0074131176797429775,0.008214570800651353,0.002760416888169073
1589996248.5449128,-4.046176981760304,-0.6861769817603044,8.839115091198478,0.3244444444444444,-0.3244444444444444,-0.59,-0.00940045044467757,0.00940045044467757,0.0031122433366142185
1589996248.5549128,-4.04,-0.6774089209909396,8.877773237027181,0.3258839327828113,-0.32645972811815804,-0.59,-0.0084440033856753,0.009291932008564343,0.0005255450339037604
1589996248.5649128,-4.043639930167323,-0.6772798603346476,8.9,0.33,-0.3322222222222222,-0.59,-0.008429925052006048,0.010511253037699132,0.00010033357929982705
1589996248.5749128,-4.05,-0.6844437959612466,8.872218979806235,0.33,-0.3322222222222222,-0.59,-0.011029652722328762,0.010726608802363598,0.0018786176450277473
1589996248.5849128,-4.063252919187637,-0.67,8.839758757562912,0.33,-0.3322222222222222,-0.59,-0.013457965562063292,0.013451386695152787,0.001090830782496456
1589996248.5949128,-4.0931459111844966,-0.6684270444077518,8.913708177631007,0.33,-0.3322222222222222,-0.59,-0.011827555769508587,0.012636554630882077,0.0019487449722585945
1589996248.6049128,-4.107835408733834,-0.66,8.882164591266166,0.32795566380417673,-0.3306589063077691,-0.5907215304220552,-0.01055412740726606,0.004009142712287325,0.007725586087307067
1589996248.6149127,-4.0872581754410096,-0.6737091227949521,8.88903270176404,0.3111111111111111,-0.31777777777777777,-0.5966666666666667,-0.009131248792050944,0.0013899174454116065,0.0204441591490948
1589996248.6249127,-4.080046765929644,-0.709766170351776,8.860187063718579,0.3111111111111111,-0.31777777777777777,-0.5966666666666667,-0.013064462532143172,0.0021765601934300525,0.028310586629279252
1589996248.6349127,-4.095002560983417,-0.7075064024585441,8.814997439016583,0.3111111111111111,-0.31777777777777777,-0.5966666666666667,-0.014999621659212623,0.0008188214867586958,0.04035962151255071
1589996248.6449127,-4.081575645047699,-0.6739391126192458,8.828424354952302,0.3111111111111111,-0.31777777777777777,-0.5966666666666667,-0.011337998355043915,-0.002842801817410014,0.04621821879922064
1589996248.6549127,-4.056566051875598,-0.6782830259377993,8.876867896248802,0.31225576048591164,-0.31777777777777777,-0.5930419436464651,-0.006357691878999078,-0.003459785163469025,0.04908738521234052
1589996248.6649127,-4.042361090802749,-0.673148121070332,8.911574060535166,0.31777777777777777,-0.31777777777777777,-0.5755555555555556,-0.005196598859691499,-0.0042774714457222305,0.04865812679102255
1589996248.6749127,-4.062127169261158,-0.7060635846305789,8.898508677044632,0.31777777777777777,-0.31777777777777777,-0.5755555555555556,-0.002181661564992912,-0.002843096041723703,0.042345042382561246
1589996248.6849127,-4.038050734641554,-0.7119492653584458,8.873898530716891,0.31777777777777777,-0.31777777777777777,-0.5755555555555556,-0.0013126864662454886,-0.0017471740156192002,0.03905727630424773
1589996248.6949127,-4.025544892570868,-0.7161377685728288,8.904455107429131,0.31777777777777777,-0.31777777777777777,-0.5755555555555556,0.00030242697509696054,-0.0001835498572055743,0.03436640382900685
1589996248.7049127,-4.038807291584323,-0.6829817710391931,8.891192708415678,0.31777777777777777,-0.31777777777777777,-0.5755555555555556,0.0010257786297782913,0.001986505106838418,0.02785623893687488
1589996248.7149127,-4.05,-0.6898387214478581,8.903225814298573,0.33,-0.31777777777777777,-0.5755555555555556,0.0007389490289464912,0.0018297798114429473,0.015957801701127032
1589996248.7249126,-4.057826894009706,-0.67,8.850865529951474,0.33,-0.31777777777777777,-0.5755555555555556,0.002181661564992912,0.0028456015016331804,0.00877385359568362
1589996248.7349126,-4.077341967910304,-0.67,8.823038855596366,0.33,-0.31777777777777777,-0.5755555555555556,0.0017812193349599002,0.0009803348748938766,0.002651058302251197
1589996248.7449126,-4.0846562536290785,-0.6735624975806139,8.883562497580614,0.33,-0.31777777777777777,-0.5755555555555556,0.001090830782496456,-0.001285134883671598,-0.001793053362642628
1589996248.7549126,-4.060301939379863,-0.6897987070800913,8.899798707080091,0.33,-0.31777777777777777,-0.5755555555555556,0.001090830782496456,-0.0021706827393261647,-2.195765133349405e-05
1589996248.7649126,-4.051983425143436,-0.6780165748565637,8.892066299426254,0.3111111111111111,-0.3244444444444444,-0.5755555555555556,0.002830735925364228,-0.004363323129985824,-0.00021635812012377195
1589996248.7749126,-4.05883943312029,-0.6711605668797097,8.864642267518839,0.3111111111111111,-0.3244444444444444,-0.5755555555555556,0.00507435928922232,-0.004363323129985824,-0.0009642325747431362
1589996248.7849126,-4.061190169772402,-0.67,8.797141018634415,0.3111111111111111,-0.3244444444444444,-0.5755555555555556,0.002051834182579542,-0.00532432653006891,-0.00012982738241336977
1589996248.7949126,-4.068584524795939,-0.67,8.841507148775628,0.3111111111111111,-0.3244444444444444,-0.5755555555555556,0.0012452351749415672,-0.004517727522430935,-0.0009364263900513446
1589996248.8049126,-4.049093205099711,-0.67,8.889093205099712,0.312320170978163,-0.32514972936689135,-0.5774699003450544,0.006248236757784945,-0.003173576368424771,-0.000991914803431859
1589996248.8149126,-4.040618673347746,-0.67,8.880618673347747,0.3236195466474496,-0.33174103184064185,-0.5953605784880914,0.003474952727098857,-0.002249148358196075,-6.748679320316294e-05
1589996248.8249125,-4.0674244014938985,-0.68,8.844546408963392,0.3244444444444444,-0.3322222222222222,-0.5966666666666667,0.0016197531382314894,-0.004082368916605112,-0.0008098765691157447
1589996248.8349125,-4.060205669242552,-0.68,8.801234015455313,0.3244444444444444,-0.3322222222222222,-0.5966666666666667,4.487006815769457e-05,-0.0032949273815682154,-2.2435034078847286e-05
1589996248.8449125,-4.072781826041313,-0.6751878840275419,8.902030289931146,0.3244444444444444,-0.3322222222222222,-0.5966666666666667,-0.0003034501477414338,0.0005249204231700147,0.002485111712734346
1589996248.8549125,-4.053355976163275,-0.6622373174421836,8.93440670639454,0.3244444444444444,-0.3322222222222222,-0.5966666666666667,0.0018155813545703977,0.0019376080913779022,0.00036608021042251445
1589996248.8649125,-4.06252350570853,-0.6456073707186031,8.92252350570853,0.31777777777777777,-0.31222222222222223,-0.5611111111111111,0.0002038897529573841,0.0017025000413686082,0.0024569333356598316
1589996248.8749125,-4.030986258318955,-0.6690137416810451,8.879151158491497,0.31777777777777777,-0.31222222222222223,-0.5611111111111111,0.001090830782496456,0.004470907223366744,-0.000875662595734615
1589996248.8849125,-4.048962139762668,-0.6629873799208891,8.797924279525335,0.31777777777777777,-0.31222222222222223,-0.5611111111111111,-0.0008644048035341097,0.00545415391248228,0.001090830782496456
1589996248.8949125,-4.0723065978677395,-0.6653868042645218,8.842306597867738,0.31777777777777777,-0.31222222222222223,-0.5611111111111111,-0.006460597095270489,0.005202543116785228,0.0015940523738905603
1589996248.9049125,-4.0817025104260365,-0.6480137378362908,8.850567503475345,0.3173679141566949,-0.3123798620764849,-0.5617101425573091,-0.00994128709448422,0.004332370616981795,0.003303444860493397
1589996248.9149125,-4.133149480742497,-0.5879922724670864,8.867716493580831,0.3049825324138432,-0.3171434704391201,-0.5798118543353231,-0.013682616353642681,0.003397038302192179,0.004238777175283013
1589996248.9249125,-4.132628142741281,-0.5505125709651257,8.87,0.3033333333333333,-0.31777777777777777,-0.5822222222222222,-0.01739737970124599,-0.001552376945698728,0.022054510538342172
1589996248.9349124,-4.046135367245211,-0.5501486397213381,8.782080956098731,0.3033333333333333,-0.31777777777777777,-0.5822222222222222,-0.02062850039731031,-0.00662605508674736,0.06813414494374576
1589996248.9449124,-3.791780098591275,-0.5653402957738246,8.934240788730198,0.3033333333333333,-0.31777777777777777,-0.5822222222222222,-0.013986621538529805,-0.012193317241385134,0.1043599422810322
1589996248.9549124,-3.7999524579623167,-0.5898573738869513,8.999619663698537,0.3033333333333333,-0.31777777777777777,-0.5822222222222222,-0.013095155421774182,-0.013084783358140758,0.11773193403236656
1589996248.9649124,-4.03048210072828,-0.4952130474920505,9.018441686326803,0.31777777777777777,-0.3244444444444444,-0.59,-0.006832366968213313,-0.0070023526205641815,0.0694022819066802
1589996248.9749124,-3.905193566027418,-0.33924817559540643,9.047220870811412,0.31777777777777777,-0.3244444444444444,-0.59,-0.008257019860409569,-0.0028028659479272895,0.05212384046399638
1589996248.9849124,-3.8023746487903303,-0.12570119364145496,8.889037921215891,0.31777777777777777,-0.3244444444444444,-0.59,-0.012570790627531522,-0.007116636715049243,0.08835951490782078
1589996248.9949124,-3.7521916743377313,-0.0034249769868057688,8.93315004602639,0.31777777777777777,-0.3244444444444444,-0.59,-0.01571978980604292,-0.01766237678775534,0.20402906988933928
1589996249.0049124,-3.646012987848003,-0.055182922908763574,8.972724233266895,0.31858619630367846,-0.3244444444444444,-0.5882484265272152,-0.022179010213882,-0.02604766160793601,0.29823171918009095
1589996249.0149124,-2.82,-0.6,8.92,0.3244444444444444,-0.3244444444444444,-0.5755555555555556,-0.001090830782496456,-0.025089107997418484,0.3883357585687383
1589996249.0249124,-3.152699298747514,-0.4128566444545233,8.885343823047133,0.3244444444444444,-0.3244444444444444,-0.5755555555555556,0.017055101036942195,-0.01979654455008221,0.39589656349350444
1589996249.0349123,-2.295129888480685,-1.115932262342123,8.805129888480685,0.3244444444444444,-0.3244444444444444,-0.5755555555555556,-0.00857132481858229,-0.018756119285038352,0.3573376538241369
1589996249.0449123,-2.171404546115446,-1.2475922066592353,8.679398051664808,0.3244444444444444,-0.3244444444444444,-0.5755555555555556,0.02964941825945403,-0.0017657998417768444,0.30577573409820324
1589996249.0549123,-2.243568887834954,-1.1231866686787246,8.651946666091794,0.32401185197960153,-0.3244444444444444,-0.5753392593231341,0.04033164981795734,0.019605864950524667,0.21453344801524893
1589996249.0649123,-2.3430305904671567,-0.9333052363808826,8.706198503891176,0.311955888024183,-0.3244444444444444,-0.5693112773454249,0.06992143715724344,0.04919565228981079,0.17409407198489119
1589996249.0749123,-2.5268112040742086,-0.8931887959257913,8.97908160543228,0.3111111111111111,-0.3244444444444444,-0.5688888888888889,0.01602578165089822,0.00372609912395273,0.09447099847862153
1589996249.0849123,-2.552280240931117,-0.8449173497577103,8.971235904171007,0.3111111111111111,-0.3244444444444444,-0.5688888888888889,-0.014813087803683133,-0.016248542268924724,0.03278474848633352
1589996249.0949123,-2.561512716763006,-0.7554618497109826,8.838487283236994,0.3111111111111111,-0.3244444444444444,-0.5688888888888889,0.0004585272514632502,0.0018793816360167263,-0.01638144093198623
1589996249.1049123,-2.569594219653179,-0.7312173410404624,8.83040578034682,0.3111111111111111,-0.3244444444444444,-0.5688888888888889,0.014563410645759622,0.01774737545460014,-0.06310386717559295
1589996249.1149123,-2.6312225004104417,-0.746733500246265,8.852043999343293,0.31777777777777777,-0.3322222222222222,-0.5688888888888889,0.005209316934396503,0.01576130491112194,-0.13686326632474968
1589996249.1249123,-2.67,-0.7691197421981004,8.783838195386702,0.31777777777777777,-0.3322222222222222,-0.5688888888888889,0.005227514206146092,0.01822146236541909,-0.19357621089182783
1589996249.1349123,-2.67,-0.7602274847354138,8.721592393147898,0.31777777777777777,-0.3322222222222222,-0.5688888888888889,0.013957467555710194,0.025981420898364957,-0.2537158895221583
1589996249.1449122,-2.718567693036476,-0.76,8.808593841781146,0.31777777777777777,-0.3322222222222222,-0.5688888888888889,0.020413303962273373,0.0310119832676397,-0.3336665028469464
1589996249.1549122,-2.710620180009474,-0.76,8.856278919943154,0.31777777777777777,-0.3322222222222222,-0.5688888888888889,0.018679425591444428,0.03361280082388312,-0.3934853066405451
1589996249.1649122,-2.7742561647547648,-0.7714187215849216,8.951418721584922,0.33,-0.3322222222222222,-0.5822222222222222,0.022907446432425576,0.0370882466048795,-0.5606870222031783
1589996249.1749122,-2.793198898021859,-0.7777329660072864,8.957732966007287,0.33,-0.3322222222222222,-0.5822222222222222,0.022907446432425576,0.0370882466048795,-0.5606870222031783
1589996249.1849122,-2.8286304579339725,-0.7704565140220092,8.883652112176074,0.33,-0.3322222222222222,-0.5822222222222222,0.0249895120878487,0.042293410743437315,-0.6408465499369687
1589996249.1949122,-2.856537356947043,-0.7523084287019712,8.89769157129803,0.33,-0.3322222222222222,-0.5822222222222222,0.027018959053680548,0.053156581326803114,-0.7180153325933638
1589996249.2049122,-2.851977314530963,-0.7901134273451871,8.875931943592887,0.33,-0.3322222222222222,-0.5822222222222222,0.02201993420166359,0.06329293139273581,-0.8676064082117444
1589996249.2149122,-2.8599071384494983,-0.8,8.889814276898996,0.33,-0.32836944615852853,-0.5789198427390562,0.025588940081657678,0.0708533527433707,-0.979387189972811
1589996249.2249122,-2.8798225335668417,-0.8098225335668419,8.877258221443862,0.33,-0.3244444444444444,-0.5755555555555556,0.03179331280719594,0.07778678437166069,-1.070249210595287
1589996249.2349122,-2.9287927612375952,-0.8587927612375948,8.714024129208019,0.33,-0.3244444444444444,-0.5755555555555556,0.03802543984692628,0.08490921527420965,-1.1307898732669528
1589996249.2449121,-2.9822981931626154,-0.9005745482906539,8.804596386325231,0.33,-0.3244444444444444,-0.5755555555555556,0.04054875944081165,0.08418199074066988,-1.2025834397324604
1589996249.2549121,-3.013453046368684,-0.9083632615921711,8.866906092737368,0.33,-0.3244444444444444,-0.5755555555555556,0.043097609908412,0.08673084120827024,-1.2535604490844676
1589996249.2649121,-3.04,-0.9212421945755279,8.901124219457554,0.3377777777777778,-0.3244444444444444,-0.6044444444444445,0.04739625692357963,0.09430198057092724,-1.3294320384401594
1589996249.274912,-3.0383220626282452,-1.0125169060576322,8.901610313141227,0.3377777777777778,-0.3244444444444444,-0.6044444444444445,0.0510860122037123,0.0985408395719233,-1.3830199042688067
1589996249.284912,-3.0233544473191185,-1.034968329021322,8.826772236595593,0.3377777777777778,-0.3244444444444444,-0.6044444444444445,0.04945329865173624,0.10180626667587542,-1.4205723159642556
1589996249.294912,-2.961840852881661,-1.0740498763396538,8.831472682305328,0.3377777777777778,-0.3244444444444444,-0.6044444444444445,0.04791623207026954,0.10694157786443995,-1.4829546498216775
1589996249.304912,-3.001133927902271,-1.160494641384996,8.862907142321816,0.3377777777777778,-0.3244444444444444,-0.6044444444444445,0.04620174823941259,0.10779881977986844,-1.5172443264388167
1589996249.314912,-2.992103755131278,-1.1710518775656389,8.834207510262557,0.3785414466454222,-0.3085366712278027,-0.5785943129674017,0.04776707034424076,0.11287269116562315,-1.5620728060384481
1589996249.324912,-2.9968307577268196,-1.2184513127284813,8.80049227318046,0.38333333333333336,-0.30666666666666664,-0.5755555555555556,0.04799655442984406,0.11430675836020958,-1.6096209664673942
1589996249.334912,-2.970694790628116,-1.2881472249916917,8.722084371884348,0.38333333333333336,-0.30666666666666664,-0.5755555555555556,0.04799655442984406,0.11240609719743754,-1.6419322062345192
1589996249.344912,-2.962801960473193,-1.33318823716084,8.791980395268068,0.38333333333333336,-0.30666666666666664,-0.5755555555555556,0.054278028901417585,0.11628149214186843,-1.665561503399117
1589996249.354912,-2.9458650533112674,-1.3853373667218318,8.848269893377465,0.38333333333333336,-0.30666666666666664,-0.5755555555555556,0.05903602593336811,0.11935160800531885,-1.6960116200718824
1589996249.364912,-2.947007900600986,-1.4490553042069012,8.874015801201972,0.41058628011494513,-0.29732279919868543,-0.5755555555555556,0.06305346651579741,0.12381360292272559,-1.726372927391407
1589996249.374912,-2.9811303434726644,-1.5405651717363322,8.798869656527335,0.4222222222222222,-0.2933333333333333,-0.5755555555555556,0.0673232551510862,0.13059144053588062,-1.7667520755886914
1589996249.384912,-2.995337714247002,-1.547668857123501,8.784662285752997,0.4222222222222222,-0.2933333333333333,-0.5755555555555556,0.06344879580633915,0.12671698119113362,-1.7892239397882244
1589996249.394912,-2.9998461365678346,-1.6002051512428872,8.829948712189278,0.4222222222222222,-0.2933333333333333,-0.5755555555555556,0.0566896328961944,0.12869565380550094,-1.8251109541878665
1589996249.404912,-2.9762932389937107,-1.6316090146750524,8.822097746331238,0.4222222222222222,-0.2933333333333333,-0.5755555555555556,0.05155118775802629,0.12527002371338883,-1.8482339573096231
1589996249.414912,-2.9688931252234005,-1.7144274991063981,8.848931252234005,0.4488888888888889,-0.24,-0.59,0.0570854246134208,0.12786452515614094,-1.8735560010740755
1589996249.424912,-2.960564160610032,-1.7477433575598713,8.76564160610032,0.4488888888888889,-0.24,-0.59,0.05981107190939656,0.13785856524138534,-1.8862756884552958
1589996249.434912,-2.9885514406545197,-1.8057942373819218,8.695069957709181,0.4488888888888889,-0.24,-0.59,0.06318917872857831,0.13635384781205698,-1.9078783009908309
1589996249.444912,-2.971973835026284,-1.8721046598948656,8.753091577408007,0.4488888888888889,-0.24,-0.59,0.06228501060260998,0.13635384781205698,-1.9205366547543876
1589996249.454912,-2.9758360184483195,-1.9033440737932776,8.789180092241597,0.4488888888888889,-0.24,-0.59,0.06663363060174882,0.1376270695261858,-1.9315930016147216
1589996249.464912,-2.98,-1.9682147692545742,8.822053692313643,0.4736659230891562,-0.21187471793483165,-0.6027233418866238,0.0711280239416195,0.13919293630797308,-1.9456379967363573
1589996249.474912,-2.928009545974518,-2.022653938700643,8.828009545974519,0.49,-0.19333333333333333,-0.6111111111111112,0.07290472505041755,0.1408619208435188,-1.9659665698615656
1589996249.484912,-2.8783748175614376,-2.0888335765847503,8.778374817561437,0.49,-0.19333333333333333,-0.6111111111111112,0.06839280091426427,0.14447146015244144,-1.9731856484794106
1589996249.494912,-2.8765885598745253,-2.132942799372626,8.75682288025095,0.49,-0.19333333333333333,-0.6111111111111112,0.06619410773008966,0.14579919446437395,-1.9830281210267287
1589996249.504912,-2.840220460903157,-2.1977354469162114,8.789779539096843,0.49,-0.19333333333333333,-0.6111111111111112,0.061978427288958755,0.14356776010890365,-1.9918329602845781
1589996249.514912,-2.788618099164002,-2.2031030165273338,8.813793966945333,0.5306155693390351,-0.17264238291533432,-0.6218397520685921,0.06033417963196616,0.14139414413136497,-2.002728314062885
1589996249.5249119,-2.6841061731131552,-2.2954375854298275,8.75319369019912,0.5488888888888889,-0.16333333333333333,-0.6266666666666667,0.0620778181571849,0.14279929606192263,-2.012333952593178
1589996249.5349119,-2.6872720127190552,-2.3363600635952766,8.670007860090392,0.5488888888888889,-0.16333333333333333,-0.6266666666666667,0.06614362226462367,0.1468651001693614,-2.0189288219656825
1589996249.5449119,-2.6607104945276183,-2.4183421794355575,8.659526336981589,0.5488888888888889,-0.16333333333333333,-0.6266666666666667,0.06869650498722601,0.14835298641951802,-2.033024401162836
1589996249.5549119,-2.5874840862197637,-2.5015804030027655,8.759709381447824,0.5488888888888889,-0.16333333333333333,-0.6266666666666667,0.0667447745229682,0.14736420403236375,-2.0461627496063994
1589996249.5649118,-2.617247818572693,-2.5482565442819207,8.797247818572695,0.5466666666666666,-0.12444444444444445,-0.6344444444444445,0.07090400086226964,0.14959392541301053,-2.07204801549923
1589996249.5749118,-2.6,-2.6012478715640963,8.778502554123083,0.5466666666666666,-0.12444444444444445,-0.6344444444444445,0.07082232785938654,0.1506435453216884,-2.082913226137327
1589996249.5849118,-2.598252450001175,-2.6552426499964747,8.720436887499707,0.5466666666666666,-0.12444444444444445,-0.6344444444444445,0.06763150851478028,0.15485031408118,-2.1041225463528184
1589996249.5949118,-2.5596492801973674,-2.7703507198026327,8.730175359901317,0.5466666666666666,-0.12444444444444445,-0.6344444444444445,0.06755499332343176,0.15382626912983743,-2.126392642244498
1589996249.6049118,-2.5478904946803294,-2.7821095053196707,8.736054752659836,0.5466666666666666,-0.12444444444444445,-0.6344444444444445,0.06498962428207997,0.15446761139017537,-2.1385781451909187
1589996249.6149118,-2.4812125601806483,-2.7664850240722596,8.745878743981935,0.5512390230970606,-0.0780676863647338,-0.6507742888387088,0.06070309942563019,0.1523328851553325,-2.1557327808101006
1589996249.6249118,-2.395742381435664,-2.8385152371286724,8.670336286584195,0.5544444444444444,-0.045555555555555564,-0.6622222222222223,0.06373261952380506,0.15922461106870447,-2.1745787798073666
1589996249.6349118,-2.3588757908620654,-2.888905261422418,8.613313686293099,0.5544444444444444,-0.045555555555555564,-0.6622222222222223,0.06605657843771673,0.160352125026979,-2.187241565838198
1589996249.6449118,-2.3127036726881207,-2.9279722454839097,8.63729632731188,0.5544444444444444,-0.045555555555555564,-0.6622222222222223,0.06552357818463728,0.16238632412227208,-2.2005592067293493
1589996249.6549118,-2.2303520462437025,-2.826457660116813,8.711683158380668,0.5544444444444444,-0.045555555555555564,-0.6622222222222223,0.07153161773020299,0.16514025978357863,-2.2030341678722523
1589996249.6649117,-2.21,-2.9618850877006935,8.736745211987529,0.5671854004208879,-0.0028358796345392123,-0.6817083901861947,0.06940671999203225,0.16654206742650737,-2.1997992382076106
1589996249.6749117,-2.21,-3.04,8.778189389044439,0.5733333333333334,0.017777777777777778,-0.6911111111111111,0.06554860045805988,0.16689710972195776,-2.194899664645278
1589996249.6849117,-2.1885202133089283,-3.0686397155880956,8.68692092433869,0.5733333333333334,0.017777777777777778,-0.6911111111111111,0.06935498237046714,0.17158327222677347,-2.1861602364573733
1589996249.6949117,-2.08789492469127,-3.144473552716111,8.723684060246985,0.5733333333333334,0.017777777777777778,-0.6911111111111111,0.06487573778001461,0.16741383133468146,-2.16868644858348
1589996249.7049117,-2.027599986811303,-3.143449998351413,8.756200006594348,0.5733333333333334,0.017777777777777778,-0.6911111111111111,0.06007205011308205,0.16118115498301264,-2.1553343610001994
1589996249.7149117,-2.0278001675558883,-3.14,8.723666387406853,0.5980445933830122,0.048666852839876346,-0.6972889261235309,0.05781403147231216,0.1662572044029255,-2.1246764186952007
1589996249.7249117,-1.9824876736889288,-3.2160197220977143,8.70099506947557,0.6,0.05111111111111112,-0.6977777777777778,0.05366779882526153,0.16275087707490712,-2.098915865017562
1589996249.7349117,-1.913858816831918,-3.201102519094834,8.596063855021585,0.6,0.05111111111111112,-0.6977777777777778,0.049327917565727464,0.16047239120367246,-2.070869454692792
1589996249.7449117,-1.884546097012528,-3.2509078059749434,8.649392440304101,0.6,0.05111111111111112,-0.6977777777777778,0.05093844527323471,0.16683083524010867,-2.045242213604152
1589996249.7549117,-1.8683819266269035,-3.271618073373096,8.66,0.6,0.05111111111111112,-0.6977777777777778,0.04936804396703201,0.1673542729010204,-2.0206670307409875
1589996249.7649117,-1.8473755451947662,-3.286312227402617,8.697873364415702,0.6084163032034892,0.07916545512274194,-0.7202212529870824,0.047307997234154846,0.1648314381348901,-1.982626864357549
1589996249.7749116,-1.7647404304041219,-3.323448697598168,8.669826953602747,0.6133333333333333,0.09555555555555556,-0.7333333333333333,0.04599355192298518,0.16088810220138108,-1.9424965823995926
1589996249.7849116,-1.7431814008645423,-3.3436371982709154,8.605451206916339,0.6133333333333333,0.09555555555555556,-0.7333333333333333,0.04135213016657456,0.160352125026979,-1.911282687307092
1589996249.7949116,-1.693684274734659,-3.380877150176894,8.626315725265341,0.6133333333333333,0.09555555555555556,-0.7333333333333333,0.032533558992128044,0.15614190679088877,-1.869664864673698
1589996249.8049116,-1.6513388773388773,-3.3971652806652806,8.64,0.6133333333333333,0.09555555555555556,-0.7333333333333333,0.028198429295426316,0.15333474937151378,-1.8320377126937688
1589996249.8149116,-1.6218381291502262,-3.381838129150226,8.712647483399095,0.6113153476833585,0.08243864883071889,-0.7736930463328308,0.021327311225213884,0.15172573315997093,-1.7789923676262027
1589996249.8249116,-1.5463050037716872,-3.420941664571285,8.61355167211466,0.6111111111111112,0.0811111111111111,-0.7777777777777778,0.025191827667532873,0.14447981028684703,-1.7363737150408722
1589996249.8349116,-1.53,-3.468315825812497,8.524315727178577,0.6111111111111112,0.0811111111111111,-0.7777777777777778,0.015432374771989362,0.13513670294575614,-1.7069779183478644
1589996249.8449116,-1.5128715774458137,-3.5399663192931015,8.555642112770931,0.6111111111111112,0.0811111111111111,-0.7777777777777778,0.008413405752750036,0.1274724182960676,-1.661670566220441
1589996249.8549116,-1.4808425816183601,-3.5604212908091797,8.61042129080918,0.6111111111111112,0.0811111111111111,-0.7777777777777778,0.0176540401739142,0.12496905814329969,-1.6155324948540424
1589996249.8649116,-1.4720585714817989,-3.5741171429635976,8.630146428704498,0.613790793662622,0.07675662696490596,-0.793520912767904,0.024535706159254926,0.12161964580143951,-1.5698342139634478
1589996249.8749115,-1.479556671954874,-3.6657758240789704,8.694889167988718,0.62,0.06666666666666668,-0.83,0.02295580602026232,0.11279217691575054,-1.4965003046436305
1589996249.8849115,-1.4374153963414633,-3.7150564024390245,8.577076981707316,0.62,0.06666666666666668,-0.83,0.029195104810954116,0.10142265256549213,-1.418716640058013
1589996249.8949115,-1.436047792863478,-3.7744301357713037,8.564191171453913,0.62,0.06666666666666668,-0.83,0.028564126323407445,0.09728646562068416,-1.3586076915254248
1589996249.9049115,-1.4130589282126351,-3.7830589282126352,8.639270357932203,0.62,0.06666666666666668,-0.83,0.02550748053726514,0.09129100479263144,-1.2926936543351084
1589996249.9149115,-1.3709051999803217,-3.7854597333595708,8.683635066660107,0.5620083851254216,0.04545022220035749,-0.7147239850663868,0.025386890258060627,0.08587784955657789,-1.2117046215344827
1589996249.9249115,-1.3527702666737638,-3.8144594666524725,8.665540533347528,0.5288888888888889,0.03333333333333333,-0.6488888888888888,0.023025372515315355,0.0779870269393745,-1.1315010556427616
1589996249.9349115,-1.35,-3.8597045306696325,8.59382578221728,0.5288888888888889,0.03333333333333333,-0.6488888888888888,0.02470401060052977,0.07165808030400464,-1.0566960633024762
1589996249.9449115,-1.3285146153419491,-3.872838205113983,8.552838205113984,0.5288888888888889,0.03333333333333333,-0.6488888888888888,0.024617477515996338,0.06434455565605807,-0.9716235917611289
1589996249.9549115,-1.2940116791312366,-3.882994160434382,8.62796496260629,0.5288888888888889,0.03333333333333333,-0.6488888888888888,0.02116339117601781,0.06146863309257194,-0.8994122750910928
1589996249.9649115,-1.2884877365580378,-3.9494141559062648,8.653024526883925,0.520401152330851,0.12952768099109563,-0.6045640424191356,0.02333842780942749,0.05830891852643307,-0.804150362094076
1589996249.9749115,-1.2820132842271093,-3.991946863091563,8.681946863091563,0.5188888888888888,0.14666666666666667,-0.5966666666666667,0.019642199506862395,0.049973091597804824,-0.7274731980131444
1589996249.9849114,-1.236258415468304,-4.008748316906339,8.602516830936608,0.5188888888888888,0.14666666666666667,-0.5966666666666667,0.01949841664008665,0.041316501066315785,-0.6463297232277003
1589996249.9949114,-1.0881484966168875,-3.8158874164231094,9.672550946871121,0.5188888888888888,0.14666666666666667,-0.5966666666666667,0.02615015351372354,0.04036073895236887,-0.5767795822616475
1589996250.0049114,-0.8760536833429233,-3.326472015302552,9.215714352363031,0.5188888888888888,0.14666666666666667,-0.5966666666666667,0.08996124873912976,0.1397150105559526,-0.49720790746906024
1589996250.0149114,-0.7528750052624932,-2.9424300088409883,7.830644971161538,0.5224516669239441,0.16901500161383123,-0.5905127773333895,0.1636246173744684,0.19016179829882995,-0.4220631552112788
1589996250.0249114,-1.0518676604747763,-3.5519812108154274,8.800133154758438,0.5311111111111111,0.22333333333333333,-0.5755555555555556,-0.051733315233006116,-0.09298627876938512,-0.43198137628929106
1589996250.0349114,-1.1109673250131267,-3.691729068217618,9.522103477523325,0.5311111111111111,0.22333333333333333,-0.5755555555555556,-0.13987821945933765,-0.0893385961011654,-0.3819055007753962
1589996250.0449114,-1.008241309495213,-3.4901691774475823,8.088726536494972,0.5311111111111111,0.22333333333333333,-0.5755555555555556,0.06589862942984466,0.028077484987193695,-0.28290399314353426
1589996250.0549114,-1.0243416789396171,-3.6183868433971527,8.3306529209622,0.5311111111111111,0.22333333333333333,-0.5755555555555556,0.03912360725196469,0.017220346329277637,-0.22836405876899812
1589996250.0649114,-1.1314687621624626,-3.887790648108679,8.974853123783754,0.523676734354311,0.24620833873887232,-0.5681211787987555,-0.04461258737222097,-0.014549976756014313,-0.19230800643196214
1589996250.0749114,-1.0967998451140524,-3.8857064911292594,8.437519008729936,0.5166666666666667,0.2677777777777778,-0.5611111111111111,0.013395469590800253,-0.000861014454939385,-0.13482953390144162
1589996250.0849113,-1.1533347368421052,-4.164587368421052,8.896468421052631,0.5166666666666667,0.2677777777777778,-0.5611111111111111,-0.0011822309196403702,-0.006317862243633684,-0.08806162082800995
1589996250.0949113,-1.19,-4.2781570292558415,8.79293368348714,0.5166666666666667,0.2677777777777778,-0.5611111111111111,0.019631366530330506,-0.0035889200182709705,-0.04800014198444976
1589996250.1049113,-1.1968255069476104,-4.307302027790442,8.723651013895221,0.5166666666666667,0.2677777777777778,-0.5611111111111111,0.01684710724397572,-0.008138040032670442,-0.019513414315497517
1589996250.1149113,-1.2536570896423274,-4.150085882799297,8.667400062083951,0.5315714137895354,0.29162537317436776,-0.5481936636046248,0.02175427278763144,-0.016761388333066812,0.02042343891606021
1589996250.1249113,-1.26,-4.13,8.66,0.5333333333333333,0.29444444444444445,-0.5466666666666666,0.022907446432425576,-0.017453292519943295,0.02399827721492203
1589996250.1349113,-1.2048049878117382,-4.336489780611288,8.611294768423027,0.5333333333333333,0.29444444444444445,-0.5466666666666666,0.010030202340386032,-0.011304815507670238,0.07964424926869469
1589996250.1449113,-1.1888126019831806,-4.361140956445337,8.545797665369651,0.5333333333333333,0.29444444444444445,-0.5466666666666666,0.009563492970479783,-0.014116037657062836,0.10478958362462691
1589996250.1549113,-1.149687924016282,-4.264453867028494,8.471092265943012,0.5333333333333333,0.29444444444444445,-0.5466666666666666,0.013626874228967767,-0.008658561842068205,0.11896863971001714
1589996250.1649113,-1.1448157658235973,-4.239877177215732,8.579508708862926,0.5366257257385773,0.30706528199787925,-0.5538001835446951,0.0006994910962009205,-0.015137652081078475,0.11572184815633468
1589996250.1749113,-1.1890593718553042,-4.332334886923362,8.658745829140406,0.54,0.32,-0.5611111111111111,-0.0019611671165316157,-0.019311853022963246,0.109577190334138
1589996250.1849113,-1.1733568590237826,-4.333377023901311,8.520090741948875,0.54,0.32,-0.5611111111111111,0.002911814949208261,-0.01054543077977017,0.1112647398146385
1589996250.1949112,-1.1958561325453216,-4.386807390929013,8.47585613254532,0.54,0.32,-0.5611111111111111,0.0027789600525930285,-0.012040645084542525,0.1095973637830827
1589996250.2049112,-1.2545001608140114,-4.50537528142452,8.588875763866554,0.54,0.32,-0.5611111111111111,0.0038724317357750416,-0.014180800172453925,0.10759681692297235
1589996250.2149112,-1.264852587244284,-4.523492027677497,8.687278880866426,0.5526228439630967,0.31495086241476133,-0.5674225330926594,0.003156238796135767,-0.013767718569726063,0.10855374309556412
1589996250.2249112,-1.2485952994204765,-4.482865099806826,8.65,0.5733333333333334,0.30666666666666664,-0.5777777777777777,0.006857518601399726,-0.01308996938995747,0.11345247715958542
1589996250.2349112,-1.2241233766233766,-4.502511806375443,8.5624173553719,0.5733333333333334,0.30666666666666664,-0.5777777777777777,0.006270989123578357,-0.014909737861819917,0.12481480282566663
1589996250.2449112,-1.2158756841282252,-4.557250456085483,8.55175136825645,0.5733333333333334,0.30666666666666664,-0.5777777777777777,0.0033474745259838793,-0.01643744391594135,0.14374776580658805
1589996250.2549112,-1.275071496111615,-4.545786457227765,8.586358426120684,0.5733333333333334,0.30666666666666664,-0.5777777777777777,0.001106428814372141,-0.018497329206812695,0.16405304752664898
1589996250.2649112,-1.288472970316493,-4.508472970316493,8.650099076076273,0.5931746718214184,0.32650800515475176,-0.5907772754079025,-0.0013433923110249258,-0.022488311805441582,0.1878002752112267
1589996250.2749112,-1.279498236818626,-4.533667842120916,8.71583039469771,0.6055555555555555,0.3388888888888889,-0.5988888888888889,-0.0036725918565725943,-0.01992558584926621,0.21085874425607568
1589996250.2849112,-1.2902919324577862,-4.627931707317073,8.564720450281426,0.6055555555555555,0.3388888888888889,-0.5988888888888889,-0.008052500556867835,-0.020757629758568957,0.23109419993894634
1589996250.2949111,-1.2940912979711563,-4.646365191884625,8.494091297971156,0.6055555555555555,0.3388888888888889,-0.5988888888888889,-0.008528398230935689,-0.023750233867227744,0.2487582804822529
1589996250.3049111,-1.2995706810867613,-4.601287956739716,8.56178010815071,0.6055555555555555,0.3388888888888889,-0.5988888888888889,-0.005547816769696,-0.02561110767436328,0.26052123130222554
1589996250.3149111,-1.291568188752161,-4.540509102003458,8.614195464253026,0.6403711990236957,0.34339444274947173,-0.6091287840265772,-0.004478851572667794,-0.02617993877991494,0.26828883808044796
1589996250.324911,-1.2900827814569538,-4.596961000735835,8.606767844002944,0.7,0.3511111111111111,-0.6266666666666667,-0.008732666297402642,-0.026544552380318928,0.27708004881024634
1589996250.334911,-1.3599410290431964,-4.760294854784019,8.595501253132833,0.7,0.3511111111111111,-0.6266666666666667,-0.012005571340956497,-0.0272707695624114,0.28524260052258
1589996250.344911,-1.3884973986148916,-4.735896358060848,8.539595837783827,0.7,0.3511111111111111,-0.6266666666666667,-0.011715409097173803,-0.02928852274293451,0.2876955970687771
1589996250.354911,-1.40880497464045,-4.752012436601126,8.569475786840826,0.7,0.3511111111111111,-0.6266666666666667,-0.01146171895355409,-0.03170726695214157,0.2913090017116155
1589996250.364911,-1.383319488645558,-4.669976266249528,8.539964399374293,0.8225198530425348,0.3896067749069529,-0.6707145896638318,-0.00690708473465095,-0.0272707695624114,0.30470324111854347
1589996250.374911,-1.4317774360101065,-4.737557947929254,8.62978358782819,1.0677777777777775,0.4666666666666667,-0.7588888888888888,-0.012193026798835207,-0.02824021051928236,0.3148859266645993
1589996250.384911,-1.44,-4.653109932782717,8.532255819912875,1.0677777777777775,0.4666666666666667,-0.7588888888888888,-0.012670933489043022,-0.03146781577215033,0.33588271174789336
1589996250.394911,-1.4278482737734706,-4.589747122955784,8.543291944276197,1.0677777777777775,0.4666666666666667,-0.7588888888888888,-0.01155728937318209,-0.029010581893125387,0.35725385353622685
1589996250.404911,-1.4201726010394848,-4.585431502598713,8.546467108835623,1.0677777777777775,0.4666666666666667,-0.7588888888888888,-0.016456601000927353,-0.02947125898010041,0.3780952471775466
1589996250.414911,-1.4890575543832612,-4.49680635409875,8.60047122280837,1.3012738492745604,0.24137303327867018,-1.0563639776342046,-0.019669222374588458,-0.030543261909900768,0.38935805277193025
1589996250.424911,-1.55,-4.420025636428828,8.636709394048045,1.5422222222222222,0.008888888888888889,-1.3633333333333333,-0.016483043713152706,-0.03151351071669136,0.39281966367443
1589996250.434911,-1.5607293059042155,-4.495035047109836,8.627012682163468,1.5422222222222222,0.008888888888888889,-1.3633333333333333,-0.014101245239436467,-0.03116440918754179,0.3904378652007138
1589996250.444911,-1.5685204015794771,-4.494081606317908,8.517397992102614,1.5422222222222222,0.008888888888888889,-1.3633333333333333,-0.012625253573851218,-0.031492175176858865,0.3864574136695677
1589996250.454911,-1.56,-4.449967262256933,8.575049106614602,1.5422222222222222,0.008888888888888889,-1.3633333333333333,-0.010901165557386978,-0.03272135234110489,0.3834216633468211
1589996250.464911,-1.5533024021852655,-4.409860809833695,8.603395195629469,1.311527186381368,-0.007110928112976799,-1.1627774876587844,-0.0072654570869529755,-0.03017290351937855,0.3825213684602689
1589996250.474911,-1.5461348158443364,-4.343865184155663,8.636134815844336,0.8533333333333334,-0.03888888888888889,-0.7644444444444445,-0.0053671300251781845,-0.028609178756001215,0.38832226531791936
1589996250.484911,-1.56,-4.372859091794972,8.6124982946794,0.8533333333333334,-0.03888888888888889,-0.7644444444444445,-0.009973416309465015,-0.03397169352438704,0.4115944403951479
1589996250.494911,-1.5671251556662515,-4.417125155666252,8.547936799501867,0.8533333333333334,-0.03888888888888889,-0.7644444444444445,-0.010833287737837078,-0.035997415822383035,0.43218053360907505
1589996250.504911,-1.5804353128117956,-4.434788440929751,8.493700158900262,0.8533333333333334,-0.03888888888888889,-0.7644444444444445,-0.008797874152239902,-0.035997415822383035,0.4489250173749455
1589996250.514911,-1.5946631480906552,-4.65,8.63865259236262,0.7442243609645038,0.08207975438959604,-0.7175987443513057,-0.012581298841894857,-0.03832605676011841,0.48666326562269774
1589996250.524911,-1.5610362747095985,-4.702134705522723,8.608414509883838,0.6488888888888888,0.18777777777777774,-0.6766666666666666,-0.01056240754015419,-0.04225641033972133,0.5026469106603956
1589996250.534911,-1.5717533048404733,-4.750584434946824,8.557662260212702,0.6488888888888888,0.18777777777777774,-0.6766666666666666,-0.014499559987635281,-0.04190135718155915,0.5066590224880857
1589996250.544911,-1.5735555214841506,-4.729148108398175,8.524407413085974,0.6488888888888888,0.18777777777777774,-0.6766666666666666,-0.015788760592648884,-0.04228383569851253,0.49749154772070914
1589996250.554911,-1.5496491758657192,-4.69,8.556535233630727,0.6488888888888888,0.18777777777777774,-0.6766666666666666,-0.01143458872796697,-0.04261893847034504,0.47861631544838323
1589996250.564911,-1.583141735717401,-4.686858264282599,8.63921456607065,0.6446999079323544,0.19240311091728446,-0.6761430440470998,-0.013347002042283174,-0.035997415822383035,0.45010147083519064
1589996250.5749109,-1.6274137132680322,-4.638879430097952,8.61146571682992,0.5955555555555555,0.2466666666666667,-0.67,-0.012723263747029543,-0.03276257316423433,0.38625775992548006
1589996250.5849109,-1.6373542367451546,-4.604125420470927,8.561479657216083,0.5955555555555555,0.2466666666666667,-0.67,-0.006544984694978735,-0.026693553562094716,0.3342196399545167
1589996250.5949109,-1.602954806148199,-4.483371950753231,8.519015064617266,0.5955555555555555,0.2466666666666667,-0.67,-0.007036680194514207,-0.024105716998347543,0.2573867658244396
1589996250.6049109,-1.6093312331009848,-4.4326088358594,8.569331233100984,0.5955555555555555,0.2466666666666667,-0.67,-0.0058481604866377854,-0.020404729445253206,0.20070185095306664
1589996250.6149108,-1.6671415056980683,-4.503672504070049,8.63040700488406,0.5955555555555555,0.25464899801019836,-0.6721769994573268,-0.0011130294553043324,-0.013134366735573225,0.1375102426746736
1589996250.6249108,-1.6491911385883566,-4.4991911385883565,8.593648892323545,0.5955555555555555,0.27111111111111114,-0.6766666666666666,-0.0005012988449185154,-0.007930581446264162,0.07500065773450452
1589996250.6349108,-1.6847908823328084,-4.534790882332808,8.544233235220299,0.5955555555555555,0.27111111111111114,-0.6766666666666666,4.562239770725812e-05,-0.00543894644657986,0.021005069605388553
1589996250.6449108,-1.67,-4.52,8.520602532026562,0.5955555555555555,0.27111111111111114,-0.6766666666666666,0.003272492347489368,-0.0031114912316018003,-0.011588489317231346
1589996250.6549108,-1.667584114873099,-4.52,8.577247655380702,0.5955555555555555,0.27111111111111114,-0.6766666666666666,0.0027454279748096045,-0.0013543629688363378,-0.041194655474906826
1589996250.6649108,-1.6338088837895426,-4.454522209473857,8.6,0.5974956382378116,0.268200987087727,-0.6931573694658435,0.0029955025018503726,-0.0017054936351544327,-0.07483471062373744
1589996250.6749108,-1.6197944904242134,-4.419486226060533,8.604948622606052,0.6,0.2644444444444444,-0.7144444444444444,0.0070735868733745235,0.002148035139288031,-0.09537483621274599
1589996250.6849108,-1.6441572137318938,-4.465842786268106,8.58921393134053,0.6,0.2644444444444444,-0.7144444444444444,0.0069127195767048726,0.005000672241665586,-0.11251469031263413
1589996250.6949108,-1.6167240035960444,-4.48588133053641,8.552605334132455,0.6,0.2644444444444444,-0.7144444444444444,0.004766639587715559,0.006379905418634502,-0.13823254804375124
1589996250.7049108,-1.5370967978848413,-4.489919396298473,8.536182799647472,0.6,0.2644444444444444,-0.7144444444444444,0.00649513382435532,0.009401085077718889,-0.16691469472171966
1589996250.7149107,-1.4446841950646299,-4.3281973413631025,8.520780699177438,0.6,0.2644444444444444,-0.7144444444444444,0.010695405151309716,0.0077209765469371285,-0.20219697386813662
1589996250.7249107,-1.4857995205927217,-4.561583133580301,8.69789976029636,0.5688888888888889,0.18444444444444444,-0.6766666666666666,0.015444324039169968,0.02095488547936774,-0.28803052835517023
1589996250.7349107,-1.3472050191178846,-4.488136679411923,8.618136679411922,0.5688888888888889,0.18444444444444444,-0.6766666666666666,0.017326815128876738,0.02661130128925155,-0.3638067227712402
1589996250.7449107,-1.2421571580136213,-4.495100106095349,8.552157158013621,0.5688888888888889,0.18444444444444444,-0.6766666666666666,0.025281559234071667,0.032104711565190625,-0.4449740641834523
1589996250.7549107,-1.2667711141878597,-4.686309844786126,8.579538730598266,0.5688888888888889,0.18444444444444444,-0.6766666666666666,0.02102768498489397,0.03848097750483727,-0.5123182991714507
1589996250.7649107,-1.187878811180745,-4.606969702795187,8.591212080433696,0.5486869075234642,0.19622893357427557,-0.6345792054886983,0.02826243200374853,0.04703794111214133,-0.6541017332224679
1589996250.7749107,-1.1351329438416597,-4.543483963276499,8.62191486824848,0.5022222222222222,0.22333333333333333,-0.5377777777777778,0.031776250561154656,0.05433265940183611,-0.7661113855381879
1589996250.7849107,-6.927084355935768,-8.840533623168081,2.1984107005118867,0.5022222222222222,0.22333333333333333,-0.5377777777777778,0.025255283572411365,0.0731177119397698,-0.914805833929561
1589996250.7949107,-12.68302706824247,-12.261262607007936,-5.189258309361245,0.5022222222222222,0.22333333333333333,-0.5377777777777778,-0.32837458286080695,0.34403781348459933,-2.5161800812562594
1589996250.8049107,-2.3796727083333336,-3.279179375,2.180819375,0.5022222222222222,0.22333333333333333,-0.5377777777777778,-1.1795994781631591,0.50850642722758,-8.946885176762812
1589996250.8149107,-2.7789231859775745,-4.856797912102075,6.336649052712978,0.50634703784852,0.2754091306153428,-0.5620110695822772,-0.7392541514628943,0.5456537600575749,-11.3789467590432
1589996250.8249106,-2.9451558235760196,-4.462363324236288,8.153650849546615,0.5111111111111111,0.33555555555555555,-0.59,0.3121314955387659,1.4867068044140856,-10.649153118416802
1589996250.8349106,-3.5431758137001226,-8.854265286667575,11.61749693585728,0.5111111111111111,0.33555555555555555,-0.59,1.5827378265158525,1.1946595117365821,-9.923282577539998
1589996250.8449106,-2.258385319770954,-6.175902051269662,15.786250936239098,0.5111111111111111,0.33555555555555555,-0.59,1.8422771441722305,0.8313924322874673,-7.846460148969705
1589996250.8549106,0.9960690117137851,1.581218611521418,12.631847583387723,0.5111111111111111,0.33555555555555555,-0.59,0.7519387999054845,0.3968017910369384,-4.179194296306215
1589996250.8649106,0.7480981700753498,0.8838036598493003,9.106441765339074,0.4852416696567396,0.37169668699916275,-0.5890489175935892,-0.21832711568515187,-0.22568375363103788,-0.7152532586431101
1589996250.8749106,1.2725274394827846,1.0243121335137573,10.581659900766802,0.36,0.5466666666666666,-0.5844444444444444,0.5302836608582256,0.18508041093426184,-0.3804355589052183
1589996250.8849106,1.7673377337733773,-0.07145685997171142,11.865588558855885,0.36,0.5466666666666666,-0.5844444444444444,0.09555595366632558,0.07619735023695814,-0.23397077392332558
1589996250.8949106,1.0187826982492276,-1.0590313373547153,8.744188024128292,0.36,0.5466666666666666,-0.5844444444444444,-0.3780899735680053,-0.13687510989555685,-0.06773293635861397
1589996250.9049106,1.0155163245772627,-1.270851430394555,8.921802828884399,0.36,0.5466666666666666,-0.5844444444444444,-0.1276440692321635,0.060255575959664805,0.08127873779485792
1589996250.9149106,0.8618069182146043,-1.6579485787412263,8.329098189009967,0.343447301181043,0.5508048413714058,-0.5810821774968438,0.15099224530058708,-0.038461398116517824,0.18380758839767744
1589996250.9249105,0.6404829622722151,-2.58926759140537,10.637596845009131,0.2888888888888889,0.5644444444444444,-0.57,-0.04397353049372947,-0.043134883071991995,0.34512746682769846
1589996250.9349105,0.356569433395209,-2.2706594183682487,8.164020153805357,0.2888888888888889,0.5644444444444444,-0.57,-0.11698039227588154,-0.0006930868615384542,0.5282650590675938
1589996250.9449105,0.3642939522814099,-2.6628241908743604,9.017103726663303,0.2888888888888889,0.5644444444444444,-0.57,0.05767572170900133,-0.05360946184552394,0.6052287418516968
1589996250.9549105,0.6068638365199489,-6.724544882670275,9.003499304218533,0.2888888888888889,0.5644444444444444,-0.57,-0.02735209477239145,-0.049756888609356065,0.7725896819562251
1589996250.9649105,0.8456604406290869,-10.838074846584622,8.897983971027129,0.29116588235732466,0.5618828267924542,-0.5791079738737429,-0.08622457489716302,-0.08361274097033923,1.1407283988154764
1589996250.9749105,-0.3169492816717458,-1.7124091205920766,8.932700805398346,0.2977777777777777,0.5544444444444444,-0.6055555555555555,-0.0861032105310508,-0.16411595424792957,2.2449586001687543
1589996250.9849105,-0.713103448275862,-2.5668965517241378,8.085172413793103,0.2977777777777777,0.5544444444444444,-0.6055555555555555,0.06759389366021142,-0.1993587292148695,2.886977703013293
1589996250.9949105,-0.05983789332951346,-2.801847156567827,9.191939788950963,0.2977777777777777,0.5544444444444444,-0.6055555555555555,-0.11665573981775837,-0.21067120679325566,2.965308841594342
1589996251.0049105,-0.29485984998026055,-2.922658244505856,8.869480194762469,0.2977777777777777,0.5544444444444444,-0.6055555555555555,-0.15152686042938726,-0.27804399559891635,2.989085925951389
1589996251.0149105,-0.3569546979865772,-2.729474272930649,7.869063199105145,0.2977777777777777,0.5544444444444444,-0.6055555555555555,-0.03411957625385725,-0.19600941883524475,3.0304795197312235
1589996251.0249104,0.25029645562517533,-3.5031300851024034,9.092707378658936,0.3466666666666667,0.5366666666666666,-0.5988888888888889,-0.10923283412626628,-0.2299873834931102,3.0602859240064637
1589996251.0349104,4.907641572285144,-12.71158015868209,8.340047846889952,0.3466666666666667,0.5366666666666666,-0.5988888888888889,-0.11244998021425007,-0.23524709590372667,3.064169896596572
1589996251.0449104,6.066595714080254,-18.135763842945494,7.764678556018985,0.3466666666666667,0.5366666666666666,-0.5988888888888889,-0.19826157753548276,-0.26604165742248,2.136493294902854
1589996251.0549104,-1.8448304353929765,-0.22765397188295933,7.245994825822755,0.3466666666666667,0.5366666666666666,-0.5988888888888889,-0.2711303302046578,-0.08561473876159906,-0.6101139315866346
1589996251.0649104,0.5835714769571206,0.6035457357689616,8.866532165195204,0.36034040588785776,0.5243077100628978,-0.5967852367010134,0.16802732538988815,0.2910415445257099,-1.6673255528630617
1589996251.0749104,-0.1822492099322799,-1.3042946576373213,5.154098720842739,0.4044444444444445,0.4844444444444445,-0.59,0.6426301320894334,0.16856541597874558,-0.36544627103587707
1589996251.0849104,-0.8911886337891093,-2.757755636038738,7.915592482090719,0.4044444444444445,0.4844444444444445,-0.59,0.16509174013565495,0.052222768813327866,0.10393394691791914
1589996251.0949104,-1.6406846211528952,-4.27013146768352,10.766354005456547,0.4044444444444445,0.4844444444444445,-0.59,-0.37144073429727753,0.07631198195113299,0.2594188680801159
1589996251.1049104,3.367722820380209,-7.595298321500776,7.833731878947451,0.4044444444444445,0.4844444444444445,-0.59,-0.32079162661341604,-0.19405612413485296,0.7137852686955215
1589996251.1149104,1.3825509740310622,-8.403828576801919,8.142682464306425,0.4044444444444445,0.4844444444444445,-0.59,0.031279201282146896,-0.07144082562132695,1.0278525245371846
1589996251.1249104,-2.1171642922794116,-2.1578072150735297,9.041118795955882,0.4188888888888889,0.4977777777777778,-0.6344444444444445,0.04017701216846035,-0.009734486676639844,0.030233934182722723
1589996251.1349103,0.9871804011795586,-4.8485433747043,8.955055899413463,0.4188888888888889,0.4977777777777778,-0.6344444444444445,0.08809323732254645,0.07128046632886245,-0.27209057504986267
1589996251.1449103,-0.3874148874783612,-5.050796306982112,8.336278130409694,0.4188888888888889,0.4977777777777778,-0.6344444444444445,-0.06496643203867525,-0.04289363166371666,0.14757624943994463
1589996251.1549103,-0.2651450020567668,-4.211740024681201,8.603361990950226,0.4188888888888889,0.4977777777777778,-0.6344444444444445,-0.013828131125352708,-0.014316716521289049,0.03723354113691256
1589996251.1649103,-0.2933701202437819,-4.628342530060945,8.47651951902487,0.41649476564358795,0.4944628378996688,-0.6316819945460203,0.03713038131390526,0.004369342374132361,-0.027120063860085773
1589996251.1749103,-0.26320873677099754,-4.609304210763342,8.605186894843504,0.4044444444444445,0.4777777777777778,-0.6177777777777778,-0.001090830782496456,-0.001090830782496456,0.001090830782496456
1589996251.1849103,-0.25225764941378326,-4.443909064912782,8.595712038890477,0.4044444444444445,0.4777777777777778,-0.6177777777777778,-0.0023948679818749045,-0.001090830782496456,0.0015255098489559387
1589996251.1949103,-0.15,-4.48,8.71,0.4044444444444445,0.4777777777777778,-0.6177777777777778,-0.004363323129985824,-0.001090830782496456,0.002181661564992912
1589996251.2049103,-0.23843698818113407,-4.6706219290868045,8.399697224558452,0.4044444444444445,0.4777777777777778,-0.6177777777777778,0.00344299048803184,-0.004601663209769919,0.002181661564992912
1589996251.2149103,-0.23253145278771026,-4.595951198516753,8.577720169513972,0.40402253564649276,0.480309230565488,-0.6177777777777778,0.0046394617925129035,-0.00013806933126353963,0.002043592233729372
1589996251.2249103,-0.25,-4.461585143089101,8.7210567620594,0.4011111111111111,0.4977777777777778,-0.6177777777777778,0.003099580059864092,-0.001090830782496456,0.00032518530802653524
1589996251.2349102,-0.2436712025772948,-4.515780801718196,8.730465612027375,0.4011111111111111,0.4977777777777778,-0.6177777777777778,-0.003272492347489368,-0.0015510739188211936,-0.00040046607800934945
1589996251.2449102,-0.22350338991200655,-4.502335593274671,8.636349152922696,0.4011111111111111,0.4977777777777778,-0.6177777777777778,-0.003272492347489368,-0.003017718643549083,0.0017995010090824835
1589996251.2549102,-0.24,-4.573594565200258,8.457081159465977,0.4011111111111111,0.4977777777777778,-0.6177777777777778,-0.006005458204681047,-0.0009743766915825884,0.0026902218929200305
1589996251.2649102,-0.24,-4.533927777690209,8.562859259492773,0.4011111111111111,0.4977777777777778,-0.6177777777777778,0.0040908174623505225,-0.0002532141439374762,-0.0009155908453055313
1589996251.2749102,-0.2695153676701983,-4.518707647120528,8.65080772054967,0.4211111111111111,0.5044444444444445,-0.6255555555555555,0.005418910454912899,-3.524345756938093e-05,-0.001055587324927075
1589996251.2849102,-0.24311675233399768,-4.4483113395573275,8.69480541277667,0.4211111111111111,0.5044444444444445,-0.6255555555555555,0.003499148973312192,-0.001955004939170088,0.0008641741566736319
1589996251.2949102,-0.26573967486422606,-4.562307886617469,8.47769211338253,0.4211111111111111,0.5044444444444445,-0.6255555555555555,-0.006867728739353398,-0.0012522028046837868,0.00023236469007728127
1589996251.3049102,-0.25060408133807266,-4.463926528697472,8.576073471302529,0.4211111111111111,0.5044444444444445,-0.6255555555555555,-0.0002635802074805148,0.0020498714612526545,0.0010578832565613916
1589996251.3149102,-0.25963272262462717,-4.5174290583723895,8.58514188325522,0.4208254509302656,0.5039955498745443,-0.62526989537471,0.0024220440450556163,-0.002181661564992912,0.004323259383308706
1589996251.3249102,-0.2506972731146144,-4.4548809118023005,8.710238176395398,0.41387565686692224,0.49307444491786206,-0.6183201013113667,0.008270282073634507,-0.002181661564992912,0.0033485530452122252
1589996251.3349102,-0.25,-4.518140119315575,8.613315268460044,0.4133333333333333,0.4922222222222222,-0.6177777777777778,-0.004242776567037362,-0.0014142588556791205,0.001090830782496456
1589996251.3449101,-0.25,-4.505533604934338,8.547780913580809,0.4133333333333333,0.4922222222222222,-0.6177777777777778,-0.006302919917471385,-0.002181661564992912,0.0003646364499744053
1589996251.3549101,-0.25,-4.553600396055942,8.551199306902099,0.4133333333333333,0.4922222222222222,-0.6177777777777778,-0.004407021165787798,-0.0016580951916456712,-0.001483573067196591
1589996251.3649101,-0.25,-4.52,8.609651779603011,0.41402977412731,0.49195138413567574,-0.6180873070195452,0.001204785640934869,0.001090830782496456,0.0021436766121801076
1589996251.37491,-0.2520720351990177,-4.5137838944029465,8.604144070398036,0.43333333333333335,0.4844444444444445,-0.6266666666666667,0.004589347107736292,0.0006387828269955201,0.001090830782496456
1589996251.38491,-0.26200142554280287,-4.494002851085606,8.601987170114773,0.43333333333333335,0.4844444444444445,-0.6266666666666667,0.004362545617000274,-0.0008725091234000548,0.001090830782496456
1589996251.39491,-0.26966700782220926,-4.509334015644418,8.532996929600117,0.43333333333333335,0.4844444444444445,-0.6266666666666667,0.0001816190589323547,-3.632381178647094e-05,0.001090830782496456
1589996251.40491,-0.23,-4.52,8.596961994378589,0.43333333333333335,0.4844444444444445,-0.6266666666666667,-0.00310679484502779,0.0018502665600697555,-0.0007594357775732995
1589996251.41491,-0.23,-4.52,8.582317347811665,0.43333333333333335,0.4844444444444445,-0.6266666666666667,-0.0023080532813286774,0.0002527834326715309,0.0008380473498249251
1589996251.42491,-0.2582175416535681,-4.529305249921409,8.656435083307136,0.4133333333333333,0.4777777777777778,-0.64,0.00525971786920171,-0.00019443604328056916,0.0003888720865611383
1589996251.43491,-0.2481156950460366,-4.487537219815854,8.626809865322256,0.4133333333333333,0.4777777777777778,-0.64,0.0035411399910282833,-0.001296376567235841,0.001976115780253527
1589996251.44491,-0.243552121760516,-4.518223939119742,8.568223939119742,0.4133333333333333,0.4777777777777778,-0.64,-0.0007749527519092708,-0.001987923377015594,0.0007033544065418206
1589996251.45491,-0.2574522068194741,-4.513821689770789,8.565095586361052,0.4133333333333333,0.4777777777777778,-0.64,-0.004224362568548215,-0.0012297913439340644,-0.0009518702210588474
1589996251.46491,-0.2410042940334503,-4.538493558949824,8.5979914119331,0.4133333333333333,0.4777777777777778,-0.64,-0.0033272680898076253,-0.002126885822674655,-5.4775742318256956e-05
1589996251.47491,-0.2653135645876631,-4.5231242902748905,8.591562145137445,0.4302090430584421,0.4777777777777778,-0.6212492114165459,0.00040921638143531433,-0.0012612343827617413,-0.0018408543644623412
1589996251.48491,-0.2343247039502118,-4.517116864033191,8.641350592099577,0.43333333333333335,0.4777777777777778,-0.6177777777777778,0.007006812784931856,0.0,0.0017099095455854097
1589996251.49491,-0.2593563838572923,-4.500643616142708,8.591287232285415,0.43333333333333335,0.4777777777777778,-0.6177777777777778,0.00306186945731621,0.0,-0.0009504155223810172
1589996251.50491,-0.25,-4.514547619955029,8.606968253363315,0.43333333333333335,0.4777777777777778,-0.6177777777777778,-0.0006614245112054047,0.00033071225560270235,0.0009254746546951048
1589996251.51491,-0.25,-4.538525096230802,8.590983269179466,0.43333333333333335,0.4777777777777778,-0.6177777777777778,-0.004148807072297585,0.0020744035361487923,5.362901442205982e-05
1589996251.52491,-0.24,-4.52,8.634436156208864,0.4133333333333333,0.4777777777777778,-0.6111111111111112,-0.0017264706592649043,0.00093910048058712,0.002029931263083576
1589996251.53491,-0.23847596571854426,-4.518475965718544,8.59237982859272,0.4133333333333333,0.4777777777777778,-0.6111111111111112,0.001589569834833986,-0.00033249270155835334,0.0009245844317172793
1589996251.54491,-0.23103358943875651,-4.511033589438756,8.555167947193784,0.4133333333333333,0.4777777777777778,-0.6111111111111112,0.004025081777108177,-0.001956167329741147,0.0001127471176258824
1589996251.55491,-0.24722242090456095,-4.527222420904561,8.593056052261403,0.4133333333333333,0.4777777777777778,-0.6111111111111112,0.0015453110992149923,-0.002181661564992912,0.0
1589996251.56491,-0.25622584593108444,-4.53,8.6,0.4133333333333333,0.4777777777777778,-0.6111111111111112,-0.0016257069729864184,-0.002181661564992912,-0.0006791344388707186
1589996251.57491,-0.2526005757732339,-4.544798848453532,8.614798848453532,0.4133333333333333,0.4777777777777778,-0.6111111111111112,-0.002465340375558721,0.00023979435079902892,-0.000283678810565809
1589996251.58491,-0.25,-4.51046933094943,8.645776021455129,0.4133333333333333,0.4777777777777778,-0.6111111111111112,0.0033748844768526957,-0.001090830782496456,0.0011932229118597837
1589996251.59491,-0.25,-4.518991040045511,8.569080639590403,0.4133333333333333,0.4777777777777778,-0.6111111111111112,0.005234032997149689,-0.001090830782496456,0.0030523714321567773
1589996251.60491,-0.23534142038809935,-4.505341420388099,8.611305028641652,0.4133333333333333,0.4777777777777778,-0.6111111111111112,0.002256147938815042,0.0005081722043371627,0.0008739878672389401
1589996251.61491,-0.23861522166742322,-4.517230443334846,8.63,0.4133333333333333,0.4777777777777778,-0.6111111111111112,-0.0007887190160746804,-0.0017284939153602494,0.0
1589996251.6249099,-0.24779177179556686,-4.496624684613299,8.63,0.40381005669430714,0.48297229230815575,-0.6128426159545703,-0.0019407812349756576,-0.0013317111125137103,0.0016999009049584032
1589996251.6349099,-0.2586988470353588,-4.5191325646902385,8.568265129380478,0.4011111111111111,0.4844444444444445,-0.6133333333333333,0.0011381420393820293,-0.002181661564992912,0.0
1589996251.6449099,-0.2366842206553878,-4.504456147103592,8.538912294207183,0.4011111111111111,0.4844444444444445,-0.6133333333333333,0.0019386164433963906,-0.002181661564992912,0.0
1589996251.6549098,-0.24047905948631676,-4.52,8.581916237945267,0.4011111111111111,0.4844444444444445,-0.6133333333333333,0.004102036712825183,-0.0009863162156321997,0.002077146998128656
1589996251.6649098,-0.24868371119500793,-4.52,8.614734844780031,0.4011111111111111,0.4844444444444445,-0.6133333333333333,-0.0003729066089260399,0.0008036611130682893,0.00028716966942816664
1589996251.6749098,-0.24,-4.538913650289345,8.61782730057869,0.42777777777777776,0.4977777777777778,-0.6255555555555555,-0.0019446568240052559,0.0009723284120026279,0.0017076520830175996
1589996251.6849098,-0.24132317163993844,-4.53,8.596030485080185,0.42777777777777776,0.4977777777777778,-0.6255555555555555,0.00021650345330567414,-0.0001443356355371161,-0.001965158111687238
1589996251.6949098,-0.2621169562025936,-4.52682456569611,8.542116956202593,0.42777777777777776,0.4977777777777778,-0.6255555555555555,0.003272492347489368,-0.0020661995154436174,0.0007444446338485723
1589996251.7049098,-0.2771152253479736,-4.498557612673987,8.567211936630066,0.42777777777777776,0.4977777777777778,-0.6255555555555555,0.0031151522979395736,-0.0011695008072713532,-0.0019456514906682199
1589996251.7149098,-0.25470438940984746,-4.487352194704924,8.623239026475382,0.42777777777777776,0.4977777777777778,-0.6255555555555555,0.0018928308128002807,-0.0017806615498409993,-0.00011216926295928116
1589996251.7249098,-0.24566518716367491,-4.496995561491024,8.643004438508976,0.4240009863353278,0.48267061200797795,-0.6135957159877974,-0.000763097381525664,-0.001563685510318872,0.001708806837170496
1589996251.7349098,-0.24084834834834834,-4.521696696696696,8.637274774774776,0.4211111111111111,0.4711111111111111,-0.6044444444444445,-0.003087411448957687,-0.003087411448957687,0.0009982903332306154
1589996251.7449098,-0.24892238392238392,-4.537844767844768,8.51616424116424,0.4211111111111111,0.4711111111111111,-0.6044444444444445,-0.0013259301403317973,-0.0013259301403317973,0.00011754967891767078
1589996251.7549098,-0.25,-4.501483640217248,8.615549079348257,0.4211111111111111,0.4711111111111111,-0.6044444444444445,0.0010099107615403008,-0.001090830782496456,0.0021007415440367568
1589996251.7649097,-0.25,-4.516267629651921,8.644401444477882,0.4211111111111111,0.4711111111111111,-0.6044444444444445,0.003752615459881579,-0.003752615459881579,0.0004071384467361635
1589996251.7749097,-0.25,-4.512973327879792,8.65,0.415645921684283,0.4711111111111111,-0.6044444444444445,-0.00023562301835337775,-0.0028303410805394233,0.0007664910247232002
1589996251.7849097,-0.23998860597236948,-4.52999620199079,8.589973413935528,0.4133333333333333,0.4711111111111111,-0.6044444444444445,-0.004360423040234761,-0.001090830782496456,8.285970717322069e-07
1589996251.7949097,-0.2200761184345872,-4.523358706144863,8.543510943014036,0.4133333333333333,0.4711111111111111,-0.6044444444444445,0.0007078463109662326,-0.001090830782496456,0.0014489055545577304
1589996251.8049097,-0.23142310608671673,-4.52,8.577128282897911,0.4133333333333333,0.4711111111111111,-0.6044444444444445,0.004051458466691962,-0.0003118646632938616,0.002181661564992912
1589996251.8149097,-0.2588359985818514,-4.52,8.618835998581853,0.4133333333333333,0.4711111111111111,-0.6044444444444445,0.0023086344227715105,0.0006848962357381043,0.0008118690935167033
1589996251.8249097,-0.2621087556942502,-4.51210875569425,8.65367373291725,0.40368847918186124,0.4763719406482777,-0.5869083459872225,-0.0006307716576859055,-0.001491572877777087,0.0008608012200911808
1589996251.8349097,-0.24537461727193463,-4.51,8.652687308635967,0.4011111111111111,0.4777777777777778,-0.5822222222222222,-0.0026862125510530264,-0.002181661564992912,0.001090830782496456
1589996251.8449097,-0.25934140595035887,-4.548682811900718,8.522634376198564,0.4011111111111111,0.4777777777777778,-0.5822222222222222,-0.0030928886818599862,-0.004255560930608195,3.5920733125876394e-05
1589996251.8549097,-0.24402060161087064,-4.518041203221741,8.583917593556517,0.4011111111111111,0.4777777777777778,-0.5822222222222222,0.00108521256466978,-0.0017487001826903348,0.0008715409824318295
1589996251.8649096,-0.24504970373634982,-4.50495029626365,8.61514911120905,0.4011111111111111,0.4777777777777778,-0.5822222222222222,0.0010799871093733582,-0.0016416680103062329,0.0016416680103062329
1589996251.8749096,-0.2454829678021465,-4.504517032197853,8.64355109659356,0.4066319282418209,0.4807891325763468,-0.6022979208793487,0.0004927317766946194,-0.002181661564992912,0.0011961980116036732
1589996251.8849096,-0.22107205982324948,-4.519463970088375,8.66,0.4133333333333333,0.4844444444444445,-0.6266666666666667,-0.0009738871969086308,-0.00011694358558782519,0.0
1589996251.8949096,-0.22797762801636395,-4.527977628016364,8.548313207770905,0.4133333333333333,0.4844444444444445,-0.6266666666666667,-0.001090830782496456,-0.0017404484423111898,0.0008702242211555949
1589996251.9049096,-0.24992905139081797,-4.539858102781636,8.550567588873458,0.4133333333333333,0.4844444444444445,-0.6266666666666667,0.001121787953244882,-0.002181661564992912,0.004324626666550291
1589996251.9149096,-0.2420565711926123,-4.524113142385224,8.613547430459102,0.4133333333333333,0.4844444444444445,-0.6266666666666667,0.0045568054471634865,-0.002181661564992912,3.085479915203564e-05
1589996251.9249096,-0.25940020035061356,-4.52,8.659100300525921,0.4133333333333333,0.47151097754403537,-0.6255888777582992,0.004396037126029888,-0.0011235447785405209,0.0010254027904083262
1589996251.9349096,-0.2350648955587102,-4.50337659703914,8.62675319407828,0.4133333333333333,0.4711111111111111,-0.6255555555555555,0.0007366591980760896,-0.001090830782496456,0.0001841647995190224
1589996251.9449096,-0.23577053795186928,-4.511541075903739,8.556524082529437,0.4133333333333333,0.4711111111111111,-0.6255555555555555,-0.0012589360858926107,-0.0004613627395501506,-0.0006294680429463054
1589996251.9549096,-0.2524967499638885,-4.52,8.516248374981943,0.4133333333333333,0.4711111111111111,-0.6255555555555555,-0.002181661564992912,0.0006815919770885518,-0.00040923880540790413
1589996251.9649096,-0.25408236750309443,-4.508164735006189,8.57325869247215,0.4133333333333333,0.4711111111111111,-0.6255555555555555,-0.00024512085885511673,0.0036728850573468494,0.0
1589996251.9749095,-0.25,-4.508183256266731,8.642733025066926,0.4133333333333333,0.4711111111111111,-0.6082797923257889,0.001090830782496456,9.822521039758777e-05,0.0
1589996251.9849095,-0.22965092699884126,-4.51,8.65678302433372,0.4133333333333333,0.4711111111111111,-0.6044444444444445,0.002570657130825223,-0.0003509176083320725,-0.001479826348328767
1589996251.9949095,-0.2584493041749503,-4.500387673956262,8.535039761431412,0.4133333333333333,0.4711111111111111,-0.6044444444444445,-0.0019702182224612935,0.0031456263419703963,-0.0032302036789830443
1589996252.0049095,-0.2528432674166725,-4.5214701977499825,8.551470197749982,0.4133333333333333,0.4711111111111111,-0.6044444444444445,-0.0014009831445940088,0.002491813927090465,-0.0009304570862926588
1589996252.0149095,-0.25,-4.53,8.606942833254951,0.4133333333333333,0.4711111111111111,-0.6044444444444445,0.0018352656479092018,0.002181661564992912,-0.0007315241076014144
1589996252.0249095,-0.256953800933937,-4.523046199066063,8.643907601867875,0.40483424330296586,0.4757469784004025,-0.6137161790230271,0.00251395033608026,0.0014231195535838043,-0.0003322887710873482
1589996252.0349095,-0.26,-4.52,8.622563344860106,0.4011111111111111,0.4777777777777778,-0.6177777777777778,0.003179286498170746,0.004083705582029958,-0.002992874799533502
1589996252.0449095,-0.24402077604644057,-4.52,8.556083104185761,0.4011111111111111,0.4777777777777778,-0.6177777777777778,-0.00021363352630009982,0.0008771972561963559,-0.003272492347489368
1589996252.0549095,-0.24002821982889494,-4.51005643965779,8.55016931897337,0.4011111111111111,0.4777777777777778,-0.6177777777777778,-0.0010846741708893746,0.004360244824182283,-0.001090830782496456
1589996252.0649095,-0.24751951276143527,-4.5250390255228705,8.595117076568611,0.4011111111111111,0.4777777777777778,-0.6177777777777778,0.0005496724154132511,0.0035430715310309706,-0.001090830782496456
1589996252.0749094,-0.24071426207261773,-4.520714262072618,8.64714295170953,0.4258730789174638,0.49634925363254234,-0.6136507831433856,0.0031166645363731368,0.0022595754705510276,-0.001090830782496456
1589996252.0849094,-0.2671811163489786,-4.52,8.65,0.42777777777777776,0.4977777777777778,-0.6133333333333333,0.0022841590669532494,0.006134994687137385,-0.0020791640630325745
1589996252.0949094,-0.24157969889025277,-4.52,8.54579222926426,0.42777777777777776,0.4977777777777778,-0.6133333333333333,0.00011487894510421332,0.00241141945520134,0.0009185123648401362
1589996252.1049094,-0.22440299091763233,-4.535597009082368,8.571194018164736,0.42777777777777776,0.4977777777777778,-0.6133333333333333,-0.0008506848810961733,0.0013309766838967385,0.001090830782496456
1589996252.1149094,-0.22,-4.530291759571137,8.594562360643295,0.42777777777777776,0.4977777777777778,-0.6133333333333333,-0.0005613284073124464,0.001090830782496456,0.0005613284073124464
1589996252.1249094,-0.22,-4.52,8.617640485961562,0.42777777777777776,0.4977777777777778,-0.6099375617948614,-0.0004167238640051879,0.001090830782496456,-0.0004167238640051879
1589996252.1349094,-0.23661976500818535,-4.514460078330605,8.646619765008186,0.42777777777777776,0.4977777777777778,-0.6044444444444445,0.0007221043443821475,0.001090830782496456,-0.0016951424914559902
1589996252.1449094,-0.2556222466960352,-4.51,8.603777533039647,0.42777777777777776,0.4977777777777778,-0.6044444444444445,0.0009550776124280643,0.0004775388062140322,-0.0009550776124280643
1589996252.1549094,-0.26532783699187823,-4.515327836991878,8.565327836991878,0.42777777777777776,0.4977777777777778,-0.6044444444444445,-0.00116235371897282,-0.0017435305784592296,0.00058117685948641
1589996252.1649094,-0.25473716446527483,-4.525087611844908,8.585262835534726,0.42777777777777776,0.4977777777777778,-0.6044444444444445,-0.002736633925974878,5.7341818402428975e-05,0.001090830782496456
1589996252.1749094,-0.24612768620905487,-4.53,8.636766117254329,0.42777777777777776,0.4814372812202981,-0.6044444444444445,-0.0012672117247945476,0.003272492347489368,-0.0009144498401983646
1589996252.1849093,-0.2587091382469223,-4.53,8.62516344701231,0.42777777777777776,0.4711111111111111,-0.6044444444444445,0.0009500196088760076,0.004222511956365376,-0.002181661564992912
1589996252.1949093,-0.2392093482193433,-4.523069782739781,8.564558261918249,0.42777777777777776,0.4711111111111111,-0.6044444444444445,0.001090830782496456,0.004363323129985824,-0.0014256921333094088
1589996252.2049093,-0.23810907566277495,-4.511890924337225,8.54,0.42777777777777776,0.4711111111111111,-0.6044444444444445,0.00020626784744167965,0.002594197259876271,-0.001975393717551232
