time,acc_x,acc_y,acc_z,mag_x,mag_y,mag_z,gyr_x,gyr_y,gyr_z
1589996258.9500287,-4.05,-0.79,8.88,0.3233333333333333,-0.31777777777777777,-0.5733333333333334,-0.001090830782496456,-0.006544984694978735,0.014180800172453925
1589996258.9600286,-4.046759961212976,-0.8,8.916759961212977,0.3233333333333333,-0.3233333333333333,-0.5811111111111111,0.002181661564992912,-0.0018282281604560886,0.009141140802280442
1589996258.9700286,-4.047541323696715,-0.8,8.884862254344286,0.3233333333333333,-0.3233333333333333,-0.5811111111111111,0.0024558718326311052,-0.0005424102472200696,0.004083102574291314
1589996258.9800286,-4.07,-0.8091697659155546,8.82528294319259,0.3233333333333333,-0.3233333333333333,-0.5811111111111111,0.00293907024985691,0.0004239865872315401,0.0
1589996258.9900286,-4.063369909813402,-0.820054864720103,8.869945135279897,0.3233333333333333,-0.3233333333333333,-0.5811111111111111,0.002543276888306348,-0.0003676001358695841,-0.0007232306466268719
1589996259.0000286,-4.051226421922726,-0.8018396328840893,8.888160367115912,0.3233333333333333,-0.3233333333333333,-0.5811111111111111,0.003205601408207459,0.000957048903932638,-0.002047879686429094
1589996259.0100286,-4.062507669652718,-0.78,8.88,0.3233333333333333,-0.3233333333333333,-0.56,0.0029989480225376553,0.0002735443249517128,0.0002735443249517128
1589996259.0200286,-4.072061175374583,-0.78,8.859388246254174,0.3233333333333333,-0.3233333333333333,-0.56,0.0017319828556492133,0.0001914733638090589,0.0006411520731527574
1589996259.0300286,-4.065957877771486,-0.7706385851809906,8.808084244457028,0.3233333333333333,-0.3233333333333333,-0.56,0.0,-0.0007195624844158681,-0.001090830782496456
1589996259.0400286,-4.05354943273906,-0.7670988654781199,8.84354943273906,0.3233333333333333,-0.3233333333333333,-0.56,-0.0015487321968669294,0.0010201124173427147,7.071836515374122e-05
1589996259.0500286,-4.064099494816287,-0.7840994948162876,8.864348231857006,0.32173908534922147,-0.3221945847732534,-0.56,-0.004139730373071265,-0.0004200525117527791,0.0035232181064802654
1589996259.0600286,-4.078011396422389,-0.8009943017888056,8.917017094633584,0.31555555555555553,-0.31777777777777777,-0.56,-0.0030555693478252935,0.0019647385653288373,0.009160492259299796
1589996259.0700285,-4.06,-0.81,8.869048761132175,0.31555555555555553,-0.31777777777777777,-0.56,-0.00043785203139761625,-0.00032648937554941986,0.01374294814105631
1589996259.0800285,-4.06,-0.8081861457649376,8.825441562705187,0.31555555555555553,-0.31777777777777777,-0.56,0.0013876219876815966,-0.0008929699790396956,0.015073770151493623
1589996259.0900285,-4.063549260907004,-0.7864507390929966,8.883549260907005,0.31555555555555553,-0.31777777777777777,-0.56,0.0039761588247387595,0.0022523236982376505,0.011928476474216278
1589996259.1000285,-4.066252974326863,-0.7781264871634315,8.891873512836568,0.31701273220621995,-0.31673693731301744,-0.5652042023238016,0.0022506496107237463,0.0035458489405733266,0.009408739947761856
1589996259.1100285,-4.053894898406665,-0.7777897968133314,8.880525507966672,0.3233333333333333,-0.31222222222222223,-0.5877777777777777,-0.0030313965803303792,0.0,0.007635815477475192
1589996259.1200285,-4.063087670531436,-0.7838246589371274,8.82529863574851,0.3233333333333333,-0.31222222222222223,-0.5877777777777777,-0.004700135736175615,-0.0003368126061897912,0.009656691114613938
1589996259.1300285,-4.07,-0.7731372994247654,8.780980547986678,0.3233333333333333,-0.31222222222222223,-0.5877777777777777,-0.005283040773160156,-0.0012619439218185802,0.015378592147708795
1589996259.1400285,-4.067243892525264,-0.7927561074747362,8.851024429898946,0.3233333333333333,-0.31222222222222223,-0.5877777777777777,-0.004363323129985824,-0.002782950939655065,0.023319839086584502
1589996259.1500285,-4.061365159011591,-0.7986348409884088,8.874539363953636,0.3233333333333333,-0.31222222222222223,-0.5877777777777777,-0.004363323129985824,-0.004065491635416593,0.02652619082598832
1589996259.1600285,-4.051043187288418,-0.772086374576835,8.903129561865253,0.31555555555555553,-0.3233333333333333,-0.5666666666666667,-0.002067867484381429,-0.004021940888151375,0.031292710450562776
1589996259.1700284,-4.0592507289200235,-0.7885014578400485,8.927752186760072,0.31555555555555553,-0.3233333333333333,-0.5666666666666667,-0.0011725635783436455,-0.0013360291700380248,0.02860679873244942
1589996259.1800284,-4.04,-0.7881975760992108,8.839012119503947,0.31555555555555553,-0.3233333333333333,-0.5666666666666667,-0.0028792644526717337,-0.0017884336701752775,0.02262197958306031
1589996259.1900284,-4.040335030382657,-0.78,8.88,0.31555555555555553,-0.3233333333333333,-0.5666666666666667,-0.0009446462007068176,7.309229089481919e-05,0.016033546428420153
1589996259.2000284,-4.05,-0.78,8.882081267649829,0.31833057908865875,-0.3221770735278736,-0.5680541784332183,0.0025913991017756256,0.0019546304830883312,0.00495576712164667
1589996259.2100284,-4.067083546374885,-0.7842708865937212,8.864374680437672,0.3288888888888889,-0.31777777777777777,-0.5733333333333334,-0.0009317629129965125,0.0015567122389947123,-0.0006249493259981996
1589996259.2200284,-4.093234261681624,-0.79,8.810594429910257,0.3288888888888889,-0.31777777777777777,-0.5733333333333334,-0.0025344647850893335,0.002181661564992912,0.0
1589996259.2300284,-4.099136265666161,-0.79,8.770863734333838,0.3288888888888889,-0.31777777777777777,-0.5733333333333334,-0.0031311641476017855,0.0018990051652177467,0.0002355469998126378
1589996259.2400284,-4.083353611883479,-0.79,8.813475283184353,0.3288888888888889,-0.31777777777777777,-0.5733333333333334,0.0014632892300180124,-0.0036316785149768174,0.003990864682464268
1589996259.2500284,-4.085779749199573,-0.7857797491995732,8.868440501600853,0.324668638088462,-0.31895006966678524,-0.5749745419779438,0.003672786207541679,-0.002181661564992912,0.0013210097566445042
1589996259.2600284,-4.065977562692477,-0.77,8.91206731192257,0.3088888888888889,-0.3233333333333333,-0.5811111111111111,-0.00022550874821605153,-0.001742881721422076,0.0008653220342804044
1589996259.2700284,-4.056251617979239,-0.77,8.881271033730108,0.3088888888888889,-0.3233333333333333,-0.5811111111111111,-0.002181661564992912,-0.0014997158317766814,-0.0014997158317766814
1589996259.2800283,-4.05,-0.77,8.830840218238505,0.3088888888888889,-0.3233333333333333,-0.5811111111111111,-0.002602179807411265,-0.0017611433225745588,-0.0013406250801562057
1589996259.2900283,-4.053927896854726,-0.771963948427363,8.88589184528209,0.3088888888888889,-0.3233333333333333,-0.5811111111111111,-0.0030582588075090547,-0.0013050643224767691,0.0
1589996259.3000283,-4.0654093783362075,-0.7777046891681039,8.903114067504312,0.3088888888888889,-0.3233333333333333,-0.5811111111111111,-0.0024320411360759043,-0.0019312819939099196,0.0
1589996259.3100283,-4.060349996166526,-0.789650003833474,8.919650003833473,0.3228277833150178,-0.31797222009251447,-0.5607388807959997,-0.002181661564992912,-0.003234313688269125,0.0010526521232762129
1589996259.3200283,-4.06,-0.78,8.827305594181196,0.3233333333333333,-0.31777777777777777,-0.56,0.001090830782496456,-0.00035365366368026076,0.0022115313564485856
1589996259.3300283,-4.061829636829549,-0.7818296368295485,8.785488910488645,0.3233333333333333,-0.31777777777777777,-0.56,0.0006916659476043181,-0.001090830782496456,0.0
1589996259.3400283,-4.069242025271715,-0.7892420252717152,8.807726075815145,0.3233333333333333,-0.31777777777777777,-0.56,-0.000925466349302949,-0.001090830782496456,0.0
1589996259.3500283,-4.059686601801188,-0.7796866018011881,8.870626796397623,0.3230895791787018,-0.31777777777777777,-0.5604178642650827,0.002352593766214439,0.0,-0.001090830782496456
1589996259.3600283,-4.050756669292512,-0.7707566692925121,8.888486661414976,0.3161440761163983,-0.31777777777777777,-0.5723244409433172,0.007223116399254196,0.0,-0.001090830782496456
1589996259.3700283,-4.043620210425797,-0.78,8.875519158296813,0.31555555555555553,-0.31777777777777777,-0.5733333333333334,0.008529194411392962,-0.002379113413571598,0.001984209716414226
1589996259.3800282,-4.057924730999437,-0.78,8.818301076002252,0.31555555555555553,-0.31777777777777777,-0.5733333333333334,0.007749003842863916,-0.0031593039821006443,0.0012040191478851798
1589996259.3900282,-4.06,-0.76,8.903197096548027,0.31555555555555553,-0.31777777777777777,-0.5733333333333334,0.004014573997065771,-0.002530410697912965,-0.0020072869985328853
1589996259.4000282,-4.059608348279798,-0.7607833034404043,8.919608348279798,0.31659996014276137,-0.3182564632135804,-0.5730722321865319,0.0019680486887857958,-0.004277877979502977,-0.0011335533577378793
1589996259.4100282,-4.052917972220923,-0.78,8.912917972220923,0.3422222222222222,-0.33,-0.5666666666666667,-0.002635889563278861,-0.0018633601728876583,-0.002181661564992912
1589996259.4200282,-4.06,-0.7856122105060427,8.869490105445616,0.3422222222222222,-0.33,-0.5666666666666667,-0.0013969293813885233,-0.0017030279802805908,-0.00126336576831671
1589996259.4300282,-4.06,-0.8,8.755446977459016,0.3422222222222222,-0.33,-0.5666666666666667,-0.0028556631053458705,-0.0019244892667834505,0.0007538300123199766
1589996259.4400282,-4.055543908757929,-0.7977719543789643,8.79445609124207,0.3422222222222222,-0.33,-0.5666666666666667,-0.00363419690551617,0.000847788707673238,0.000243042074823218
1589996259.4500282,-4.043053810190286,-0.7915269050951431,8.806946189809715,0.3422222222222222,-0.33,-0.5666666666666667,-0.0015905093064162838,0.0001665595079732759,0.0009242712745231801
1589996259.4600282,-4.0697785719290875,-0.789778571929087,8.89,0.3288888888888889,-0.3377777777777778,-0.5877777777777777,0.003308723430868481,0.002145430481613799,-0.001090830782496456
1589996259.4700282,-4.052672732941039,-0.77,8.876636335294807,0.3288888888888889,-0.3377777777777778,-0.5877777777777777,0.005670334885335471,-0.00021618097285319054,-0.001382380719044211
1589996259.4800282,-4.06,-0.7712179235218148,8.843653770565444,0.3288888888888889,-0.3377777777777778,-0.5877777777777777,0.00300678265382495,0.0019159518713284937,-0.0019159518713284937
1589996259.4900281,-4.055828084040846,-0.78,8.884601705857037,0.3288888888888889,-0.3377777777777778,-0.5877777777777777,0.0013183735000080901,0.0009101708700465363,-0.00022754271751163408
1589996259.5000281,-4.040581136496778,-0.780581136496778,8.939709431751611,0.3288888888888889,-0.3373580680856604,-0.5873580680856603,0.002086573328065277,0.004268234893058189,-0.0010274386245446995
1589996259.5100281,-4.056961921499707,-0.7969619214997071,8.931519039250146,0.3288888888888889,-0.3255275011391004,-0.5755275011391005,-0.0005937263503324294,0.0015879352146604825,0.0007594278277204384
1589996259.520028,-4.07,-0.7809468506383961,8.887690941700852,0.3288888888888889,-0.3233333333333333,-0.5733333333333334,-0.003065921582931589,0.003065921582931589,0.01064376010069922
1589996259.530028,-4.07,-0.7883950419974074,8.790864454033704,0.3288888888888889,-0.3233333333333333,-0.5733333333333334,-0.001440978301264874,0.001440978301264874,0.017143533227366076
1589996259.540028,-4.06,-0.76,8.80156563814059,0.3288888888888889,-0.3233333333333333,-0.5733333333333334,-0.001925484623292212,0.0010054384685962226,0.022736661804625108
1589996259.550028,-4.06,-0.76,8.817672471726734,0.3288888888888889,-0.3233333333333333,-0.5733333333333334,0.0007099898593549447,0.00012694697438050376,0.02097967881619367
1589996259.560028,-4.072501001059946,-0.7574989989400542,8.887498998940055,0.31555555555555553,-0.3233333333333333,-0.5733333333333334,0.000272816894324517,-0.000272816894324517,0.018271306408115234
1589996259.570028,-4.072567842522002,-0.7425678425220014,8.862658299218003,0.31555555555555553,-0.3233333333333333,-0.5733333333333334,-0.00026037357706390767,-0.0008205899105843832,0.019615219495239877
1589996259.580028,-4.046256734286664,-0.6937971400066512,8.813743265713336,0.31555555555555553,-0.3233333333333333,-0.5733333333333334,-0.005792467443495314,-0.0014291443135094905,0.030059044773726416
1589996259.590028,-4.032308280678417,-0.5961579647489191,8.827691719321583,0.31555555555555553,-0.3233333333333333,-0.5733333333333334,-0.01111785834093033,-0.006754535210944509,0.04451367720962147
1589996259.600028,-3.9703680805176136,-0.868282290917805,8.998527677929546,0.315719146896717,-0.323415129003914,-0.5733333333333334,-0.010734318616043006,-0.008686494904066673,0.059768168687176895
1589996259.610028,-3.999777457179692,-0.7311127141015409,8.881112714101542,0.3288888888888889,-0.33,-0.5733333333333334,0.002932633165147327,-0.005429878256600705,0.040893229649589115
1589996259.620028,-4.002344319655485,-0.7750622721378062,8.89049817710245,0.3288888888888889,-0.33,-0.5733333333333334,-0.009036714556241714,-0.0030167667430679593,0.010437613635008235
1589996259.630028,-4.0474921146231795,-0.7500105138357605,8.76500525691788,0.3288888888888889,-0.33,-0.5733333333333334,0.0,0.001090830782496456,-0.008725499378402685
1589996259.640028,-4.073224865694551,-0.7264497313891021,8.76451189562548,0.3288888888888889,-0.33,-0.5733333333333334,-0.00017588913845165418,0.0007390525055931477,-0.011471471192106052
1589996259.650028,-4.0893196469685344,-0.7586392939370683,8.836938411358403,0.3288888888888889,-0.33,-0.5733333333333334,-0.0010537232810120696,-0.0010166157795276833,-0.008837968764424806
1589996259.660028,-4.1072497650375945,-0.784125352443609,8.864125352443608,0.3233333333333333,-0.3233333333333333,-0.56,0.0014316513259702958,-0.0006000081912180929,-0.0034633108431586846
1589996259.670028,-4.090824718045113,-0.8087629229323309,8.888762922932331,0.3233333333333333,-0.3233333333333333,-0.56,-0.0030475853898670377,-0.004183397563887959,0.0019117732158461147
1589996259.680028,-4.098814381136327,-0.837628762272654,8.837113713182038,0.3233333333333333,-0.3233333333333333,-0.56,0.0019229996544323287,-0.0028844994816484932,0.0009614998272161644
1589996259.690028,-4.090375824883309,-0.8207516497666183,8.887745050700145,0.3233333333333333,-0.3233333333333333,-0.56,8.199227030836068e-05,-0.00012298840546254124,4.099613515418034e-05
1589996259.700028,-4.09,-0.8070807072970229,8.915838585405954,0.3233333333333333,-0.3233333333333333,-0.56,0.0021139143252733995,0.0,0.0021139143252733995
1589996259.710028,-4.082499530727935,-0.7849990614558697,8.960001877088262,0.32750026070670285,-0.3233333333333333,-0.5700006256960869,0.0024543180709756204,0.0008181742765137475,0.00572701517703061
1589996259.720028,-4.064208288578589,-0.7878958557107054,8.914729010025063,0.3288888888888889,-0.3233333333333333,-0.5733333333333334,0.002181661564992912,0.00022952653615767487,0.015158027158366547
1589996259.730028,-4.042985433795781,-0.7792536415510547,8.81850728310211,0.3288888888888889,-0.3233333333333333,-0.5733333333333334,0.0019374163337271383,-0.0011722458595850472,0.02181661564992912
1589996259.740028,-4.07357118115691,-0.7716072047107725,8.803214409421546,0.3288888888888889,-0.3233333333333333,-0.5733333333333334,-0.0005648742708112926,-0.0020063427277645244,0.02181661564992912
1589996259.750028,-4.08,-0.77,8.827829240290107,0.3288888888888889,-0.3233333333333333,-0.5733333333333334,-0.001090830782496456,-0.0042054610291221775,0.02181661564992912
1589996259.760028,-4.06312836230362,-0.74469254345543,8.84687163769638,0.3288888888888889,-0.3233333333333333,-0.5733333333333334,-0.001090830782496456,-0.004363323129985824,0.02549743599999689
1589996259.7700279,-4.04,-0.7721561217879508,8.860594903908444,0.3288888888888889,-0.3233333333333333,-0.5733333333333334,-0.0006204379790748575,-0.00521895751077148,0.027185618336353856
1589996259.7800279,-4.041391730869274,-0.7813917308692744,8.802525577823468,0.3288888888888889,-0.3233333333333333,-0.5733333333333334,0.0015462736444429783,-0.004211508842670316,0.022300189283163546
1589996259.7900279,-4.05,-0.7886087259224879,8.889738918542585,0.3288888888888889,-0.3233333333333333,-0.5733333333333334,0.0040597942118578935,-0.003272492347489368,0.017330007629928028
1589996259.8000278,-4.05,-0.7804972151311209,8.946519494082153,0.3288888888888889,-0.3233333333333333,-0.5733333333333334,0.0022901370791028517,-0.003272492347489368,0.010251379098907866
1589996259.8100278,-4.06,-0.7514153821124985,8.972923089437508,0.3422222222222222,-0.3233333333333333,-0.5733333333333334,-0.0012452250202272758,0.0009364365447656362,0.006699378932709555
1589996259.8200278,-4.06,-0.7684743970390857,8.887628014804573,0.3422222222222222,-0.3233333333333333,-0.5733333333333334,-0.0031060748803260624,-0.0009244133153331498,0.008560228792808341
1589996259.8300278,-4.0471329425240885,-0.7635664712620444,8.809231183882488,0.3422222222222222,-0.3233333333333333,-0.5733333333333334,-0.003974281466233129,-0.001090830782496456,0.008024857141227887
1589996259.8400278,-4.04,-0.7682180019782394,8.811090009891197,0.3422222222222222,-0.3233333333333333,-0.5733333333333334,-0.003466878177137797,0.0007020591231995984,0.005842925571779138
1589996259.8500278,-4.046319885212694,-0.7510403443619176,8.826319885212694,0.3422222222222222,-0.3233333333333333,-0.5733333333333334,-0.0025830998143042765,0.0004014382493113646,0.0033859763129270057
1589996259.8600278,-4.05,-0.7549299533022015,8.859859906604402,0.3322689200207546,-0.3233333333333333,-0.5633800311318657,-0.0013673589328291134,-0.0016286052643275973,0.0013673589328291134
1589996259.8700278,-4.068988964621877,-0.76,8.841516553067185,0.3288888888888889,-0.3233333333333333,-0.56,-5.514342563252934e-05,-0.0032173489218568388,0.001090830782496456
1589996259.8800278,-4.068830209151794,-0.77,8.813509372544619,0.3288888888888889,-0.3233333333333333,-0.56,0.0005104175465222688,-0.0046185319032469585,0.004746136289877525
1589996259.8900278,-4.060983649493021,-0.77,8.837049051520934,0.3288888888888889,-0.3233333333333333,-0.56,0.0039341250715156355,-0.006330385665743642,0.007313916933622551
1589996259.9000278,-4.051220113443266,-0.7963396596702008,8.91023909245387,0.3288888888888889,-0.3233333333333333,-0.56,0.0034055860776946415,-0.0027140364858140053,0.008593552529766374
1589996259.9100277,-4.05,-0.7849079402789441,8.950184119442113,0.32469665007748444,-0.3283640199070187,-0.5650306865736854,0.0008030598502389579,-0.0013585173992427754,0.0013183487682204183
1589996259.9200277,-4.04038772706457,-0.7703877270645703,8.963408639902307,0.3233333333333333,-0.33,-0.5666666666666667,0.0010062418590484022,-0.001048536320772429,-0.005623331759378387
1589996259.9300277,-4.05,-0.78,8.805017605633804,0.3233333333333333,-0.33,-0.5666666666666667,-0.001090830782496456,-0.00010946717359559507,-0.009817477042468105
1589996259.9400277,-4.051727122145502,-0.78,8.851727122145503,0.3233333333333333,-0.33,-0.5666666666666667,-0.000714031182207345,-0.0011850306825687336,-0.009723277142395827
1589996259.9500277,-4.067339338556885,-0.78,8.867339338556885,0.3233333333333333,-0.33,-0.5666666666666667,0.0026920260666991594,-0.0020365449947953597,-0.008871762830169199
1589996259.9600277,-4.05051028886098,-0.7410205777219592,8.84795884455608,0.33555555555555555,-0.3377777777777778,-0.5733333333333334,0.0,-0.002070333805488588,-0.0042519953704815
1589996259.9700277,-4.058614433388078,-0.7572288667761569,8.815542266447686,0.33555555555555555,-0.3377777777777778,-0.5733333333333334,0.0,-0.0003022837422966703,-0.0024839453072895822
1589996259.9800277,-4.04891723837276,-0.7132482848817199,8.75649656976344,0.33555555555555555,-0.3377777777777778,-0.5733333333333334,-0.004481434101295756,-0.003154381376179436,0.0036268252614191647
1589996259.9900277,-4.039585872035938,-0.7404141279640614,8.814969535568737,0.33555555555555555,-0.3377777777777778,-0.5733333333333334,-0.005273456500045981,-0.002136487211883837,0.006635333401196885
1589996260.0000277,-4.033944504969805,-0.7460554950301954,8.882665940362346,0.33555555555555555,-0.3377777777777778,-0.5733333333333334,-0.0028119457596056875,-0.001521109526773764,0.007866088771417031
1589996260.0100276,-4.025186019002557,-0.7596279619948869,8.939627961994887,0.32967180100312465,-0.33403357033532177,-0.5802868614407516,-0.0005657069166600272,0.0015347885466856879,0.005575903064953074
1589996260.0200276,-4.038030270911943,-0.77,8.968030270911942,0.3233333333333333,-0.33,-0.5877777777777777,0.0,0.0050189222809024206,-0.0017519333405066665
1589996260.0300276,-4.05,-0.7515820289162385,8.86028318795555,0.3233333333333333,-0.33,-0.5877777777777777,0.0,0.00545415391248228,-0.008381501091845156
1589996260.0400276,-4.04302962110111,-0.736059242202219,8.870911136696671,0.3233333333333333,-0.33,-0.5877777777777777,0.0007603503868573528,0.00545415391248228,-0.009486996646829001
1589996260.0500276,-4.032590001809082,-0.7225900018090816,8.887409998190918,0.3233333333333333,-0.33,-0.5877777777777777,0.0002825253700067707,0.00545415391248228,-0.004967644567529992
1589996260.0600276,-4.023354387502988,-0.7133543875029887,8.89664561249701,0.3233333333333333,-0.3255695916686592,-0.5877777777777777,0.0007249238680282995,0.0040043061764256805,0.0003521269926521301
1589996260.0700276,-4.044921091811414,-0.7432281224152192,8.825236724565757,0.3233333333333333,-0.3233333333333333,-0.5877777777777777,0.0019969872518734956,0.003272492347489368,0.0030878180343699513
1589996260.0800276,-4.064433927136614,-0.735566072863386,8.781132145726772,0.3233333333333333,-0.3233333333333333,-0.5877777777777777,0.002181661564992912,0.0016979951441964253,0.008783232559014666
1589996260.0900276,-4.0561297568463015,-0.7006450405256163,8.843870243153697,0.3233333333333333,-0.3233333333333333,-0.5877777777777777,-0.000351815030649981,-0.004292960123855828,0.027024294853474896
1589996260.1000276,-4.009023079946839,-0.7084961533421934,8.890976920053161,0.3233333333333333,-0.3233333333333333,-0.5877777777777777,-0.004633932799237373,-0.0034365365701383493,0.03730137749808464
1589996260.1100276,-3.9085595020996804,-0.6271190041993608,8.976398755249201,0.3233333333333333,-0.31777777777777777,-0.5666666666666667,-0.006309283777210224,-0.004049055239627808,0.037079139771122906
1589996260.1200275,-3.8945249368422816,-0.5990498736845628,8.941312342105704,0.3233333333333333,-0.31777777777777777,-0.5666666666666667,-0.004012883406951293,-0.0009871880792825666,0.02636260470991456
1589996260.1300275,-3.822892561983471,-0.5995867768595041,8.910826446280993,0.3233333333333333,-0.31777777777777777,-0.5666666666666667,-0.007455512868798092,-0.003137265390981543,0.009312629738172222
1589996260.1400275,-3.8285225108315717,-0.36136969671599306,8.833297402515855,0.3233333333333333,-0.31777777777777777,-0.5666666666666667,-0.009495138909322763,-0.004202154063413154,0.0003596908166575794
1589996260.1500275,-3.6476238400209122,-0.4719801333159064,8.873193046660568,0.3233333333333333,-0.31777777777777777,-0.5666666666666667,-0.018935630468657927,-0.007679015284963942,0.0022248613724816617
1589996260.1600275,-3.5403835044929397,-0.5129119292132771,8.89,0.3233333333333333,-0.31777777777777777,-0.5713920471911487,-0.008672409785388052,-0.0017679490375675537,0.0079116238290921
1589996260.1700275,-3.467924374189209,-0.48792437418920864,8.88766492096286,0.3233333333333333,-0.31777777777777777,-0.5733333333333334,-0.0032158884343054845,0.0010625288259045141,0.022241144998808245
1589996260.1800275,-3.37417476180131,-0.3965593867353589,8.797181806896125,0.3233333333333333,-0.31777777777777777,-0.5733333333333334,-0.0007124711777299871,0.0001891798023832344,0.039077681448696326
1589996260.1900275,-2.8990437913162226,0.006976506005400229,8.71256944228919,0.3233333333333333,-0.31777777777777777,-0.5733333333333334,0.010647254593723128,0.005869042688109792,0.06605703015589748
1589996260.2000275,-2.483995878796068,0.259281153937101,8.95864675877445,0.3233333333333333,-0.31777777777777777,-0.5733333333333334,0.014826536031402947,-0.0027927965353575293,0.10497342127196546
1589996260.2100275,-2.521863110216407,-0.06487871162556619,9.137183694011073,0.3288888888888889,-0.31777777777777777,-0.56,0.019509236797975116,0.000904615482334001,0.06358011797191798
1589996260.2200274,-2.7667241066935078,-0.34351363865123297,8.993644489179669,0.3288888888888889,-0.31777777777777777,-0.56,0.042535263728145645,0.011036067331609035,0.03042263919247242
1589996260.2300274,-2.6573364124329046,-0.5689953813506428,8.942096117837972,0.3288888888888889,-0.31777777777777777,-0.56,0.024050701363125895,0.009931802535538136,-0.004772939552393243
1589996260.2400274,-2.080649621809014,-1.7982039867633155,9.137134021430823,0.3288888888888889,-0.31777777777777777,-0.56,0.04499083948141465,0.02200002511178284,-0.01854412330243975
1589996260.2500274,-2.2210985266309486,-1.4099040734320833,8.51750650015758,0.3288888888888889,-0.31777777777777777,-0.56,0.10266838818642424,0.06165333984647693,-0.01854412330243975
1589996260.2600274,-2.372639437433773,-1.209208168769868,8.577654368557942,0.31555555555555553,-0.34444444444444444,-0.5666666666666667,0.06963390437175476,0.06558729099790464,-0.04151241079286219
1589996260.2700274,-2.4399788074366633,-1.189006357769001,8.772938541566322,0.31555555555555553,-0.34444444444444444,-0.5666666666666667,0.009400101079836756,0.013433632050024395,-0.07089475386209049
1589996260.2800274,-2.4974427390791027,-1.1251145218417946,8.850852420306966,0.31555555555555553,-0.34444444444444444,-0.5666666666666667,-0.0264339078829944,-0.016802400102618964,-0.11293150864428067
1589996260.2900274,-2.626278417608776,-1.0147679853260199,8.772829855905748,0.31555555555555553,-0.34444444444444444,-0.5666666666666667,0.0002789074561077125,0.008565846886435868,-0.13093343906602384
1589996260.3000274,-2.729728003179921,-0.97,8.811040004542745,0.31555555555555553,-0.34444444444444444,-0.5666666666666667,0.022848105931608926,0.025834363984449295,-0.1552679820556536
1589996260.3100274,-2.800172962720437,-0.97,8.940345925440875,0.3251123103594483,-0.3396660670424981,-0.5666666666666667,0.016324727125511404,0.017415557908007858,-0.18677145198796477
1589996260.3200274,-2.875655329084369,-0.9514482236385435,8.970724111819273,0.3288888888888889,-0.3377777777777778,-0.5666666666666667,0.007951768862447662,0.016125496698717486,-0.23378771099073556
1589996260.3300273,-2.8057197723706704,-0.9685700569073323,8.812154516287675,0.3288888888888889,-0.3377777777777778,-0.5666666666666667,0.020802728787174103,0.025478017105699934,-0.27215966178938183
1589996260.3400273,-2.786883642495784,-0.9372091062394604,8.780325463743676,0.3288888888888889,-0.3377777777777778,-0.5666666666666667,0.023962774627903173,0.03333380203982846,-0.3020740375767783
1589996260.3500273,-2.774212181485862,-0.9142121814858618,8.798939092570691,0.3288888888888889,-0.3377777777777778,-0.5666666666666667,0.02003828351843855,0.03393148130551704,-0.3460145207379794
1589996260.3600273,-2.736530352251736,-0.901632588062934,8.778162940314669,0.3465534252004728,-0.3312697907156153,-0.5666666666666667,0.015449718686368845,0.031634092692397225,-0.4114216401530494
1589996260.3700273,-2.7445513111870836,-0.907275655593542,8.777275655593542,0.35,-0.33,-0.5666666666666667,0.016858932771805987,0.03322139450925282,-0.45965239668252555
1589996260.3800273,-2.742128759923963,-0.9021287599239629,8.764257519847925,0.35,-0.33,-0.5666666666666667,0.013160197034262775,0.03295713516025403,-0.5234526789227163
1589996260.3900273,-2.761567329842932,-0.9,8.79594554973822,0.35,-0.33,-0.5666666666666667,0.014351769336353477,0.03899860541860691,-0.5798203083512847
1589996260.4000273,-2.8040723611229628,-0.9048674801604233,8.85380732144381,0.35,-0.33,-0.5666666666666667,0.018988348989476708,0.04569924748860969,-0.6258872225825539
1589996260.4100273,-2.8653708691377027,-0.9252225214826215,8.935519216792784,0.3426706378046637,-0.3237982319885616,-0.5773788114136966,0.026228485436517006,0.05017821599483697,-0.6909975341051446
1589996260.4200273,-2.9137682631455584,-0.9697103289319478,8.993768263145558,0.33555555555555555,-0.31777777777777777,-0.5877777777777777,0.029452431127404314,0.05471546778482589,-0.762554190378982
1589996260.4300272,-2.922951048951049,-0.9970489510489511,8.869020979020979,0.33555555555555555,-0.31777777777777777,-0.5877777777777777,0.03329703752165755,0.06550324426081865,-0.8386505388702299
1589996260.4400272,-2.937089058787065,-1.0056963529290215,8.798607294141956,0.33555555555555555,-0.31777777777777777,-0.5877777777777777,0.03677071217676878,0.07182921785874703,-0.8993427021940271
1589996260.4500272,-2.95,-1.0142213533235376,8.798442706647075,0.33555555555555555,-0.31777777777777777,-0.5877777777777777,0.036797642742643445,0.07417649320975901,-0.9611608235158283
1589996260.4600272,-2.9453396995921617,-1.02,8.800679399184324,0.3479830233097914,-0.3151887219956453,-0.5779393658056743,0.0333815052977213,0.0751932130378692,-1.0351567455225417
1589996260.4700272,-2.9725323798172427,-1.0525323798172428,8.806266189908621,0.3622222222222222,-0.31222222222222223,-0.5666666666666667,0.029859726625771486,0.07724533780806478,-1.1259975287277342
1589996260.4800272,-2.9867551782928867,-1.0802655348786594,8.769468930242681,0.3622222222222222,-0.31222222222222223,-0.5666666666666667,0.03018930676971755,0.07671210991493513,-1.185250502392034
1589996260.4900272,-3.020094463559587,-1.1125708476696905,8.787618079449484,0.3622222222222222,-0.31222222222222223,-0.5666666666666667,0.035467456994928086,0.08292374822145503,-1.2543295295313364
1589996260.5000272,-3.017746326707001,-1.1690146931719965,8.849014693171997,0.3622222222222222,-0.31222222222222223,-0.5666666666666667,0.03976158341021114,0.09043147464538684,-1.3071537461005176
1589996260.5100272,-3.0259582942830363,-1.2478748828491097,8.919895735707591,0.3781805165052588,-0.31222222222222223,-0.5950369676142871,0.045803519394883696,0.09642261709070624,-1.3786850009058782
1589996260.5200272,-3.0607952594329744,-1.3138917040077056,8.93,0.38222222222222224,-0.31222222222222223,-0.6022222222222222,0.05110477576540423,0.10212280218385254,-1.4302803375927136
1589996260.5300272,-3.07771760540554,-1.3454352108110805,8.837388735133517,0.38222222222222224,-0.31222222222222223,-0.6022222222222222,0.05404359786853474,0.10362892433716332,-1.4791201412518216
1589996260.5400271,-3.0871926207032705,-1.4075409656261653,8.81719262070327,0.38222222222222224,-0.31222222222222223,-0.6022222222222222,0.0545415391248228,0.10676729716514292,-1.51910479754897
1589996260.5500271,-3.0676139178524107,-1.4244034794631026,8.786420876778616,0.38222222222222224,-0.31222222222222223,-0.6022222222222222,0.053320567749518565,0.11043419021775762,-1.5518025869103518
1589996260.5600271,-3.0384036842747344,-1.4431926314505306,8.754201842137368,0.4002609355726349,-0.28838535100917684,-0.5938471053095306,0.0536248393754966,0.11425301332063503,-1.5901190160962377
1589996260.570027,-3.0131553136774114,-1.544223431612942,8.766844686322589,0.4133333333333333,-0.27111111111111114,-0.5877777777777777,0.048110393298061056,0.11103438735408022,-1.6396961112048094
1589996260.580027,-3.01,-1.5980457790321243,8.75478168838715,0.4133333333333333,-0.27111111111111114,-0.5877777777777777,0.04690572364734761,0.11183396930863403,-1.6717945850727773
1589996260.590027,-3.0050124598334316,-1.644912781165978,8.759975080333136,0.4133333333333333,-0.27111111111111114,-0.5877777777777777,0.05017006105292572,0.11561990800271307,-1.6972892045409589
1589996260.600027,-3.0,-1.6873798318782252,8.78475966375645,0.4133333333333333,-0.27111111111111114,-0.5877777777777777,0.056268260066172214,0.12091309223771787,-1.727263719147175
1589996260.610027,-2.986596175612081,-1.7737210341335556,8.850211473163757,0.4587574048701707,-0.2629198850962716,-0.5780972379420584,0.061086523819801536,0.12508577441687194,-1.7698026354978214
1589996260.620027,-2.9482529888160434,-1.841747011183957,8.862063247204011,0.4811111111111111,-0.2588888888888889,-0.5733333333333334,0.06454958552497346,0.12804283626597138,-1.8105376269544702
1589996260.630027,-2.9255341834776303,-1.8355341834776304,8.765972192604599,0.4811111111111111,-0.2588888888888889,-0.5733333333333334,0.06939478643892401,0.13502993551720044,-1.8428735392542395
1589996260.640027,-2.92,-1.8685907649676268,8.699127388025898,0.4811111111111111,-0.2588888888888889,-0.5733333333333334,0.07006208097533417,0.13997043825535982,-1.8783301851739818
1589996260.650027,-2.895367869529924,-1.953896391410228,8.763896391410228,0.4811111111111111,-0.2588888888888889,-0.5733333333333334,0.061080587079324136,0.13534327371099725,-1.906870274706674
1589996260.660027,-2.919278340928113,-2.0589175113921696,8.829639170464057,0.4978407748397519,-0.22542956143160736,-0.6017010240036372,0.0520618679598379,0.13270462507156744,-1.942713389657643
1589996260.670027,-2.9102503923699143,-2.0602503923699143,8.765625980924785,0.5066666666666667,-0.20777777777777776,-0.6166666666666667,0.06072504702011587,0.14200559710134208,-1.9758624242842067
1589996260.680027,-2.8626677152594078,-2.139597483377422,8.710134172207525,0.5066666666666667,-0.20777777777777776,-0.6166666666666667,0.06598794438232934,0.14426602996450938,-2.0091932140191724
1589996260.690027,-2.817566615739182,-2.2348667685216355,8.764866768521635,0.5066666666666667,-0.20777777777777776,-0.6166666666666667,0.05769584424922478,0.13602931315477906,-2.0472248981125385
1589996260.700027,-2.8156765925367506,-2.2670297776102526,8.78567659253675,0.5066666666666667,-0.20777777777777776,-0.6166666666666667,0.05996691122246348,0.1385067275622083,-2.070134088325648
1589996260.710027,-2.829742080881432,-2.2946131213221483,8.809484161762864,0.5196561078419097,-0.18883484273054824,-0.6166666666666667,0.06751897006920907,0.14871552683671305,-2.0951483178389783
1589996260.720027,-2.8008448522402287,-2.3448045757864633,8.803896568160152,0.5333333333333333,-0.1688888888888889,-0.6166666666666667,0.07294397921075621,0.15503965433100306,-2.122338542272506
1589996260.730027,-2.7281536926147707,-2.3993627031650986,8.74815369261477,0.5333333333333333,-0.1688888888888889,-0.6166666666666667,0.0717934307517902,0.15414757782599584,-2.149742245089922
1589996260.740027,-2.6840448374419434,-2.4321345123258307,8.704044837441943,0.5333333333333333,-0.1688888888888889,-0.6166666666666667,0.06830557100903031,0.15578041775287,-2.18090139350924
1589996260.750027,-2.650874978143032,-2.477086553593286,8.713009617065921,0.5333333333333333,-0.1688888888888889,-0.6166666666666667,0.07090400086226964,0.15904942244290937,-2.204049822512948
1589996260.760027,-2.5213670529676464,-2.55655697729958,8.747594962165968,0.5480506464885158,-0.13209560600093295,-0.6283178729145193,0.06849588612847268,0.16061447395722223,-2.2393679091809062
1589996260.770027,-2.4767417953933264,-2.6164037161233575,8.756741795393326,0.56,-0.10222222222222224,-0.6377777777777778,0.06509443196172422,0.15961670923254567,-2.271366760872456
1589996260.780027,-2.449750972231698,-2.650124513884151,8.689252916695095,0.56,-0.10222222222222224,-0.6377777777777778,0.06656784244781981,0.16366536444777238,-2.292523504172866
1589996260.790027,-2.386792884159774,-2.69240533688017,8.673207115840228,0.56,-0.10222222222222224,-0.6377777777777778,0.07166806754611478,0.16689710972195776,-2.31974154517624
1589996260.800027,-2.3381176764858678,-2.7675292940565295,8.739705808785331,0.56,-0.10222222222222224,-0.6377777777777778,0.0728803327840793,0.1675451899347976,-2.3456005678038765
1589996260.810027,-2.28085006062239,-2.7789357402667383,8.752978580088913,0.5693618932147829,-0.05229212507671353,-0.6588420375110393,0.07199483164476607,0.17258344908996265,-2.3731607810669706
1589996260.8200269,-2.26,-2.77,8.75,0.5733333333333334,-0.031111111111111114,-0.6677777777777778,0.07199483164476607,0.17453292519943295,-2.3812835981897638
1589996260.8300269,-2.1839825708061,-2.8667494553376907,8.680893246187365,0.5733333333333334,-0.031111111111111114,-0.6677777777777778,0.07274866938813837,0.18131746488978345,-2.4114371079246544
1589996260.8400269,-2.15,-2.945048743869483,8.66168291462316,0.5733333333333334,-0.031111111111111114,-0.6677777777777778,0.07181125413724036,0.18435040224190105,-2.436386504099821
1589996260.8500268,-2.129934597156398,-2.9750163507109004,8.6649836492891,0.5733333333333334,-0.031111111111111114,-0.6677777777777778,0.07199839881651929,0.18653919815040035,-2.4516653702771807
1589996260.8600268,-2.0726860167727352,-3.0546279664545293,8.691094986022721,0.5781703311590899,-1.6125088390599174e-05,-0.6954177653535294,0.06901533827507687,0.18667856329579405,-2.4641596826165926
1589996260.8700268,-2.030549011778798,-3.132418313702003,8.703516337259599,0.5811111111111111,0.01888888888888889,-0.7122222222222222,0.06371164617206208,0.18331945935423122,-2.471702777347316
1589996260.8800268,-1.99348044397463,-3.1606078224101477,8.62044133192389,0.5811111111111111,0.01888888888888889,-0.7122222222222222,0.06564875636837154,0.18332587459893265,-2.467639978130827
1589996260.8900268,-1.97,-3.190792893204955,8.607180456313626,0.5811111111111111,0.01888888888888889,-0.7122222222222222,0.06588714830163596,0.18548447864015738,-2.453499503107579
1589996260.9000268,-1.9177926001574435,-3.2465451798897895,8.66,0.5811111111111111,0.01888888888888889,-0.7122222222222222,0.0609902078319,0.18482358064222315,-2.4342527265925824
1589996260.9100268,-1.8590766355140187,-3.287282242990654,8.69641121495327,0.587988785046729,0.022934579439252336,-0.7227410176531672,0.060890785959764784,0.18643704938733446,-2.412704825959371
1589996260.9200268,-1.8171162733124278,-3.3,8.75346179237498,0.6,0.03,-0.7411111111111112,0.06186278881838695,0.19162961381238997,-2.3815148078666772
1589996260.9300268,-1.7565036597567183,-3.371980481297502,8.654523178459216,0.6,0.03,-0.7411111111111112,0.05868616380827135,0.19236760927572152,-2.3396186529087406
1589996260.9400268,-1.7280849629130142,-3.46,8.593688469318948,0.6,0.03,-0.7411111111111112,0.05545436515387074,0.19026869251564785,-2.3019854227557817
1589996260.9500268,-1.6950113063141417,-3.4450113063141417,8.66,0.6,0.03,-0.7411111111111112,0.04418070223702351,0.18380539795983625,-2.2525844768776184
1589996260.9600267,-1.68,-3.450763783346807,8.639236216653194,0.612112206952304,0.043842522231204516,-0.7261150453606395,0.03522288187502469,0.179862105354037,-2.1685870453647245
1589996260.9700267,-1.601767072736973,-3.4579641650364574,8.595928330072914,0.6233333333333333,0.05666666666666665,-0.7122222222222222,0.029452431127404314,0.17671458676442586,-2.114030056478132
1589996260.9800267,-1.5683341810783318,-3.486668362156663,8.555554425228891,0.6233333333333333,0.05666666666666665,-0.7122222222222222,0.026119182945386274,0.17338133858240784,-2.0760310272031264
1589996260.9900267,-1.5749057721712538,-3.540565366972477,8.56547113914373,0.6233333333333333,0.05666666666666665,-0.7122222222222222,0.020664112897734184,0.16014655179465076,-1.9796124750034303
1589996261.0000267,-1.5585686191880883,-3.585241841082549,8.612862761623823,0.6233333333333333,0.05666666666666665,-0.7122222222222222,0.020362889671026924,0.14611856331506173,-1.880533071904589
1589996261.0100267,-1.54,-3.61,8.65,0.6221974858247988,0.060831440864626204,-0.7292599348502385,0.02694763413721537,0.1377435291183678,-1.8047178224970926
1589996261.0200267,-1.527663339070568,-3.6182244406196213,8.666448881239242,0.62,0.06888888888888889,-0.7622222222222222,0.029646114610231047,0.1284019354833923,-1.7166918085193623
1589996261.0300267,-1.4807466729478271,-3.635850665410435,8.619792015074784,0.62,0.06888888888888889,-0.7622222222222222,0.032190851901581434,0.11879641827264702,-1.6142707446436513
1589996261.0400267,-1.4486417966196656,-3.64,8.621111915211504,0.62,0.06888888888888889,-0.7622222222222222,0.034287091145830395,0.11191109958028714,-1.5229740058185461
1589996261.0500267,-1.4307370002174042,-3.6538944996738936,8.609053501195724,0.62,0.06888888888888889,-0.7622222222222222,0.034826190787501474,0.10453611386414452,-1.4389902626178956
1589996261.0600266,-1.4059050162120923,-3.660603344141395,8.625173246868842,0.5876337409314712,0.053227795791213686,-0.7147169064926074,0.02779728665190933,0.09260299625616761,-1.3425018595340739
1589996261.0700266,-1.3793266021714334,-3.6820201934856995,8.715336698914284,0.5511111111111111,0.03555555555555556,-0.6611111111111111,0.026694132936101643,0.08566694457998514,-1.2363134659839818
1589996261.0800266,-1.3560179825101615,-3.730973026234758,8.678053947530485,0.5511111111111111,0.03555555555555556,-0.6611111111111111,0.030384050864543172,0.08236262804739007,-1.1558324201236163
1589996261.0900266,-1.3261718659845367,-3.7680859329922685,8.596171865984536,0.5511111111111111,0.03555555555555556,-0.6611111111111111,0.02483344649963986,0.07484973934989655,-1.0755207582589734
1589996261.1000266,-1.3035075252133437,-3.7470150504266875,8.59623118696664,0.5511111111111111,0.03555555555555556,-0.6611111111111111,0.026945162074534484,0.06989867631892248,-0.9658576932535466
1589996261.1100266,-1.2904918541505044,-3.720983708301009,8.62877036462374,0.5511111111111111,0.03555555555555556,-0.6611111111111111,0.02410558314449577,0.06350962372633537,-0.9033869567926947
1589996261.1200266,-1.23675798911794,-3.69013698367691,8.66337899455897,0.5333333333333333,0.14333333333333334,-0.5955555555555555,0.022155321575515755,0.05271352608656382,-0.777329012486701
1589996261.1300266,-1.2361748736191724,-3.7127650252761657,8.650644823066841,0.5333333333333333,0.14333333333333334,-0.5955555555555555,0.0200522106452508,0.046443167280338066,-0.6918728523930129
1589996261.1400266,-1.0999960705339162,-3.6699980352669583,9.088908099611965,0.5333333333333333,0.14333333333333334,-0.5955555555555555,0.09429902331123421,0.004119749440844464,-0.5902589898243078
1589996261.1500266,-1.0004376448391132,-3.502844691454236,8.477429298004553,0.5333333333333333,0.14333333333333334,-0.5955555555555555,0.08224914658411507,0.025177406209073553,-0.5109778582994922
1589996261.1600266,-1.0195624564392474,-3.4128593278091848,8.280592813443816,0.5260069525112505,0.16787670908731078,-0.581269112952494,-0.05166781288193921,0.05509208639634954,-0.4481388688230808
1589996261.1700265,-1.0854565683859176,-3.4854565683859176,9.713313995072717,0.5111111111111111,0.21777777777777774,-0.5522222222222222,-0.1059199030456616,0.024850534818253722,-0.3890932630889206
1589996261.1800265,-1.0618076244609957,-3.5621724323794592,8.730232261858095,0.5111111111111111,0.21777777777777774,-0.5522222222222222,0.03979453106923553,0.019450440763631928,-0.2844427321688391
1589996261.1900265,-1.06423359166038,-3.5881023249434194,8.740291475207462,0.5111111111111111,0.21777777777777774,-0.5522222222222222,-0.010223480653784763,-0.002595670038371651,-0.22833405198941126
1589996261.2000265,-1.0842133553855697,-3.6371680793880503,8.739562538763696,0.5111111111111111,0.21777777777777774,-0.5522222222222222,0.004321466980878659,0.0017697754080461432,-0.16707626125671385
1589996261.2100265,-1.1152923776310875,-3.7194152447378253,8.616461888155436,0.5140513209061596,0.238947288302127,-0.5598667676893483,0.012586127571936785,0.0071893071493303925,-0.09773471551068105
1589996261.2200265,-1.1146226169236013,-3.6938678507708036,8.55396187077762,0.5166666666666667,0.2577777777777778,-0.5666666666666667,-0.0007717579130337975,-0.0017597444967033821,-0.037890772493194905
1589996261.2300265,-1.1348359308213323,-3.7255325398391093,8.566925757874664,0.5166666666666667,0.2577777777777778,-0.5666666666666667,0.007559827221479626,-0.007336262025268629,0.014489152768211899
1589996261.2400265,-1.1864897250989535,-3.822979450197907,8.681755137450523,0.5166666666666667,0.2577777777777778,-0.5666666666666667,0.009759573049838703,-0.015788094349883913,0.07054770499751017
1589996261.2500265,-1.2063229049468298,-3.8589687148404894,8.706770950531702,0.5166666666666667,0.2577777777777778,-0.5666666666666667,0.013843312893196095,-0.020838280627185277,0.12626713712039037
1589996261.2600265,-1.1877034984412884,-3.835081399376515,8.72819189470038,0.5185794557980218,0.2689812569757149,-0.5683062002078282,0.009513691815891328,-0.023712250577461062,0.17673423456514975
1589996261.2700264,-1.1595220787802978,-3.8485662363408935,8.723787024143872,0.5244444444444445,0.3033333333333333,-0.5733333333333334,0.014232933290259864,-0.028776682941641242,0.2516651473584175
1589996261.2800264,-1.1505349080226346,-3.8410698160452688,8.704279264181077,0.5244444444444445,0.3033333333333333,-0.5733333333333334,0.012240644529436068,-0.029510780541093715,0.3092789057730063
1589996261.2900264,-1.130328625235405,-3.8006572504708096,8.506478813559323,0.5244444444444445,0.3033333333333333,-0.5733333333333334,0.007246603561978517,-0.028433295249444816,0.3667393376918767
1589996261.3000264,-1.16,-3.8531427068954183,8.635428471263612,0.5244444444444445,0.3033333333333333,-0.5733333333333334,-0.0042698452012331425,-0.035654599680194424,0.42570482138044863
1589996261.3100264,-1.1688524805607272,-3.8359016537071517,8.636229547694667,0.5296903588508014,0.3012021806057508,-0.5733333333333334,-0.007796758115760071,-0.03898379057880035,0.48304135021505684
1589996261.3200264,-1.22,-3.8627988569614224,8.726399428480711,0.56,0.2888888888888889,-0.5733333333333334,-0.008726646259971648,-0.044418754149422285,0.5382168432300009
1589996261.3300264,-1.233118136880868,-3.826397671101085,8.654086520916962,0.56,0.2888888888888889,-0.5733333333333334,-0.0097998713238706,-0.04946273261890433,0.595006991213331
1589996261.3400264,-1.26,-3.859472322814278,8.565276771857217,0.56,0.2888888888888889,-0.5733333333333334,-0.011999138607461015,-0.04828435768854721,0.6243609537507328
1589996261.3500264,-1.2634082882280413,-3.8568165764560827,8.636141982403712,0.56,0.2888888888888889,-0.5733333333333334,-0.010883778893030719,-0.05530964119971016,0.6586617085799196
1589996261.3600264,-1.2799461303072803,-3.8467923626163456,8.623153767690935,0.56,0.2933093912476802,-0.5810692124612181,-0.010896555281152121,-0.05890486225480863,0.675935804828554
1589996261.3700264,-1.3,-3.7951422218104325,8.646279996293893,0.56,0.3022222222222222,-0.5966666666666667,-0.013152025361462413,-0.05996466505155261,0.6897177600358649
1589996261.3800263,-1.312632824997334,-3.802632824997334,8.6,0.56,0.3022222222222222,-0.5966666666666667,-0.013205020221128313,-0.06016783886133604,0.7027251255900593
1589996261.3900263,-1.3185171584473352,-3.7893790891928933,8.573206703043782,0.56,0.3022222222222222,-0.5966666666666667,-0.015527405935035083,-0.058487334353602746,0.713632815535961
1589996261.4000263,-1.3049564680880237,-3.7449564680880236,8.562217042572152,0.56,0.3022222222222222,-0.5966666666666667,-0.014721466968741673,-0.05808436487045604,0.7229314810171645
1589996261.4100263,-1.3164579420031535,-3.7564579420031534,8.636976623020498,0.56,0.3022222222222222,-0.5966666666666667,-0.015976083147812046,-0.05871167295999123,0.7273226376439108
1589996261.4200263,-1.3017323209860856,-3.8417323209860856,8.669055530846942,0.62,0.27555555555555555,-0.5811111111111111,-0.01835515639676108,-0.05729010140685171,0.7377795427789615
1589996261.4300263,-1.3380768250857422,-3.8562392944634984,8.719444585987262,0.62,0.27555555555555555,-0.5811111111111111,-0.019154796135404207,-0.060335993760397263,0.741284774148058
1589996261.4400263,-1.4,-3.858132402299294,8.620769646232786,0.62,0.27555555555555555,-0.5811111111111111,-0.022907446432425576,-0.06036732710390074,0.7460442998473404
1589996261.4500263,-1.4,-3.7853175031827475,8.564135835808804,0.62,0.27555555555555555,-0.5811111111111111,-0.022907446432425576,-0.05595461969386169,0.7522220902213952
1589996261.4600263,-1.4470963670608337,-3.851451816469583,8.7,0.6383896752813861,0.2742650520270372,-0.5854665605198605,-0.027411388687573895,-0.06233572321185365,0.758620249148097
1589996261.4700263,-1.4308081396477739,-3.859595930176113,8.7,0.7415484488974324,0.267025839843455,-0.6098989016394504,-0.02208107873123338,-0.06322410820457708,0.7675040990753312
1589996261.4800262,-1.4889437788755775,-3.8991311826236523,8.638262365247304,0.7466666666666667,0.26666666666666666,-0.6111111111111112,-0.021606626524516042,-0.06600548362989336,0.7840564583341078
1589996261.4900262,-1.5141369730643797,-3.85,8.562753351854088,0.7466666666666667,0.26666666666666666,-0.6111111111111112,-0.021477402719679434,-0.0624029914805472,0.7992397506396526
1589996261.5000262,-1.526961939459711,-3.8408858183791326,8.640885818379132,0.7466666666666667,0.26666666666666666,-0.6111111111111112,-0.030073715509745517,-0.06359958638043797,0.8157896873251632
1589996261.5100262,-1.52,-3.829610041199578,8.631532049439494,0.8602787092927938,0.2538532784005621,-0.6482699370828143,-0.024417594365384404,-0.06456867474252208,0.8308757839680466
1589996261.5200262,-1.5235452687164637,-3.8735452687164638,8.676454731283537,1.3377777777777775,0.2,-0.8044444444444444,-0.026953396429542996,-0.06428966047534528,0.8463060254682726
1589996261.5300262,-1.5269772036079126,-3.8769772036079124,8.648840425255386,1.3377777777777775,0.2,-0.8044444444444444,-0.030340015957132843,-0.06316656240841048,0.8519388411297321
1589996261.5400262,-1.5371844417133234,-3.8734368883426646,8.620621330055988,1.3377777777777775,0.2,-0.8044444444444444,-0.03303205323979567,-0.06544984694978735,0.8485646838895684
1589996261.5500262,-1.5739718160466702,-3.8720563679066595,8.65602818395333,1.3377777777777775,0.2,-0.8044444444444444,-0.02923580216709825,-0.06479996006886916,0.8362723821590005
1589996261.5600262,-1.586682778998409,-3.846634442003182,8.643317221001592,1.3377777777777775,0.2,-0.8044444444444444,-0.02854252668395181,-0.06272013361942987,0.8175539441140467
1589996261.5700262,-1.6271684074475146,-3.8315052223425434,8.720089426066302,1.1655555555555557,-0.20777777777777776,-0.8355555555555556,-0.02353495896696121,-0.06374125850334314,0.7745386299254231
1589996261.5800261,-1.6468661842739991,-3.7632426435118185,8.636539700916547,1.1655555555555557,-0.20777777777777776,-0.8355555555555556,-0.020360196061621164,-0.05926451542568208,0.7278725574767531
1589996261.5900261,-1.710980449523285,-3.7325770144219184,8.597731043265755,1.1655555555555557,-0.20777777777777776,-0.8355555555555556,-0.019072736753262994,-0.057392368473557255,0.6952534063776659
1589996261.6000261,-1.6604519326747667,-3.747013733521495,8.641041200564485,1.1655555555555557,-0.20777777777777776,-0.8355555555555556,-0.015923133234848452,-0.05503016583474635,0.6669069747119348
1589996261.6100261,-1.6479819637434434,-3.7680270543848344,8.631551302107297,1.129548030224022,-0.18267893622895,-0.82207490567774,-0.008286379046202488,-0.045333550105283,0.613271951995856
1589996261.620026,-1.7251753013711235,-3.6522370479433146,8.839973313702034,0.7813203071480426,0.06005122542253308,-0.6917039354621024,-0.02512735282378557,-0.051227890927437084,0.5838002478850857
1589996261.630026,-1.6832334728033471,-3.6452150627615065,8.4858410041841,0.7144444444444444,0.10666666666666667,-0.6666666666666666,-0.002249941182173443,-0.042027564901187725,0.5589519166371789
1589996261.640026,-1.8548273361227334,-3.5360189679218967,8.602836820083681,0.7144444444444444,0.10666666666666667,-0.6666666666666666,-0.026923651080773475,-0.046281652814739456,0.5300241188250272
1589996261.650026,-2.033755507202071,-3.3837995648186445,8.762488985595857,0.7144444444444444,0.10666666666666667,-0.6666666666666666,-0.020654303859476808,-0.044995568292869784,0.5281717358117162
1589996261.660026,-2.0488404754626046,-3.5195642791634447,8.73231904907479,0.7144444444444444,0.10666666666666667,-0.6666666666666666,-0.01160397260711231,-0.04170453874655542,0.5421586113835521
1589996261.670026,-2.0348226777572824,-3.573529739324122,8.71670483416281,0.6222222222222222,0.17555555555555555,-0.6611111111111111,-0.024319038335630365,-0.04838158926073813,0.5858279136268776
1589996261.680026,-1.9400850870128505,-3.610018908225078,8.600066178787772,0.6222222222222222,0.17555555555555555,-0.6611111111111111,-0.016374837141821252,-0.052367096545714954,0.6360028165292335
1589996261.690026,-2.0092213538080155,-3.627691261534224,8.639986399944911,0.6222222222222222,0.17555555555555555,-0.6611111111111111,-0.025674766646601056,-0.058988315842424206,0.7046006495844622
1589996261.700026,-1.9442359867786805,-3.6204706651976313,8.546118647569205,0.6222222222222222,0.17555555555555555,-0.6611111111111111,-0.013860093518696277,-0.055837736341649596,0.7589481459728242
1589996261.710026,-1.9477292619460653,-3.650917047784261,8.710043762813436,0.6222222222222222,0.17555555555555555,-0.6611111111111111,-0.024050681303727894,-0.06237742339271643,0.7877846675352621
1589996261.720026,-1.852453850676073,-3.6118403880070544,8.604294238683128,0.5955555555555555,0.19333333333333333,-0.6822222222222222,-0.013069832948705038,-0.06026336662261608,0.7944996745215636
1589996261.730026,-1.8851181447974834,-3.6448818552025166,8.640708868784902,0.5955555555555555,0.19333333333333333,-0.6822222222222222,-0.02572473657598747,-0.06249516889158247,0.7519432618893411
1589996261.740026,-1.8578356749066336,-3.6551342699626534,8.581627245242753,0.5955555555555555,0.19333333333333333,-0.6822222222222222,-0.015242337793264988,-0.05513089425859911,0.6800252289705387
1589996261.750026,-1.814951342603437,-3.6332684568045828,8.693463086390835,0.5955555555555555,0.19333333333333333,-0.6822222222222222,-0.01744267712274986,-0.04834247236202049,0.5770101349628447
1589996261.760026,-1.781502209131075,-3.601062223858616,8.756813328424153,0.5944933316969399,0.19014666175748648,-0.6825762968417607,-0.011767397310885,-0.03880642557672039,0.4556659431532653
1589996261.770026,-1.657958762886598,-3.6165051546391753,8.710484536082474,0.5790504009163804,0.14381786941580757,-0.6877239404352806,-0.008398272457405705,-0.032068175869761795,0.3402734169215994
1589996261.780026,-1.4676816222752782,-3.550423242690149,8.738104864965427,0.5755555555555556,0.13333333333333333,-0.6888888888888889,0.00976028207632127,-0.010609243430718375,0.11484319648132614
1589996261.790026,-1.3421860123000227,-3.65,8.649674110700202,0.5755555555555556,0.13333333333333333,-0.6888888888888889,0.027590443180974762,0.017351838548549554,-0.12891108907891674
1589996261.800026,-1.3481511713329524,-3.6931651293771934,8.476274426577422,0.5755555555555556,0.13333333333333333,-0.6888888888888889,0.045776712451861636,0.029247710032382204,-0.3185087694588906
1589996261.810026,-1.5535695045302425,-4.008139906946372,8.667998204228226,0.5755555555555556,0.13333333333333333,-0.6888888888888889,0.01365906055502545,0.027753865758110754,-0.47760318466880014
1589996261.820026,-18.346305977320775,-12.237649005915392,-8.010369017874304,0.5288888888888889,0.13111111111111112,-0.5811111111111111,-1.043714845575116,2.569764025031172,-2.3680638528523983
1589996261.830026,-5.2063694022679226,-0.2621239882973505,-0.5939630982125692,0.5288888888888889,0.13111111111111112,-0.5811111111111111,-0.18488047793446538,-1.531927300742947,-5.929441862010727
1589996261.840026,-0.1789850204876738,-1.200037616712568,0.2357143816752872,0.5288888888888889,0.13111111111111112,-0.5811111111111111,-0.12376009028876615,-0.4896558908641417,-6.2394168119834115
1589996261.850026,-0.01698310606569492,-1.1366455632430978,-0.03194095519580842,0.5288888888888889,0.13111111111111112,-0.5811111111111111,-0.10455175604149972,-0.4996442246727201,-6.058858470059107
1589996261.860026,-0.15005389995100005,-0.8223139115328076,0.0038834691968461857,0.529488791878876,0.14182366450373934,-0.5822252166639444,-0.052029212342007775,-0.17568143410295142,-5.724191650468822
1589996261.8700259,-0.32423792875366153,-0.933202620554978,0.35048568458849094,0.5366666666666666,0.27,-0.5955555555555555,-0.07236129361604417,-0.05637405512895619,-5.412623628667515
1589996261.8800259,3.0700913307512074,-4.281941376177497,10.134830488213073,0.5366666666666666,0.27,-0.5955555555555555,0.5595316689859308,0.7688514189098195,-4.939227484150763
1589996261.8900259,1.2465784615384614,1.1657677492877494,5.760111225071225,0.5366666666666666,0.27,-0.5955555555555555,1.6890064825428701,2.495870281347365,-4.420503398096845
1589996261.9000258,1.6783676302973785,1.320971712775878,6.4649683970573,0.5366666666666666,0.27,-0.5955555555555555,0.343680959889504,1.4868809334321098,-3.919177321892101
1589996261.9100258,2.5538904889370784,-1.9895280046081387,16.279652695422357,0.529686691740363,0.28085773877425013,-0.5950708350745622,-0.34029396384215116,0.012995016512234654,-3.4546753551226015
1589996261.9200258,1.2869902785648895,-0.5396237848206111,8.488871354461834,0.4566666666666666,0.3944444444444444,-0.59,0.5524276846358085,0.22956559734320264,-3.1413351749171476
1589996261.9300258,1.2995206527282,-0.8930452922905753,8.622829725093876,0.4566666666666666,0.3944444444444444,-0.59,0.4272160301348772,0.27988580819433523,-2.949057151926257
1589996261.9400258,0.16283986705642092,-1.8592900332358948,8.873444119649221,0.4566666666666666,0.3944444444444444,-0.59,-0.08233136295337785,0.06526145335811206,-2.7038015023869977
1589996261.9500258,-0.7664018175507242,-2.1114941150484365,9.723200908775363,0.4566666666666666,0.3944444444444444,-0.59,-0.3360432425892103,0.27504562779440606,-2.450245231154009
1589996261.9600258,-0.012007510018617218,-2.369576378151526,9.346003755009308,0.4566666666666666,0.3944444444444444,-0.59,-0.019148191801932446,0.22956866150830463,-2.2596750867170132
1589996261.9700258,0.5428453676228158,-2.7850478074513685,9.096238048137158,0.4156878045206433,0.45693720921713005,-0.5910244715536506,0.23030106451670684,0.07558669680295668,-1.9685929653995597
1589996261.9800258,-0.11769605180697729,-2.776533528305828,9.57526383956549,0.4122222222222222,0.4622222222222222,-0.5911111111111111,-0.06319733949169268,0.16292591143227272,-1.7726156081089703
1589996261.9900258,-0.12,-2.6231723895670505,7.8812184069553,0.4122222222222222,0.4622222222222222,-0.5911111111111111,0.06813052982962883,0.14556696609096897,-1.511954115223477
1589996262.0000257,-0.12,-2.534770527794854,7.9401529814700975,0.4122222222222222,0.4622222222222222,-0.5911111111111111,0.05929097822494388,0.09654763446498882,-1.363288929144685
1589996262.0100257,-0.2541969856964577,-2.707409042910627,8.277583757319766,0.4110814587266541,0.4634621825434919,-0.5913591031753651,-0.014483011714959906,0.07124485275792347,-1.0988084970336267
1589996262.0200257,-0.14951060766055485,-3.0214681770183356,9.31639473936834,0.3905020852666048,0.4858310667391977,-0.5958328800145062,0.03910085400694045,0.0773938209555186,-0.908190482908178
1589996262.0300257,-0.20896148644893575,-2.9530151349548914,8.751876215705527,0.38666666666666666,0.49,-0.5966666666666667,0.042193393673388965,0.04066953251283141,-0.6031197354326537
1589996262.0400257,-0.2478112669272522,-3.1394940812508105,9.28023323021063,0.38666666666666666,0.49,-0.5966666666666667,-0.0018802842231475936,0.03727924959771321,-0.4276725945752871
1589996262.0500257,-0.22679980316575085,-2.9836020667596164,8.602406298695973,0.38666666666666666,0.49,-0.5966666666666667,0.009773371442880574,0.007897496773202424,-0.18090148749606155
1589996262.0600257,-0.21098329243285036,-3.1468894342286617,9.095751840521734,0.3859383019015923,0.49094687419459665,-0.5972129402404724,-0.029613670343144955,-0.002574950304774217,-0.013485348335628526
1589996262.0700257,-0.22538342026412161,-2.894472533570081,8.225574076129176,0.3644444444444445,0.5188888888888888,-0.6133333333333333,-0.004413851680492319,-0.017688527496810134,0.22060385036979735
1589996262.0800257,-0.19,-3.22,9.28,0.3644444444444445,0.5188888888888888,-0.6133333333333333,-0.009817477042468105,-0.02617993877991494,0.34797501961636945
1589996262.0900257,-0.1845918616977901,-3.2091837233955802,9.009593084889504,0.3644444444444445,0.5188888888888888,-0.6133333333333333,-0.006277858800838897,-0.03384911163677823,0.4417749030195435
1589996262.1000257,-0.20115666763509588,-3.3198877832655436,9.06914112434631,0.3644444444444445,0.5188888888888888,-0.6133333333333333,-0.012503830072052996,-0.044207129670937054,0.6414245044526331
1589996262.1100256,-0.22307487147771637,-3.0562030845348076,8.32705848247072,0.3644444444444445,0.5188888888888888,-0.6133333333333333,-0.02206745065147801,-0.05579862346440571,0.7985552582408375
1589996262.1200256,-4.127472629206247,-27.638467638061506,6.274260586056995,0.3386547165423353,0.5274854648562586,-0.6337502012558365,-0.03669365248789771,-0.0748009854903679,1.0029055360833208
1589996262.1300256,-0.6717284343442795,-10.883006045584711,6.433505601795254,0.3377777777777778,0.5277777777777778,-0.6344444444444445,-0.35488198264027426,-0.23754497643586134,2.3294387108429415
1589996262.1400256,0.6063479966799971,-2.471797328906663,10.715505168641062,0.3377777777777778,0.5277777777777778,-0.6344444444444445,-0.36586471029588385,-0.6117409153047066,5.559413033339335
1589996262.1500256,-0.32335247411044876,-4.4301887016612875,10.304471615547591,0.3377777777777778,0.5277777777777778,-0.6344444444444445,0.3910551353651086,-0.20655258746786215,5.975651397609218
1589996262.1600256,-1.7848631434544027,1.9613055265220796,12.389851384896787,0.3377777777777778,0.5277777777777778,-0.6344444444444445,-0.14958622805377952,-0.5696541671495182,3.0911023593736378
1589996262.1700256,-1.579531279811749,0.25834834962158953,10.620534014542834,0.3911111111111111,0.5022222222222222,-0.6411111111111111,-0.2034844450555126,-0.05543895215775278,-0.8171721162703068
1589996262.1800256,-3.0483399994483213,0.42185253634182,10.965128954845117,0.3911111111111111,0.5022222222222222,-0.6411111111111111,0.36436799199882364,0.7277390622122593,-0.6756226680246181
1589996262.1900256,-1.7419704997244945,-2.023695163819777,10.2541881066418,0.3911111111111111,0.5022222222222222,-0.6411111111111111,0.15436561721165848,0.08376801806157477,-0.49140578990802863
1589996262.2000256,-1.8001406912220912,-2.824358150915367,11.457939660069034,0.3911111111111111,0.5022222222222222,-0.6411111111111111,-0.3552799445137126,-0.2743369117135131,-0.4264224439662567
1589996262.2100255,-0.9937912351990211,-2.595281600908813,8.938097609996941,0.3911111111111111,0.5022222222222222,-0.6411111111111111,-0.1203892173561891,-0.030450369473361022,-0.24550660730450463
1589996262.2200255,-0.43708509889962655,-4.016115028388631,7.573685162543756,0.43,0.4577777777777778,-0.64,0.151135301905092,0.04403105467549025,0.0018786398194942898
1589996262.2300255,1.8530011556433919,-13.302906526872896,8.78195152997136,0.43,0.4577777777777778,-0.64,-0.06572400252153177,-0.027233663740326042,0.07927365659366037
1589996262.2400255,-0.20494259255587063,-6.016756628130639,8.520895516468698,0.43,0.4577777777777778,-0.64,-0.15671925986153984,-0.023527067042880098,-0.4645000993909794
1589996262.2500255,-0.5209976402466834,-2.1409236748696188,9.38588827856987,0.43,0.4577777777777778,-0.64,0.15084524782202235,0.14794695051521212,-1.4525170577018918
1589996262.2600255,-1.1929632194316457,-2.74817109223107,9.331223266838895,0.43,0.4577777777777778,-0.64,0.280900591034856,0.2146880021519272,-1.2340110456847726
1589996262.2700255,-0.3179837777729324,-1.8558685650742426,9.493717375662298,0.43579057918874325,0.46742874309234994,-0.6477207722516577,-0.08845745011912698,-0.0046352994507203316,0.17046222337893502
1589996262.2800255,4.161896792850878,-6.852167966435157,8.259998577760921,0.43666666666666665,0.4688888888888889,-0.6488888888888888,-0.0800728024397725,-0.23320215228414437,0.7603684490119812
1589996262.2900255,-0.22536321361118605,-3.81639643214246,8.99319504182075,0.43666666666666665,0.4688888888888889,-0.6488888888888888,-0.03745913980489572,0.021423181118333707,0.005228394339676819
1589996262.3000255,-1.1972676051867253,-5.72026393892742,8.653694192708747,0.43666666666666665,0.4688888888888889,-0.6488888888888888,0.04967920769982378,0.08822924753861866,-0.33896807830396514
1589996262.3100255,0.8604781469150669,-4.488800028334632,9.141376354749593,0.43666666666666665,0.4688888888888889,-0.6488888888888888,-0.05844571962467518,0.0035325083270247165,-0.04620997806644528
1589996262.3200254,-0.82,-4.34,8.1,0.4177777777777778,0.4833333333333333,-0.6488888888888888,0.011999138607461015,-0.02836160034490785,0.10690141668465268
1589996262.3300254,-0.6477456647398844,-4.38037210982659,8.288403179190752,0.4177777777777778,0.4833333333333333,-0.6488888888888888,0.008769601662895098,-0.02190252645577602,0.06961494468830073
1589996262.3400254,-0.2647908958689495,-4.508169477686203,8.563796790079355,0.4177777777777778,0.4833333333333333,-0.6488888888888888,0.002642643408265763,-0.002381340573786502,-0.011814267130404003
1589996262.3500254,-0.25057196490824807,-4.5094280350917515,8.581143929816497,0.4177777777777778,0.4833333333333333,-0.6488888888888888,-0.001963290640044238,0.0009972432432327387,-0.00321010065464689
1589996262.3600254,-0.26664023292341876,-4.493359767076582,8.613280465846836,0.4177777777777778,0.4833333333333333,-0.6488888888888888,0.0041714258402787505,-0.0016319209626199716,-0.0014573245174117498
1589996262.3700254,-0.25004631578947367,-4.569814736842106,8.629976842105265,0.4100180116959064,0.4833333333333333,-0.6322608187134503,-0.005428892568045521,-5.052268887351802e-06,-0.0032674400786020163
1589996262.3800254,-0.25,-4.57,8.63,0.41,0.4833333333333333,-0.6322222222222222,-0.00700164290965276,-0.0015474889971704802,-0.0017250033503188875
1589996262.3900254,-0.25,-4.589117624373313,8.486617817200155,0.41,0.4833333333333333,-0.6322222222222222,-0.006593110819744487,-0.0011389569072622078,-4.812612476575188e-05
1589996262.4000254,-0.24163543546006233,-4.523083483680498,8.546916516319502,0.41,0.4833333333333333,-0.6322222222222222,0.003491772235597817,-0.0029156956789649206,-0.0009124324482342321
1589996262.4100254,-0.2616238354943446,-4.481168219340874,8.632079451647815,0.41,0.4833333333333333,-0.6322222222222222,0.008599213298198353,-0.00012743296177329536,-0.001090830782496456
1589996262.4200253,-0.24964119006082325,-4.463213730020274,8.70750388985808,0.4198023899707148,0.47805512334910233,-0.6322222222222222,0.010557744261689731,0.001090830782496456,-0.002571365220939711
1589996262.4300253,-0.2491140585262209,-4.569368702314651,8.593289122106686,0.4244444444444445,0.4755555555555556,-0.6322222222222222,0.0009664122310885127,9.664122310885123e-05,-0.0012841132287141582
1589996262.4400253,-0.24085305512766653,-4.616587779489334,8.543412220510666,0.4244444444444445,0.4755555555555556,-0.6322222222222222,0.0029933307097618407,0.0009977769032539468,-0.001090830782496456
1589996262.4500253,-0.2793050173232388,-4.521737456691903,8.589131271654049,0.4244444444444445,0.4755555555555556,-0.6322222222222222,-0.0020868980028538,0.001090830782496456,-1.8952712427822496e-05
1589996262.4600253,-0.2722909077322573,-4.4737454463935435,8.636254553606456,0.4244444444444445,0.4755555555555556,-0.6322222222222222,0.0003411329802348387,-0.0014319637627312946,-0.0008409315150759168
1589996262.4700253,-0.27,-4.587632387271163,8.65,0.42950922171710965,0.4694778228283573,-0.6393129104039535,-0.001892569293479845,-0.002181661564992912,0.001892569293479845
1589996262.4800253,-0.24692484889055147,-4.530774546671654,8.573082829635172,0.43,0.4688888888888889,-0.64,-0.002181661564992912,-0.002181661564992912,-0.0003354469491014581
1589996262.4900253,-0.251623809981729,-4.544871429945188,8.509316665063949,0.43,0.4688888888888889,-0.64,-0.005351563999482806,-0.002181661564992912,-0.0017248112693944349
1589996262.5000253,-0.26816279446288355,-4.512860438759816,8.528976766777301,0.43,0.4688888888888889,-0.64,-0.0031837017418227132,-0.003072084312123408,0.0004896066763985752
1589996262.5100253,-0.25525514930521337,-4.54423455208436,8.621096678821326,0.43,0.4688888888888889,-0.64,0.00023095898818521624,-0.0008598717943112399,-0.000517582919622296
1589996262.5200253,-0.2593001787745815,-4.466998212254185,8.659300178774581,0.43,0.4688888888888889,-0.6182995828593099,0.00717778355651666,-0.0020289842580067346,-0.003119815040503191
1589996262.5300252,-0.25334103156274057,-4.479976905311778,8.686635873749037,0.43,0.4688888888888889,-0.6166666666666667,0.00618305392726821,-0.0007289000147859305,-0.0018197307972823865
1589996262.5400252,-0.2680659214203518,-4.535164803550879,8.555472628637185,0.43,0.4688888888888889,-0.6166666666666667,0.0015127812725859117,-0.000985343159974092,-0.002076173942470548
1589996262.5500252,-0.279321215831234,-4.54,8.63321215831234,0.43,0.4688888888888889,-0.6166666666666667,-0.0029763168811048624,-0.0021076176983967857,-0.00014808773319225288
1589996262.5600252,-0.272507049818719,-4.5250140996374375,8.595042298912315,0.43,0.4688888888888889,-0.6166666666666667,-0.0016377842055986134,-0.002181661564992912,-0.0016347081418907545
1589996262.5700252,-0.27,-4.460899441504138,8.647543495423843,0.4253094794844554,0.4810842422293049,-0.6344906446257363,-0.002932793881639862,-0.00033969846584950615,-0.00033969846584950615
1589996262.5800252,-0.27,-4.5379901960784315,8.668799019607842,0.4244444444444445,0.4833333333333333,-0.6377777777777778,-0.0003930199142818114,-0.0019196482888050378,0.0
1589996262.5900252,-0.25691285866099894,-4.530369287991498,8.584933581296493,0.4244444444444445,0.4833333333333333,-0.6377777777777778,-0.0007137928313732123,-0.0007540759022464873,-0.0014275856627464247
1589996262.6000252,-0.2585855376488152,-4.571513225892891,8.514243387053554,0.4244444444444445,0.4833333333333333,-0.6377777777777778,-0.002963904532818434,-0.002809610625482967,-0.001245124689831923
1589996262.6100252,-0.26,-4.523965132036772,8.566034867963227,0.4244444444444445,0.4833333333333333,-0.6377777777777778,-0.00021626440411871665,-0.003272492347489368,-0.0018548877683391188
1589996262.6200252,-0.26,-4.532246274064971,8.630307842581216,0.4405675814769302,0.4770632244873667,-0.6395692374480539,0.0028495922010408573,-0.0006343502196727666,0.00045648056282368956
1589996262.6300251,-0.26,-4.475229027587871,8.661590324137377,0.4444444444444444,0.4755555555555556,-0.64,0.006412677703906215,-0.0015700926782084234,-0.0004792618957119674
1589996262.6400251,-0.26840850399375416,-4.525676535943787,8.569097952074952,0.4444444444444444,0.4755555555555556,-0.64,0.003966913481022636,0.0005700149323465058,0.0016608457148429617
1589996262.6500251,-0.26297151625587417,-4.525943032511748,8.542971516255873,0.4444444444444444,0.4755555555555556,-0.64,-0.0005609508636948307,0.001090830782496456,0.0006482842805192327
1589996262.6600251,-0.27165344964314037,-4.549133624107851,8.56913362410785,0.4444444444444444,0.4755555555555556,-0.64,-0.0028172586446434046,0.0004552337028459635,-0.001271194159300985
1589996262.670025,-0.2562245425410938,-4.5303742375684894,8.62962576243151,0.4382804369550984,0.47027212056468753,-0.6285525575197859,-0.003272492347489368,0.0,-0.001317161536189249
1589996262.680025,-0.25570280996983646,-4.50289157009049,8.651405619939673,0.43666666666666665,0.4688888888888889,-0.6255555555555555,-0.002650412281306836,-0.001244160132365064,-0.001090830782496456
1589996262.690025,-0.26,-4.50151494039325,8.602425298033753,0.43666666666666665,0.4688888888888889,-0.6255555555555555,-0.000925576421036047,-0.000925576421036047,-0.001090830782496456
1589996262.700025,-0.2490785391990976,-4.526382191201353,8.549078539199098,0.43666666666666665,0.4688888888888889,-0.6255555555555555,0.0,-0.0005956732815726382,0.00010051578064882035
1589996262.710025,-0.24917535706189073,-4.54917535706189,8.562938392654726,0.43666666666666665,0.4688888888888889,-0.6255555555555555,-0.0005004380961753323,-0.001090830782496456,0.0005903926863211237
1589996262.720025,-0.26507249916731435,-4.534637504163428,8.605217497501943,0.4304669454621714,0.4762158321305651,-0.6328824987972318,0.0011224645118611805,-0.0005375069589070469,0.0011066476471788182
1589996262.730025,-0.2627709255938221,-4.51,8.627229074406179,0.4244444444444445,0.4833333333333333,-0.64,0.0056382014148542246,-0.0007885696891216192,0.0013930918758712928
1589996262.740025,-0.25185632714952494,-4.477425308598099,8.5648506171962,0.4244444444444445,0.4833333333333333,-0.64,0.006544984694978735,-0.0002024938797085728,-0.0006858430230793104
1589996262.750025,-0.25,-4.53044914803656,8.584542370306606,0.4244444444444445,0.4833333333333333,-0.64,0.001834999591124124,0.0,0.0017351602798163113
1589996262.760025,-0.2567498845905272,-4.526500230818946,8.616999538362109,0.4244444444444445,0.4833333333333333,-0.64,-0.0003817655954326531,0.0007362981889645545,-0.0007635311908653062
1589996262.770025,-0.2749594395280236,-4.5499188790560465,8.63,0.41945796460176993,0.4725292936742052,-0.6341824401835464,-0.0019067416387995757,-0.0005409909301097838,-0.001365750708689792
1589996262.780025,-0.2634902382932916,-4.526980476586583,8.63,0.4177777777777778,0.4688888888888889,-0.6322222222222222,-0.0003807259368570348,-0.0037922342247002716,0.00161057265970736
1589996262.790025,-0.2516674645729606,-4.52,8.555007181156645,0.4177777777777778,0.4688888888888889,-0.6322222222222222,0.0009089386140056882,-0.0016365072879687588,0.0030906001789986004
1589996262.800025,-0.2643272027198624,-4.512836398640069,8.582981608159587,0.4177777777777778,0.4688888888888889,-0.6322222222222222,0.001090830782496456,-0.002653686157885738,-0.0006346460909838368
1589996262.810025,-0.27,-4.527324152106885,8.605774717368961,0.4177777777777778,0.4688888888888889,-0.6322222222222222,-0.0007989410573877437,-0.002012644454233235,-0.0009218136717367791
1589996262.820025,-0.27,-4.54,8.603023551670146,0.42630454795871026,0.4789659809209,-0.6260209348179077,0.00010137581221726253,-0.0018518432415665141,0.0
1589996262.830025,-0.2540133735627497,-4.529342249041833,8.6319732528745,0.43,0.4833333333333333,-0.6233333333333333,0.0022534110642314052,-0.00043779114239048816,-0.0005812901408674746
1589996262.840025,-0.25597965803067313,-4.52,8.590754815200416,0.43,0.4833333333333333,-0.6233333333333333,0.005015602634851862,0.001090830782496456,-0.0016718675449506207
1589996262.850025,-0.273369058350862,-4.530107175052586,8.560321525157757,0.43,0.4833333333333333,-0.6233333333333333,0.0050749556721199456,-1.169098464763661e-05,-0.0018141543092782145
1589996262.860025,-0.2780370160150468,-4.54411104804514,8.60233314413542,0.43,0.4833333333333333,-0.6233333333333333,0.0030381749075267172,-0.0015392765580925585,-0.0013049591181299072
1589996262.870025,-0.259976108090295,-4.5366507387268635,8.646698522546274,0.4218421181108609,0.47814195394933573,-0.6329744664750432,-0.00291496322712096,-0.0014535723089766446,0.0003653477295360787
1589996262.880025,-0.26545442772410577,-4.545454427724105,8.613636716827683,0.4177777777777778,0.4755555555555556,-0.6377777777777778,-0.003768337363750157,-0.0027766473312285794,-0.0014378940406017287
1589996262.890025,-0.2814163769662341,-4.532875434550649,8.554334492135062,0.4177777777777778,0.4755555555555556,-0.6377777777777778,-0.002027158805554199,-0.002027158805554199,-0.002181661564992912
1589996262.900025,-0.27218314532183147,-4.5378168546781685,8.52593895155939,0.4177777777777778,0.4755555555555556,-0.6377777777777778,0.00020484745285102661,-0.0017386699001701973,-0.0015338224473191706
1589996262.910025,-0.27118387072972777,-4.527632258540544,8.591511289013502,0.4177777777777778,0.4755555555555556,-0.6377777777777778,-0.0007391257864207614,-0.0015716760420205061,0.0001291402634483556
1589996262.9200249,-0.2605852608929532,-4.535886318809395,8.627056840595301,0.4300018727711035,0.471241169087323,-0.6284299404299404,-0.0007697818948526182,-0.0003848909474263091,-0.00032104888764383777
1589996262.9300249,-0.26996889967033655,-4.5233748004395515,8.646625199560448,0.43666666666666665,0.4688888888888889,-0.6233333333333333,0.001452179363532426,-0.000726089681766213,-0.00036474110073024296
1589996262.9400249,-0.27274872198191114,-4.524502556036178,8.572984663782933,0.43666666666666665,0.4688888888888889,-0.6233333333333333,0.004554636747364282,-0.001090830782496456,-0.0015819834549142468
1589996262.9500248,-0.26358617388355904,-4.510758521650677,8.584896782815086,0.43666666666666665,0.4688888888888889,-0.6233333333333333,0.002655594327924884,-0.002490110574775154,0.0006168980195644836
1589996262.9600248,-0.26,-4.504325685506435,8.61,0.43666666666666665,0.4688888888888889,-0.6233333333333333,-0.00032474648924908493,-0.003744351438071215,0.000766084293247371
1589996262.9700248,-0.26,-4.5181785283474065,8.618178528347407,0.4339404905508645,0.46661707545905373,-0.6233333333333333,-0.0017355920411493671,-0.0034711840822987342,-0.0006447612586529113
1589996262.9800248,-0.2687046918721937,-4.534352345936097,8.599533578447323,0.43,0.4633333333333333,-0.6233333333333333,-0.0006160634901796783,-0.0017068942726761343,-0.00047476729231677757
1589996262.9900248,-0.2750005187618883,-4.542499740619056,8.54250181566661,0.43,0.4633333333333333,-0.6233333333333333,-0.0002726794015522872,-0.0008181513809441688,-0.0013635101840487431
1589996263.0000248,-0.26673247582012166,-4.5298025725396345,8.550592282381094,0.43,0.4633333333333333,-0.6233333333333333,-0.00035643159579627944,0.0007343991867001765,-0.0014472623782927354
1589996263.0100248,-0.2762869784834662,-4.52,8.605147913933864,0.43,0.4633333333333333,-0.6233333333333333,0.0013716059317315501,0.0004050278166306809,-0.0004050278166306809
1589996263.0200248,-0.25708444488768106,-4.52,8.63718666633424,0.41854222244384054,0.4703353085065419,-0.636700740482186,0.0009318119192673359,0.001249849645725576,0.000624924822862788
1589996263.0300248,-0.26149217531905067,-4.527164058439683,8.614179707801583,0.41,0.4755555555555556,-0.6466666666666666,0.0007814775473610345,0.0014001840176318774,-0.00047212431222561297
1589996263.0400248,-0.2645981534735886,-4.524598153473589,8.567588920841532,0.41,0.4755555555555556,-0.6466666666666666,0.0034478309718288915,-0.0012661694068359798,-0.000501580735163347
1589996263.0500247,-0.25437709400392805,-4.536868717988216,8.573737435976431,0.41,0.4755555555555556,-0.6466666666666666,0.0030006983334426134,-0.0026591284527294513,0.0006133638947599166
1589996263.0600247,-0.24466276837144352,-4.517976610228661,8.610674463257112,0.41,0.4755555555555556,-0.6466666666666666,-0.0006557741836264697,-0.003928266531115838,0.0005086291271221475
1589996263.0700247,-0.25437606192184253,-4.5043760619218425,8.624792020640614,0.41372712716492216,0.48247736314755385,-0.6322906047448241,-0.001658933202478878,-0.004408697187454212,0.0
1589996263.0800247,-0.25733426447847557,-4.52,8.636332867760762,0.4177777777777778,0.49,-0.6166666666666667,-0.001090830782496456,-0.001890874928505604,-0.0013816174189837638
1589996263.0900247,-0.2569063434917094,-4.547625373966837,8.550217534607778,0.4177777777777778,0.49,-0.6166666666666667,-0.001844195990021517,0.0004158996325536663,-0.0006749311499427897
1589996263.1000247,-0.266643509728148,-4.52678245135926,8.536574038912592,0.4177777777777778,0.49,-0.6166666666666667,-7.578090409372969e-06,-0.0003585582005592367,0.0007246944915278463
1589996263.1100247,-0.2755259700266886,-4.504474029973311,8.594207760213509,0.4177777777777778,0.49,-0.6166666666666667,0.00048804096166999106,-0.001090830782496456,-0.00011474885915647385
1589996263.1200247,-0.26689345648497464,-4.504368847838342,8.638737695676685,0.420690343003339,0.4870874347744388,-0.6195792318922279,0.00047656737061063236,0.0003388713293354412,-0.0006142634118858236
1589996263.1300247,-0.25557043702696103,-4.5211408740539225,8.633288688919116,0.4244444444444445,0.4833333333333333,-0.6233333333333333,-0.00012445005369697277,0.0027893019830896263,-0.0012152808361934287
1589996263.1400247,-0.26693438618956156,-4.523065613810438,8.543721751914823,0.4244444444444445,0.4833333333333333,-0.6233333333333333,-0.001090830782496456,0.003272492347489368,-0.004450934138980523
1589996263.1500247,-0.2506243739565943,-4.513541457985531,8.535834168057875,0.4244444444444445,0.4833333333333333,-0.6233333333333333,0.000318204505389339,0.0011589394156606755,-0.0026360833367106897
1589996263.1600246,-0.2504851279779286,-4.499514872022071,8.597183075900679,0.4244444444444445,0.4833333333333333,-0.6233333333333333,0.001090830782496456,0.0005718750178369664,-0.001090830782496456
1589996263.1700246,-0.2564866419899887,-4.493513358010011,8.643513358010011,0.42210220577110363,0.47825848287442807,-0.6338734073633673,0.000324334969046289,0.001090830782496456,-0.0007075828757713725
1589996263.1800246,-0.2532070926467104,-4.506414185293421,8.65,0.4177777777777778,0.4688888888888889,-0.6533333333333333,-0.0017905098587663968,0.0007409912443614856,-0.0006996790762699407
1589996263.1900246,-0.25553844489324873,-4.528923110213502,8.596461338718985,0.4177777777777778,0.4688888888888889,-0.6533333333333333,-0.0037591725123142256,0.00048668016482485783,-0.0012083012353431963
1589996263.2000246,-0.25,-4.532219912700063,8.549450218249843,0.4177777777777778,0.4688888888888889,-0.6533333333333333,-0.0026659713865294804,0.0002421549107682842,0.0008486758717281718
1589996263.2100246,-0.2536247856237417,-4.523624785623742,8.590874356871225,0.4177777777777778,0.4688888888888889,-0.6533333333333333,0.0011862083214984206,-0.00030002523483084237,0.0009954532434944914
1589996263.2200246,-0.25987980016404444,-4.529879800164045,8.609639400492133,0.4177777777777778,0.4688888888888889,-0.6533333333333333,0.003233157043155964,0.0010646072462741866,-0.001051495478163052
1589996263.2300246,-0.2481799254876178,-4.53,8.613640149024764,0.4177777777777778,0.4755555555555556,-0.6377777777777778,0.0,0.002181661564992912,-4.906706511229432e-05
1589996263.2400246,-0.26,-4.53,8.548939380849532,0.4177777777777778,0.4755555555555556,-0.6377777777777778,0.0006398598188241991,0.00026208210852031455,-0.0013529128910167707
1589996263.2500246,-0.26,-4.52400608365019,8.54397566539924,0.4177777777777778,0.4755555555555556,-0.6377777777777778,0.001090830782496456,-0.00043699593628831416,0.0
1589996263.2600245,-0.255372393833796,-4.52,8.597020849329633,0.4177777777777778,0.4755555555555556,-0.6377777777777778,8.124373142330815e-05,0.0,0.0
1589996263.2700245,-0.2562365682915931,-4.523118284145796,8.643118284145798,0.4215890139559736,0.4755555555555556,-0.6360453976967797,-0.0007506787490159028,-0.00034015203348055327,0.0
1589996263.2800245,-0.27,-4.52243449824672,8.65,0.43,0.4755555555555556,-0.6322222222222222,-0.0012379023296263118,-0.0015034648923718933,0.0008252682197508745
1589996263.2900245,-0.257412859926391,-4.51,8.58077072959515,0.43,0.4755555555555556,-0.6322222222222222,-0.0025859703546949973,0.0005644264061845702,0.00012209558660980025
1589996263.3000245,-0.2438732394366197,-4.51612676056338,8.558380281690141,0.43,0.4755555555555556,-0.6322222222222222,-0.002849987466944966,0.00017668385913674955,0.0002458210214076519
