time,acc_x,acc_y,acc_z,mag_x,mag_y,mag_z,gyr_x,gyr_y,gyr_z
1589996315.5262067,-3.88,-0.8,8.88,0.3288888888888889,-0.3377777777777778,-0.5722222222222222,-0.001090830782496456,0.002181661564992912,-0.002181661564992912
1589996315.5362067,-3.8675885925534725,-0.83,8.92170266701875,0.3288888888888889,-0.3377777777777778,-0.5722222222222222,-0.003574191888441781,-0.0027464048531266726,-0.002181661564992912
1589996315.5462067,-3.860204911539477,-0.83,8.988155796144706,0.3288888888888889,-0.3377777777777778,-0.5722222222222222,-0.0011578879269815824,-0.00113553554548654,-0.002181661564992912
1589996315.5562067,-3.87,-0.8325344649056909,9.01718981584878,0.3288888888888889,-0.3377777777777778,-0.5722222222222222,0.0,0.001090830782496456,-0.001090830782496456
1589996315.5662067,-3.8721018202502844,-0.8357963594994311,8.935287258248009,0.3288888888888889,-0.3377777777777778,-0.5722222222222222,0.0,0.001090830782496456,-0.001090830782496456
1589996315.5762067,-3.8878299293691936,-0.8004251765770154,8.88,0.3288888888888889,-0.3377777777777778,-0.5722222222222222,-0.0008541127980689693,0.001090830782496456,-0.001090830782496456
1589996315.5862067,-3.89401134963171,-0.7779848671577198,8.883992433578861,0.3288888888888889,-0.3377777777777778,-0.5722222222222222,-0.0019639080927482695,2.0634212732442182e-06,-0.0008730773102518136
1589996315.5962067,-3.8759627778368606,-0.8159627778368606,8.91192555567372,0.32491370366431516,-0.3377777777777778,-0.5699033641745542,-0.00044039262113294115,-0.0033876658879405516,-0.0003252190806817574
1589996315.6062067,-3.89,-0.8330032903572387,8.952013161428955,0.31555555555555553,-0.3377777777777778,-0.5644444444444444,0.001090830782496456,-0.001090830782496456,-0.00010800631136120213
1589996315.6162066,-3.884924482924483,-0.8298489658489658,8.94447138047138,0.31555555555555553,-0.3377777777777778,-0.5644444444444444,0.002751789861414581,1.6475270115627084e-05,0.0010743555123808289
1589996315.6262066,-3.88,-0.8095249713323737,8.915237514333814,0.31555555555555553,-0.3377777777777778,-0.5644444444444444,0.004363323129985824,0.0005195065965874746,0.0
1589996315.6362066,-3.8718479604449936,-0.8040760197775031,8.932228059332509,0.31555555555555553,-0.3377777777777778,-0.5644444444444444,0.003918698345649351,0.0,0.0
1589996315.6462066,-3.8662723798028567,-0.81,8.953136189901429,0.31973714209079324,-0.3335961912425401,-0.5668837032566664,0.003614597595912618,-0.00034210524842324984,0.00034210524842324984
1589996315.6562066,-3.875309038474143,-0.805309038474143,8.978763846103428,0.3288888888888889,-0.3244444444444444,-0.5722222222222222,0.0028282095604124213,-6.742173611418742e-05,6.742173611418742e-05
1589996315.6662066,-3.8744873718747614,-0.8134621156242847,8.932689421878576,0.3288888888888889,-0.3244444444444444,-0.5722222222222222,-0.0008671545669030375,0.001090830782496456,-0.00011183810779670923
1589996315.6762066,-3.8760557706902254,-0.8260557706902255,8.853944229309773,0.3288888888888889,-0.3244444444444444,-0.5722222222222222,-0.003272492347489368,0.0019513281313618034,-0.00019991524080156505
1589996315.6862066,-3.8734771015051486,-0.8217385507525741,8.865215652257723,0.3288888888888889,-0.3244444444444444,-0.5722222222222222,-0.0030828458797053392,0.0028931994119213104,-0.0018023686294248544
1589996315.6962066,-3.8869521147575217,-0.8284760573787608,8.885428172136283,0.3288888888888889,-0.3244444444444444,-0.5722222222222222,-0.0023478979171935106,0.0014233034868976534,-0.0003324727044011974
1589996315.7062066,-3.88,-0.81,8.954315602612057,0.31555555555555553,-0.3244444444444444,-0.5722222222222222,0.00031383947828370745,0.004983394695056718,0.00015691973914185373
1589996315.7162066,-3.8794781752543486,-0.81,8.975303577289138,0.31555555555555553,-0.3244444444444444,-0.5722222222222222,0.0024093505632429104,0.002295506064117911,0.0009200640338089569
1589996315.7262065,-3.8671109018130445,-0.81,8.898667294560866,0.31555555555555553,-0.3244444444444444,-0.5722222222222222,0.005914681247781584,0.004048171406387248,-0.002496813288591488
1589996315.7362065,-3.8607621509530436,-0.8084756980939125,8.922286452859131,0.31555555555555553,-0.3244444444444444,-0.5722222222222222,0.00444646090203474,0.0033556301195382843,-0.003189354575440452
1589996315.7462065,-3.873976956191441,-0.7919884780957205,8.948011521904279,0.3182068596831828,-0.323560676401902,-0.5722222222222222,0.004586516665629566,0.003929504506559467,-0.0019647522532797333
1589996315.7562065,-3.888539433103246,-0.8014605668967544,8.942921133793508,0.3288888888888889,-0.32,-0.5722222222222222,0.001090830782496456,0.002340984698080403,-0.001090830782496456
1589996315.7662065,-3.8757673575716387,-0.81,8.930371503001473,0.3288888888888889,-0.32,-0.5722222222222222,-0.0002942982131505902,0.002810782682273686,-0.0020142501129278203
1589996315.7762065,-3.8659431454590205,-0.81,8.902170563622938,0.3288888888888889,-0.32,-0.5722222222222222,-0.002181661564992912,0.0012965932023107024,-0.0023874239848071586
1589996315.7862065,-3.86,-0.81,8.930155988434027,0.3288888888888889,-0.32,-0.5722222222222222,-0.0018123794046423767,0.0022156929621032105,-0.001090830782496456
1589996315.7962065,-3.86421699500147,-0.81,8.95,0.33029455388937895,-0.3221084975007351,-0.5722222222222222,-0.0006308279867727226,0.006084981899255002,-0.0015508335782201893
1589996315.8062065,-3.8762083594828667,-0.8024167189657337,8.931041797414334,0.33555555555555555,-0.33,-0.5722222222222222,0.002745246059396315,0.003949719310760859,-0.0024452847090394385
1589996315.8162065,-3.8739952647338733,-0.7979905294677468,8.872033146862886,0.33555555555555555,-0.33,-0.5722222222222222,0.004582522361295956,0.00370830812308253,-0.00021919923131013261
1589996315.8262064,-3.876865566865567,-0.81,8.848806598806599,0.33555555555555555,-0.33,-0.5722222222222222,0.0029305787326177166,0.005047150359729127,0.0007489171676248044
1589996315.8362064,-3.8734515451237637,-0.8111505150412546,8.895752575206274,0.33555555555555555,-0.33,-0.5722222222222222,0.0023071632872654763,0.0064194829727061715,0.0001255017222725641
1589996315.8462064,-3.8949464459591043,-0.818315481986368,8.93157740993184,0.33555555555555555,-0.33,-0.5722222222222222,0.0030887399371954177,0.00563790632277623,0.0009070783722025057
1589996315.8562064,-3.8879032312070985,-0.8120967687929014,8.951612924828394,0.3233333333333333,-0.3244444444444444,-0.5788888888888889,-0.0006861659829224317,0.002181661564992912,-0.003677157147063392
1589996315.8662064,-3.884277650790689,-0.82,8.898611746046555,0.3233333333333333,-0.3244444444444444,-0.5788888888888889,-0.002805873031563982,0.0012484229331421398,-0.001090830782496456
1589996315.8762064,-3.881793239994343,-0.82,8.891884693348418,0.3233333333333333,-0.3244444444444444,-0.5788888888888889,-0.0018832553503685338,-0.0002984062146243782,-0.0016876432117452125
1589996315.8862064,-3.862020930561448,-0.82,8.944610851836137,0.3233333333333333,-0.3244444444444444,-0.5788888888888889,-0.0011643138913536395,-0.0010173476736392724,-0.0031255261297750015
1589996315.8962064,-3.89,-0.8329661599417805,8.97,0.3222391804353881,-0.32632013512663627,-0.5788888888888889,-0.00015345458509324891,0.001244285367589705,-0.002181661564992912
1589996315.9062064,-3.89,-0.7905720870057411,8.97,0.3156445468675597,-0.3376252212429135,-0.5788888888888889,-0.001078349780173884,0.0021691805626703397,-0.002181661564992912
1589996315.9162064,-3.887223119223119,-0.8072231192231192,8.906661284661284,0.31555555555555553,-0.3377777777777778,-0.5788888888888889,0.0025756216047039286,0.001090830782496456,-0.00048500937634761107
1589996315.9262064,-3.896578652210487,-0.823421347789513,8.85394943452659,0.31555555555555553,-0.3377777777777778,-0.5788888888888889,0.003645703496132071,0.0007176196338537532,-0.003272492347489368
1589996315.9362063,-3.887312400109149,-0.8246248002182981,8.910750399563405,0.31555555555555553,-0.3377777777777778,-0.5788888888888889,0.0037769797915909527,0.0005863433383948713,-0.002686149009094497
1589996315.9462063,-3.881385029415446,-0.8086149705845538,8.945540117661785,0.3137088496682939,-0.3353155032614289,-0.5759649379007247,0.002030578292889729,0.0017284117486833631,-0.000939747510393273
1589996315.9562063,-3.884309459886292,-0.8028452700568541,8.974309459886292,0.3022222222222222,-0.32,-0.5577777777777778,0.0007804599662432694,-0.0017115724150028292,0.0
1589996315.9662063,-3.8734059334946673,-0.8048910997579996,8.939564399032,0.3022222222222222,-0.32,-0.5577777777777778,0.0,-0.002529432927665664,0.0
1589996315.9762063,-3.8869047307037086,-0.7861905385925829,8.852381077185166,0.3022222222222222,-0.32,-0.5577777777777778,-0.0013505660114043396,0.0007531892796453711,0.0003376415028510849
1589996315.9862063,-3.8869272556559062,-0.8023090852186354,8.898472681749084,0.3022222222222222,-0.32,-0.5577777777777778,-0.0038595588828068067,-0.001007528494358034,0.001090830782496456
1589996315.9962063,-3.905529467567888,-0.814470532432112,8.957019645045259,0.3053681524522269,-0.32066230110105365,-0.5577777777777778,-0.002181661564992912,-0.004200769983615942,0.001090830782496456
1589996316.0062063,-3.880661093323847,-0.8393389066761532,8.940440728882564,0.32286811951284855,-0.32434650469276344,-0.5577777777777778,-0.002181661564992912,-0.003296530379081201,0.001090830782496456
1589996316.0162063,-3.876183899076603,-0.8138161009233971,8.892172454155286,0.3233333333333333,-0.3244444444444444,-0.5577777777777778,-0.0003372793734304948,-0.001844382191562417,-0.0007535514090659611
1589996316.0262063,-3.89,-0.8,8.845265420869852,0.3233333333333333,-0.3244444444444444,-0.5577777777777778,0.0002968351335534839,-0.0013683639657064441,0.0
1589996316.0362062,-3.89,-0.8,8.886882421035224,0.3233333333333333,-0.3244444444444444,-0.5577777777777778,0.004079927204849072,-0.0021249823799655617,0.0
1589996316.0462062,-3.888957546735427,-0.7820849065291463,9.001042453264573,0.3253024117219715,-0.3250235851469851,-0.5584727466208266,0.002703922292334203,-0.004363323129985824,0.00022742802206206615
1589996316.0562062,-3.88,-0.8030396570203645,8.98872240085745,0.3422222222222222,-0.33,-0.5644444444444444,-0.002513236709597408,-0.0030370225515678395,0.0018500864203884158
1589996316.0662062,-3.88,-0.81,8.904262362076011,0.3422222222222222,-0.33,-0.5644444444444444,-0.003272492347489368,-0.0007087948280218083,2.763854046374339e-05
1589996316.0762062,-3.88,-0.8128727798047896,8.841491119219159,0.3422222222222222,-0.33,-0.5644444444444444,-0.0029591206832495125,-0.002181661564992912,-0.0012415465722733449
1589996316.0862062,-3.8793215321885044,-0.8186430643770093,8.874070806868971,0.3422222222222222,-0.33,-0.5644444444444444,-0.0018856241355080664,-0.002181661564992912,0.0012388494972388787
1589996316.0962062,-3.8710993491727437,-0.8021986983454874,8.923403904963537,0.3422222222222222,-0.33,-0.5644444444444444,0.001701979997656589,-0.002181661564992912,0.0030326515638212067
1589996316.1062062,-3.871935362980941,-0.79,8.956129274038119,0.31555555555555553,-0.32,-0.5644444444444444,-0.0008797154310050207,-0.0019705462135014766,0.0019705462135014766
1589996316.1162062,-3.879420372617603,-0.79,8.941159254764793,0.31555555555555553,-0.32,-0.5644444444444444,-6.322753910965265e-05,-0.0011540583216061086,0.0011540583216061086
1589996316.1262062,-3.88042524149517,-0.7908504829903402,8.83255144897102,0.31555555555555553,-0.32,-0.5644444444444444,0.004316936478693188,-0.001137217433789092,9.277330258527188e-05
1589996316.1362062,-3.8892330953380934,-0.8084661906761865,8.88539857202856,0.31555555555555553,-0.32,-0.5644444444444444,0.0033561486687341616,-0.0020980052437481185,0.002014348922503325
1589996316.1462061,-3.8998209751468362,-0.81,8.948925850881016,0.31555555555555553,-0.32,-0.5644444444444444,-0.00208401865466147,-0.0032529637654230793,-0.0021035472367277575
1589996316.1562061,-3.9,-0.8218508196014769,8.979627049003692,0.3313566483575247,-0.315391347932759,-0.5690530965116855,-0.00024257574212740995,-4.0682642713531485e-05,-0.00024257574212740995
1589996316.1662061,-3.88922570408568,-0.8246128520428402,8.97037068623562,0.3422222222222222,-0.31222222222222223,-0.5722222222222222,0.0007970074414198123,0.0024754849060695553,0.0013846541235730996
1589996316.176206,-3.863126205861636,-0.81,8.89,0.3422222222222222,-0.31222222222222223,-0.5722222222222222,-0.0005115242379440093,0.002760968109545359,0.0020111534856782423
1589996316.186206,-3.8826839455528623,-0.81,8.898051836658587,0.3422222222222222,-0.31222222222222223,-0.5722222222222222,-0.0035652653902500243,0.0002927730427606561,0.00021251165421448757
1589996316.196206,-3.8883105008581684,-0.81,8.923378998283663,0.341095889461001,-0.31372399923718386,-0.5704388620169553,-0.003994731595803529,0.0006300913647685879,-0.0019973657979017647
1589996316.206206,-3.8759588247807693,-0.8129794123903846,8.948082350438462,0.3288888888888889,-0.33,-0.5511111111111111,-0.0006500069498365673,-0.0033883127052309727,-0.0006500069498365673
1589996316.216206,-3.8871489460812856,-0.8228510539187143,8.897191568650285,0.3288888888888889,-0.33,-0.5511111111111111,-0.0015596580895747628,-0.0017128342579146054,-0.0009376546141566136
1589996316.226206,-3.8771890149432755,-0.8243780298865511,8.842810985056724,0.3288888888888889,-0.33,-0.5511111111111111,0.0003066309029012603,-0.002045968735884327,0.001261768856289131
1589996316.236206,-3.8722403618862984,-0.81,8.874643980749282,0.3288888888888889,-0.33,-0.5511111111111111,0.0003576740696446468,0.001090830782496456,-0.0003576740696446468
1589996316.246206,-3.8793731612332705,-0.81,8.953104773565975,0.3288888888888889,-0.33,-0.5511111111111111,-0.001976529058269687,0.001090830782496456,0.001976529058269687
1589996316.256206,-3.8633863810003737,-0.818306809499813,9.001693190500188,0.3422222222222222,-0.3377777777777778,-0.5722222222222222,-0.004363323129985824,0.0027183970520190223,0.004363323129985824
1589996316.266206,-3.877022611635808,-0.811488694182096,9.008511305817903,0.3422222222222222,-0.3377777777777778,-0.5722222222222222,-0.004363323129985824,0.00048717403186611255,0.004363323129985824
1589996316.276206,-3.8886947037619004,-0.8126105924761993,8.8939158887143,0.3422222222222222,-0.3377777777777778,-0.5722222222222222,-0.00189689010163373,0.002324047296672503,0.0006636735874576829
1589996316.286206,-3.880941122100009,-0.8281177557999815,8.917176633699972,0.3422222222222222,-0.3377777777777778,-0.5722222222222222,-0.00020532099135555813,0.003169831851811589,-0.0018736800779595752
1589996316.296206,-3.88,-0.8200421530479896,8.92995784695201,0.3422222222222222,-0.3377777777777778,-0.5722222222222222,0.0,0.003272492347489368,-9.196368464626375e-06
1589996316.306206,-3.88,-0.8031527808575403,8.91315278085754,0.3309907427939157,-0.33122608144459903,-0.5778379619363755,0.0009188732620029311,0.003272492347489368,-0.0009188732620029311
1589996316.316206,-3.8716656564432053,-0.81,8.87333737422718,0.3288888888888889,-0.33,-0.5788888888888889,0.0011816782485620475,0.00418162819785464,-0.006181594830716369
1589996316.326206,-3.888614377500303,-0.81,8.805542489998789,0.3288888888888889,-0.33,-0.5788888888888889,0.002106087581213457,0.002332809532551822,-0.0024839575001107325
1589996316.336206,-3.893218381634322,-0.816781618365678,8.87609190817161,0.3288888888888889,-0.33,-0.5788888888888889,0.0027458858840084216,0.00200612607716593,-0.003096956859662386
1589996316.346206,-3.909949737718651,-0.8000502622813491,8.959748688593255,0.3288888888888889,-0.33,-0.5788888888888889,8.224146554115016e-06,0.001093572164681161,-0.002184402947177617
1589996316.356206,-3.9055615338451672,-0.8255615338451668,9.017780766922582,0.3233333333333333,-0.3377777777777778,-0.5788888888888889,-0.0018170731088105502,-0.002181661564992912,-0.001090830782496456
1589996316.366206,-3.892316182351373,-0.8111580911756865,8.996102905891762,0.3233333333333333,-0.3377777777777778,-0.5788888888888889,-0.0042369949796481916,-0.002055333414655279,-0.0012171589328340887
1589996316.376206,-3.9079008920670604,-0.82,8.904693755530577,0.3233333333333333,-0.3377777777777778,-0.5788888888888889,-0.0037304466572959543,-0.0022357165570129215,-0.002181661564992912
1589996316.386206,-3.8964995087443506,-0.8217502456278247,8.95649950874435,0.3233333333333333,-0.3377777777777778,-0.5788888888888889,-0.005072309550930071,-0.006163140333426527,-0.001799817203440704
1589996316.396206,-3.880015720180782,-0.829992139909609,8.940015720180781,0.3233333333333333,-0.3377777777777778,-0.5788888888888889,-0.003274207153199718,-0.004365037935696174,-1.7148057103498829e-06
1589996316.406206,-3.889299172233195,-0.83,8.949299172233195,0.31610064381862607,-0.31401322651516833,-0.5726894407334255,-0.00428687467985991,-0.005377705462356366,-0.001014382332370542
1589996316.416206,-3.8821242334402792,-0.8221242334402794,8.957875766559722,0.31555555555555553,-0.31222222222222223,-0.5722222222222222,-0.0017859845502559953,-0.0028768153327524515,-0.001949943642406399
1589996316.4262059,-3.889382012891784,-0.81,8.824325909757512,0.31555555555555553,-0.31222222222222223,-0.5722222222222222,-0.0009560069103308696,-0.002181661564992912,0.0
1589996316.4362059,-3.8822296306401554,-0.81,8.874392585518912,0.31555555555555553,-0.31222222222222223,-0.5722222222222222,0.000604400835320672,-0.002181661564992912,0.0
1589996316.4462059,-3.871485370457763,-0.8014853704577631,8.94108777725342,0.31555555555555553,-0.31222222222222223,-0.5722222222222222,-0.0007667732187486885,-0.0003240575637477674,0.0
1589996316.4562058,-3.885728531855956,-0.7921357340720222,8.989321329639889,0.3103127116035703,-0.32620313942751616,-0.5722222222222222,-0.0019486891180940844,-0.0034314333423905133,0.0008578583355976283
1589996316.4662058,-3.8835010361788718,-0.818832987940376,8.942997927642256,0.3088888888888889,-0.33,-0.5722222222222222,-0.001799757761538184,-0.001090830782496456,-0.0008362282468599707
1589996316.4762058,-3.906745235085632,-0.8132547649143679,8.89,0.3088888888888889,-0.33,-0.5722222222222222,0.0007357910066582657,-0.0005582711187391707,0.0005582711187391707
1589996316.4862058,-3.88416656243858,-0.8256249218289349,8.894375078171066,0.3088888888888889,-0.33,-0.5722222222222222,-0.0018862424399674722,0.002817990890969725,-0.001545332239016099
1589996316.4962058,-3.854189611735487,-0.8031422088016152,8.916857791198385,0.3088888888888889,-0.33,-0.5722222222222222,-0.005973715014006535,0.006087968950200974,0.0017246458202151518
1589996316.5062058,-3.8581551728256454,-0.8,8.901844827174354,0.3022222222222222,-0.34444444444444444,-0.5644444444444444,-0.015186997307539817,0.023659742625279773,0.005252914485465101
1589996316.5162058,-3.8555111121574535,-0.7944888878425465,8.887955551370185,0.3022222222222222,-0.34444444444444444,-0.5644444444444444,-0.020236123163650296,0.044657804821340456,0.004563712822890519
1589996316.5262058,-3.884662248824284,-0.7808785805899957,8.814865327062847,0.3022222222222222,-0.34444444444444444,-0.5644444444444444,-0.024094115490169155,0.06076962791697711,0.00545415391248228
1589996316.5362058,-3.9104938898136496,-0.8395061101863505,8.951975559254597,0.3022222222222222,-0.34444444444444444,-0.5644444444444444,-0.030543261909900768,0.07095787588345867,0.005508028933671307
1589996316.5462058,-3.9190081604482154,-0.8309918395517844,8.986032641792862,0.3022222222222222,-0.34444444444444444,-0.5644444444444444,-0.030543261909900768,0.07188663873332769,0.006436791783540351
1589996316.5562057,-3.9357934664478873,-0.83,8.958413067104225,0.3188931034727697,-0.3330380520098593,-0.5705863480630672,-0.027097662037164714,0.06338083196292596,0.006544984694978735
1589996316.5662057,-3.946411522469215,-0.8364115224692148,8.943588477530785,0.3233333333333333,-0.33,-0.5722222222222222,-0.023382384351080077,0.052693860533296936,0.00374743026614387
1589996316.5762057,-3.9414764814551657,-0.8314764814551655,8.880335370186158,0.3233333333333333,-0.33,-0.5722222222222222,-0.01995707236915216,0.03776906638557076,0.002181661564992912
1589996316.5862057,-3.9083926354182834,-0.8283926354182833,8.885177906254851,0.3233333333333333,-0.33,-0.5722222222222222,-0.011297793501688616,0.026705947609244243,-0.0007401582296102562
1589996316.5962057,-3.900255315846655,-0.8202553158466552,8.860765947539965,0.3233333333333333,-0.33,-0.5722222222222222,-0.007747218031391484,0.029368879211967094,0.0010351295055383099
1589996316.6062057,-3.9,-0.8589473936488915,8.879473696824446,0.34172515811197657,-0.3375731043206178,-0.5787134544970375,-0.009760066271986088,0.04644643748349146,0.0032150815770073497
1589996316.6162057,-3.9044582271209562,-0.8417832908483825,8.899108354575809,0.3422222222222222,-0.3377777777777778,-0.5788888888888889,-0.021017575150166654,0.06453260994330841,0.004266059702407827
1589996316.6262057,-3.942104979714932,-0.8568419918859728,8.891579004057014,0.3422222222222222,-0.3377777777777778,-0.5788888888888889,-0.02348154934559886,0.07520983145684797,0.003444734970597091
1589996316.6362057,-4.0214688710927415,-0.8557344355463704,8.987867217773186,0.3422222222222222,-0.3377777777777778,-0.5788888888888889,-0.015243113239840943,0.0539028775682612,0.001207156007765001
1589996316.6462057,-3.9636812193231723,-0.8268406096615861,8.973420304830794,0.3422222222222222,-0.3377777777777778,-0.5788888888888889,-0.00027193275771352984,0.02002073226660442,0.001995112875245391
1589996316.6562057,-3.96,-0.8108082281345874,8.967979429663533,0.3422222222222222,-0.33,-0.5644444444444444,0.0031402463282162348,-0.0010467487760720783,4.408200642437773e-05
1589996316.6662056,-3.9571665335463257,-0.83,8.903943690095847,0.3422222222222222,-0.33,-0.5644444444444444,-0.0009272497286516401,0.00010302774762796,0.001193858530124416
1589996316.6762056,-3.9327005245588937,-0.8313502622794468,8.760802098235574,0.3422222222222222,-0.33,-0.5644444444444444,-0.01143767546721898,0.0028583199731337747,0.0020343707991064687
1589996316.6862056,-3.9519614019904803,-0.8419614019904803,8.833922803980961,0.3422222222222222,-0.33,-0.5644444444444444,-0.022030571416735693,0.014287778055857212,0.001090830782496456
1589996316.6962056,-3.9664808308091737,-0.8564808308091735,8.862961661618346,0.3422222222222222,-0.33,-0.5644444444444444,-0.023614395406705364,0.015079690050842049,0.001090830782496456
1589996316.7062056,-3.97,-0.838878229272832,8.905202951211946,0.323447314909184,-0.33,-0.5644444444444444,-0.018622212420582304,0.011431584673279153,-0.0004451877301720371
1589996316.7162056,-3.9145255191150787,-0.8484914936283071,8.929245746814154,0.31555555555555553,-0.33,-0.5644444444444444,-0.0012341438893759635,-0.005310840805602773,-8.227625929173072e-05
1589996316.7262056,-3.91,-0.8089353099730459,8.856083557951482,0.31555555555555553,-0.33,-0.5644444444444444,-0.007167140472812294,0.0024139408960366327,0.0026876776773046103
1589996316.7362056,-3.916079848488147,-0.8146970851383416,8.925965779219366,0.31555555555555553,-0.33,-0.5644444444444444,-0.017670214373745354,0.020213412361741696,0.00341710691669074
1589996316.7462056,-3.724338332934236,-0.7416526982606614,9.008140714456756,0.31555555555555553,-0.33,-0.5644444444444444,-0.020658179337298622,0.028181318931217076,0.005409083559059586
1589996316.7562056,-3.0931248343493243,-0.5346018360118545,8.893408669252825,0.35,-0.33,-0.5722222222222222,-0.029563950656357217,0.039852448551609916,-0.0008118874026290996
1589996316.7662055,-3.0625110605027634,-0.822849910790699,9.104803667009966,0.35,-0.33,-0.5722222222222222,-0.052067307879846716,0.07158032892238432,-0.02341935634517925
1589996316.7762055,-2.0708069452704567,-1.078381032506999,8.831020322313929,0.35,-0.33,-0.5722222222222222,-0.03282089076040465,0.03441483379518585,-0.027401373680236228
1589996316.7862055,-1.7980855592210279,-0.9719144407789719,8.459129154694761,0.35,-0.33,-0.5722222222222222,0.030608771346060066,0.08688892239380613,-0.08218164570326515
1589996316.7962055,-1.9081821899055982,-0.9042429198741311,8.448789489590926,0.35,-0.33,-0.5722222222222222,0.038046585149184776,0.09536466280131234,-0.20765666349844863
1589996316.8062055,-1.9282537232489256,-1.1015819114763672,8.937447332193067,0.33257547314115665,-0.3217462767510742,-0.5722222222222222,-0.006561230433135303,0.01897889019977282,-0.400227320355465
1589996316.8162055,-1.9519160668678894,-0.928144686943735,8.810839331321105,0.3288888888888889,-0.32,-0.5722222222222222,0.012116592235365061,0.04928314125884726,-0.4926567623151742
1589996316.8262055,-1.9706580246383654,-0.8749190882946302,8.893937416834786,0.3288888888888889,-0.32,-0.5722222222222222,0.03011375636121038,0.055650022103095574,-0.6132810605881472
1589996316.8362055,-2.0876814611323344,-0.9289299051380007,9.046968064557669,0.3288888888888889,-0.32,-0.5722222222222222,0.013420702241061205,0.043866689782990284,-0.6996921642689196
1589996316.8462055,-2.235091135561553,-0.955604318040274,9.032930454639818,0.3288888888888889,-0.32,-0.5722222222222222,0.027054958531537596,0.05666722116533302,-0.7702981395770164
1589996316.8562055,-2.2845605594799463,-0.9845605594799465,9.03,0.3398046931021984,-0.3281868531599822,-0.5603967676578036,0.039275949709959936,0.06962142798123291,-0.8446389711207674
1589996316.8662055,-2.2993309705296885,-1.0013380589406224,8.970598145360976,0.3422222222222222,-0.33,-0.5577777777777778,0.030543261909900768,0.06930617764976693,-0.9306400815712904
1589996316.8762054,-2.29,-1.02,8.7,0.3422222222222222,-0.33,-0.5577777777777778,0.030543261909900768,0.07744898555724837,-0.9937468428542712
1589996316.8862054,-2.3216017021956725,-1.023950212774459,8.672348510578786,0.3422222222222222,-0.33,-0.5577777777777778,0.030543261909900768,0.0783107882956065,-1.0196009250050153
1589996316.8962054,-2.3970120444718965,-1.0435060222359482,8.661514051883879,0.3422222222222222,-0.33,-0.5577777777777778,0.029561076256297177,0.07963064712224129,-1.0866978881049592
1589996316.9062054,-2.5001424148606812,-1.1399643962848296,8.850178018575852,0.35,-0.31222222222222223,-0.5644444444444444,0.03385070812302121,0.0763853411146872,-1.1771811836418313
1589996316.9162054,-2.5372436974789916,-1.130689075630252,8.89655462184874,0.35,-0.31222222222222223,-0.5644444444444444,0.04295673288180581,0.08346780481596411,-1.2227113074357543
1589996316.9262054,-2.598146012729315,-1.173609509546986,8.892731748408837,0.35,-0.31222222222222223,-0.5644444444444444,0.04442607455691533,0.08875102979456966,-1.2609789028365286
1589996316.9362054,-2.65661311914324,-1.2449196787148595,8.95407295850067,0.35,-0.31222222222222223,-0.5644444444444444,0.048717933822820296,0.09153742288232225,-1.3160260072307495
1589996316.9462054,-2.6440922667097193,-1.2659077332902808,8.952046133354859,0.35,-0.31222222222222223,-0.5644444444444444,0.051690281985257824,0.09596794701789782,-1.347669479065163
1589996316.9562054,-2.664222391469916,-1.366889565879665,8.99037065244986,0.37601664268991003,-0.3005595892922625,-0.5761070773744041,0.050598375543758935,0.10148769468236195,-1.382115113109698
1589996316.9662054,-2.65729353896224,-1.39635323051888,8.930114464292318,0.38222222222222224,-0.2977777777777777,-0.5788888888888889,0.05087124593666601,0.10323112349649591,-1.4080324244892015
1589996316.9762053,-2.6252841730619507,-1.4082386089793497,8.749943647351055,0.38222222222222224,-0.2977777777777777,-0.5788888888888889,0.04497819698159496,0.10632500282105123,-1.437144704587142
1589996316.9862053,-2.6134322243413153,-1.4297033269760542,8.687161121706577,0.38222222222222224,-0.2977777777777777,-0.5788888888888889,0.04291679811375581,0.10761784987075512,-1.4567489937720717
1589996316.9962053,-2.6551248782723262,-1.4722320559088045,8.702232055908805,0.38222222222222224,-0.2977777777777777,-0.5788888888888889,0.043948789268100606,0.10658585871641031,-1.4755336565232815
1589996317.0062053,-2.7082749377752253,-1.5253436722190312,8.762412406662838,0.4042138404918416,-0.2757861595081583,-0.5686784946922798,0.04549514139481437,0.10503950658969655,-1.4882879164423242
1589996317.0162053,-2.729133831626219,-1.5674014948786565,8.87133831626219,0.4133333333333333,-0.26666666666666666,-0.5644444444444444,0.048803932274856895,0.10471975511965977,-1.5011291443726744
1589996317.0262053,-2.7661108419279667,-1.6331939733739413,8.88,0.4133333333333333,-0.26666666666666666,-0.5644444444444444,0.05401123745695172,0.10570452556858201,-1.5109369215379203
1589996317.0362053,-2.778980101870805,-1.6669403056124148,8.88,0.4133333333333333,-0.26666666666666666,-0.5644444444444444,0.05258238481469718,0.10874931736734465,-1.5246259675559044
1589996317.0462053,-2.7653110738385926,-1.6920333892421109,8.894688926161407,0.4133333333333333,-0.26666666666666666,-0.5644444444444444,0.057166817405434084,0.11068539153151365,-1.529276891276278
1589996317.0562053,-2.7207441796008873,-1.6901860449002217,8.949069775498891,0.4471369564547918,-0.2524909537447647,-0.5862532335550629,0.05248164366228289,0.10805313051837567,-1.5368588064350532
1589996317.0662053,-2.773050608584241,-1.760734144778988,8.835057014734145,0.4477777777777778,-0.25222222222222224,-0.5866666666666667,0.050430902997367855,0.10799224746714917,-1.5350515979750443
1589996317.0762053,-2.7677551636266093,-1.788367254560086,8.752653399946352,0.4477777777777778,-0.25222222222222224,-0.5866666666666667,0.05084606821697331,0.10799224746714917,-1.5388060243053312
1589996317.0862052,-2.7325663458734324,-1.8205752405949256,8.723716827063285,0.4477777777777778,-0.25222222222222224,-0.5866666666666667,0.04378767817792824,0.10799224746714917,-1.5443364431072542
1589996317.0962052,-2.6998980576667875,-1.8450764567499096,8.724974514416697,0.4477777777777778,-0.25222222222222224,-0.5866666666666667,0.042005325263746646,0.10744405203002323,-1.5446108279232262
1589996317.1062052,-2.7009644194756555,-1.8809644194756554,8.733976279650438,0.45942467748647525,-0.2359165626300458,-0.589772506588986,0.04401437520154512,0.10728256058633957,-1.5442878450358588
1589996317.1162052,-2.74898062910965,-1.9469418873289497,8.8138837746579,0.4811111111111111,-0.20555555555555555,-0.5955555555555555,0.047662966086051646,0.10407370879555321,-1.5447275841295791
1589996317.1262052,-2.7735585522217083,-2.004969955183987,8.804294298518862,0.4811111111111111,-0.20555555555555555,-0.5955555555555555,0.05227962008892573,0.10448553746897965,-1.5360502566968182
1589996317.1362052,-2.78,-2.0584104832622394,8.849384907051451,0.4811111111111111,-0.20555555555555555,-0.5955555555555555,0.05464783227126964,0.10711400297754639,-1.5289195844742438
1589996317.1462052,-2.7747396558986486,-2.1005206882027023,8.89,0.4811111111111111,-0.20555555555555555,-0.5955555555555555,0.05563236990731925,0.11023070730410109,-1.5158004014944015
1589996317.1562052,-2.7537497769052295,-2.11,8.88458325896841,0.5021762151228508,-0.19231463303389057,-0.5943518353263133,0.05385974554989818,0.10831036588560339,-1.5016193935520321
1589996317.1662052,-2.7242147617251353,-2.1415704765497297,8.872107380862568,0.52,-0.1811111111111111,-0.5933333333333334,0.04977702398694031,0.10408868352022985,-1.4845665169116529
1589996317.1762052,-2.6874780632202135,-2.176017549423829,8.752921027592768,0.52,-0.1811111111111111,-0.5933333333333334,0.046249310832676936,0.10008133136258385,-1.4714149423013647
1589996317.1862051,-2.6767482827049305,-2.203496565409861,8.656258586475348,0.52,-0.1811111111111111,-0.5933333333333334,0.046196308983060035,0.10038314077573904,-1.4506179792178306
1589996317.1962051,-2.652433356237997,-2.248593301266804,8.689619958771607,0.52,-0.1811111111111111,-0.5933333333333334,0.04269584754534867,0.09844020841359973,-1.4323437295519568
1589996317.2062051,-2.6177267987486963,-2.3106830031282586,8.760683003128259,0.5363642683350712,-0.15724655312246552,-0.5974244004171011,0.03726171031116804,0.09398491100098376,-1.4161707790092923
1589996317.2162051,-2.5821981505944516,-2.33,8.766099075297225,0.5466666666666666,-0.14222222222222222,-0.6,0.04509554976495388,0.09802786131203174,-1.39712965380801
1589996317.226205,-2.5557259724092374,-2.3442740275907625,8.738588958613857,0.5466666666666666,-0.14222222222222222,-0.6,0.049865912646650884,0.09724232225243247,-1.3822454459055673
1589996317.236205,-2.5268130622118075,-2.4195608133645776,8.861392647466426,0.5466666666666666,-0.14222222222222222,-0.6,0.048492014295424254,0.09262070546086269,-1.3729084031275756
1589996317.246205,-2.52,-2.463019601263876,8.858564717725024,0.5466666666666666,-0.14222222222222222,-0.6,0.05402307194810735,0.09715409345477698,-1.3691654544252905
1589996317.256205,-2.5136648243488797,-2.4950681405208965,8.81253407026045,0.5476521384346187,-0.13659095497678175,-0.6018301618547681,0.06053367545078039,0.10376713642941861,-1.367225606744825
1589996317.266205,-2.443485056017982,-2.543257471991009,8.849886207986513,0.5544444444444444,-0.09777777777777777,-0.6144444444444445,0.04876928848958323,0.09893509170130887,-1.3758681262338996
1589996317.276205,-2.4107579273008506,-2.5692420726991494,8.731719515339005,0.5544444444444444,-0.09777777777777777,-0.6144444444444445,0.043324739067736914,0.09599310885968812,-1.387206047163227
1589996317.286205,-2.373967122490544,-2.5843388129182427,8.673016438754727,0.5544444444444444,-0.09777777777777777,-0.6144444444444445,0.043015691586433015,0.09788627313597306,-1.40041931770876
1589996317.296205,-2.3285867614456133,-2.59,8.705217651405848,0.5544444444444444,-0.09777777777777777,-0.6144444444444445,0.04197324304077823,0.09994143492490393,-1.419419976781044
1589996317.306205,-2.295488641106672,-2.6093484785244367,8.749348478524437,0.5673434301274024,-0.07520455283260125,-0.6289558033377722,0.03979755606909561,0.09926560120717748,-1.4428137754023105
1589996317.316205,-2.2592654315643665,-2.664557614059389,8.728530863128734,0.5811111111111111,-0.05111111111111112,-0.6444444444444445,0.047146110605779314,0.10303525212573884,-1.471417827293158
1589996317.326205,-2.2558420328287063,-2.6916840656574137,8.698315934342586,0.5811111111111111,-0.05111111111111112,-0.6444444444444445,0.0527272836916002,0.10854335666480461,-1.4944609472457737
1589996317.336205,-2.248727595036439,-2.7169086074453417,8.740725822336024,0.5811111111111111,-0.05111111111111112,-0.6444444444444445,0.053926724808471875,0.10942029686558577,-1.5182575804884786
1589996317.346205,-2.222650383528462,-2.770482438433589,8.791566410981025,0.5811111111111111,-0.05111111111111112,-0.6444444444444445,0.05345070834232633,0.11303904632359217,-1.5415017732756977
1589996317.356205,-2.1878552645419167,-2.807381578486028,8.807381578486028,0.565527778751719,-0.013383043293635488,-0.6657690045151915,0.056671529556715436,0.12155012554870444,-1.5600186310495305
1589996317.366205,-2.143499205929063,-2.83920063525675,8.81,0.56,0.0,-0.6733333333333333,0.05144344111100941,0.11928225944628532,-1.5766980158351895
1589996317.376205,-2.1367395419706345,-2.870218625911903,8.715646412411118,0.56,0.0,-0.6733333333333333,0.047617045244041555,0.11780972450961726,-1.5927321843821034
1589996317.386205,-2.105644141474017,-2.907484686820786,8.697484686820786,0.56,0.0,-0.6733333333333333,0.04690572364734761,0.11930878163118668,-1.6048128534043704
1589996317.396205,-2.0713157180923205,-2.9433553523845997,8.70532892952308,0.56,0.0,-0.6733333333333333,0.04384851516928684,0.11999138607461016,-1.612470386116867
1589996317.406205,-2.0428699570278273,-2.9771300429721728,8.707130042972173,0.5718834049536207,0.011091177956712606,-0.6808594898039597,0.04347180709419614,0.12154692014552378,-1.6173131669245155
1589996317.416205,-2.03,-2.9966468656791236,8.786468656791238,0.5933333333333334,0.031111111111111114,-0.6944444444444444,0.047637264074359045,0.12507976977358673,-1.615886159090757
1589996317.426205,-1.9702223955558937,-2.994565672323263,8.700444791111787,0.5933333333333334,0.031111111111111114,-0.6944444444444444,0.051055275985717574,0.1290022991342667,-1.613742009303664
1589996317.436205,-1.92,-3.039352631759893,8.72955065836972,0.5933333333333334,0.031111111111111114,-0.6944444444444444,0.04915800213273248,0.12660698768998085,-1.610229070157728
1589996317.446205,-1.8839280904140072,-3.009880150690012,8.773928090414007,0.5933333333333334,0.031111111111111114,-0.6944444444444444,0.04450328121952348,0.12719871335808253,-1.6011057343103066
1589996317.456205,-1.866807594936709,-3.0380759493670886,8.790845569620254,0.5887949367088607,0.048508298171589304,-0.7103288326300984,0.049573978589241466,0.12980886311707826,-1.589944687502932
1589996317.466205,-1.8435615727772592,-3.089828820417056,8.78356157277726,0.5866666666666667,0.05666666666666665,-0.7177777777777777,0.03721895617576688,0.13413484065538198,-1.5770648409429682
1589996317.4762049,-1.8253520078425678,-3.1139439764722967,8.677040156851355,0.5866666666666667,0.05666666666666665,-0.7177777777777777,0.029959448419617236,0.13381876135099235,-1.564788915486412
1589996317.4862049,-1.8101419926432782,-3.1398580073567217,8.584787011035083,0.5866666666666667,0.05666666666666665,-0.7177777777777777,0.030543261909900768,0.13036202300563526,-1.5463997796375932
1589996317.4962049,-1.7529635985544407,-3.13824089963861,8.641156851264864,0.5866666666666667,0.05666666666666665,-0.7177777777777777,0.02797782418016692,0.12403662822517711,-1.5237039125387744
1589996317.5062048,-1.701173282042315,-3.13,8.63234656408463,0.6110716714266285,0.039931806259835625,-0.7359072098851781,0.02481082121447351,0.12478329755365518,-1.4843588116651452
1589996317.5162048,-1.684755327758295,-3.1457340167251147,8.672936066900458,0.6255555555555555,0.03,-0.7466666666666667,0.02399827721492203,0.12762720155208535,-1.4660765716752369
1589996317.5262048,-1.6578025990763612,-3.1821974009236387,8.657858446998175,0.6255555555555555,0.03,-0.7466666666666667,0.020971576187556983,0.12823254175755835,-1.4345988809906405
1589996317.5362048,-1.6297385166382699,-3.205130741680865,8.62052296672346,0.6255555555555555,0.03,-0.7466666666666667,0.016865092013682165,0.12703900104582422,-1.395361443579108
1589996317.5462048,-1.609150360720403,-3.2316992785591943,8.668932371412259,0.6255555555555555,0.03,-0.7466666666666667,0.01132659078656127,0.12071149178502552,-1.371825496985198
1589996317.5562048,-1.59479686938245,-3.284390608147349,8.72479686938245,0.6372812362682104,0.0326649274346943,-0.7466666666666667,0.005933094964583105,0.1097392842061395,-1.3359302536193327
1589996317.5662048,-1.5877950449856204,-3.361024775071898,8.72389752249281,0.65,0.03555555555555556,-0.7466666666666667,0.008967169540342164,0.09824761527601737,-1.2953310894673506
1589996317.5762048,-1.5469259421560035,-3.386770376862401,8.614163014899212,0.65,0.03555555555555556,-0.7466666666666667,0.014146861090264072,0.08911279647236878,-1.2571929931624917
1589996317.5862048,-1.5427118989866933,-3.4054237979733863,8.61720354544012,0.65,0.03555555555555556,-0.7466666666666667,0.012202502521845685,0.08518648299191589,-1.2182915144629822
1589996317.5962048,-1.5236056976103505,-3.42527886047793,8.63416341856621,0.65,0.03555555555555556,-0.7466666666666667,0.018454992301212975,0.08226646720047813,-1.1772738073173563
1589996317.6062047,-1.5038283667155186,-3.4376567334310373,8.642970200293112,0.6134178291628218,0.007055492228916757,-0.7241218404530569,0.023256668597934127,0.08072147790473774,-1.1365593467893655
1589996317.6162047,-1.4928017608108608,-3.445700440202715,8.705797358783709,0.5544444444444444,-0.03888888888888889,-0.6877777777777778,0.019951150955858494,0.08025246868693149,-1.0876476694329245
1589996317.6262047,-1.4740933985405513,-3.4686537897838594,8.670412224810626,0.5544444444444444,-0.03888888888888889,-0.6877777777777778,0.02181661564992912,0.07784456506901748,-1.0410871385143994
1589996317.6362047,-1.4758281998631075,-3.516953000228154,8.590859000684462,0.5544444444444444,-0.03888888888888889,-0.6877777777777778,0.02211999751711214,0.07481225119148094,-1.0067073958611812
1589996317.6462047,-1.4219723786321614,-3.5288581984801795,8.701314919088109,0.5544444444444444,-0.03888888888888889,-0.6877777777777778,0.02671591207253925,0.06961690114435101,-0.9504382507924689
1589996317.6562047,-1.3610687146060891,-3.461187460673432,8.66071247640406,0.5544444444444444,-0.03888888888888889,-0.6877777777777778,0.03262129798244698,0.06444968847318176,-0.9179586282879765
1589996317.6662047,-1.4242296105013987,-3.6236918442005592,8.751613298902518,0.5433333333333333,0.048888888888888885,-0.6,0.0223874062956615,0.05437346620890555,-0.859766461606643
1589996317.6762047,-1.3684138935255887,-3.599206946762794,8.682804631175197,0.5433333333333333,0.048888888888888885,-0.6,0.023652242461601067,0.04690572364734761,-0.8093626584465736
1589996317.6862047,-1.3392595388814683,-3.6031488472036703,8.628332075033393,0.5433333333333333,0.048888888888888885,-0.6,0.017796778465857446,0.04539063514080337,-0.761419461460521
1589996317.6962047,-1.3381761669534329,-3.626058722317811,8.627295332186268,0.5433333333333333,0.048888888888888885,-0.6,0.020295858165622852,0.04148359779080919,-0.7180549073861628
1589996317.7062047,-1.2044693379290536,-3.3476777251184835,8.551460577337354,0.5369149632182808,0.0878575645874224,-0.5853294397370227,-0.003769577809626553,0.06428413219284981,-0.6712109119861601
1589996317.7162046,-1.1644252121574639,-3.363137687390183,9.210976485102247,0.5277777777777778,0.14333333333333334,-0.5644444444444444,0.01828830882344614,0.02163987406664228,-0.6381761355218375
1589996317.7262046,-1.1112312158866566,-3.3065253745209615,8.156648705144583,0.5277777777777778,0.14333333333333334,-0.5644444444444444,0.07778772455532008,0.032098167653330616,-0.5810188614699366
1589996317.7362046,-1.1910419518286386,-3.45155512331004,8.551492687846697,0.5277777777777778,0.14333333333333334,-0.5644444444444444,-0.0014589465519276312,0.0340481808725017,-0.5455595937182143
1589996317.7462046,-1.28,-3.6781361752275683,9.43881705136541,0.5277777777777778,0.14333333333333334,-0.5644444444444444,-0.006803064051923408,0.016432832912154784,-0.5147939563829902
1589996317.7562046,-1.1157250876797837,-3.3714501753595676,8.360936645323209,0.5453004350919342,0.17399798363310703,-0.5644444444444444,0.025400538272945083,0.019292215818226276,-0.4672825787938665
1589996317.7662046,-1.1029787730347562,-3.3459575460695126,8.490195552445378,0.5544444444444444,0.19,-0.5644444444444444,0.00803229230608725,0.01854412330243975,-0.4301393186424078
1589996317.7762046,-1.1621078227039043,-3.500539113519522,8.550172294011393,0.5544444444444444,0.19,-0.5644444444444444,0.01280653829877109,0.01722336473099691,-0.3938140117023428
1589996317.7862046,-1.209298419572212,-3.657895258716636,8.612457656272133,0.5544444444444444,0.19,-0.5644444444444444,0.02644787297336946,0.013300467039387549,-0.3581751494223516
1589996317.7962046,-1.2065504396822029,-3.654429827663437,8.550282905438857,0.5544444444444444,0.19,-0.5644444444444444,0.027319091486175708,0.009344544536866345,-0.32370738432294427
1589996317.8062046,-1.2282744553789218,-3.683198755151821,8.589596265455462,0.5493569919907291,0.2038748703283147,-0.5704568882533808,0.031174533546814827,0.006273653268320679,-0.28981205808552973
1589996317.8162045,-1.2601919925076095,-3.773151096542574,9.006110200577538,0.5422222222222223,0.22333333333333333,-0.5788888888888889,0.040895682776751645,0.005268858259777719,-0.25766324658933
1589996317.8262045,-1.143380535833366,-3.5295575255952616,8.626176989761897,0.5422222222222223,0.22333333333333333,-0.5788888888888889,0.04382629718032048,0.008469866927379908,-0.21959485257259653
1589996317.8362045,-1.1924851539234171,-3.5587277308851255,8.568668346578795,0.5422222222222223,0.22333333333333333,-0.5788888888888889,0.02495032496600605,0.010769524793552122,-0.17682745850410092
1589996317.8462045,-1.178149000227221,-3.5511059986366735,8.507403999091116,0.5422222222222223,0.22333333333333333,-0.5788888888888889,0.020080667889667916,0.006707518729430463,-0.15162798834702845
1589996317.8562045,-1.204467608339002,-3.663632507702773,8.680521787843624,0.5478195261405218,0.22657387770708565,-0.5788888888888889,0.006189725932274616,-0.00044635411075222113,-0.12010753591704235
1589996317.8662045,-1.2770471920906217,-3.7982676219829483,8.953149341552257,0.5633333333333334,0.23555555555555555,-0.5788888888888889,0.004002580067704043,0.002542404627274692,-0.09448569013756077
1589996317.8762045,-1.2167709025052822,-3.715850890431633,8.626007244189555,0.5633333333333334,0.23555555555555555,-0.5788888888888889,0.009448181598565893,-0.004363323129985824,-0.06759739741635991
1589996317.8862045,-1.245607906438448,-3.818784187123104,8.68215812876896,0.5633333333333334,0.23555555555555555,-0.5788888888888889,0.010031330905747926,-0.006279735472604011,-0.04570382971976113
1589996317.8962045,-1.2754474239228684,-3.887602063874661,8.702927839710757,0.5633333333333334,0.23555555555555555,-0.5788888888888889,0.009223255272430866,-0.009209985524662474,-0.02293398592796236
1589996317.9062045,-1.293741242835047,-3.903731234646529,8.753711218269492,0.5658341673490431,0.2405572235869752,-0.5788888888888889,0.007227709192548849,-0.00940827903353053,-0.002587584401896787
1589996317.9162045,-1.2583055366352047,-3.8266110732704095,8.622291524764037,0.57,0.2488888888888889,-0.5788888888888889,0.008828161348069304,-0.007367656005946628,0.020790914162765916
1589996317.9262044,-1.2636411983217082,-3.85,8.684564793286834,0.57,0.2488888888888889,-0.5788888888888889,0.007484692604697681,-0.007188248065099979,0.04030456345548572
1589996317.9362044,-1.2465314097418783,-3.8430628194837566,8.623062819483756,0.57,0.2488888888888889,-0.5788888888888889,0.008883697136856775,-0.01090830782496456,0.067228881310747
1589996317.9462044,-1.2346399740638676,-3.8335733506240883,8.62786675312044,0.57,0.2488888888888889,-0.5788888888888889,-0.0005061426538852092,-0.01129809991070539,0.08738574845575021
1589996317.9562044,-1.2142429891392446,-3.847171340573837,8.695856702869186,0.57,0.2488888888888889,-0.5788888888888889,0.0017188232487042956,-0.012781410512431727,0.1044438203756031
1589996317.9662044,-1.2567698705189099,-3.970309611556729,8.845774028891823,0.6288888888888889,0.2533333333333333,-0.6088888888888889,-0.002181661564992912,-0.01544780718842151,0.13660488013399016
1589996317.9762044,-1.2402376776177055,-3.920713032853117,8.721782582132793,0.6288888888888889,0.2533333333333333,-0.6088888888888889,-0.002181661564992912,-0.016349498434361655,0.15463870505279304
1589996317.9862044,-1.221166970931049,-3.8,8.517917427327623,0.6288888888888889,0.2533333333333333,-0.6088888888888889,-0.006495046366781313,-0.0219439124313158,0.191177400624645
1589996317.9962044,-1.25,-3.8013105710451764,8.591572685254212,0.6288888888888889,0.2533333333333333,-0.6088888888888889,-0.01177040080926465,-0.025060515772643937,0.2124217540979997
1589996318.0062044,-1.2481975390109463,-3.8463950780218927,8.646395078021893,0.6679422103183845,0.2543347005494742,-0.6098902561050298,-0.0024860203750458787,-0.0241948952080329,0.24806297350753942
1589996318.0162044,-1.240057060787206,-3.830114121574412,8.630114121574413,0.8443192384994264,0.25885718845155226,-0.6144127440071078,0.0010659333172333583,-0.02508288363110271,0.27470262619963365
1589996318.0262043,-1.2438109485297555,-3.8474643541676405,8.633653405637885,0.8455555555555555,0.2588888888888889,-0.6144444444444445,-0.013921389383310855,-0.030075996122419343,0.32560521186095104
1589996318.0362043,-1.2760781979004665,-3.910781979004666,8.633329364307931,0.8455555555555555,0.2588888888888889,-0.6144444444444445,-0.017966395442201844,-0.03428620684117092,0.3659427139190967
1589996318.0462043,-1.287395503678435,-3.863916402942748,8.582186511035305,0.8455555555555555,0.2588888888888889,-0.6144444444444445,-0.013896693696407728,-0.03239311472797591,0.40934986421058367
1589996318.0562043,-1.3298009918413054,-3.8671310190369543,8.69960198368261,1.0854983558186246,0.22113692031497184,-0.752021329920546,-0.01852241487989255,-0.03488487661733939,0.4552635582027803
1589996318.0662043,-1.3533339182592605,-3.843337427814823,8.726664326962958,1.58,0.14333333333333334,-1.0355555555555556,-0.019634762668374175,-0.0370882466048795,0.5050573321277275
1589996318.0762043,-1.3598785377817575,-3.890485848872971,8.699453420017907,1.58,0.14333333333333334,-1.0355555555555556,-0.017493040937914123,-0.03715449396816421,0.5358099057682709
1589996318.0862043,-1.3436965629082391,-3.936730933825848,8.613696562908238,1.58,0.14333333333333334,-1.0355555555555556,-0.019965952605180186,-0.0467868570469215,0.5785691484651301
1589996318.0962043,-1.3642447438252705,-3.8372657685241887,8.63424474382527,1.58,0.14333333333333334,-1.0355555555555556,-0.016508462501701366,-0.04814255519409858,0.5938749754009137
1589996318.1062043,-1.3977139643365202,-3.7345720713269595,8.681430178317399,1.419977503556423,0.10447072705417894,-0.9575763390346379,-0.022844797732970983,-0.056224465075494036,0.6002689468796663
1589996318.1162043,-1.4075427360489756,-3.7719284200612195,8.67614315987756,0.88,-0.02666666666666667,-0.6944444444444444,-0.014793227042664557,-0.052627923475679496,0.6134676157558807
1589996318.1262043,-1.4555209043265729,-3.8297743883810016,8.679548776762003,0.88,-0.02666666666666667,-0.6944444444444444,-0.011860884502739541,-0.04878626659300834,0.6242317157974158
1589996318.1362042,-1.4928080850244028,-3.836302979707167,8.703838299511945,0.88,-0.02666666666666667,-0.6944444444444444,-0.0007624677403084163,-0.04200469071217024,0.6360138543350261
1589996318.1462042,-1.4995418058052916,-3.7554983303365015,8.56916388389417,0.88,-0.02666666666666667,-0.6944444444444444,0.01833544202186841,-0.030252130858522956,0.6492354841703792
1589996318.1562042,-1.4399886052871467,-3.6599806289881496,8.906674263141902,0.7981388213646646,0.04297089705932003,-0.6777758786589689,0.025817405760056082,-0.007634323913050627,0.6814064574463553
1589996318.1662042,-1.1627693931398417,-3.21273526824978,8.199044503078275,0.6344444444444445,0.18222222222222226,-0.6444444444444445,0.011961914126932552,-0.008133625746975421,0.6814410879953376
1589996318.1762042,-1.1323929460914277,-3.1747792640796977,7.579130312525106,0.6344444444444445,0.18222222222222226,-0.6444444444444445,-0.06239022742070273,-0.08374089347933772,0.6450937238420984
1589996318.1862042,-1.4289771873640928,-3.5986027754714742,9.611169098169453,0.6344444444444445,0.18222222222222226,-0.6444444444444445,-0.1806993774238478,-0.2383908828908197,0.5771421223987283
1589996318.1962042,-1.266420603546127,-3.3365321539003485,8.36579396453873,0.6344444444444445,0.18222222222222226,-0.6444444444444445,0.00016104793579304992,-0.02652637116353764,0.6371135326898085
1589996318.2062042,-1.304004214963119,-3.42,8.493256059009484,0.6335276899660461,0.19352886078913478,-0.6542231588806932,-0.009737015340914097,-0.05664158953538236,0.6210091598582168
1589996318.2162042,-1.4137338197635667,-3.451330901182166,8.713262532009683,0.6311111111111111,0.22333333333333333,-0.68,-0.03289327195167458,-0.05636731365531161,0.596473729788854
1589996318.2262042,-1.3934082093831157,-3.5011663125231878,8.790449256298695,0.6311111111111111,0.22333333333333333,-0.68,-0.0029007143766597724,-0.04414684045104885,0.588662238357126
1589996318.2362041,-1.357734166743267,-3.3858686460152585,8.552137604559242,0.6311111111111111,0.22333333333333333,-0.68,-0.012086473253251476,-0.049465551247471075,0.5522363674616203
1589996318.2462041,-1.3930092835139043,-3.4760185670278085,8.766196064460697,0.6311111111111111,0.22333333333333333,-0.68,-0.01389126219615308,-0.047707016453543215,0.5205678620707642
1589996318.2562041,-1.357909102060844,-3.3963272816486754,8.672709151128558,0.6260141342274561,0.21911514556754988,-0.682284851706466,-0.007118165958082707,-0.04127901989506783,0.4892534626041901
1589996318.266204,-1.3962591329761325,-3.4291367229944925,8.892518265952265,0.5988888888888889,0.19666666666666666,-0.6944444444444444,-0.0044574920431287605,-0.04007823221294006,0.45009724134324575
1589996318.276204,-1.2839070807022113,-3.4278141614044224,8.685198012282187,0.5988888888888889,0.19666666666666666,-0.6944444444444444,-0.006498045098127609,-0.028267721151205603,0.3757301452205195
1589996318.286204,-1.3121876898716698,-3.4646861708983114,8.737184651924952,0.5988888888888889,0.19666666666666666,-0.6944444444444444,-0.003408763348156583,-0.02256643754217817,0.31514640164236823
1589996318.296204,-1.319910150424392,-3.4106289470292563,8.62134774363412,0.5988888888888889,0.19666666666666666,-0.6944444444444444,-3.920427314700169e-05,-0.017512098929663798,0.2570215075984529
1589996318.306204,-1.353853936028886,-3.4811629253670335,8.746910106618524,0.5845368320256763,0.176633587295099,-0.6654413295333689,0.006965383900386812,-0.009607277439764065,0.15054568374233362
1589996318.316204,-1.9819508387836158,-5.008679681479579,2.8412566934734933,0.5455555555555556,0.12222222222222222,-0.5866666666666667,-0.340908145815963,1.0424390338838172,-0.39823854668704517
1589996318.326204,-3.4762627317837556,-5.786516061634892,-3.7644267432750067,0.5455555555555556,0.12222222222222222,-0.5866666666666667,-0.8049855414205728,1.1829913119576267,-3.517359500355721
1589996318.336204,-3.486145512741598,-2.730016003939431,0.5280711559768558,0.5455555555555556,0.12222222222222222,-0.5866666666666667,-0.6787550384679419,-1.3992531615621244,-9.31441285084248
1589996318.346204,-1.3000402083791913,-3.084142637023993,-0.4746547802480006,0.5455555555555556,0.12222222222222222,-0.5866666666666667,-0.624447902292712,-0.4232768557689751,-9.895937445622552
1589996318.356204,-0.4014155110426296,-2.345546995377504,-0.5362044170518747,0.5455555555555556,0.12222222222222222,-0.5866666666666667,-0.633847535679512,-0.31988088851417545,-9.666989232415496
1589996318.366204,-0.13967546395598246,-2.124702974913737,-0.143891634803693,0.6177777777777778,0.2733333333333333,-0.5788888888888889,-0.6414318975787706,-0.02980044307433338,-9.091049152515723
1589996318.376204,-0.249197426093444,-1.9838890235941433,-0.2768825888277534,0.6177777777777778,0.2733333333333333,-0.5788888888888889,-0.738714552958205,0.035054660511956146,-8.806028039386502
1589996318.386204,-1.5146355495042858,-6.048259343778166,8.009397280763993,0.6177777777777778,0.2733333333333333,-0.5788888888888889,0.025036184495017266,1.1541988949844009,-8.081757589835673
1589996318.396204,-0.8245905935487469,-1.8730650422370292,2.852937912961053,0.6177777777777778,0.2733333333333333,-0.5788888888888889,1.5453691643499543,3.1413402683918803,-7.287674593433057
1589996318.406204,-4.733933836968442,-3.165375289387108,26.949138743349174,0.5763212072801448,0.3125974890450338,-0.5776930262783803,2.3050329049341594,2.766908296021255,-6.691848505318433
1589996318.416204,1.6659006664235272,2.4424972646795533,0.23302874573124233,0.38666666666666666,0.4922222222222222,-0.5722222222222222,3.264858304191473,0.3435395796275163,-5.84059087104731
1589996318.426204,-0.4173612005075676,-0.720621402431175,-1.1940936425326885,0.38666666666666666,0.4922222222222222,-0.5722222222222222,0.4701609059874361,-0.7624756113950351,-4.775040826417159
1589996318.436204,0.3003110781927838,-0.39687440482488623,-0.17315522166966452,0.38666666666666666,0.4922222222222222,-0.5722222222222222,-0.20175244845273121,-0.3740464639580718,-4.407200473771661
1589996318.446204,1.5115971628246585,-3.5640709293835404,15.762668405131949,0.38666666666666666,0.4922222222222222,-0.5722222222222222,-0.7514396351267196,1.0807872200503348,-3.7184432688497413
1589996318.456204,2.903390574197418,-0.8800962782916127,17.455797531487736,0.35960071691376344,0.5056064830890425,-0.5793604946845263,-0.14684915571892873,2.0241184867658473,-3.212213332513921
1589996318.466204,-0.89,-0.47,3.41,0.2855555555555556,0.5422222222222223,-0.5988888888888889,-0.1636246173744684,1.0112001353742148,-3.0085112981252258
1589996318.476204,-0.4917879417879418,-0.705010395010395,3.703762993762994,0.2855555555555556,0.5422222222222223,-0.5988888888888889,-0.011590927503824094,0.42229211887293694,-2.8757043512358806
1589996318.486204,0.41462034471767967,-1.2871566920832618,5.043376320886557,0.2855555555555556,0.5422222222222223,-0.5988888888888889,0.2942969824278122,-0.6176516728722614,-2.5158205803736027
1589996318.496204,0.7724690188496859,-1.675163847269212,7.1943553407443215,0.2855555555555556,0.5422222222222223,-0.5988888888888889,0.20240513319753342,-0.02384417957301385,-2.2340595926326943
1589996318.506204,1.1905500605793589,-2.1683147923780153,8.89985064434409,0.2784331362974386,0.5472079157029042,-0.5980748981165327,-0.039357328422911786,0.5573104810113623,-1.9475928522600008
1589996318.5162039,0.7092164055335505,-2.35770326432655,11.17752395075218,0.20777777777777776,0.5966666666666667,-0.59,-0.4240853211889952,0.6780897311022966,-1.6253587668939133
1589996318.5262039,1.2575337066593824,-2.8159983219839613,11.030214825076584,0.20777777777777776,0.5966666666666667,-0.59,-0.08485229365988228,0.199592618587548,-1.4968073038302494
1589996318.5362039,1.1485837941812935,-2.3835585477278194,8.690654003366193,0.20777777777777776,0.5966666666666667,-0.59,0.2215383160017093,0.03318365466955256,-1.232496102820255
1589996318.5462039,0.9444910167288929,-2.5076247447348337,9.330838301120073,0.20777777777777776,0.5966666666666667,-0.59,-0.10791821885116255,0.15195316227296862,-0.9848383877137005
1589996318.5562038,0.9155935492907021,-2.292802977250445,8.447234238380119,0.19924797303756464,0.5977328922591933,-0.5917326165878558,-0.07266123826118426,0.09691444061545601,-0.8313079547645162
1589996318.5662038,1.0246911702915225,-2.2424502290962205,7.868177634606535,0.13957064189181678,0.6051925586524117,-0.6038545744768359,0.12873529652852234,0.011778632727080018,-0.7022310847402042
1589996318.5762038,-0.317304072523442,-2.849965572125532,4.148694681844919,0.13666666666666666,0.6055555555555555,-0.6044444444444445,-0.32634619776452034,-0.2267581520960832,-0.08015243495493293
1589996318.5862038,-2.5304826822601294,0.0017694889450190487,11.949242240752916,0.13666666666666666,0.6055555555555555,-0.6044444444444445,-0.47753073571229954,0.12072882255876,0.6124468881042647
1589996318.5962038,-1.8243405025881068,-1.0343792814800894,11.655350974597264,0.13666666666666666,0.6055555555555555,-0.6044444444444445,0.6243468012477671,0.12165440127339978,1.0004787168998772
1589996318.6062038,0.0027884927481762745,-1.650587491671934,8.825092334762628,0.13666666666666666,0.6055555555555555,-0.6044444444444445,0.5063246948527079,0.09507988725067124,1.0856734824433305
1589996318.6162038,1.19,-2.17,12.46,0.13111111111111112,0.6288888888888889,-0.6344444444444445,-0.4679664056909796,-0.37742745074377376,1.0995574287564276
1589996318.6262038,0.9248338961394542,-2.149375969699735,10.877842246965411,0.13111111111111112,0.6288888888888889,-0.6344444444444445,-0.2738466117646414,-0.30993546941176875,1.1676921908630231
1589996318.6362038,3.3449689718512636,-5.168656108821923,7.615586059673335,0.13111111111111112,0.6288888888888889,-0.6344444444444445,0.10310492698565481,-0.1376031341805925,1.3773962476810202
1589996318.6462038,8.76711332236516,-11.024391761977443,9.480196634224663,0.13111111111111112,0.6288888888888889,-0.6344444444444445,-0.15421984796040739,-0.12773416779286337,1.5462394769302843
1589996318.6562037,0.4362626889055717,-3.7971485458759013,10.275731631687176,0.13474854297454422,0.6272217326181487,-0.6303523335980822,-0.17451754383382798,-0.16034539567952688,1.708794592131176
1589996318.6662037,-1.74,-1.12,6.45,0.15777777777777774,0.6166666666666667,-0.6044444444444445,0.15707963267948966,-0.015271630954950384,1.884955592153876
1589996318.6762037,-1.0891352549889135,-1.909474829596781,7.582986778352632,0.15777777777777774,0.6166666666666667,-0.6044444444444445,0.019684716464806185,-0.09152909641381776,1.9572687059510776
1589996318.6862037,1.1136464541917985,-3.9537235447374997,7.749533887719048,0.15777777777777774,0.6166666666666667,-0.6044444444444445,-0.20721580230418152,-0.22007735868150802,2.0920106449559004
1589996318.6962037,2.181189261895421,-5.827476881690298,8.298937398419548,0.15777777777777774,0.6166666666666667,-0.6044444444444445,-0.07033403979152958,-0.19127124456456507,2.220829866888026
1589996318.7062037,0.5737142220737275,-3.726094219846308,8.68477670119167,0.15777777777777774,0.6166666666666667,-0.6044444444444445,-0.10130172147832578,-0.17816368238460825,2.5073173776967184
1589996318.7162037,0.016636363636363616,-3.048232727272727,8.609327272727272,0.19363232323232324,0.6166666666666667,-0.615200808080808,-0.06705376486579623,-0.19297629540414393,2.688284633621132
1589996318.7262037,0.5170038940215317,-3.713926089944262,7.987083683286249,0.20222222222222225,0.6166666666666667,-0.6177777777777778,-0.09234519315172668,-0.2151939611958799,2.857428902668691
1589996318.7362037,0.6771283500038177,-4.786759945025579,9.372160227533023,0.20222222222222225,0.6166666666666667,-0.6177777777777778,-0.1298989605591616,-0.22829411261707816,2.985810386596434
1589996318.7462037,0.12520659594183164,-3.6742731794028103,8.203733666156086,0.20222222222222225,0.6166666666666667,-0.6177777777777778,-0.08003208918759865,-0.23723315907169032,3.297828063569174
1589996318.7562037,-0.009630301998827584,-3.380804636826081,8.838260244700365,0.20222222222222225,0.6166666666666667,-0.6177777777777778,-0.1111793397760701,-0.25194158296069075,3.450968712295826
1589996318.7662036,0.16,-3.95,8.31,0.27555555555555555,0.59,-0.6344444444444445,-0.1112647398146385,-0.2672535417116317,3.5571991817209434
1589996318.7762036,0.1202795178435839,-3.8615316533788917,8.360553340926348,0.27555555555555555,0.59,-0.6344444444444445,-0.11205252753521704,-0.2711924803145244,3.616874101554768
1589996318.7862036,-0.08269340434055188,-3.575212668190494,8.59698258595094,0.27555555555555555,0.59,-0.6344444444444445,-0.1181035293460556,-0.2915456237629921,3.910380947415086
1589996318.7962036,-0.19,-4.1156359275389764,8.644546908203413,0.27555555555555555,0.59,-0.6344444444444445,-0.1312370024903372,-0.3032509575340148,4.031652483514454
1589996318.8062036,-0.19353494424891307,-4.085679512584662,8.735891573748189,0.27869772822125605,0.58794885950989,-0.6341389554352792,-0.13928358229277985,-0.3038079390675104,4.119283787511326
1589996318.8162036,1.5818241592251987,-8.722818428184281,9.296073570571771,0.3555555555555556,0.5377777777777778,-0.6266666666666667,-0.13502574715923743,-0.3215578109661314,4.248184678458657
1589996318.8262036,7.298509738848722,-23.057434514637904,9.931676346252617,0.3555555555555556,0.5377777777777778,-0.6266666666666667,-0.2000661488467122,-0.34188227437523,3.886850067198843
1589996318.8362036,-1.1195867409426725,-0.11480739599383938,3.8335277152226306,0.3555555555555556,0.5377777777777778,-0.6266666666666667,-0.5254380737744033,-0.37351565596542224,1.1510144650985055
1589996318.8462036,-3.163517098445596,-1.850139274611399,12.94590238341969,0.3555555555555556,0.5377777777777778,-0.6266666666666667,0.14534830715906394,0.29832734301993336,-1.720659882117281
1589996318.8562036,-1.5460032447501315,-0.6986232662294632,5.322194776409296,0.35946474317472654,0.5351423703940671,-0.6269741308614329,0.938282473300539,0.40926613496469344,-1.1986668693975482
1589996318.8662035,-0.7217686173251376,-1.8774704659186985,9.012082352672348,0.4542410763024066,0.47124821322933885,-0.6344284491973179,0.14895586840055763,-0.008920145777018496,-0.26924786044909355
1589996318.8762035,-0.980790731886723,-3.8878300845899227,10.3928208900331,0.4544444444444444,0.4711111111111111,-0.6344444444444445,-0.3884878089058351,-0.084841279782434,0.24500925941435386
1589996318.8862035,-1.0295040746404445,-4.780908035074814,9.231819554402742,0.4544444444444444,0.4711111111111111,-0.6344444444444445,-0.1626512502810803,-0.10343958461035499,0.5434677702243239
1589996318.8962035,0.5440363615816017,-4.400793908658125,7.687978640749269,0.4544444444444444,0.4711111111111111,-0.6344444444444445,0.08326900980648937,-0.038479564754886175,1.1069012783799432
1589996318.9062035,4.579011145799488,-12.32854172258402,8.250860585684215,0.4544444444444444,0.4711111111111111,-0.6344444444444445,-0.056983561436556876,-0.1082826877698585,1.236166321000262
1589996318.9162035,-0.2470123195229128,-5.1526251569365975,9.973378060263652,0.41481145811536585,0.47664129525005233,-0.6399746285833856,-0.17087520969307468,-0.09584537079231611,0.4795493355194159
1589996318.9262035,-1.975636042402827,-2.70108026249369,8.492975769813224,0.4066666666666667,0.4777777777777778,-0.6411111111111111,0.2584371400667298,0.12183164678894792,-0.3896999853550255
1589996318.9362035,1.2185420042965363,-5.230659556024573,9.416476463272152,0.4066666666666667,0.4777777777777778,-0.6411111111111111,0.04693744173232466,-0.0035351994933135247,0.11453865053404194
1589996318.9462035,-0.14883805072928058,-6.716598575358987,9.14774281083933,0.4066666666666667,0.4777777777777778,-0.6411111111111111,-0.1953365766293368,-0.07251000899129544,0.22231179037463872
1589996318.9562035,-0.25815243617683686,-3.5433024595267746,8.503202443960149,0.40692669416770444,0.47769566383008166,-0.6409331975577695,0.04366010302640401,0.005655691861575598,-0.03473191881733905
1589996318.9662035,-0.1357316313823163,-4.424732254047322,8.715398505603986,0.4241562889165629,0.4722547391725474,-0.6291445274664453,0.045440641456908716,0.01900973009036087,-0.023158419019058477
1589996318.9762034,-0.14597789291882557,-4.443628094415659,8.714526655152563,0.42777777777777776,0.4711111111111111,-0.6266666666666667,-0.010177068122524217,-0.011334994104100651,0.0007983349015203193
1589996318.9862034,-0.13150028907303912,-4.753408171131239,8.559409327423396,0.42777777777777776,0.4711111111111111,-0.6266666666666667,-0.004883932579369611,-0.0004561770664901348,-0.0009767865158739222
1589996318.9962034,-0.22389808521523058,-4.44784531900899,8.63738489366367,0.42777777777777776,0.4711111111111111,-0.6266666666666667,-0.0009508794970566746,-0.004363323129985824,0.0001901758994113349
1589996319.0062034,-0.17025469560768838,-4.516815391361543,8.614394869546151,0.42777777777777776,0.4711111111111111,-0.6266666666666667,-0.009310288162964891,-0.004363323129985824,0.001862057632592978
1589996319.0162034,-0.14064607253508293,-4.5203371605613265,8.712247129579005,0.42777777777777776,0.4711111111111111,-0.6133333333333333,0.00545415391248228,-0.0012317819442952509,0.001090830782496456
1589996319.0262034,-0.15014090575431652,-4.669013659719784,8.599013659719784,0.42777777777777776,0.4711111111111111,-0.6133333333333333,0.005546376513025896,-0.003272492347489368,0.0011369420827682638
1589996319.0362034,-0.15683400887243482,-4.622161937892956,8.552161937892956,0.42777777777777776,0.4711111111111111,-0.6133333333333333,0.009927002260025753,-0.003272492347489368,0.003327254956268193
1589996319.0462034,-0.16794015159679565,-4.584119696806408,8.577640909580774,0.42777777777777776,0.4711111111111111,-0.6133333333333333,-0.004457448773537806,-0.0024063561695420615,0.0026310507740912115
1589996319.0562034,-0.17586304608309855,-4.574136953916901,8.625178276498591,0.42777777777777776,0.4711111111111111,-0.6133333333333333,-0.0042497324573242306,-0.00026298422100116134,0.002821220679656829
1589996319.0662034,-0.17345731731651834,-4.576542682683482,8.630371951949554,0.42777777777777776,0.4623875341998022,-0.6365962050968237,-0.0032319186838709497,-0.00033656115175320677,0.003986188314614199
1589996319.0762033,-0.16304987052042436,-4.545249352602122,8.599149611561273,0.42777777777777776,0.4577777777777778,-0.6488888888888888,0.0024599505308056406,-0.002607113818227893,0.002088898576388669
1589996319.0862033,-0.16963658794501235,-4.549273175890025,8.599636587945012,0.42777777777777776,0.4577777777777778,-0.6488888888888888,0.0012493992050207903,-0.0011701149937586234,3.964210563108363e-05
1589996319.0962033,-0.17,-4.593576716195345,8.592737213967443,0.42777777777777776,0.4577777777777778,-0.6488888888888888,-0.0004936633317033632,-0.005052066067996004,0.0015844941141998192
1589996319.1062033,-0.18451421379517907,-4.61725710689759,8.655313962078306,0.42777777777777776,0.4577777777777778,-0.6488888888888888,-0.005048968580375467,-0.004170102016251329,0.0013900340054171095
1589996319.1162033,-0.1759038113324206,-4.61295190566621,8.609519056662103,0.43169338574099425,0.4616933857409943,-0.6488888888888888,0.0003744657365342477,-0.004041320173213033,-0.00044682486895087346
1589996319.1262033,-0.1795297648824412,-4.53376188094047,8.665767883941971,0.43333333333333335,0.4633333333333333,-0.6488888888888888,0.001193420170745247,-0.0012447148648696425,-5.129469412439567e-05
1589996319.1362033,-0.18,-4.577106199009832,8.594630081584269,0.43333333333333335,0.4633333333333333,-0.6488888888888888,0.008284715652182483,-0.001090830782496456,0.0041107913541063015
1589996319.1462033,-0.16031986470759382,-4.494797970613908,8.667760947046844,0.43333333333333335,0.4633333333333333,-0.6488888888888888,0.00323760052056161,-0.00102104712864094,0.002181661564992912
1589996319.1562033,-0.16794697410532441,-4.609204611579866,8.61437118126273,0.43333333333333335,0.4633333333333333,-0.6488888888888888,0.002405611949310358,0.0006429300138615639,0.002181661564992912
1589996319.1662033,-0.16077133825079032,-4.538484720758693,8.63691464699684,0.42820629902821683,0.4705111813604964,-0.6550413300550287,-0.004865174257106954,8.413995076790364e-05,0.002181661564992912
1589996319.1762033,-0.16957266827098375,-4.558718004812951,8.668718004812952,0.42777777777777776,0.4711111111111111,-0.6555555555555556,-0.00023307330217418615,-0.0031326483661848563,9.322932086967438e-05
1589996319.1862032,-0.17,-4.521488331975657,8.631488331975659,0.42777777777777776,0.4711111111111111,-0.6555555555555556,0.0,-0.003272492347489368,0.005251214120779635
1589996319.1962032,-0.17,-4.568180842180603,8.597879438546265,0.42777777777777776,0.4711111111111111,-0.6555555555555556,0.0017519048592402025,-0.004148444777109469,0.0037022490532420773
1589996319.2062032,-0.15943785031322125,-4.585281074843389,8.605843224530167,0.42777777777777776,0.4711111111111111,-0.6555555555555556,-0.0006987179369254831,-0.004363323129985824,0.003272492347489368
1589996319.2162032,-0.15,-4.605031602708803,8.614989465763731,0.4305614079090377,0.4672140289273472,-0.6555555555555556,-0.0027259278493220315,-0.003270194133651151,0.0016327988529873589
1589996319.2262032,-0.15861575895941601,-4.57692120520292,8.635847276878248,0.43333333333333335,0.4633333333333333,-0.6555555555555556,-0.002181661564992912,-0.0012418280562428489,0.0009398335087500632
1589996319.2362032,-0.16,-4.546954652071931,8.555500390930414,0.43333333333333335,0.4633333333333333,-0.6555555555555556,0.00033219592633492584,-0.0019287832796057352,0.0002528782853871769
1589996319.2462032,-0.1661985491725434,-4.55859564751763,8.54859564751763,0.43333333333333335,0.4633333333333333,-0.6555555555555556,0.00244314443134211,-0.002181661564992912,0.002028470473268481
1589996319.2562032,-0.17,-4.581952870652679,8.607811482610717,0.43333333333333335,0.4633333333333333,-0.6555555555555556,0.001968636422775243,-0.0015297336026358498,0.0026205643851323055
1589996319.2662032,-0.17,-4.59,8.645767682953503,0.43333333333333335,0.46012906502583245,-0.6555555555555556,-0.00016748243937546748,0.00016748243937546748,0.0009233483431209885
1589996319.2762032,-0.17,-4.573658589511754,8.641829294755878,0.43333333333333335,0.4577777777777778,-0.6555555555555556,-0.00019954510299700077,-0.0006917405765024544,0.0
1589996319.2862031,-0.1791555588651426,-4.560844441134857,8.56675552907886,0.43333333333333335,0.4577777777777778,-0.6555555555555556,0.0,-0.00308826387070763,0.001997433088211174
1589996319.2962031,-0.18,-4.5406773287877265,8.627629349242957,0.43333333333333335,0.4577777777777778,-0.6555555555555556,0.0010538882279202825,-0.005380268803329933,0.0011277733370726295
1589996319.3062031,-0.17247934190536185,-4.54,8.645041316189277,0.43333333333333335,0.4577777777777778,-0.6555555555555556,0.001090830782496456,-0.004633777377056035,0.0027315838533489463
1589996319.316203,-0.16145800933125973,-4.565625972006221,8.64145800933126,0.4456717642992915,0.46252332814930014,-0.6498608951097287,-0.000772742490555421,-0.0015679632204080082,0.003272492347489368
1589996319.326203,-0.1774601978332548,-4.587460197833255,8.60507960433349,0.4477777777777778,0.4633333333333333,-0.6488888888888888,-0.001090830782496456,-0.0020431368457460705,0.00041557415774052435
1589996319.336203,-0.17087229048047148,-4.580872290480472,8.554361452402357,0.4477777777777778,0.4633333333333333,-0.6488888888888888,0.0009005265210210729,0.0027967316938009106,0.0
1589996319.346203,-0.16080473514289131,-4.543218940571565,8.62356211885687,0.4477777777777778,0.4633333333333333,-0.6488888888888888,0.0061060697621674745,-0.0017427466321816515,0.0020060955918684074
1589996319.356203,-0.16,-4.545402551570574,8.635402551570575,0.4477777777777778,0.4633333333333333,-0.6488888888888888,0.00713431165069944,-0.0010030076535515048,0.003360315476434319
1589996319.366203,-0.16747968814115716,-4.557479688141157,8.651219532211735,0.4378048602562349,0.4687353303241691,-0.6488888888888888,0.005596046960513209,0.0,0.0031394620198086347
