time,acc_x,acc_y,acc_z,mag_x,mag_y,mag_z,gyr_x,gyr_y,gyr_z
1589996374.6853561,-3.85,-0.81,8.79,0.31222222222222223,-0.3411111111111111,-0.6177777777777778,0.015271630954950384,-0.017453292519943295,0.011999138607461015
1589996374.6953561,-3.8971587587137395,-0.8194317517427478,8.931476276141218,0.31222222222222223,-0.3411111111111111,-0.6177777777777778,0.010127408388023371,-0.0020206248191622575,0.0058260715271485995
1589996374.7053561,-3.8914490905429893,-0.8242993936953263,8.97144909054299,0.310638720470924,-0.3452282156644866,-0.6199946802295953,0.008257655161078336,0.001248902039588197,0.0029615725056877963
1589996374.715356,-3.87,-0.806614341413799,8.956771317172402,0.30666666666666664,-0.3555555555555556,-0.6255555555555555,0.00834020480052749,-0.0007215127220113022,0.0025509796254780657
1589996374.725356,-3.883874698497124,-0.8184995979961656,8.905251407013422,0.30666666666666664,-0.3555555555555556,-0.6255555555555555,0.0019226659948275398,0.006558477561358801,0.0022634957995880138
1589996374.735356,-3.904241954453117,-0.8357580455468833,8.859693681171816,0.30666666666666664,-0.3555555555555556,-0.6255555555555555,-0.002181661564992912,0.014180800172453925,0.0015535562320372117
1589996374.745356,-3.91,-0.8265289663972777,8.906942067205446,0.30666666666666664,-0.3555555555555556,-0.6255555555555555,9.012461556448829e-05,0.010773120901617826,0.001803030534900012
1589996374.755356,-3.907200345152181,-0.8186001725760903,8.92139982742391,0.3094663215144859,-0.3544668008925148,-0.6255555555555555,0.005126810552077496,0.0023782558325474777,0.0009381332980781217
1589996374.765356,-3.89,-0.81,8.913841449877898,0.32666666666666666,-0.3477777777777778,-0.6255555555555555,0.010698789236153106,-0.009376820945625603,0.0
1589996374.775356,-3.896732125420419,-0.8066339372897906,8.863071498318325,0.32666666666666666,-0.3477777777777778,-0.6255555555555555,0.010530416679417072,-0.008726646259971648,0.001101541446032957
1589996374.785356,-3.9134395593587095,-0.793120881282581,8.834076915510968,0.32666666666666666,-0.3477777777777778,-0.6255555555555555,0.007260617754804777,-0.009101843982642063,0.004398085515500612
1589996374.795356,-3.91385877980799,-0.7861412201920099,8.89842366057603,0.32666666666666666,-0.3477777777777778,-0.6255555555555555,0.006098382559809855,-0.010933982380390306,0.007661490032900936
1589996374.805356,-3.881677160568859,-0.8079192901422148,8.97,0.32366119687208783,-0.34523468795159573,-0.6225500857609767,0.004363323129985824,-0.013682839301329132,0.013360960024850658
1589996374.815356,-3.853289032461946,-0.8049335486929196,8.971644516230974,0.31222222222222223,-0.33555555555555555,-0.6111111111111112,0.0032869897737494817,-0.006918259906650964,0.019082289980557922
1589996374.825356,-3.8680164679857443,-0.8270247019786162,8.979008233992873,0.31222222222222223,-0.33555555555555555,-0.6111111111111112,-0.0015325522312276624,-0.0037052319033328684,0.021492060983046492
1589996374.835356,-3.8983707953165996,-0.81,8.881629204683401,0.31222222222222223,-0.33555555555555555,-0.6111111111111112,-0.00020223747267609637,-0.0015994679576766477,0.01402760032120188
1589996374.845356,-3.890158593413479,-0.81,8.889841406586521,0.31222222222222223,-0.33555555555555555,-0.6111111111111112,0.004276823841324065,-0.00966177832287694,0.007756914481601654
1589996374.855356,-3.88,-0.7946673336668335,8.905332666333166,0.31004965445685806,-0.33555555555555555,-0.6073584940618457,0.00833884382070494,-0.015465532174583737,0.009817477042468105
1589996374.865356,-3.88,-0.7713540103385026,8.928645989661497,0.30055163384161215,-0.33555555555555555,-0.5909528220900574,0.0066434511054492065,-0.016313228532211604,0.009817477042468105
1589996374.875356,-3.87,-0.7871828621672751,8.833978577709093,0.3,-0.33555555555555555,-0.59,0.00658721584061747,-0.015663395312875025,0.001440363994782363
1589996374.885356,-3.8782509725185093,-0.7723764587777638,8.828878403814782,0.3,-0.33555555555555555,-0.59,0.00256324016824139,-0.010580634248965057,0.003081703045865129
1589996374.895356,-3.89,-0.7828983563848129,8.887754109037967,0.3,-0.33555555555555555,-0.59,-0.0011620037192648354,-0.004292150193217444,0.003975988556897545
1589996374.905356,-3.887317974142121,-0.7753640517157577,8.936092155147273,0.30715206895434366,-0.33883358715962975,-0.5938740373502694,-0.0038576196205345166,-0.0015965342919477634,0.002687365074444219
1589996374.915356,-3.8765696819349693,-0.7934303180650306,8.97656968193497,0.32666666666666666,-0.3477777777777778,-0.6044444444444445,-0.005828343566391182,0.0014967586156356084,0.0018392100903142604
1589996374.925356,-3.8735468590584463,-0.8,8.948718845649323,0.32666666666666666,-0.3477777777777778,-0.6044444444444445,-0.006544984694978735,0.0033960673694534214,0.003272492347489368
1589996374.935356,-3.881117532393074,-0.804441233803463,8.872206169017314,0.32666666666666666,-0.3477777777777778,-0.6044444444444445,-0.007513911603994966,0.00036255958102789,0.0023035654384731376
1589996374.945356,-3.880074737281384,-0.8032835084790774,8.906716491520923,0.32666666666666666,-0.3477777777777778,-0.6044444444444445,-0.007993990689831762,0.002181661564992912,0.0014571585675663989
1589996374.955356,-3.898523042162254,-0.7929539156754913,8.924430873513236,0.32272811243267824,-0.34597260708719973,-0.6054290830029415,-0.006222762480206261,0.002503883779765387,0.0016983282428341996
1589996374.9653559,-3.89,-0.8096408327983124,8.950359167201688,0.3,-0.33555555555555555,-0.6111111111111112,-0.004324144066019428,0.004324144066019428,-0.0009732935905972689
1589996374.9753559,-3.89,-0.8019469870677796,8.95805301293222,0.3,-0.33555555555555555,-0.6111111111111112,-0.0034848756901550084,0.0034848756901550084,0.001544511536995991
1589996374.9853559,-3.87,-0.7710615089056039,8.785307544528019,0.3,-0.33555555555555555,-0.6111111111111112,-0.002644832201043636,-0.000627660146445732,-0.00034737797703804303
1589996374.9953558,-3.875534360619427,-0.7855343606194268,8.84660308185828,0.3,-0.33555555555555555,-0.6111111111111112,-0.008356099972510802,0.005989165263787467,-0.001461377069957302
1589996375.0053558,-3.8871379273918096,-0.8014310363040953,8.897155181520477,0.30174904437167194,-0.3373045999272275,-0.6090440586718625,-0.013714376770508279,0.014026580460783682,0.003272492347489368
1589996375.0153558,-3.8772972916968858,-0.81,8.943648645848443,0.31222222222222223,-0.3477777777777778,-0.5966666666666667,-0.01864730908171608,0.020430965126118066,0.003670497868080296
1589996375.0253558,-3.896955629016693,-0.8123185430055644,8.938407284972177,0.31222222222222223,-0.3477777777777778,-0.5966666666666667,-0.02072578486743266,0.023081184690434835,0.0038574955137835373
1589996375.0353558,-3.92,-0.82,8.902768056191785,0.31222222222222223,-0.3477777777777778,-0.5966666666666667,-0.02027286273218081,0.0263649252919077,0.002181661564992912
1589996375.0453558,-3.913489085247301,-0.8134890852473009,8.926510914752699,0.31222222222222223,-0.3477777777777778,-0.5966666666666667,-0.015559344190755449,0.018121605914799374,0.0019449180238444311
1589996375.0553558,-3.893599260231099,-0.7935992602310987,8.946400739768901,0.31222222222222223,-0.3477777777777778,-0.5966666666666667,-0.009773628621117733,0.010166247006547516,0.0012217035776397166
1589996375.0653558,-3.8915751882776686,-0.8,8.914725564833006,0.31222222222222223,-0.3411111111111111,-0.5755555555555556,-0.002413360416735109,0.0007471780101947524,0.0012626571686473079
1589996375.0753558,-3.9,-0.8005174023203094,8.937154287238299,0.31222222222222223,-0.3411111111111111,-0.5755555555555556,0.001955902213821489,-0.0009497311880143167,0.0020687818894072007
1589996375.0853558,-3.910610236630877,-0.8253051183154383,8.856525591577192,0.31222222222222223,-0.3411111111111111,-0.5755555555555556,-0.0062556353768154415,0.004942021766312412,-0.002471010883156206
1589996375.0953557,-3.9370545054945056,-0.834109010989011,8.932945494505494,0.31222222222222223,-0.3411111111111111,-0.5755555555555556,-0.004168939481975246,0.004938466656844944,-0.002629885132235852
1589996375.1053557,-3.9193524735346212,-0.8012950529307575,8.95,0.31222222222222223,-0.3411111111111111,-0.5764908715611027,0.003766931608130757,-0.005352201651268602,0.0009495624223132019
1589996375.1153557,-3.910714050335709,-0.8185718993285825,8.95,0.31222222222222223,-0.3411111111111111,-0.5889685939595318,0.010363072164454477,-0.018544482763916046,-0.0009350491652078614
1589996375.1253557,-3.8736494687158505,-0.808175265642075,8.857226859494524,0.31222222222222223,-0.3411111111111111,-0.59,0.015566271174445402,-0.02836160034490785,0.0006927355009957382
1589996375.1353557,-3.8935357906261405,-0.7982321046869298,8.814143162504562,0.31222222222222223,-0.3411111111111111,-0.59,0.01122774875636973,-0.026818820642725283,-0.001283678245269277
1589996375.1453557,-3.905698215026982,-0.7943017849730178,8.892905354919055,0.31222222222222223,-0.3411111111111111,-0.59,0.007401189504062764,-0.017992572271049216,-0.002181661564992912
1589996375.1553557,-3.89,-0.8111194009604168,8.944477603841667,0.31222222222222223,-0.3411111111111111,-0.5931094471122687,0.0064228769924208695,-0.012243354012576747,-0.002059553862435046
1589996375.1653557,-3.8944776119402986,-0.8177611940298507,8.975522388059701,0.31222222222222223,-0.3411111111111111,-0.6177777777777778,0.005698369759309844,-0.015890311100246877,-0.0008466149356688912
1589996375.1753557,-3.9034360150745537,-0.8132819924627233,8.945231033917747,0.31222222222222223,-0.3411111111111111,-0.6177777777777778,0.007798019137169691,-0.02324865501243307,-0.00017900492031299372
1589996375.1853557,-3.8759459282320172,-0.8270270358839914,8.883378338522038,0.31222222222222223,-0.3411111111111111,-0.6177777777777778,0.013045749901904114,-0.029246061600700986,-0.000928680743846483
1589996375.1953557,-3.8534301534874684,-0.8,8.886860306974938,0.31222222222222223,-0.3411111111111111,-0.6177777777777778,0.017328568619516024,-0.03453241333860478,-0.0038644275282767393
1589996375.2053556,-3.8778772100252574,-0.8,8.935754420050515,0.31222222222222223,-0.3411111111111111,-0.6177777777777778,0.016439648559087642,-0.03186565315731963,-0.00030874728656320877
1589996375.2153556,-3.87,-0.7581629128588904,8.956122184644167,0.3,-0.3411111111111111,-0.6044444444444445,0.009795263247300333,-0.019167522458702745,-2.221379516776983e-05
1589996375.2253556,-3.87,-0.7883442469597756,8.978758185219831,0.3,-0.3411111111111111,-0.6044444444444445,0.005679922210543403,-0.013406045007243043,-0.004137554831924701
1589996375.2353556,-3.8898699937616965,-0.7874674984404242,8.885195009357455,0.3,-0.3411111111111111,-0.6044444444444445,0.0019195899798681241,-0.010369983174049217,-0.001367083848287012
1589996375.2453556,-3.8577558033129775,-0.7867325900610679,8.93,0.3,-0.3411111111111111,-0.6044444444444445,0.0041185192471677404,-0.0137127657871876,-0.0019368576821748285
1589996375.2553556,-3.8500905165800954,-0.81,8.93018103316019,0.2999396556132699,-0.3411111111111111,-0.6045047888311745,0.003282366174678774,-0.019644827912125618,-0.0011007046096858622
1589996375.2653556,-3.8592830999189074,-0.81,8.948566199837815,0.29381126672072816,-0.3411111111111111,-0.6106331777237163,0.004285121462342851,-0.02064758319978969,-0.0021034598973499394
1589996375.2753556,-3.8466834487098804,-0.79,8.86663310258024,0.2933333333333333,-0.3411111111111111,-0.6111111111111112,0.004968119806750693,-0.01563341057884946,-0.0014526104063955323
1589996375.2853556,-3.868556191157192,-0.79,8.824331426528424,0.2933333333333333,-0.3411111111111111,-0.6111111111111112,0.0033512399039781334,-0.012381241381558585,0.001090830782496456
1589996375.2953556,-3.8519812185906606,-0.7860375628186788,8.899812185906606,0.2933333333333333,-0.3411111111111111,-0.6111111111111112,0.003066618594657694,-0.0028402575023799915,0.0013069482050511443
1589996375.3053555,-3.85967407651957,-0.7706518469608599,8.976740765195702,0.2933333333333333,-0.3411111111111111,-0.6111111111111112,-0.0019683451458781115,-0.0011619362555347229,0.002146108828473778
1589996375.3153555,-3.861453205831635,-0.79,8.941453205831635,0.30666666666666664,-0.3477777777777778,-0.59,-0.003272492347489368,-0.002181661564992912,-0.001090830782496456
1589996375.3253555,-3.8696721664837748,-0.79,8.949672166483774,0.30666666666666664,-0.3477777777777778,-0.59,-0.003272492347489368,-0.002181661564992912,-0.001090830782496456
1589996375.3353555,-3.86,-0.8277480842450238,8.876755747264928,0.30666666666666664,-0.3477777777777778,-0.59,-0.006328490350079203,0.00608284444756753,0.001090830782496456
1589996375.3453555,-3.8614964156336455,-0.8140143374654173,8.9,0.30666666666666664,-0.3477777777777778,-0.59,-0.012763502142639545,0.01232560585477894,0.0012540644061554184
1589996375.3553555,-3.867907463735995,-0.7883701450560201,8.9,0.30666666666666664,-0.3477777777777778,-0.59,-0.011364828419017918,0.013724279578400566,0.001953401267966232
1589996375.3653555,-3.88,-0.7902881992126706,8.958270804723977,0.3,-0.3477777777777778,-0.5966666666666667,-0.011999138607461015,0.011999138607461015,0.0021187862504584644
1589996375.3753555,-3.88,-0.7979679575208276,8.912192254875034,0.3,-0.3477777777777778,-0.5966666666666667,-0.011999138607461015,0.011999138607461015,0.000443322897524331
1589996375.3853555,-3.87,-0.82,8.842079839518556,0.3,-0.3477777777777778,-0.5966666666666667,-0.00866992743573432,0.004249885481511167,0.002181661564992912
1589996375.3953555,-3.87,-0.82,8.87573520561685,0.3,-0.3477777777777778,-0.5966666666666667,-0.007752119702329127,0.0024142700147007823,0.002181661564992912
1589996375.4053555,-3.860418290736914,-0.82,8.947071964841603,0.3,-0.3477777777777778,-0.5966666666666667,-0.008681017818785788,0.01263368497809888,0.0011364592236823151
1589996375.4153554,-3.8773057372654156,-0.82,8.967305737265416,0.3,-0.3545077867143283,-0.6216638427167114,-0.007782764713826082,0.012146087843811906,0.001090830782496456
1589996375.4253554,-3.88,-0.8168613375074215,8.943722675014843,0.3,-0.3555555555555556,-0.6255555555555555,-0.008270146304935439,0.016134211759928734,0.0
1589996375.4353554,-3.88,-0.7942224861013656,8.898444972202732,0.3,-0.3555555555555556,-0.6255555555555555,-0.004977458839056893,0.01448786802698946,0.0
1589996375.4453554,-3.907907404380517,-0.81,8.912092595619484,0.3,-0.3555555555555556,-0.6255555555555555,-0.0031583589616368765,0.006316717923273752,0.0002282667717049833
1589996375.4553554,-3.8907682249101017,-0.81,8.929231775089898,0.3,-0.3555555555555556,-0.6255555555555555,-0.0022235617339838674,0.004447123467967736,0.0020978612270110006
1589996375.4653554,-3.8887704671774075,-0.794918131290371,8.94491813129037,0.31222222222222223,-0.33555555555555555,-0.6044444444444445,-0.003960959454693643,0.0026018862220024003,0.001779297889700731
1589996375.4753554,-3.881457643560598,-0.8285423564394019,8.956677703030431,0.31222222222222223,-0.33555555555555555,-0.6044444444444445,-0.0006138180427540212,-0.0026586743047353465,-0.0009318265359156444
1589996375.4853554,-3.8888485285863204,-0.8188485285863202,8.82230294282736,0.31222222222222223,-0.33555555555555555,-0.6044444444444445,0.002349136293420454,-0.0055797599588029365,-0.00012560604632065679
1589996375.4953554,-3.860976416097936,-0.7909764160979362,8.88292924829381,0.31222222222222223,-0.33555555555555555,-0.6044444444444445,0.005905921853286404,-0.008300604365510094,-0.0029529609266432024
1589996375.5053554,-3.8678409518665817,-0.7978409518665815,8.903522855599745,0.31222222222222223,-0.33555555555555555,-0.6044444444444445,0.0014130936988946087,-0.005305385595915563,-0.0007065468494473043
1589996375.5153553,-3.8612334086027427,-0.79,8.94917772759817,0.3,-0.3477777777777778,-0.6111111111111112,-0.0024059015768708664,0.0044978671371125965,0.0031379483403625955
1589996375.5253553,-3.8872090836060114,-0.7927909163939887,8.923022709015028,0.3,-0.3477777777777778,-0.6111111111111112,-0.007179152850384664,0.007635815477475192,0.00030444175139368536
1589996375.5353553,-3.8707727726943197,-0.8092272273056802,8.8819319317358,0.3,-0.3477777777777778,-0.6111111111111112,-0.004489767766411339,0.007635815477475192,0.002097365140709235
1589996375.5453553,-3.8966307826592956,-0.8455077102123946,8.904492289787605,0.3,-0.3477777777777778,-0.6111111111111112,0.0031617271618358143,-0.0008693004111893492,0.0
1589996375.5553553,-3.8737494544661044,-0.8149992726214723,8.935000727378528,0.3,-0.3477777777777778,-0.6111111111111112,0.00981763573184583,-0.014181117551209382,0.0
1589996375.5653553,-3.862457091237579,-0.7873712737127372,8.94,0.3092191107096256,-0.35364448459299413,-0.6111111111111112,0.01090830782496456,-0.014716854323924632,-0.0008228037067611026
1589996375.5753553,-3.86,-0.7708476928805985,8.952370764074614,0.31222222222222223,-0.3555555555555556,-0.6111111111111112,0.006175108899674747,-0.008264301515841663,0.002181661564992912
1589996375.5853553,-3.86,-0.7779472900233589,8.888474389789769,0.31222222222222223,-0.3555555555555556,-0.6111111111111112,0.003077325257015968,-0.0043920719625181875,0.002181661564992912
1589996375.5953553,-3.87,-0.7906273850455284,8.881254770091058,0.31222222222222223,-0.3555555555555556,-0.6111111111111112,0.0008855195064543621,-0.001976350288950818,-0.0001368741840280625
1589996375.6053553,-3.87,-0.7985510258057203,8.89710205161144,0.31222222222222223,-0.3555555555555556,-0.6111111111111112,-0.0017074858687439333,0.0006166550862474773,-0.0018655444341602592
1589996375.6153553,-3.8827544632506377,-0.8041316948759565,8.954491073498726,0.32666666666666666,-0.33555555555555555,-0.6111111111111112,-0.0031222596823368303,0.00545415391248228,-0.0007903654521913807
1589996375.6253552,-3.9011643516817323,-0.83,8.914178241591337,0.32666666666666666,-0.33555555555555555,-0.6111111111111112,-0.0012925841057332271,0.004311054322005542,0.0009638197168879295
1589996375.6353552,-3.9073800976610404,-0.8260701464915605,8.880479609355838,0.32666666666666666,-0.33555555555555555,-0.6111111111111112,0.006025727936176603,-0.005220684165527309,0.0
1589996375.6453552,-3.8894172603976527,-0.7994172603976526,8.951165479204695,0.32666666666666666,-0.33555555555555555,-0.6111111111111112,0.01007174516103624,-0.011671112180668965,-6.356702964203375e-05
1589996375.6553552,-3.8811849104005964,-0.7911849104005967,8.967630179198807,0.32666666666666666,-0.33555555555555555,-0.6111111111111112,0.013663785476665502,-0.02244723312755676,-0.00096157710854935
1589996375.6653552,-3.8446775272498326,-0.79,8.934677527249834,0.32666666666666666,-0.3441899377833742,-0.6111111111111112,0.011868949737067445,-0.025539510838513017,0.0012210196528900242
1589996375.6753552,-3.83,-0.7632939122414021,8.893293912241402,0.32666666666666666,-0.3477777777777778,-0.6111111111111112,0.0021687610428254255,-0.013556148983491749,0.00023954005785088196
1589996375.6853552,-3.846170711787741,-0.7842560676816117,8.801061085167424,0.32666666666666666,-0.3477777777777778,-0.6111111111111112,-0.005964973294682052,0.004758396075837945,0.0
1589996375.6953552,-3.89,-0.8094340830865285,8.920282958456736,0.32666666666666666,-0.3477777777777778,-0.6111111111111112,-0.018451525364007227,0.017453292519943295,0.0021199296060378974
1589996375.7053552,-3.89,-0.7926474825902505,8.928676258704874,0.32666666666666666,-0.3477777777777778,-0.6111111111111112,-0.015704824280785696,0.017453292519943295,0.00028879555055687407
1589996375.7153552,-3.875790362802671,-0.8042096371973293,8.951314455795995,0.3077204837368943,-0.3477777777777778,-0.6063745653786681,-0.01449661547180271,0.015903261553647952,0.0
1589996375.7253551,-3.88,-0.8099207927641251,8.999405945730938,0.3,-0.3477777777777778,-0.6044444444444445,-0.01090830782496456,0.015267310870395939,0.002181661564992912
1589996375.7353551,-3.88,-0.7954134168064612,8.890600626048458,0.3,-0.3477777777777778,-0.6044444444444445,-0.01090830782496456,0.014476056257002497,0.002181661564992912
1589996375.7453551,-3.86,-0.799977782497182,8.89,0.3,-0.3477777777777778,-0.6044444444444445,-0.014192917940445979,0.02292441130761445,-0.001081136568102813
1589996375.7553551,-3.86,-0.7931258066097071,8.89,0.3,-0.3477777777777778,-0.6044444444444445,-0.01793009104993652,0.028156453660901203,0.0019086019194896173
1589996375.765355,-3.879176895913906,-0.7995884479569532,8.957119135698672,0.31171921416960935,-0.36162775816004333,-0.5905944640621789,-0.024864641178841042,0.03681888642258657,0.004318429766270336
1589996375.775355,-3.9105624459809856,-0.8011248919619707,8.925500432152118,0.31222222222222223,-0.3622222222222222,-0.59,-0.0226620330766055,0.033140867528884926,0.004486029807895862
1589996375.785355,-3.919625324114088,-0.8192506482281763,8.852997407087294,0.31222222222222223,-0.3622222222222222,-0.59,-0.018707606498364455,0.02226619443872206,0.0064632430970163815
1589996375.795355,-3.904486670010417,-0.8277566649947914,8.85775666499479,0.31222222222222223,-0.3622222222222222,-0.59,-0.011775156145774757,0.019278252966179743,0.004852742905812487
1589996375.805355,-3.8923899181603656,-0.8223899181603654,8.898050409198172,0.31222222222222223,-0.3622222222222222,-0.59,-0.011477739348066214,0.015223598691243529,0.004363323129985824
1589996375.815355,-3.89,-0.82,8.957664059743621,0.31222222222222223,-0.34209739699713826,-0.596355207965816,-0.014078875550944642,0.011061194757228485,0.007482928545211267
1589996375.825355,-3.8803540098004063,-0.82,8.940708019600812,0.31222222222222223,-0.3411111111111111,-0.5966666666666667,-0.015233014476191516,0.01406495073617732,0.004479172566262428
1589996375.835355,-3.863822641584871,-0.82,8.842935849509226,0.31222222222222223,-0.3411111111111111,-0.5966666666666667,-0.017036307008820466,0.023886518468739387,0.0017163090491806982
1589996375.845355,-3.9091440539063926,-0.8003423784374432,8.908459297031506,0.31222222222222223,-0.3411111111111111,-0.5966666666666667,-0.022814077197719086,0.03154072345769074,0.0043073015891619305
1589996375.855355,-3.91,-0.8083882019055342,8.918388201905534,0.31222222222222223,-0.3411111111111111,-0.5966666666666667,-0.023822457317260782,0.03346411446206764,0.0034483122451506153
1589996375.865355,-3.917291291291291,-0.8172912912912913,8.956456456456458,0.31222222222222223,-0.3411111111111111,-0.5918058058058058,-0.026384346710328695,0.029838971765045692,0.003272492347489368
1589996375.875355,-3.919862823620332,-0.8294512944813293,8.88945129448133,0.31222222222222223,-0.3411111111111111,-0.59,-0.020710821245675366,0.026090157049371183,0.0055140083995114525
1589996375.885355,-3.9124958724136722,-0.7999834896546879,8.859983489654688,0.31222222222222223,-0.3411111111111111,-0.59,-0.01990721153073792,0.021268498759746478,0.008728447259261259
1589996375.895355,-3.889934504720177,-0.7599476037761417,8.910026198111929,0.31222222222222223,-0.3411111111111111,-0.59,-0.021813757879235555,0.01308996938995747,0.014200804567308867
1589996375.905355,-3.8583590044717466,-0.7346872035773974,8.922656398211302,0.31222222222222223,-0.3411111111111111,-0.59,-0.020436016773487064,0.01308996938995747,0.023844992307548326
1589996375.915355,-3.6540691927512357,-0.5547281713344316,8.833591433278418,0.299214717188358,-0.3411111111111111,-0.6045377997437306,-0.02414204403963326,0.02510887593581628,0.046729609287076354
1589996375.925355,-3.7440516172214893,-0.5067771718802292,8.756528535149714,0.2933333333333333,-0.3411111111111111,-0.6111111111111112,-0.04735672721240047,0.06486426385220491,0.07790902980894476
1589996375.935355,-4.088832453606878,-0.7287358496829666,9.2326166052518,0.2933333333333333,-0.3411111111111111,-0.6111111111111112,-0.07967279853580653,0.09000934633604459,0.14318425986246636
1589996375.945355,-3.858826256224536,-0.5892454504300588,8.955101674966048,0.2933333333333333,-0.3411111111111111,-0.6111111111111112,-0.019730299312407648,0.0047277761633555265,0.20419570050072236
1589996375.955355,-3.6381521500141343,-0.5967292772560229,8.918814272701574,0.2933333333333333,-0.3411111111111111,-0.6111111111111112,0.015245762398214985,-0.023569270328983087,0.26559898197023796
1589996375.965355,-3.3261796373659505,-0.6154451096085103,9.006387225978724,0.30707961870307365,-0.3459627412416077,-0.6062594809806146,0.01318707724246706,-0.009017969817500419,0.2559341580717378
1589996375.975355,-2.7784236516385556,-0.6006047585455012,9.010604758545501,0.31222222222222223,-0.3477777777777778,-0.6044444444444445,0.033521237641324586,0.000695017240050169,0.17587825751381692
1589996375.985355,-2.099163733044484,-0.8169454223185052,8.91138844440068,0.31222222222222223,-0.3477777777777778,-0.6044444444444445,0.037057955447038576,0.01830179403971239,0.038951152812096074
1589996375.995355,-1.7562038066583818,-0.9823873373013278,8.846849368827261,0.31222222222222223,-0.3477777777777778,-0.6044444444444445,0.03216777143221497,0.04511468923482824,-0.09478048802253008
1589996376.005355,-1.6948708487084871,-1.0167527675276753,8.915387453874539,0.31222222222222223,-0.3477777777777778,-0.6044444444444445,0.04077130994799484,0.07997681482443574,-0.23517667637689277
1589996376.0153549,-1.680317420435511,-0.9134916247906197,8.910634840871023,0.3068430113530616,-0.34239856690861714,-0.6044444444444445,0.06894754012465142,0.09673768766013587,-0.38213757401198034
1589996376.0253549,-1.6614669815605414,-0.8729339631210827,8.613471704968662,0.30666666666666664,-0.3422222222222222,-0.6044444444444445,0.0667807120288228,0.11426786859757009,-0.4953225868379593
1589996376.0353549,-1.6881392193443656,-0.8512405204370896,8.665037918251642,0.30666666666666664,-0.3422222222222222,-0.6044444444444445,0.021521158636445055,0.068562202071702,-0.604234568590458
1589996376.0453548,-1.7469400611368142,-0.8255971166556509,8.905894538995375,0.30666666666666664,-0.3422222222222222,-0.6044444444444445,0.001685159624438666,0.06278790531641876,-0.6800757206655987
1589996376.0553548,-2.176151281756524,-0.9551140525183519,8.803267699078711,0.30666666666666664,-0.3422222222222222,-0.6044444444444445,0.018452457903887626,0.05097597546204855,-0.742524194605355
1589996376.0653548,-2.53,-1.0799785561115083,8.824667619728377,0.31331903740767214,-0.34166785799380506,-0.6005638948455246,0.030010711928167323,0.02185872062652298,-0.8158689111809929
1589996376.0753548,-2.5965957677464115,-1.1263249642253155,9.113191535492824,0.32,-0.3411111111111111,-0.5966666666666667,0.012771366955739317,0.046428896115889504,-0.8847587233139558
1589996376.0853548,-2.6231507238149305,-1.0910275333522566,8.854589838206074,0.32,-0.3411111111111111,-0.5966666666666667,0.051403426726128056,0.07342935307970963,-0.9424926583754221
1589996376.0953548,-2.691967656397195,-1.0734574857820733,8.803085028435854,0.32,-0.3411111111111111,-0.5966666666666667,0.0478631740007851,0.08307714869263194,-0.9839929827007095
1589996376.1053548,-2.7857349792165262,-1.0630331275979343,8.886635596422723,0.32,-0.3411111111111111,-0.5966666666666667,0.0323319550861873,0.07315793563441624,-1.0404718834837348
1589996376.1153548,-2.7868508534685033,-1.0831491465314969,8.925787286632874,0.3238581910885828,-0.3411111111111111,-0.6011678896033467,0.0289928953855348,0.0734849231791802,-1.0822668298641438
1589996376.1253548,-2.739592737775944,-1.130407262224056,8.838778213327831,0.32666666666666666,-0.3411111111111111,-0.6044444444444445,0.03525703721535667,0.08268596354542508,-1.132158978302094
1589996376.1353548,-2.7130692814132753,-1.14,8.742277125653102,0.32666666666666666,-0.3411111111111111,-0.6044444444444445,0.033394536804042654,0.08214711535180869,-1.175343217481321
1589996376.1453547,-2.785901779969976,-1.199034717754426,8.805901779969977,0.32666666666666666,-0.3411111111111111,-0.6044444444444445,0.033644879008643935,0.088251997423486,-1.2154080921924213
1589996376.1553547,-2.821095669807945,-1.2029681100640184,8.805936220128038,0.32666666666666666,-0.3411111111111111,-0.6044444444444445,0.04225341645881542,0.09251636496522768,-1.242441101799529
1589996376.1653547,-2.8633187382442724,-1.2666374764885449,8.874967161049614,0.3488791588295149,-0.32630278300254556,-0.5979658008969471,0.04218038233377172,0.0919941920291555,-1.2766244812409908
1589996376.1753547,-2.9252252797097067,-1.311557302691261,8.92155730269126,0.3533333333333333,-0.3233333333333333,-0.5966666666666667,0.04231216166456997,0.09076919379999765,-1.3084045192541796
1589996376.1853547,-2.9646470708412074,-1.35286276112161,8.888921548597988,0.3533333333333333,-0.3233333333333333,-0.5966666666666667,0.04702336444602176,0.09322753330440184,-1.3370505505482937
1589996376.1953547,-2.949561878776067,-1.4008762424478658,8.86637458585071,0.3533333333333333,-0.3233333333333333,-0.5966666666666667,0.05022600760659009,0.09975665576601794,-1.3595574878846088
1589996376.2053547,-2.9358690107193595,-1.4282619785612811,8.872392967841922,0.3533333333333333,-0.3233333333333333,-0.5966666666666667,0.04946656266953918,0.10253809355466686,-1.3796179479512183
1589996376.2153547,-2.93,-1.4459976387249114,8.882003148366785,0.35822029822029816,-0.3204455813546722,-0.6026643053915781,0.04712380394546181,0.10253809355466686,-1.4006250075577478
1589996376.2253547,-2.93,-1.4836128202454202,8.84319358987729,0.37777777777777777,-0.3088888888888889,-0.6266666666666667,0.04725409026182931,0.10328055772268163,-1.4358991572777469
1589996376.2353547,-2.9627134724857687,-1.5292561669829223,8.781115749525616,0.37777777777777777,-0.3088888888888889,-0.6266666666666667,0.041196145600975266,0.10077413531397714,-1.4613886901644246
1589996376.2453547,-2.9752669702384384,-1.5594660595231233,8.77839817856937,0.37777777777777777,-0.3088888888888889,-0.6266666666666667,0.03817907738737596,0.09926560120717748,-1.4792168835544743
1589996376.2553546,-2.974203674236945,-1.5868146969477797,8.81,0.37777777777777777,-0.3088888888888889,-0.6266666666666667,0.04001327629027467,0.10201689956152556,-1.4958622639935326
1589996376.2653546,-2.98,-1.6287056010928962,8.81,0.38713057832422587,-0.29070288782635095,-0.6225098664238009,0.04560309733894635,0.10683081817601776,-1.5109577573513475
1589996376.2753546,-2.943385589388001,-1.708583056979198,8.839291528489598,0.3977777777777778,-0.27,-0.6177777777777778,0.05467900287733515,0.10319943232572516,-1.5261324462118475
1589996376.2853546,-2.947821026553381,-1.7418806843689207,8.814357946893237,0.3977777777777778,-0.27,-0.6177777777777778,0.0534832466331299,0.10274324439484472,-1.532584711116717
1589996376.2953546,-2.9534831753113964,-1.789100948131623,8.84213459750883,0.3977777777777778,-0.27,-0.6177777777777778,0.05126904677733343,0.1064724255269481,-1.5411967886495292
1589996376.3053546,-2.9250052751721625,-1.8349947248278375,8.832507912758244,0.3977777777777778,-0.27,-0.6177777777777778,0.05058742139627759,0.10935549822926083,-1.548024514920261
1589996376.3153546,-2.894425893074542,-1.8811482138509166,8.833361160388188,0.4445000985541526,-0.24923452409938893,-0.612586408802625,0.05017821599483697,0.10847503750772396,-1.550070541927464
1589996376.3253546,-2.89,-1.929729560731593,8.816162263561045,0.4577777777777778,-0.2433333333333333,-0.6111111111111112,0.046711157769150254,0.10885901202357083,-1.550070541927464
1589996376.3353546,-2.8600445969125214,-1.9549777015437393,8.727622641509434,0.4577777777777778,-0.2433333333333333,-0.6111111111111112,0.04581489286485115,0.11071689203914113,-1.5533381695064552
1589996376.3453546,-2.8568982956444247,-2.001389773866548,8.755186365155396,0.4577777777777778,-0.2433333333333333,-0.6111111111111112,0.047319867511991076,0.1112647398146385,-1.5589487889988696
1589996376.3553545,-2.86,-2.0396511725763014,8.79179070354578,0.4577777777777778,-0.2433333333333333,-0.6111111111111112,0.047567832350676464,0.1112647398146385,-1.5631224601482665
1589996376.3653545,-2.86,-2.0690658662477555,8.809439519748654,0.4577777777777778,-0.2433333333333333,-0.6111111111111112,0.04692610328438595,0.1112647398146385,-1.566331105479719
1589996376.3753545,-2.7946254659487604,-2.124499733743565,8.804499733743565,0.4777777777777778,-0.21333333333333332,-0.6322222222222222,0.05345070834232633,0.11226014468672012,-1.5778184410419496
1589996376.3853545,-2.7638142653932127,-2.1822332859174964,8.77934769355822,0.4777777777777778,-0.21333333333333332,-0.6322222222222222,0.05646451352802473,0.11168081162499123,-1.5942772296862366
1589996376.3953545,-2.7632489500429265,-2.24512657493561,8.736751049957073,0.4777777777777778,-0.21333333333333332,-0.6322222222222222,0.061366135107228464,0.11481684344955478,-1.606364542961183
1589996376.4053545,-2.7579294242504644,-2.3068941363756963,8.791376492438312,0.4777777777777778,-0.21333333333333332,-0.6322222222222222,0.059356591807825466,0.11720784292424191,-1.624095609648923
1589996376.4153545,-2.74440872656891,-2.3666934550733174,8.825551090821113,0.483215333440861,-0.1980093128282807,-0.6416143638220932,0.0545415391248228,0.11683912309344521,-1.6465577179808146
1589996376.4253545,-2.7,-2.41064126680119,8.77743493279524,0.49,-0.17888888888888888,-0.6533333333333333,0.05570232126397238,0.1179496272229235,-1.672572566133983
1589996376.4353545,-2.677050072274285,-2.438359942180572,8.703280115638856,0.49,-0.17888888888888888,-0.6533333333333333,0.055221131432658964,0.118990006569839,-1.6963487335095073
1589996376.4453545,-2.636768334738294,-2.486463330523412,8.699694995785118,0.49,-0.17888888888888888,-0.6533333333333333,0.05345070834232633,0.1174488868153383,-1.718713616223199
1589996376.4553545,-2.588490806440983,-2.545377298389754,8.763868104830737,0.49,-0.17888888888888888,-0.6533333333333333,0.05579699738641133,0.12199804407631203,-1.7523577430423853
1589996376.4653544,-2.556108341641741,-2.598620804253905,8.805566633433035,0.5185550755141981,-0.14724677818396661,-0.6587356449171006,0.06008704875587906,0.12729404319744453,-1.7786023097806671
1589996376.4753544,-2.5446966434042,-2.6253033565957997,8.803483217021,0.5311111111111111,-0.13333333333333333,-0.6611111111111111,0.061086523819801536,0.12936272093966156,-1.7950122764896592
1589996376.4853544,-2.5352134823146364,-2.67307865916827,8.732134823146366,0.5311111111111111,-0.13333333333333333,-0.6611111111111111,0.061086523819801536,0.1293333096499273,-1.8131102916638067
1589996376.4953544,-2.5057445919113803,-2.734553244853172,8.713957571324068,0.5311111111111111,-0.13333333333333333,-0.6611111111111111,0.06267403656690632,0.12921471429919013,-1.8307158012871017
1589996376.5053544,-2.483277651294541,-2.7762212103563297,8.756555302589081,0.5311111111111111,-0.13333333333333333,-0.6611111111111111,0.0640014798746534,0.1319723027774872,-1.8445037436785872
1589996376.5153544,-2.4818860616757368,-2.8218860616757366,8.77,0.5360696289759387,-0.10989306706323915,-0.6638157572191989,0.060612905277379184,0.13461473293163329,-1.8586009878184562
1589996376.5253544,-2.4499461802113136,-2.8551210945245447,8.764986545052828,0.5433333333333333,-0.07555555555555556,-0.6677777777777778,0.0567232006898157,0.13252860153804355,-1.8680609243886774
1589996376.5353544,-2.400630492930837,-2.929369507069163,8.706155903706534,0.5433333333333333,-0.07555555555555556,-0.6677777777777778,0.056189247983519194,0.1324786266485608,-1.872956453546415
1589996376.5453544,-2.37,-2.96359501530579,8.646404984694211,0.5433333333333333,-0.07555555555555556,-0.6677777777777778,0.056808835915049795,0.13526301702956053,-1.8713878322027742
1589996376.5553544,-2.3319308445532436,-2.9803824969400248,8.671147490820074,0.5433333333333333,-0.07555555555555556,-0.6677777777777778,0.058527344012763494,0.13526301702956053,-1.8674605756902936
1589996376.5653543,-2.253008191747573,-3.010487712378641,8.740487712378641,0.5433333333333333,-0.05885290250809061,-0.6704968143203883,0.05819537545566518,0.13373764109614847,-1.8615071982354097
1589996376.5753543,-2.2272717432032976,-3.0490923851950535,8.756817935800823,0.5433333333333333,-0.027777777777777776,-0.6755555555555556,0.059946190328910846,0.13263524068974508,-1.8519825647377368
1589996376.5853543,-2.2,-3.09,8.721067300386375,0.5433333333333333,-0.027777777777777776,-0.6755555555555556,0.06172648775430848,0.13680471466004648,-1.8436204468305735
1589996376.5953543,-2.183861251873528,-3.1000867175790447,8.682017343515808,0.5433333333333333,-0.027777777777777776,-0.6755555555555556,0.06064640773861872,0.13744467859455345,-1.8382604671266591
1589996376.6053543,-2.1109911402600394,-3.1309911402600394,8.717026579219882,0.5433333333333333,-0.027777777777777776,-0.6755555555555556,0.05841350517883151,0.13793603567053056,-1.8313378766271993
1589996376.6153543,-2.0836261445018582,-3.158205662828997,8.755457951832714,0.5548556760912848,0.002544176848410372,-0.694961606516316,0.056623291098610716,0.13913087956390063,-1.8241647097473104
1589996376.6253543,-2.0422141345309996,-3.194630977578167,8.741476089687334,0.5644444444444444,0.027777777777777776,-0.7111111111111111,0.053611724749193214,0.13558504984329428,-1.818151277742361
1589996376.6353543,-1.9895538467395026,-3.2040892306520994,8.679107693479006,0.5644444444444444,0.027777777777777776,-0.7111111111111111,0.050822980910129614,0.13357608910279758,-1.810483064353976
1589996376.6453543,-1.9423115039507164,-3.2188442480246415,8.62,0.5644444444444444,0.027777777777777776,-0.7111111111111111,0.05114297379416824,0.13647992079522217,-1.8009835349346441
1589996376.6553543,-1.9174445827406352,-3.2325554172593645,8.64299875533428,0.5644444444444444,0.027777777777777776,-0.7111111111111111,0.050408608093783516,0.13414800590610546,-1.7946712096465751
1589996376.6653543,-1.8740101837786953,-3.261593889732783,8.717197963244262,0.5644444444444444,0.04697234642914025,-0.7159097532739518,0.04629441405797827,0.13011451791176293,-1.7871313317209003
1589996376.6753542,-1.8138114559229088,-3.3152458236916345,8.722377088154182,0.5644444444444444,0.0811111111111111,-0.7244444444444444,0.0507504465910754,0.13370721647078646,-1.7697388685755486
1589996376.6853542,-1.7817312850524263,-3.307198244330651,8.677198244330652,0.5644444444444444,0.0811111111111111,-0.7244444444444444,0.05166165010212366,0.1424043544712735,-1.7472922686182806
1589996376.6953542,-1.6984177587984095,-3.28573136013351,8.71304496146861,0.5644444444444444,0.0811111111111111,-0.7244444444444444,0.047052243965234095,0.13977286047743284,-1.7261208211515946
1589996376.7053542,-1.6452805979694618,-3.29,8.72565472859541,0.5644444444444444,0.0811111111111111,-0.7244444444444444,0.043653636960031245,0.14065595396152378,-1.7014260817155586
1589996376.7153542,-1.614225509617228,-3.305774490382772,8.732065307687392,0.5685341271362742,0.09045895726386491,-0.747814059826329,0.04254240051736178,0.14054820335198775,-1.6715113966768285
1589996376.7253542,-1.5787343559967044,-3.314683588999176,8.727468711993408,0.5722222222222222,0.09888888888888887,-0.7688888888888888,0.04022267860852119,0.13628481764013314,-1.6424046665099392
1589996376.7353542,-1.5411463306462132,-3.3477073387075738,8.652292661292426,0.5722222222222222,0.09888888888888887,-0.7688888888888888,0.03252338259149278,0.12960732223367735,-1.6157565064583834
1589996376.7453542,-1.5058787128712872,-3.3711716171617163,8.624121287128713,0.5722222222222222,0.09888888888888887,-0.7688888888888888,0.024126080821452144,0.12326387842209953,-1.5843952605474791
1589996376.7553542,-1.4743364899327662,-3.35,8.627469191946213,0.5722222222222222,0.09888888888888887,-0.7688888888888888,0.02318351476539166,0.12326387842209953,-1.5544069799587141
1589996376.7653542,-1.4385470230040596,-3.3485470230040595,8.624700608930988,0.5786798977597354,0.09711302811607275,-0.7700189821079536,0.023961005933111425,0.12453184004884439,-1.5245712653188328
1589996376.7753541,-1.3830445116681072,-3.2204769387915455,8.915135145753123,0.6166666666666667,0.08666666666666667,-0.7766666666666666,0.015099075358748527,0.12686847547411298,-1.4737774195921103
1589996376.7853541,-1.2264659120049823,-3.0740301131992527,8.305606843242847,0.6166666666666667,0.08666666666666667,-0.7766666666666666,0.06663922294639657,0.05316182620411823,-1.4386318893910826
1589996376.7953541,-1.243071594644432,-3.28779363424998,7.978985488655496,0.6166666666666667,0.08666666666666667,-0.7766666666666666,0.07622814362737282,0.046135556710525924,-1.3894921348860032
1589996376.805354,-1.306924101198402,-3.392440648241369,8.625573381832353,0.6166666666666667,0.08666666666666667,-0.7766666666666666,-0.019538309403871915,0.1740413056103094,-1.332712934385625
1589996376.815354,-1.1537364620938628,-3.2174729241877253,9.046427739606381,0.6336858688197922,0.09253535706429615,-0.8148131542512583,-0.10388870644386006,0.09373694254869147,-1.3004319419928765
1589996376.825354,-1.2740716487679071,-3.4685146380286516,9.076234208458423,0.6488888888888888,0.09777777777777777,-0.8488888888888889,-0.011025542847306162,0.04667696809569194,-1.25626821288981
1589996376.835354,-1.2166059628905217,-3.4395411534598512,8.102206745255591,0.6488888888888888,0.09777777777777777,-0.8488888888888889,0.07675779545446285,0.15146577818805068,-1.1834616160870315
1589996376.845354,-1.1321735376645803,-3.4021735376645803,8.26797539391323,0.6488888888888888,0.09777777777777777,-0.8488888888888889,0.03358313159106022,0.08940574351699745,-1.156586241005855
1589996376.855354,-1.1334186046511627,-3.4371886304909562,8.837188630490957,0.6488888888888888,0.09777777777777777,-0.8488888888888889,-0.03706034163137378,0.0427828342789818,-1.1393256802915335
1589996376.865354,-1.1747022277447412,-3.557084405786811,8.734577971065946,0.5758973600386575,0.03891364160823643,-0.7870815459108705,0.0070782496235303055,0.06239935468965614,-1.0853495199819412
1589996376.875354,-1.1650230229847722,-3.6397697701522764,8.69940140239592,0.5111111111111111,-0.013333333333333334,-0.7322222222222222,0.03272492347489368,0.0900412564988974,-1.029839692562534
1589996376.885354,-1.1645225506341914,-3.699045101268383,8.739548987316171,0.5111111111111111,-0.013333333333333334,-0.7322222222222222,0.01644490989921653,0.069270638483174,-0.9932317939782621
1589996376.895354,-1.178933499164367,-3.763600994986202,8.674667495821836,0.5111111111111111,-0.013333333333333334,-0.7322222222222222,0.003061715977044301,0.06062117504337488,-0.9521857830305648
1589996376.905354,-1.1832594390372055,-3.823259439037206,8.709778317111617,0.5111111111111111,-0.013333333333333334,-0.7322222222222222,0.016055275797621543,0.06471456581083636,-0.9081130373611217
1589996376.915354,-1.155876522438828,-3.8212987820489377,8.701071650634578,0.511738821224941,0.015541331902840261,-0.706172252498283,0.024331179890360034,0.06049504705046208,-0.8622131018168657
1589996376.925354,-1.12,-3.84940865500142,8.772903860017038,0.5133333333333333,0.08888888888888889,-0.64,0.019505942619430918,0.0529991682130578,-0.8270904560404285
1589996376.935354,-1.12,-3.8402461935032877,8.662954322039452,0.5133333333333333,0.08888888888888889,-0.64,0.017507003610310663,0.04600288168113694,-0.7801153893261028
1589996376.945354,-1.128236305972155,-3.92647261194431,8.755552867817018,0.5133333333333333,0.08888888888888889,-0.64,0.017664093824199315,0.044494848647490495,-0.7038601602738608
1589996376.955354,-0.9572845373891001,-3.7263793831854666,8.963265737220109,0.5133333333333333,0.08888888888888889,-0.64,0.016817435412993787,0.04163245316626789,-0.6547504389656936
1589996376.965354,-0.743482742139933,-3.419445795149928,8.398918812210377,0.5106830875511132,0.12002927682997505,-0.6224421216927919,0.05192810595903624,0.07060750923383721,-0.5997929079400739
1589996376.975354,-0.9549110956953522,-3.692626601920479,7.7015462411917195,0.5044444444444445,0.19333333333333333,-0.5811111111111111,0.10282755860002026,0.10699986984812457,-0.5361530275522287
1589996376.985354,-0.9937990302624979,-3.786813576325029,8.639607757900016,0.5044444444444445,0.19333333333333333,-0.5811111111111111,-0.038401183009667245,-0.01759511328845512,-0.5352262912660483
1589996376.995354,-0.9905452775073028,-3.7132366114897764,8.497343719571568,0.5044444444444445,0.19333333333333333,-0.5811111111111111,-0.11043094997602146,-0.059626276341927985,-0.5203655828992538
1589996377.005354,-0.9540698637791178,-3.794419182674708,8.35640141808443,0.5044444444444445,0.19333333333333333,-0.5811111111111111,0.06557656163327459,0.054465329563979425,-0.41457860281351927
1589996377.015354,-0.9716874280330786,-3.7988335252451235,8.82739523360899,0.5105045923134482,0.20631936448119845,-0.586738391275186,0.015742310792221437,0.018248873140891023,-0.37480723402068306
1589996377.025354,-0.977068810493468,-3.7801727755152412,8.751548985384602,0.52,0.22666666666666666,-0.5955555555555555,-0.019145588945192464,-0.009083756268613536,-0.3344145319717169
1589996377.035354,-0.9630446417327793,-3.8534910590605715,8.553517818914493,0.52,0.22666666666666666,-0.5955555555555555,0.02181661564992912,0.016362461737446838,-0.28285145346448215
1589996377.045354,-0.9601968047015828,-3.8907872188063313,8.691968047015829,0.52,0.22666666666666666,-0.5955555555555555,0.013261713891258738,0.004599471819275065,-0.2332036589716019
1589996377.0553539,-0.95,-3.8353964444292057,8.670319555639368,0.52,0.22666666666666666,-0.5955555555555555,0.012328327105245816,-0.0020603126947931977,-0.20114531776627476
1589996377.0653539,-0.9510513688359539,-3.8184109506876314,8.79107536095283,0.52,0.23367579223969265,-0.5955555555555555,0.02491838674089736,0.006718323085462406,-0.16931337865287893
1589996377.0753539,-0.9600416625579331,-3.8903333004634653,8.629958337442067,0.52,0.2933333333333333,-0.5955555555555555,0.014226246973124938,-0.00110446482269776,-0.13398585436431293
1589996377.0853539,-0.9705726122660353,-3.9688547754679293,8.617709550935858,0.52,0.2933333333333333,-0.5955555555555555,0.024839258762927915,-0.004238398512740539,-0.08732440567153955
1589996377.0953538,-0.98,-3.9397950578240786,8.582551235543981,0.52,0.2933333333333333,-0.5955555555555555,0.019612598361523494,-0.0032948480709020784,-0.04150630912721551
1589996377.1053538,-0.98,-3.913786314451369,8.589053421387158,0.52,0.2933333333333333,-0.5955555555555555,0.01677548457302327,-0.006131961859402301,-0.013844449689338331
1589996377.1153538,-0.9821402120243973,-3.908560848097589,8.735719575951206,0.5261828347371479,0.2902419159647594,-0.5907995288346726,0.01075536023267581,-0.007945750189347732,0.03676619331112183
1589996377.1253538,-0.9938127982564912,-3.9552511930259646,8.739063991282457,0.5488888888888889,0.2788888888888889,-0.5733333333333334,0.003013485106118793,-0.01308996938995747,0.08468389110786084
1589996377.1353538,-0.9924573628811183,-3.970571703601398,8.717201540167828,0.5488888888888889,0.2788888888888889,-0.5733333333333334,0.00415762961122391,-0.014118436983767038,0.12037761782884959
1589996377.1453538,-0.9660427399351269,-3.936042739935127,8.509135343127902,0.5488888888888889,0.2788888888888889,-0.5733333333333334,0.00360207268408222,-0.01865398341463737,0.15940223571459905
1589996377.1553538,-1.02,-3.99,8.688626807247932,0.5488888888888889,0.2788888888888889,-0.5733333333333334,0.004035548188123239,-0.021830711028434768,0.2127965748578428
1589996377.1653538,-1.02,-3.99,8.735427457882826,0.5421082334534686,0.28256174391640826,-0.5823742072472271,-0.00024006780044757937,-0.025883916873450447,0.2573638591867668
1589996377.1753538,-1.028331580150926,-3.99,8.743347358792592,0.5222222222222223,0.2933333333333333,-0.6088888888888889,-0.0013621041591177436,-0.02636078769766247,0.3105193378999836
1589996377.1853538,-1.016903071624376,-4.036193856751248,8.642301023874792,0.5222222222222223,0.2933333333333333,-0.6088888888888889,-0.0062892537418694,-0.033144837482447786,0.3561317533715055
1589996377.1953537,-1.0025914195220271,-4.064817160955946,8.633765236587005,0.5222222222222223,0.2933333333333333,-0.6088888888888889,-0.0034271287872386013,-0.034637201451887416,0.40887193843117037
1589996377.2053537,-1.0307362331179135,-3.9745603885298557,8.683230912116404,0.5222222222222223,0.2933333333333333,-0.6088888888888889,-0.008887267409594302,-0.03835529630698167,0.45938246108575154
1589996377.2153537,-1.004439809296782,-3.9288796185935637,8.746638855780692,0.529429876837505,0.29292146735531716,-0.6119778837240101,-0.006182891282672105,-0.04464410249579506,0.5139171648451881
1589996377.2253537,-0.9923792004340307,-3.9072342409548675,8.647040961649317,0.5611111111111111,0.2911111111111111,-0.6255555555555555,-0.014180800172453925,-0.04908738521234052,0.5912302841130791
1589996377.2353537,-1.0279349632091146,-3.9854569190600526,8.782152860194635,0.5611111111111111,0.2911111111111111,-0.6255555555555555,-0.014180800172453925,-0.04908738521234052,0.5912302841130791
1589996377.2453537,-1.130595291671193,-4.013047533326092,8.591190583342385,0.5611111111111111,0.2911111111111111,-0.6255555555555555,-0.030080955097722146,-0.05397795140245506,0.6486314388681069
1589996377.2553537,-1.1631400238985707,-3.960975961762287,8.656280047797141,0.5611111111111111,0.2911111111111111,-0.6255555555555555,-0.028660923268853014,-0.05894806280349701,0.6976225369640918
1589996377.2653537,-1.17,-4.03,8.677177944206429,0.5896235005977623,0.2958964072487309,-0.6265524922508929,-0.024194025277307418,-0.05859702372185372,0.7500147835965301
1589996377.2753537,-1.1836757754650762,-4.002648449069848,8.71,0.72,0.31777777777777777,-0.6311111111111111,-0.025089107997418484,-0.06478799705136559,0.7878319687949481
1589996377.2853537,-1.2233333333333334,-3.9383333333333335,8.685,0.72,0.31777777777777777,-0.6311111111111111,-0.025452718258250635,-0.06944955981894103,0.8132143483511078
1589996377.2953537,-1.282182117927672,-3.886840646813287,8.574658528885616,0.72,0.31777777777777777,-0.6311111111111111,-0.027057569901950834,-0.06784470817524084,0.839694400472161
1589996377.3053536,-1.3704942305728582,-3.832674359236189,8.623662820381904,0.72,0.31777777777777777,-0.6311111111111111,-0.033318960089113385,-0.07046111888624534,0.8808617297737311
1589996377.3153536,-1.4439632604730053,-3.7320734790539896,8.684531955067687,0.786347916066609,0.3252639364490102,-0.6628171948951543,-0.0314899844749637,-0.0762140465573184,0.9132735047774209
1589996377.3253536,-1.4772857142857143,-3.6872857142857143,8.726571428571429,1.2222222222222223,0.3744444444444445,-0.8711111111111111,-0.03213275819296703,-0.07473749189790005,0.9581390094542085
1589996377.3353536,-1.4978999017038008,-3.707899901703801,8.575400720838795,1.2222222222222223,0.3744444444444445,-0.8711111111111111,-0.03663007623132701,-0.07323838588511339,0.9993644248058416
1589996377.3453536,-1.484307471329883,-3.7842313216752927,8.632292241398964,1.2222222222222223,0.3744444444444445,-0.8711111111111111,-0.04192144196700106,-0.08097152265262811,1.0929958307839882
1589996377.3553536,-1.3844006935255737,-3.980666377697678,8.627066204316284,1.2222222222222223,0.3744444444444445,-0.8711111111111111,-0.03404845851999734,-0.07993604191538808,1.1611381536190177
1589996377.3653536,-1.2819551385743557,-4.03448075056616,8.681955138574356,1.217752854763531,0.2691461471176774,-0.8907763279293528,-0.03490658503988659,-0.08631338258248514,1.2070476093865559
1589996377.3753536,-1.2648160375753037,-4.083115959293421,8.643102004696914,1.1944444444444444,-0.28,-0.9933333333333332,-0.03569612955574955,-0.09362295310175643,1.225605541276787
1589996377.3853536,-1.5184023632223522,-3.824398424518432,8.67,1.1944444444444444,-0.28,-0.9933333333333332,-0.042891487850058044,-0.10005091344138535,1.2035349033688525
1589996377.3953536,-1.5938977406747914,-3.77,8.665931827116527,1.1944444444444444,-0.28,-0.9933333333333332,-0.04052684955299184,-0.09530886435826093,1.1824047944162908
1589996377.4053535,-1.5762987626830243,-3.776298762683024,8.653149381341512,1.1944444444444444,-0.28,-0.9933333333333332,-0.029392232978850262,-0.08852906548787,1.1676528777796302
1589996377.4153535,-1.6141210799717822,-3.814121079971782,8.672943628551273,1.1652044008351325,-0.2605066375937921,-0.9767181855105922,-0.03503502506532515,-0.08951234417742866,1.1598109112783412
1589996377.4253535,-1.6483173230867756,-3.905922190201729,8.696958053154018,0.6977777777777778,0.05111111111111112,-0.7111111111111111,-0.03677406079352645,-0.09179569819261801,1.197393213822667
1589996377.4353535,-1.573991068627632,-3.977982137255264,8.632017862744737,0.6977777777777778,0.05111111111111112,-0.7111111111111111,-0.03730348997660606,-0.09599067320571085,1.2478860586361729
1589996377.4453535,-1.5894707608274437,-4.008941521654887,8.601058478345113,0.6977777777777778,0.05111111111111112,-0.7111111111111111,-0.04236920740314356,-0.10021210439449209,1.2901003705239855
1589996377.4553535,-1.6050682762123885,-3.9314163205545762,8.618447127020646,0.6977777777777778,0.05111111111111112,-0.7111111111111111,-0.04126728201130974,-0.10161665493688891,1.301470933447642
1589996377.4653535,-1.6238672423581437,-3.862486778020139,8.649778737263572,0.6977777777777778,0.05111111111111112,-0.7111111111111111,-0.040583732312946444,-0.09819890644507243,1.2816479921951065
1589996377.4753535,-1.709902054926061,-3.7496571922412136,8.739853082389091,0.6322222222222222,0.16333333333333333,-0.6888888888888889,-0.041419517284371384,-0.1002816429385214,1.2027696712371696
1589996377.4853535,-1.6937918187055885,-3.69327136546956,8.715687728058384,0.6322222222222222,0.16333333333333333,-0.6888888888888889,-0.036147454809597176,-0.08798016383071493,1.134232859065105
1589996377.4953535,-1.5159774883720931,-3.7174308837209304,8.600726697674418,0.6322222222222222,0.16333333333333333,-0.6888888888888889,-0.023120701313587858,-0.07772923266935058,1.0091580595603291
1589996377.5053535,-1.492567441860465,-3.818874418604651,8.663153488372092,0.6322222222222222,0.16333333333333333,-0.6888888888888889,-0.01801342144267636,-0.06666345961570899,0.9274415816257451
1589996377.5153534,-1.511808525377546,-3.828191474622454,8.631150879785713,0.6319847390918374,0.16342467299886596,-0.6894003910158716,-0.026287545788246925,-0.06441281967145689,0.8096949795315536
1589996377.5253534,-1.6183464185101373,-3.7216535814898632,8.698947720870086,0.617994914741093,0.16880537467222914,-0.7195323203867054,-0.03262653560632048,-0.06758231458049369,0.6987626577152664
1589996377.5353534,-1.721855523140167,-3.621133138841002,8.662577907439331,0.6177777777777778,0.1688888888888889,-0.72,-0.016441261640478922,-0.04726572962930465,0.5600365523289985
1589996377.5453534,-1.7288080161782258,-3.662848097069354,8.634767935287098,0.6177777777777778,0.1688888888888889,-0.72,-0.012649264929975604,-0.04044013555039868,0.4758542253558248
1589996377.5553534,-1.6760820498403581,-3.7184794875399105,8.67543846261973,0.6177777777777778,0.1688888888888889,-0.72,-0.004458980834501216,-0.024687179162943346,0.3053554270333534
1589996377.5653534,-1.7097718829695374,-3.7100570292576154,8.650171087772847,0.6177777777777778,0.1688888888888889,-0.72,0.0010535052206704365,-0.016418450080185866,0.18408073381957704
1589996377.5753534,-1.745619284961181,-3.650286782325314,8.789048212402953,0.6044444444444445,0.10666666666666667,-0.7244444444444444,-0.0012572209010879307,-0.009131967319247576,0.00562190325662465
1589996377.5853534,-1.73,-3.585147223855074,8.74678298509058,0.6044444444444445,0.10666666666666667,-0.7244444444444444,0.010098214553743845,0.0015821214272290019,-0.09879751104614257
1589996377.5953534,-1.7100988918153357,-3.730049445907668,8.648578492272524,0.6044444444444445,0.10666666666666667,-0.7244444444444444,0.01916437305711472,0.017447898808128037,-0.23335148806519748
1589996377.6053534,-1.5852966538272546,-3.67,8.645879182715932,0.6044444444444445,0.10666666666666667,-0.7244444444444444,0.022907446432425576,0.024639596563168,-0.35431879014969975
1589996377.6153533,-1.5587029023412113,-3.67,8.679121372073485,0.6044444444444445,0.10666666666666667,-0.7244444444444444,0.022907446432425576,0.028265756906047587,-0.4456980307902652
1589996377.6253533,-11.010050430139424,-13.7866953426283,1.9289412637199645,0.4988888888888889,0.08,-0.6166666666666667,-0.8359836854456606,2.420904992682966,-1.7206621735153127
1589996377.6353533,0.689425253330297,-0.9161168165774791,0.21256950927928953,0.4988888888888889,0.08,-0.6166666666666667,-0.10686274143636972,-1.6595189857692705,-5.327407274547171
1589996377.6453533,-1.188372640010171,-1.4516095607399402,0.17659017227131144,0.4988888888888889,0.08,-0.6166666666666667,-0.00450963633010454,-0.16137597071406568,-5.492086545740167
1589996377.6553533,0.1190598092769188,-0.951196185538376,-0.0028205721692435883,0.4988888888888889,0.08,-0.6166666666666667,0.044705529775291644,-0.28951720508480133,-5.274455220306706
1589996377.6653533,0.09617609317935051,-0.768341131181522,-0.02834113118152206,0.49999480143454084,0.08786426699130281,-0.6179568979699274,0.09648075791841149,-0.06795861777519131,-4.969765652865559
1589996377.6753533,-0.11082716414963971,-0.7435007403020433,-0.003500740302043233,0.51655506202086,0.2056261200495728,-0.6372772019872998,0.08744853691155159,0.008815260783117881,-4.772863234916013
1589996377.6853533,0.9291211786017729,-1.6311425319418396,2.645342984017057,0.5188888888888888,0.2222222222222222,-0.64,0.22841280311908546,0.23641703782299317,-4.483331985720924
1589996377.6953533,4.593645297295565,-5.053606341877876,11.352790201830743,0.5188888888888888,0.2222222222222222,-0.64,0.8591913558181351,0.9500769584929644,-4.285296858710758
1589996377.7053533,0.022961102286579736,-0.5332244837649145,1.7297100217945407,0.5188888888888888,0.2222222222222222,-0.64,0.9871568484446884,1.8210579960778401,-3.6292802853432984
1589996377.7153533,0.03845480403383695,-1.4396060359794611,13.396467437479224,0.5188888888888888,0.2222222222222222,-0.64,-0.32013602759156745,0.3337693976138385,-3.247317531646862
1589996377.7253532,1.519512555694721,-0.6430020737942221,9.200770794406916,0.4655555555555556,0.3411111111111111,-0.6088888888888889,0.5431519112152051,-0.030003098758114077,-2.9123831988722126
1589996377.7353532,0.6238650596472495,-0.15211834999897345,5.316760979816438,0.4655555555555556,0.3411111111111111,-0.6088888888888889,0.43136058120022436,0.30724973716943327,-2.702891882961786
1589996377.7453532,1.5631061222741098,-2.6587121374405553,13.31658347971381,0.4655555555555556,0.3411111111111111,-0.6088888888888889,-0.2520455398261457,0.20135579097796846,-2.4649329713478325
1589996377.7553532,0.04638283656274954,-2.3104325081889736,9.757031598846211,0.4655555555555556,0.3411111111111111,-0.6088888888888889,-0.2874743620367898,0.24674964543874497,-2.296075320294143
1589996377.7653532,0.44966119648648206,-2.980284699248733,11.16508824535958,0.4655555555555556,0.3411111111111111,-0.6088888888888889,0.08085576299071756,0.17666253662784276,-2.1737956836453347
1589996377.7753532,0.32913058293143216,-2.080718966240302,6.63916046340952,0.4388888888888889,0.3955555555555556,-0.5966666666666667,0.17493658291035988,0.13804916445121995,-1.975017723213482
1589996377.7853532,-0.1442045659176854,-3.3088637227635607,11.362273154724985,0.4388888888888889,0.3955555555555556,-0.5966666666666667,-0.10654609294590156,0.13343670102910124,-1.8278316046204062
1589996377.7953532,0.08238280077632609,-2.35216150783329,6.629114828227856,0.4388888888888889,0.3955555555555556,-0.5966666666666667,0.14428413674673313,0.14259108897408787,-1.7079091225410805
1589996377.8053532,0.06865150847137369,-3.0933356427536687,9.06516659318511,0.4388888888888889,0.3955555555555556,-0.5966666666666667,0.03318401091513058,0.11168899377205588,-1.541665160688526
1589996377.8153532,-0.04582414813881715,-2.72349121370536,7.805934370473011,0.4388888888888889,0.3955555555555556,-0.5966666666666667,-0.0061991919552732005,0.10496503230637717,-1.3908563106725895
1589996377.8253531,-0.0652249095840868,-3.3494462025316456,9.739238245931283,0.41182238296162343,0.4310803445850914,-0.6076624346996183,0.058795384662713585,0.09475507509863146,-1.246679963477855
1589996377.8353531,-0.14946150999259808,-2.636154700222058,7.411156550703184,0.4033333333333333,0.44222222222222224,-0.6111111111111112,0.022462757273683957,0.07367720195503936,-1.0157603692052228
1589996377.8453531,-0.13393856402664694,-3.1018430792005924,8.885836417468543,0.4033333333333333,0.44222222222222224,-0.6111111111111112,0.041088955297841526,0.05928423075455396,-0.8642108489177591
1589996377.855353,-0.1411857172798811,-3.070828649276909,8.584343120629537,0.4033333333333333,0.44222222222222224,-0.6111111111111112,0.012684797138485835,0.04431888983088306,-0.602984706495608
1589996377.865353,-0.14917744793552198,-3.278613646323571,9.287615418325935,0.4033333333333333,0.44222222222222224,-0.6111111111111112,-0.004750454470701462,0.026883638221695757,-0.44693920459338166
1589996377.875353,-0.11390190193745449,-2.9231661664683632,7.9238908916552715,0.3644444444444445,0.4844444444444445,-0.6266666666666667,0.003512060181254239,0.015644358753888678,-0.22306392104318007
1589996377.885353,-0.14369572552432028,-3.1764136669567224,8.564458098772885,0.3644444444444445,0.4844444444444445,-0.6266666666666667,-0.0029879437981101976,0.0018318502977392476,-0.09387634195331188
1589996377.895353,-0.14180519027115096,-3.2226363318980566,8.504227161643199,0.3644444444444445,0.4844444444444445,-0.6266666666666667,0.012507016623824543,-0.008620394035492475,0.11105716079735255
1589996377.905353,-0.16,-3.3423001306538915,8.920977415541591,0.3644444444444445,0.4844444444444445,-0.6266666666666667,-0.00475098103016748,-0.019448658402863615,0.2719355695858845
1589996377.915353,-0.16,-3.229220431780004,8.494753935170785,0.3644444444444445,0.4844444444444445,-0.6266666666666667,-0.01044409563357056,-0.032732592477470804,0.40477491033195634
1589996377.925353,-0.15032288629737608,-3.2407534013605446,8.472798347910594,0.3466666666666667,0.5066666666666667,-0.6411111111111111,-0.02602731257786448,-0.04479450494483952,0.5643949457886759
1589996377.935353,-0.3708398522813009,-3.9036969384108327,8.689836000476513,0.3466666666666667,0.5066666666666667,-0.6411111111111111,-0.01778764993606092,-0.05310119027124808,0.7245647358831754
1589996377.945353,-6.8997109160941905,-24.21481495453282,7.315775126077115,0.3466666666666667,0.5066666666666667,-0.6411111111111111,-0.21581989353758274,-0.11578112058549124,1.4049599214682202
1589996377.955353,9.638948735821558,-9.63556555351372,9.117725112477029,0.3466666666666667,0.5066666666666667,-0.6411111111111111,-0.611439235968616,-0.6333705267511833,5.425169513496582
1589996377.965353,5.005488879031747,-14.78286990685001,7.602769786452063,0.3466666666666667,0.5066666666666667,-0.6411111111111111,0.08534186964128232,-0.4420214852660794,4.840491886736542
1589996377.975353,0.1472628172069781,-3.341994914018459,9.00166308039763,0.36951446066663113,0.48838843146669514,-0.6548197875110897,0.15003261713694796,-0.14912098886487601,1.3791473698296053
1589996377.985353,-2.3096009226375718,1.0876776626514846,10.774482480869915,0.38,0.48,-0.6611111111111111,0.549020408660524,0.5380688478154796,-0.5450584240335701
1589996377.995353,-2.1986667588686815,-0.14916603277781615,10.197444851670008,0.38,0.48,-0.6611111111111111,0.25495765126831277,0.17091525328893248,-0.5036123810448162
1589996378.005353,-2.1290281651412184,-2.0081121106179047,10.698647523274541,0.38,0.48,-0.6611111111111111,-0.3618114777152035,-0.1459485051951394,-0.3442278356945196
1589996378.015353,-1.6406896017356267,-2.290676739501007,9.548374864404153,0.38,0.48,-0.6611111111111111,-0.16729391991548515,-0.06567411553790731,-0.1668157496017632
1589996378.025353,-1.0843431403756083,-2.31090900823064,7.984645536810513,0.42094280993739863,0.455263718996155,-0.6721997888024899,0.07400030154319415,0.01832378451221424,0.07766952276151282
1589996378.035353,-0.43709827938174395,-3.2639329250510354,8.931609798775153,0.43333333333333335,0.4477777777777778,-0.6755555555555556,-0.06290883792142087,-0.04725037400306549,0.19576521947832398
1589996378.045353,3.0009648402641442,-16.552417990362304,7.457805461359985,0.43333333333333335,0.4477777777777778,-0.6755555555555556,-0.02861699063947841,-0.00822209565209768,0.14489040176861445
1589996378.055353,0.15655013799448048,-6.816369825206991,8.82236798528059,0.43333333333333335,0.4477777777777778,-0.6755555555555556,-0.003815599633126058,0.03321384045486817,-0.9223063579659461
1589996378.065353,-4.9300699749093955,-9.318915807081126,8.087156119319765,0.43333333333333335,0.4477777777777778,-0.6755555555555556,0.22709701041759744,0.18800929257997864,-1.400348467082298
1589996378.075353,-2.1148098141389426,-3.860353579038417,8.780251049555917,0.41367917695125983,0.4477777777777778,-0.6526257064431364,-0.0007612181309132326,0.09710923073372194,-0.4616315740878293
1589996378.085353,1.5242670623145398,-2.9750544015825913,8.080338278931752,0.4066666666666667,0.4477777777777778,-0.6444444444444445,-0.028294273103733003,-0.2190483159926335,0.7632986438591209
1589996378.095353,2.4397659098177167,-7.128661976335145,8.628191237607933,0.4066666666666667,0.4477777777777778,-0.6444444444444445,-0.0949845351601826,-0.05583693120276406,0.37584307746333173
1589996378.1053529,-2.278398111507268,-5.358842220742075,7.738034909689301,0.4066666666666667,0.4477777777777778,-0.6444444444444445,0.09312379608304389,0.08211086287095591,-0.41828964789349526
1589996378.1153529,0.030496414998236965,-4.767239352740665,8.650089331191475,0.4066666666666667,0.4477777777777778,-0.6444444444444445,-0.0027806931932290307,0.02564373367090736,-0.11713162549323641
1589996378.1253529,0.32543590156023805,-4.67,8.933893155862958,0.4066666666666667,0.45795678962700836,-0.6507084517362787,-0.013931867218832108,-0.019766877584146362,0.070736173993449
1589996378.1353528,-0.12023406981950685,-4.6376593018049315,8.500936279278028,0.4066666666666667,0.4622222222222222,-0.6533333333333333,0.0054030877996079875,0.010627444204155954,-0.029802803273223537
1589996378.1453528,-0.12671005295906868,-4.572899470409313,8.526840211836275,0.4066666666666667,0.4622222222222222,-0.6533333333333333,0.003990247448495575,0.0028568222730376795,-0.009316618182093537
1589996378.1553528,-0.10088844214016153,-4.576389447324798,8.54,0.4066666666666667,0.4622222222222222,-0.6533333333333333,-0.003872558926496783,0.0004969583895004662,0.0002969361964979949
1589996378.1653528,-0.11328904615279928,-4.5725332153854,8.685556538454994,0.4066666666666667,0.4622222222222222,-0.6533333333333333,0.0017114480475188517,-0.0008144998503876028,0.0006351102109613529
1589996378.1753528,-0.14204698219111633,-4.584093964382232,8.705671124662185,0.40800522024345737,0.4575372847034547,-0.6580182708521007,-0.0015630378297042287,-0.0008675396639672803,0.001090830782496456
1589996378.1853528,-0.13791655098560265,-4.6060417245071985,8.6560417245072,0.4088888888888889,0.4544444444444444,-0.6611111111111111,-0.008294865384656746,-0.0032952495359077683,0.001090830782496456
1589996378.1953528,-0.12229909619561409,-4.61,8.49058011630351,0.4088888888888889,0.4544444444444444,-0.6611111111111111,-0.008726646259971648,-0.00545415391248228,-0.0014292840943640071
1589996378.2053528,-0.13941928755694605,-4.635892383409262,8.504730958523153,0.4088888888888889,0.4544444444444444,-0.6611111111111111,0.00045272161791078125,-0.0026297330269799933,0.0006427593205093744
1589996378.2153528,-0.13098968380441164,-4.573958735217647,8.635051580977942,0.4088888888888889,0.4544444444444444,-0.6611111111111111,0.0040716847064063665,-0.0017820653855344125,0.0014904269619549554
1589996378.2253528,-0.13717075494165276,-4.570065094863857,8.701447169961103,0.4006214883614264,0.46271184497190687,-0.6611111111111111,0.007642916225602897,-0.0034303541015967775,0.0023395233191003217
1589996378.2353528,-0.12647545080549039,-4.59215848360183,8.639426352416471,0.3944444444444444,0.4688888888888889,-0.6611111111111111,0.002354540356390135,-0.0009418161425560545,0.0015617388537744832
1589996378.2453527,-0.12,-4.675015471021087,8.478307548298188,0.3944444444444444,0.4688888888888889,-0.6611111111111111,0.0010304165864248615,0.0030912497592745845,0.001090830782496456
1589996378.2553527,-0.12919426354440905,-4.542086046833865,8.598719689621726,0.3944444444444444,0.4688888888888889,-0.6611111111111111,-0.0069326777748046214,0.0022695537778267333,-0.0009150463568288133
1589996378.2653527,-0.13744712990936558,-4.611918429003021,8.654682779456193,0.3944444444444444,0.4688888888888889,-0.6611111111111111,-0.0019493244950049959,-0.00025540599892288646,0.0021585926360579415
1589996378.2753527,-0.14822800743813475,-4.615315977685596,8.637087970247462,0.41638579761280375,0.45700398925602753,-0.666596449403201,-0.0008975363792127183,-0.0019883671617091743,0.000579883209851213
1589996378.2853527,-0.1411682889470824,-4.680653688423342,8.59467315578833,0.4211111111111111,0.4544444444444444,-0.6677777777777778,-0.003981001466087479,-0.002181661564992912,-0.0009633902278636742
1589996378.2953527,-0.12249782480893592,-4.611240211640212,8.50248912404468,0.4211111111111111,0.4544444444444444,-0.6677777777777778,-0.011045492140656294,-0.002181661564992912,0.0008183603634093928
1589996378.3053527,-0.12,-4.6,8.551886509113436,0.4211111111111111,0.4544444444444444,-0.6677777777777778,-0.005998453348600404,-0.0029317472223504885,-0.0011594261895762736
1589996378.3153527,-0.12431009811937857,-4.582759607522485,8.61448078495503,0.4211111111111111,0.4544444444444444,-0.6677777777777778,-0.00045153972497042607,-0.001862016036229897,-0.0012413440241532646
1589996378.3253527,-0.13321998114985864,-4.566439962299717,8.666439962299718,0.419322232694523,0.4544444444444444,-0.6631266938946486,0.0050287196261514285,-0.00035124545573241207,0.00035124545573241207
1589996378.3353527,-0.14492679415998355,-4.599707176639934,8.670146411680033,0.4155555555555556,0.4544444444444444,-0.6533333333333333,0.0060394968956047354,0.001058888708997074,0.001090830782496456
1589996378.3453526,-0.14327204736678092,-4.566176378934247,8.633088189467124,0.4155555555555556,0.4544444444444444,-0.6533333333333333,0.0010707749968413326,0.0018046807803906778,0.0003569249989471109
1589996378.3553526,-0.1458298138589082,-4.580808697012357,8.608340372282184,0.4155555555555556,0.4544444444444444,-0.6533333333333333,-0.005087472330817195,0.0004548967411443066,-0.0019078021240564484
1589996378.3653526,-0.13968181426230922,-4.589363628524619,8.630954557213073,0.4155555555555556,0.4544444444444444,-0.6533333333333333,-0.005350027873314945,-0.0028138486555472518,-0.0015841831541610167
1589996378.3753526,-0.12489744475840059,-4.585307665724798,8.66,0.40818519798435643,0.45841309852124396,-0.6607036909045325,-0.0010684566996078556,-0.003227744181712167,0.0011132048653850564
1589996378.3853526,-0.12730281459662904,-4.585394370806742,8.616183112420225,0.4011111111111111,0.4622222222222222,-0.6677777777777778,-0.0007966134960867385,0.000502396209677021,0.002181661564992912
1589996378.3953526,-0.13,-4.619091009620701,8.5609089903793,0.4011111111111111,0.4622222222222222,-0.6677777777777778,-0.004502164911546525,-0.0014676698142910961,-0.0012296725640571571
1589996378.4053526,-0.13827264287187951,-4.605182071384361,8.53345471425624,0.4011111111111111,0.4622222222222222,-0.6677777777777778,-0.008161369961656097,-0.00037685086554370027,0.0014279598339055114
1589996378.4153526,-0.12701171875,-4.606494140625,8.575458984375,0.4011111111111111,0.4622222222222222,-0.6677777777777778,-0.003767840310244106,-0.0007084008499610774,5.645901510967959e-05
1589996378.4253526,-0.14448552195747408,-4.577352637390035,8.640809203262457,0.4074592093963822,0.4558741239369511,-0.6487334829219646,0.006031718837958375,0.0015801253251741057,-0.00020051207993960216
1589996378.4353526,-0.14362640790157685,-4.57,8.66912077629527,0.4088888888888889,0.4544444444444444,-0.6444444444444445,0.0069405644318715765,0.0007911594737856811,0.0
1589996378.4453526,-0.15590238365493758,-4.601804767309876,8.584585698070375,0.4088888888888889,0.4544444444444444,-0.6444444444444445,0.0022082822935101352,0.00173468096058744,0.0
1589996378.4553525,-0.12986760156733346,-4.6250661992163336,8.605198597649,0.4088888888888889,0.4544444444444444,-0.6444444444444445,-0.0013743702995635905,0.0013599278709728966,0.0
1589996378.4653525,-0.12425045366904842,-4.617248638992854,8.611499092661903,0.4088888888888889,0.4544444444444444,-0.6444444444444445,-0.0017180089948156088,0.00016352564214184998,0.000463652570177303
1589996378.4753525,-0.13,-4.598941750533699,8.603174748398901,0.4098883467181729,0.4548559859035613,-0.6453263189996951,-0.0012062678918365812,-0.0011485493371665185,0.0010331122278263935
1589996378.4853525,-0.13598620641366757,-4.609931032068338,8.66,0.42777777777777776,0.4622222222222222,-0.6611111111111111,-0.0019665047022081115,-0.00283465538763354,0.0006529938226406281
1589996378.4953525,-0.1261236568930978,-4.588370970679294,8.625309142232744,0.42777777777777776,0.4622222222222222,-0.6611111111111111,-0.0018476678929710277,-0.0017588181265402244,0.0003339936720218843
1589996378.5053525,-0.1303577011159984,-4.6217885055799925,8.584105747210003,0.42777777777777776,0.4622222222222222,-0.6611111111111111,-0.0033115114863158067,3.9019138826439006e-05,0.0005649249606614475
1589996378.5153525,-0.1355668650622502,-4.638968055435751,8.586598809626498,0.42777777777777776,0.4622222222222222,-0.6611111111111111,-0.004363323129985824,-0.0008434892387267374,0.0006072507771906577
1589996378.5253525,-0.1259054975340876,-4.612283507397737,8.62,0.4168591045353447,0.4622222222222222,-0.6542869403345904,-0.002130118465573385,-0.0019325695488419045,-0.00044664093288248783
1589996378.5353525,-0.1266390423572744,-4.60676335174954,8.629958563535912,0.4011111111111111,0.4622222222222222,-0.6444444444444445,0.002539245136419006,-0.0007242071769612751,-4.520017054543152e-06
1589996378.5453525,-0.14,-4.577096612900238,8.602984314524344,0.4011111111111111,0.4622222222222222,-0.6444444444444445,0.005920391703182444,-0.001715423774292747,0.0007829481928924172
1589996378.5553524,-0.14429752066115703,-4.595702479338843,8.565785123966942,0.4011111111111111,0.4622222222222222,-0.6444444444444445,0.003732263999615973,-0.0006220439999359956,-0.0015596175650569163
1589996378.5653524,-0.15,-4.619601413151848,8.611840565260739,0.4011111111111111,0.4622222222222222,-0.6444444444444445,-0.0038748159205718533,0.0,0.0004015490487216571
1589996378.5753524,-0.1358610567514677,-4.625861056751468,8.634138943248532,0.41132257012394,0.4567237442922374,-0.6609398782343988,-0.005773824968605262,-0.000771159726373473,-0.00090297734050098
1589996378.5853524,-0.13,-4.602772799063016,8.634257599687672,0.4155555555555556,0.4544444444444444,-0.6677777777777778,-0.004201356507261332,-0.000464432079885982,-0.000928864159771964
1589996378.5953524,-0.12351621758289388,-4.602967564834213,8.59758108791447,0.4155555555555556,0.4544444444444444,-0.6677777777777778,-0.001150679513212779,0.0007072709447588629,0.0
1589996378.6053524,-0.12,-4.602536843080916,8.587463156919084,0.4155555555555556,0.4544444444444444,-0.6677777777777778,-0.0008141041301938515,-0.0005373774778912471,0.001628208260387703
1589996378.6153524,-0.12828433206820977,-4.604142166034105,8.598284332068209,0.4155555555555556,0.4544444444444444,-0.6677777777777778,-0.001090830782496456,-0.0006389905608751691,0.002181661564992912
1589996378.6253524,-0.13949484150318064,-4.6097474207515905,8.60949484150318,0.4155555555555556,0.4544444444444444,-0.6677777777777778,-0.001090830782496456,-2.7552121918510575e-05,0.002181661564992912
1589996378.6353524,-0.13445517010222893,-4.61,8.607820680408915,0.4011111111111111,0.4477777777777778,-0.6611111111111111,0.0008425740031047708,-0.00011886344474261717,0.0
1589996378.6453524,-0.12312166898737216,-4.5962433379747445,8.562486675949488,0.4011111111111111,0.4477777777777778,-0.6611111111111111,0.004022801867566815,-0.001090830782496456,0.0007503095200774465
1589996378.6553524,-0.12749818634055343,-4.5974981863405535,8.587490931702767,0.4011111111111111,0.4477777777777778,-0.6611111111111111,0.005181248377302837,0.0005450197121375699,0.001090830782496456
1589996378.6653523,-0.13608476876107195,-4.6,8.618254306283216,0.4011111111111111,0.4477777777777778,-0.6611111111111111,0.0014716820711122135,0.001090830782496456,0.00042708547560144495
1589996378.6753523,-0.1335581253804017,-4.612883749239197,8.642883749239196,0.4139948603503077,0.4520723608575099,-0.6704160411171975,-0.00249622980890455,-0.00031456824391163773,-0.0007026995132040468
1589996378.6853523,-0.1361712805238785,-4.62,8.65,0.4211111111111111,0.4544444444444444,-0.6755555555555556,-0.0025993100712026164,-0.001764013058783208,0.00025553377007704776
1589996378.6953523,-0.14,-4.615978656949506,8.621850598646539,0.4211111111111111,0.4544444444444444,-0.6755555555555556,-0.0017430010863471483,-0.0008656801290556205,0.00021350982520492844
1589996378.7053523,-0.14,-4.598055511245813,8.591944488754187,0.4211111111111111,0.4544444444444444,-0.6755555555555556,-0.001090830782496456,0.000439359981783945,-0.001090830782496456
1589996378.7153523,-0.129746126641967,-4.590507746716066,8.614873063320983,0.4211111111111111,0.4544444444444444,-0.6755555555555556,-0.001090830782496456,2.76932873798149e-05,-0.0005315687475583205
1589996378.7253523,-0.13246245151022845,-4.622462451510229,8.634924903020456,0.41349516852152707,0.4592909533650888,-0.6617083872108573,-0.001090830782496456,-0.0002686117907762071,-0.0006797212866363315
1589996378.7353523,-0.13484106094351084,-4.619682121887021,8.65515893905649,0.4088888888888889,0.4622222222222222,-0.6533333333333333,3.4675123071865486e-05,-0.0016535837352806167,3.4675123071865486e-05
1589996378.7453523,-0.1254051804847602,-4.605405180484761,8.618646624362842,0.4088888888888889,0.4622222222222222,-0.6533333333333333,0.0015920478392203556,-0.0016804445082690125,8.839666904865689e-05
1589996378.7553523,-0.12935486733516727,-4.595322566332416,8.593387168337918,0.4088888888888889,0.4622222222222222,-0.6533333333333333,0.00371234815329857,-0.0005806019197279034,-0.0005806019197279034
1589996378.7653522,-0.14,-4.596428072062382,8.632856144124764,0.4088888888888889,0.4622222222222222,-0.6533333333333333,0.0044023630808194564,-0.0007011938877752159,0.0
1589996378.7753522,-0.13649446029880813,-4.6064944602988085,8.663505539701191,0.4061623580101841,0.45949569134351737,-0.6560598642120381,-0.0004951038657335558,-0.0017992665034605594,-0.00038239506153235256
1589996378.7853522,-0.1341785768587502,-4.6083571537175,8.636571385129999,0.4011111111111111,0.4544444444444444,-0.6611111111111111,-0.006365777965392691,0.00027660529686916,-0.001090830782496456
1589996378.7953522,-0.13383924853084078,-4.6076784970616815,8.559196242654203,0.4011111111111111,0.4544444444444444,-0.6611111111111111,-0.005619714273714447,-0.0005064733733547472,-0.001090830782496456
1589996378.8053522,-0.13,-4.6,8.554314190524591,0.4011111111111111,0.4544444444444444,-0.6611111111111111,-0.0022814085098866155,-0.002181661564992912,-4.98734724468518e-05
1589996378.8153522,-0.13,-4.5893059365327025,8.594952814757027,0.4011111111111111,0.4544444444444444,-0.6611111111111111,0.0,-0.0025705086856628746,0.0007019836618264936
1589996378.8253522,-0.13,-4.588412656756706,8.646137552252236,0.4034979369869804,0.4544444444444444,-0.6611111111111111,-0.0003347515462959394,-0.003272492347489368,0.0003347515462959394
1589996378.8353522,-0.1333842065817265,-4.628307896709137,8.658307896709138,0.4088888888888889,0.4544444444444444,-0.6611111111111111,-0.001090830782496456,-0.0029033326761219295,0.0009062509468127367
1589996378.8453522,-0.14433458112817865,-4.608669162256357,8.599011230153609,0.4088888888888889,0.4544444444444444,-0.6611111111111111,0.0007631732078392658,-0.0004728294523845488,0.0006180013301119072
1589996378.8553522,-0.14,-4.589157666565257,8.587105833586858,0.4088888888888889,0.4544444444444444,-0.6611111111111111,0.0033643766714637232,-0.0029567877661770283,0.0016821883357318616
1589996378.8653522,-0.14,-4.575813626456044,8.614186373543957,0.4088888888888889,0.4544444444444444,-0.6611111111111111,0.0029933355913528033,-0.0036275038609715855,0.0017249990521152384
1589996378.8753521,-0.1350518261873827,-4.574948173812618,8.639792695250469,0.4088888888888889,0.4544444444444444,-0.6682584732848916,0.0021703548448856157,-0.001090830782496456,-0.0005284553110872826
1589996378.8853521,-0.13,-4.583969150836174,8.632215944146777,0.4088888888888889,0.4544444444444444,-0.6755555555555556,0.0011076563912539106,-0.0006578635912493645,-0.0017486943737458206
1589996378.8953521,-0.12807801674075855,-4.595765949777724,8.580390083703792,0.4088888888888889,0.4544444444444444,-0.6755555555555556,-0.0028106291157799466,-0.00020965585026234499,-0.0006715190819717659
1589996378.905352,-0.11610263845630615,-4.612205276912612,8.559486807718468,0.4088888888888889,0.4544444444444444,-0.6755555555555556,-0.0041787453297685365,-0.00024055839402062676,0.0006656945882585414
1589996378.915352,-0.11222121615121247,-4.597778783848788,8.59888486460485,0.4088888888888889,0.4544444444444444,-0.6755555555555556,-0.0014547702792966515,0.001090830782496456,0.0002422970952320868
1589996378.925352,-0.12712114119589052,-4.593560570597945,8.640681711793837,0.4088888888888889,0.4544444444444444,-0.6676431764490105,0.0007024327813474062,0.00031403478019835637,0.0007024327813474062
1589996378.935352,-0.14,-4.605035361580121,8.649929276839758,0.4088888888888889,0.4544444444444444,-0.6533333333333333,0.0,7.7147000227529e-06,0.0
1589996378.945352,-0.14,-4.61,8.591048795208692,0.4088888888888889,0.4544444444444444,-0.6533333333333333,0.0006674685128330954,0.001090830782496456,-0.0013349370256661908
1589996378.955352,-0.14,-4.592189375573705,8.601558123661356,0.4088888888888889,0.4544444444444444,-0.6533333333333333,0.001090830782496456,-0.0002043943761492759,0.0004087887522985518
1589996378.965352,-0.13557190275410425,-4.58,8.638856194491792,0.4088888888888889,0.4544444444444444,-0.6533333333333333,0.000607800304125369,-0.001573861260867543,0.001215600608250738
1589996378.975352,-0.13,-4.58,8.654109764843543,0.4139119348087755,0.4576409282116449,-0.6533333333333333,0.0004483058000159066,-0.00038843836492928564,0.0008966116000318131
1589996378.985352,-0.13,-4.590703240881845,8.665351620440923,0.4211111111111111,0.4622222222222222,-0.6533333333333333,-7.671168014264417e-05,0.0004303478710342616,0.0015978903336733618
1589996378.995352,-0.13509241452991455,-4.6,8.593613782051282,0.4211111111111111,0.4622222222222222,-0.6533333333333333,-0.0033128157930816518,-0.001646327035142755,-0.0005756579754424406
1589996379.005352,-0.14,-4.610057608602885,8.54011521720577,0.4211111111111111,0.4622222222222222,-0.6533333333333333,-0.00490559645936589,-0.0010845466587601318,-0.0010845466587601318
1589996379.015352,-0.13185673727888186,-4.62,8.588501419523913,0.4211111111111111,0.4622222222222222,-0.6533333333333333,-0.003475030965370671,0.0,0.00044414608230757647
1589996379.025352,-0.12460506660027387,-4.615394933399727,8.643815199800821,0.41190097791056335,0.4622222222222222,-0.6471932445329682,-0.0006746570440853998,0.001004669680605008,0.001090830782496456
1589996379.035352,-0.1341023589230641,-4.605897641076936,8.643590564307743,0.4011111111111111,0.4622222222222222,-0.64,0.001090830782496456,0.002629159504405645,-0.0002516630357417432
1589996379.045352,-0.1381851851851852,-4.603629629629629,8.603666666666665,0.4011111111111111,0.4622222222222222,-0.64,0.0008928651960433954,0.002876561174583247,-0.0015877648056337305
1589996379.055352,-0.13,-4.6176075524421245,8.541962237789377,0.4011111111111111,0.4622222222222222,-0.64,-0.0005219510883278213,0.0005688796941686347,0.0005688796941686347
1589996379.065352,-0.12923158928320944,-4.61,8.586147285734326,0.4011111111111111,0.4622222222222222,-0.64,-0.0018463791396027822,-0.0008393689634538587,-0.0011746513888439883
1589996379.075352,-0.12185362952023465,-4.6025854819190615,8.66370725904047,0.4011111111111111,0.4622222222222222,-0.6408238353423266,0.0019794619509913023,0.0011706634949848638,-0.0013728631089864737
