time,acc_x,acc_y,acc_z,mag_x,mag_y,mag_z,gyr_x,gyr_y,gyr_z
1589996404.668012,-3.94,-0.63,8.84,0.28,-0.3588888888888889,-0.5988888888888889,-0.007635815477475192,-0.00545415391248228,-0.001090830782496456
1589996404.678012,-3.917802647910633,-0.7,8.88,0.28,-0.3588888888888889,-0.5988888888888889,-0.01308996938995747,-0.000851136852590015,-0.004363323129985824
1589996404.688012,-3.91,-0.6981533687362048,8.887386525055181,0.2807181343803648,-0.360222567023852,-0.5988888888888889,-0.012787815055987266,0.0,-0.005169068020573035
1589996404.6980119,-3.9096684366259984,-0.6796684366259982,8.959834218313,0.2877777777777778,-0.37333333333333335,-0.5988888888888889,-0.009745141135526181,-1.808397673548095e-05,-0.013288893134047762
1589996404.7080119,-3.89,-0.6634024824401039,8.91597517559896,0.2877777777777778,-0.37333333333333335,-0.5988888888888889,-0.0032272343629408764,-0.0007196775242395554,-0.030285253613015095
1589996404.7180119,-3.9009436172948875,-0.6678112765410226,8.85875489383591,0.2877777777777778,-0.37333333333333335,-0.5988888888888889,0.0013295834748389347,0.0011937634617123934,-0.04465828741453349
1589996404.7280118,-3.9538070845304705,-0.6517157492817178,8.895522833812189,0.2877777777777778,-0.37333333333333335,-0.5988888888888889,0.000976766139203503,0.0048517061995875755,-0.06180303617598919
1589996404.7380118,-3.99,-0.6311897850689802,8.91237957013796,0.2892319595287535,-0.3724079449463488,-0.5988888888888889,-0.002311446982772732,0.0024937798408104462,-0.06498325271892597
1589996404.7480118,-3.974919191919192,-0.647540404040404,8.952621212121212,0.3,-0.3655555555555556,-0.5988888888888889,-0.00244996186351603,-0.005328818557422713,-0.04316907729265961
1589996404.7580118,-3.944246360880717,-0.6657536391192832,8.964108623963225,0.3,-0.3655555555555556,-0.5988888888888889,-0.000777018449361962,-0.009040458593106142,-0.02115894144976304
1589996404.7680118,-3.9302751407348193,-0.6797248592651811,8.901238133306686,0.3,-0.3655555555555556,-0.5988888888888889,-1.5006599152960669e-05,-0.009802470443315144,-0.008966751846419024
1589996404.7780118,-3.915796120033926,-0.6821019399830369,8.935796120033926,0.3,-0.3655555555555556,-0.5988888888888889,0.0037866641505126444,-0.011081994272878311,-0.005051181380922852
1589996404.7880118,-3.9045027531334564,-0.6877486234332718,8.924502753133456,0.3,-0.3655555555555556,-0.5988888888888889,0.008098367439083331,-0.008618163822266491,-0.006899054218881717
1589996404.7980118,-3.870022386232467,-0.6899944034418832,8.939966420651299,0.2677777777777778,-0.37777777777777777,-0.5911111111111111,0.016362461737446838,-0.0010865573539876028,-0.01964289045216694
1589996404.8080118,-3.91,-0.68,8.858643147277624,0.2677777777777778,-0.37777777777777777,-0.5911111111111111,0.01669527191411558,0.006544984694978735,-0.03681104584740881
1589996404.8180118,-3.9171059303691793,-0.6681567827180344,8.81,0.2677777777777778,-0.37777777777777777,-0.5911111111111111,0.01719491360044405,0.006544984694978735,-0.04492512589735445
1589996404.8280118,-3.9420758019952333,-0.6289620990023833,8.821416910973785,0.2677777777777778,-0.37777777777777777,-0.5911111111111111,0.015117069944324369,0.006431767259240329,-0.04795521085495646
1589996404.8380117,-3.9597684179444457,-0.6201157910277771,8.91872629869445,0.2677777777777778,-0.37777777777777777,-0.5911111111111111,0.004502262389165712,0.005466784754225906,-0.03830538580481223
1589996404.8480117,-3.9405862489447516,-0.6394137510552481,8.929706875527623,0.29366277918477524,-0.36591381879957063,-0.5781686104076124,-0.005166379634668633,0.004395298049742896,-0.02123738358354581
1589996404.8580117,-3.92,-0.6618618618618619,8.911021021021021,0.29444444444444445,-0.3655555555555556,-0.5777777777777777,-0.004048849390887746,0.0016640902027273263,-0.009558691361335312
1589996404.8680117,-3.9209240151756903,-0.6986139772364641,8.854158068290607,0.29444444444444445,-0.3655555555555556,-0.5777777777777777,-0.00639379306540817,-0.00015119162957056507,-0.008777043469828502
1589996404.8780117,-3.9373771663702617,-0.67,8.937377166370261,0.29444444444444445,-0.3655555555555556,-0.5777777777777777,-0.004416919411763469,-0.0024141720492837928,-0.009245263510331055
1589996404.8880117,-3.930064162918018,-0.67,8.930064162918018,0.29444444444444445,-0.3655555555555556,-0.5777777777777777,-0.007607819123047694,-2.0997265820624656e-05,-0.007649813654688942
1589996404.8980117,-3.9228170310701955,-0.6612681242807825,8.92028078250863,0.28,-0.37333333333333335,-0.6055555555555555,-0.007635815477475192,0.004194363609474865,-0.006237694274316903
1589996404.9080117,-3.9275680329911857,-0.6851360659823714,8.857840164955928,0.28,-0.37333333333333335,-0.6055555555555555,-0.006574669687383019,0.0062796982474556924,-0.006250013255051409
1589996404.9180117,-3.92,-0.6676542464098411,8.827037260770478,0.28,-0.37333333333333335,-0.6055555555555555,-0.0027607283026299693,0.004430625822763482,-0.008470764237541948
1589996404.9280117,-3.918214847715736,-0.661785152284264,8.85892576142132,0.28,-0.37333333333333335,-0.6055555555555555,-0.001480290595120254,0.001480290595120254,-0.00802527529009899
1589996404.9380116,-3.9128921319796954,-0.6671078680203046,8.885539340101523,0.28,-0.37333333333333335,-0.6055555555555555,-0.00264152702939053,0.00264152702939053,-0.009186511724369267
1589996404.9480116,-3.9338646841383893,-0.7018195788511857,8.931819578851185,0.286187140332175,-0.355655789527119,-0.5940651520815162,-0.0067434699571840345,0.003272492347489368,-0.012420710249739102
1589996404.9580116,-3.96103150436842,-0.67448424781579,8.909820884828944,0.2877777777777778,-0.3511111111111111,-0.5911111111111111,-0.0020496034590378113,0.0006016752271158334,-0.007014601816139468
1589996404.9680116,-3.9294377586272353,-0.6888755172544702,8.845060172354884,0.2877777777777778,-0.3511111111111111,-0.5911111111111111,0.0022429925846534126,-0.001090830782496456,-0.0010294997628359551
1589996404.9780116,-3.921476215785278,-0.6729524315705554,8.9167140579325,0.2877777777777778,-0.3511111111111111,-0.5911111111111111,0.0031114621854705584,-0.001090830782496456,-0.00016103016201880988
1589996404.9880116,-3.92,-0.67,8.948648545385076,0.2877777777777778,-0.3511111111111111,-0.5911111111111111,0.004289612715230592,-0.003125071517978904,0.0010171203677412236
1589996404.9980116,-3.9281298150208053,-0.694389445062415,8.95,0.2877777777777778,-0.3511111111111111,-0.5974343005717373,0.007910624122264292,-0.0006120166032805171,0.000204005534426839
1589996405.0080116,-3.931007899075885,-0.6910078990758848,8.915889412937613,0.2877777777777778,-0.3511111111111111,-0.5988888888888889,0.008066977857396717,0.007635815477475192,0.0014206649837839212
1589996405.0180116,-3.939049426741823,-0.6990494267418229,8.803308025614479,0.2877777777777778,-0.3511111111111111,-0.5988888888888889,0.0028038103076154152,0.007635815477475192,0.004052248758674572
1589996405.0280116,-3.9220969593654327,-0.66,8.82467871555803,0.2877777777777778,-0.3511111111111111,-0.5988888888888889,-0.001090830782496456,0.00895538904251748,0.0034483519998024965
1589996405.0380116,-3.929392916782633,-0.66,8.87575041747843,0.2877777777777778,-0.3511111111111111,-0.5988888888888889,-0.001090830782496456,0.009751254536364003,0.00026489002441640926
1589996405.0480115,-3.94,-0.6742012172568008,8.8921006086284,0.2733333333333333,-0.3655555555555556,-0.5844444444444444,-0.00482160484075319,0.006544984694978735,0.0004582817107673668
1589996405.0580115,-3.94,-0.688304919466021,8.899152459733012,0.2733333333333333,-0.3655555555555556,-0.5844444444444444,-0.006360080092451259,0.006544984694978735,0.001996756962465435
1589996405.0680115,-3.934304322766571,-0.7,8.840760806916427,0.2733333333333333,-0.3655555555555556,-0.5844444444444444,-0.003189501187091943,0.003659029964249495,0.001325595171075232
1589996405.0780115,-3.9471001357648703,-0.701449932117565,8.893049389058087,0.2733333333333333,-0.3655555555555556,-0.5844444444444444,0.0012489938411334774,0.000774504665222413,0.001865335447718869
1589996405.0880115,-3.931709903496863,-0.7091450482515685,8.962305434264119,0.2733333333333333,-0.3655555555555556,-0.5844444444444444,0.002088400796519102,-0.0009043092455488361,0.00018652153694761987
1589996405.0980115,-3.93,-0.6786304787779657,8.958630478777966,0.28,-0.3588888888888889,-0.5911111111111111,0.003272492347489368,0.002181661564992912,0.0018828783837374716
1589996405.1080115,-3.932289659261769,-0.6677103407382309,8.917944770335232,0.28,-0.3588888888888889,-0.5911111111111111,0.003772018508322543,0.0019318984845763244,0.0004995261608331751
1589996405.1180115,-3.9360210904733375,-0.6586736968244458,8.816631515877772,0.28,-0.3588888888888889,-0.5911111111111111,0.00487544498015534,0.0012355080155781908,0.002036984331911177
1589996405.1280115,-3.915364470640901,-0.6510728941281803,8.86214578825636,0.28,-0.3588888888888889,-0.5911111111111111,0.0012078653766343283,0.0022986961591307843,0.001090830782496456
1589996405.1380115,-3.9544816459001715,-0.6588963291800344,8.87779265836007,0.28,-0.3588888888888889,-0.5911111111111111,0.002061269754576745,0.0031521005370732016,0.001090830782496456
1589996405.1480114,-3.9456572975555377,-0.6671713512222311,8.894342702444463,0.2712350151728287,-0.3692475073210005,-0.6078442639629836,0.0013993884984625886,-0.0022034191182228957,0.001090830782496456
1589996405.1580114,-3.9394823819767537,-0.7094823819767538,8.887929527907016,0.2677777777777778,-0.37333333333333335,-0.6144444444444445,0.0025204417689920116,-0.009761013675134923,-0.0010343674151632727
1589996405.1680114,-3.932488035085964,-0.7024880350859639,8.859952140343855,0.2677777777777778,-0.37333333333333335,-0.6144444444444445,0.0070982311041512345,-0.008998048785941718,-0.00027140252597006884
1589996405.1780114,-3.9207959809264303,-0.6815919618528611,8.914428133514987,0.2677777777777778,-0.37333333333333335,-0.6144444444444445,0.010734651725598468,-0.012742657191225288,-0.0010040027328134104
1589996405.1880114,-3.92,-0.6361958060520262,8.92,0.2677777777777778,-0.37333333333333335,-0.6144444444444445,0.01759792266748983,-0.014045628653175365,-0.001090830782496456
1589996405.1980114,-3.92,-0.6564855272497832,8.939456581749349,0.2877777777777778,-0.3466666666666667,-0.5844444444444444,0.020342415361414505,-0.011748176118893923,-0.0030808075944802897
1589996405.2080114,-3.9200821901608323,-0.6400410950804163,8.889630144276254,0.2877777777777778,-0.3466666666666667,-0.5844444444444444,0.018512743857330684,-0.005463119468227727,-0.0021682132313747405
1589996405.2180114,-3.94,-0.6530140336149789,8.809042100844938,0.2877777777777778,-0.3466666666666667,-0.5844444444444444,0.01008635766329004,-0.0073070354128053835,0.00043327065315684006
1589996405.2280114,-3.94,-0.6683225359052504,8.85496760771575,0.2877777777777778,-0.3466666666666667,-0.5844444444444444,0.005911611280253664,-0.0056371368595908335,-0.0029065264532722604
1589996405.2380114,-3.94,-0.6637814076627204,8.884874369349118,0.2877777777777778,-0.3466666666666667,-0.5844444444444444,0.004097467523422049,-0.006132497107012395,-0.001915805958429137
1589996405.2480114,-3.94,-0.6533640409895456,8.893364040989546,0.2958883943461109,-0.35477728323499985,-0.5888684171180807,0.007615717363482401,-0.011612080546970605,-0.0025385724544941335
1589996405.2580113,-3.9330585793124397,-0.6652060655156701,8.9526464482811,0.3,-0.3588888888888889,-0.5911111111111111,0.014937991708478754,-0.024989723156493858,-0.001090830782496456
1589996405.2680113,-3.9019285106736095,-0.6842144679791714,8.877714042694437,0.3,-0.3588888888888889,-0.5911111111111111,0.019595962706012875,-0.03616879232417434,-0.001090830782496456
1589996405.2780113,-3.907668068437122,-0.66,8.912331931562878,0.3,-0.3588888888888889,-0.5911111111111111,0.02406187078320859,-0.04094282118857284,-0.001218017919069578
1589996405.2880113,-3.8754519269543177,-0.66,8.944548073045683,0.3,-0.3588888888888889,-0.5911111111111111,0.024940429753776187,-0.03391434942403205,-0.0029751358602047766
1589996405.2980113,-3.87,-0.66,8.956409336717801,0.2964392573789991,-0.3588888888888889,-0.5868382199659101,0.021593357103837113,-0.02573342168773093,-0.0018741919900568177
1589996405.3080113,-3.877997574547011,-0.652002425452989,8.912014552717935,0.29444444444444445,-0.3588888888888889,-0.5844444444444444,0.017017753934579286,-0.01134781504850144,-0.0002184307323774826
1589996405.3180113,-3.871411715655618,-0.6507058578278091,8.821411715655618,0.29444444444444445,-0.3588888888888889,-0.5844444444444444,0.012627986521973356,0.0024126529989849693,-0.002643644432977027
1589996405.3280113,-3.888898895142798,-0.6594494475713988,8.838898895142798,0.29444444444444445,-0.3588888888888889,-0.5844444444444444,0.006905320416876564,0.005273986051533366,-0.00836631053807382
1589996405.3380113,-3.909037054976992,-0.6155802050536853,8.871728424961654,0.29444444444444445,-0.3588888888888889,-0.5844444444444444,0.0023917435795826874,0.009607395027878328,-0.016340921638197736
1589996405.3480113,-3.960686894226717,-0.59,8.917124596151146,0.29821174946543677,-0.368683881943469,-0.5942394374990245,-0.005177960277779392,0.012738847218572356,-0.022944910700766687
1589996405.3580112,-3.98,-0.618539585101983,8.922865103724504,0.3,-0.37333333333333335,-0.5988888888888889,-0.01074900127236723,0.012311672941234461,-0.019328498522583972
1589996405.3680112,-3.9167706270342877,-0.676770627034288,8.833229372965713,0.3,-0.37333333333333335,-0.5988888888888889,-0.01256156447408339,0.0004743583806433605,-0.0029202224035733138
1589996405.3780112,-3.887877796338712,-0.6478777963387122,8.862122203661286,0.3,-0.37333333333333335,-0.5988888888888889,-0.007833986106654502,-0.005041149714690339,0.00023149650804594373
1589996405.3880112,-3.885130676084763,-0.64,8.890522704339052,0.3,-0.37333333333333335,-0.5988888888888889,-0.008223994517462056,-0.00374663499083987,0.0016505007233242291
1589996405.3980112,-3.8850692731068515,-0.6547921806794459,8.924792180679445,0.29397355601948505,-0.36949832352755113,-0.6021760401509879,-0.013582489115058834,0.008052769965223886,0.002719520432505873
1589996405.4080112,-3.9201202909127515,-0.6602405818255027,8.94915796361074,0.2877777777777778,-0.3655555555555556,-0.6055555555555555,-0.022999298353764207,0.02955740475179132,0.003246248941392617
1589996405.4180112,-3.9306215408841445,-0.6781353773475673,8.879378459115857,0.2877777777777778,-0.3655555555555556,-0.6055555555555555,-0.030678861095701684,0.038518075351878255,0.0011586303753969142
1589996405.4280112,-3.940265299748296,-0.6513264987414797,8.87185709823807,0.2877777777777778,-0.3655555555555556,-0.6055555555555555,-0.03275386318809666,0.04345959302064037,0.002181661564992912
1589996405.4380112,-3.9479713020632383,-0.6898565103161917,8.925799114442668,0.2877777777777778,-0.3655555555555556,-0.6055555555555555,-0.03359445764160947,0.0384160262995635,0.002181661564992912
1589996405.4480112,-3.9570764329661245,-0.6941528659322487,8.897076432966125,0.3,-0.37777777777777777,-0.5911111111111111,-0.029401710851726843,0.02410701278500673,0.0015691983197829663
1589996405.4580112,-3.944580782122905,-0.6584730726256983,8.867784581005587,0.3,-0.37777777777777777,-0.5911111111111111,-0.01552965204618446,0.010833205039693686,0.004696447006490775
1589996405.4680111,-3.96686759642878,-0.6515662017856101,8.80939721071366,0.3,-0.37777777777777777,-0.5911111111111111,-0.01073746171303012,0.004107053962084165,0.007484638310618152
1589996405.4780111,-3.9342341133220518,-0.6678829433389741,8.907297660033844,0.3,-0.37777777777777777,-0.5911111111111111,-0.008957581317385263,0.00143723336861688,0.01727398048666486
1589996405.4880111,-3.9185508610143973,-0.6757245694928014,8.92,0.3,-0.37777777777777777,-0.5911111111111111,-0.006853285274185295,-0.00015807654136111246,0.024164206259798805
1589996405.498011,-3.8945842083158335,-0.6954157916841663,8.945692986140278,0.29714522376219143,-0.36807153856922864,-0.5985335293294134,-0.006575221919525046,-0.001090830782496456,0.03116427036251477
1589996405.508011,-3.891566816476312,-0.6984331835236878,8.97,0.29444444444444445,-0.3588888888888889,-0.6055555555555555,-0.009528431397652474,0.0014326571110732536,0.026876162550073433
1589996405.518011,-3.9347804976734775,-0.6552195023265224,8.865658506979567,0.29444444444444445,-0.3588888888888889,-0.6055555555555555,-0.01375378063692274,0.0051694742221281564,0.01138321533941578
1589996405.528011,-3.94,-0.6566138262072736,8.863227652414546,0.29444444444444445,-0.3588888888888889,-0.6055555555555555,-0.010573517563966048,0.006897066955877431,0.006931650955677801
1589996405.538011,-3.94,-0.679590824550527,8.896121099400702,0.29444444444444445,-0.3588888888888889,-0.6055555555555555,-0.005877276330078033,0.006211130512528385,0.004741811430008876
1589996405.548011,-3.946650365670984,-0.69,8.903349634329016,0.290010867330455,-0.3537163822559012,-0.6114669917075415,-0.002186996053355636,0.004003269194728821,0.002186996053355636
1589996405.558011,-3.94,-0.6503754309106579,8.837371983625395,0.2877777777777778,-0.3511111111111111,-0.6144444444444445,4.095315940462671e-05,-0.0023045210432067922,0.0031905860286801147
1589996405.568011,-3.94,-0.6579061332950302,8.784657066934788,0.2877777777777778,-0.3511111111111111,-0.6144444444444445,0.0008624253568739037,-0.004768937635614623,0.0015476416337415603
1589996405.578011,-3.9304796363454053,-0.67,8.853837090763239,0.2877777777777778,-0.3511111111111111,-0.6144444444444445,-0.000209280835988758,-0.004311002920988635,0.009712836624473727
1589996405.588011,-3.9374891789361097,-0.67,8.909913431488878,0.2877777777777778,-0.3511111111111111,-0.6144444444444445,-0.003267770767653036,-0.0035463804380725652,0.008183591658641586
1589996405.598011,-3.94,-0.67,8.958273290620735,0.2940607312490518,-0.35844122349426416,-0.5924541072949854,-0.0002511396991106219,-0.0012164006320517667,0.005579723762037591
1589996405.608011,-3.9310702652396463,-0.696789204281061,8.977859469520707,0.29444444444444445,-0.3588888888888889,-0.5911111111111111,0.005844497733673426,-0.0020649137381086938,0.0035059880012578044
1589996405.618011,-3.93,-0.690324069246011,8.87356476170612,0.29444444444444445,-0.3588888888888889,-0.5911111111111111,0.006544984694978735,-0.0011261812534173834,0.0011615317243383106
1589996405.628011,-3.9394668775586155,-0.69,8.926801265351694,0.29444444444444445,-0.3588888888888889,-0.5911111111111111,0.006544984694978735,-5.815463699018145e-05,0.00418885921901528
1589996405.638011,-3.932396011122831,-0.6823960111228305,8.95281196663151,0.29444444444444445,-0.3588888888888889,-0.5911111111111111,0.007374451208676444,0.002488399541093124,0.0018749235888927
1589996405.648011,-3.93,-0.6737817521484829,8.96,0.28546253088114193,-0.3588888888888889,-0.6056203560979845,0.007635815477475192,0.004629103581414836,0.0017691363994591903
1589996405.658011,-3.934772429405457,-0.674772429405457,8.893185988323603,0.28,-0.3588888888888889,-0.6144444444444445,0.007115224187198824,0.005974745202758648,0.0011404789844401764
1589996405.668011,-3.946206978777522,-0.6737930212224784,8.795172084889913,0.28,-0.3588888888888889,-0.6144444444444445,0.007899137398343305,0.005867908343296451,0.0013541527033645695
1589996405.678011,-3.944156129939936,-0.6758438700600639,8.82675096048051,0.28,-0.3588888888888889,-0.6144444444444445,0.011276515600142471,0.004179219242396868,0.0009067268949074993
1589996405.688011,-3.94,-0.6740065322171487,8.86,0.28,-0.3588888888888889,-0.6144444444444445,0.01308996938995747,0.0013111346020588588,0.0006537859151435031
1589996405.698011,-3.94,-0.6235044579116032,8.934392867341435,0.2686344230450586,-0.3588888888888889,-0.5999791646836099,0.012075594018779817,-0.002028750742355309,0.0021052061536741104
1589996405.708011,-3.923537795455016,-0.6529244090899675,8.956462204544984,0.2677777777777778,-0.3588888888888889,-0.5988888888888889,0.006611894767834618,-0.003977409511535045,0.003079535538263978
1589996405.718011,-3.9361321324221863,-0.66,8.895471470311255,0.2677777777777778,-0.3588888888888889,-0.5988888888888889,0.0028145399174677953,-0.002603580466642834,0.002392621015817873
1589996405.728011,-3.930605464964979,-0.6693945350350212,8.889394535035022,0.2677777777777778,-0.3588888888888889,-0.5988888888888889,-0.0019174776363840968,-0.0011568767646486598,0.0011568767646486598
1589996405.738011,-3.93,-0.6776009483022332,8.935605689813398,0.2677777777777778,-0.3588888888888889,-0.5988888888888889,-0.002181661564992912,0.000567438894351552,0.0027491004593444644
1589996405.7480109,-3.920666772503572,-0.707999682489284,8.922000317510715,0.2926663844349191,-0.37237021749484045,-0.6051110405531742,-0.006254050306251311,0.006181316709069455,0.003272492347489368
1589996405.7580109,-3.92,-0.7031134195243363,8.92,0.29444444444444445,-0.37333333333333335,-0.6055555555555555,-0.0050425659011801224,0.006544984694978735,0.003272492347489368
1589996405.7680109,-3.942705420962743,-0.6697261053830097,8.82917831614903,0.29444444444444445,-0.37333333333333335,-0.6055555555555555,-0.0018865459184158138,0.006544984694978735,0.003272492347489368
1589996405.7780108,-3.95,-0.652621114533744,8.85165219826379,0.29444444444444445,-0.37333333333333335,-0.6055555555555555,-0.001090830782496456,0.006544984694978735,0.003272492347489368
1589996405.7880108,-3.9374905470128563,-0.6625094529871439,8.888764179480717,0.29444444444444445,-0.37333333333333335,-0.6055555555555555,-0.00040854596296801356,0.005180415055921851,0.0025902075279609256
1589996405.7980108,-3.9354466604928513,-0.6591066790142976,8.916339981478554,0.28657704595477057,-0.37333333333333335,-0.610397031549201,-0.0005941384927409378,0.0025809076517630102,0.003964077043215725
1589996405.8080108,-3.9441947969420963,-0.65,8.91741560917371,0.28,-0.37333333333333335,-0.6144444444444445,-0.00017566805634433894,0.0015484121455725144,0.004996572549406221
1589996405.8180108,-3.95,-0.6452590329970661,8.862072263976529,0.28,-0.37333333333333335,-0.6144444444444445,-0.0020121248648637454,0.002181661564992912,0.0028118453063057233
1589996405.8280108,-3.9660242101171637,-0.6480121050585819,8.868072630351492,0.28,-0.37333333333333335,-0.6144444444444445,-0.008076109161631265,0.000433691398893588,0.005460756197744766
1589996405.8380108,-3.9555435256956426,-0.6355435256956422,8.916141185760894,0.28,-0.37333333333333335,-0.6144444444444445,-0.009515124618849773,0.0023654350766343733,0.016795203360394355
1589996405.8480108,-3.9596900406504063,-0.6590701219512195,8.939690040650406,0.28753669828364953,-0.3517999096657633,-0.6058310749774164,-0.019330652205062963,-0.0009555855025527894,0.04926531035521722
1589996405.8580108,-3.96,-0.66,8.931768388106416,0.2877777777777778,-0.3511111111111111,-0.6055555555555555,-0.01963495408493621,-0.001090830782496456,0.05017821599483697
1589996405.8680108,-3.9304067960124343,-0.66,8.864894951227356,0.2877777777777778,-0.3511111111111111,-0.6055555555555555,-0.018989330527689537,-0.001090830782496456,0.05469758089556366
1589996405.8780107,-3.917696771853464,-0.6753935437069278,8.850787087413856,0.2877777777777778,-0.3511111111111111,-0.6055555555555555,-0.010148247638829017,-0.00025124321613538255,0.05445568120686786
1589996405.8880107,-3.9339965615160235,-0.6520068769679526,8.90198968454807,0.2877777777777778,-0.3511111111111111,-0.6055555555555555,-0.006872421469935995,-0.0007633940075391968,0.04887034429709116
1589996405.8980107,-3.9583163955464604,-0.5575762200409282,8.974949186639382,0.28065473506526545,-0.37146266171828934,-0.6055555555555555,-0.005545980290655735,-9.182637817345559e-05,0.058893776499223616
1589996405.9080107,-3.7489990615190445,-0.4796663538396816,8.948030160836218,0.28,-0.37333333333333335,-0.6055555555555555,-0.006849101299334808,-0.002789894773705055,0.07255021951897783
1589996405.9180107,-3.7723171893457303,-0.5523556757992607,8.885057729680295,0.28,-0.37333333333333335,-0.6055555555555555,0.0038032139658605423,0.0013561915916820433,0.06819161767890554
1589996405.9280107,-3.9178379375547663,-0.6552252917031777,8.829234192685513,0.28,-0.37333333333333335,-0.6055555555555555,0.010303931326992822,0.003272492347489368,0.04301408937114986
1589996405.9380107,-3.94,-0.6837822634689195,8.868237922141219,0.28,-0.37333333333333335,-0.6055555555555555,0.002639543340559018,0.0010173747608333114,0.04043419497403202
1589996405.9480107,-3.894558350394852,-0.6510500146241591,8.89,0.28,-0.3639564850021124,-0.6012277794026843,0.0003254306516953451,-0.0007081307170959005,0.04640848475453663
1589996405.9580107,-3.862106756059825,-0.6063202681794739,8.874213512119649,0.28,-0.3588888888888889,-0.5988888888888889,0.00022981143612676763,-0.00022981143612676763,0.04908738521234052
1589996405.9680107,-3.8519445738239404,-0.6161108523521193,8.789445738239403,0.28,-0.3588888888888889,-0.5988888888888889,-0.0017574213677947095,-0.0008787106838973548,0.04030027837336697
1589996405.9780107,-3.841493504849206,-0.62,8.804025980603175,0.28,-0.3588888888888889,-0.5988888888888889,-0.00032583221266435885,0.001692913245996374,0.017764954511761872
1589996405.9880106,-3.8468606178267573,-0.6405818534802719,8.926630503054874,0.28,-0.3588888888888889,-0.5988888888888889,0.0007483773112370763,0.002181661564992912,-0.006773764542184207
1589996405.9980106,-3.867808957312806,-0.65,8.962191042687195,0.28,-0.36482520799315765,-0.6048252079931575,0.0030334866665938888,0.007038301275236494,-0.03870300440456731
1589996406.0080106,-3.8618522095098142,-0.5929654665686994,9.000738952450929,0.28,-0.3655555555555556,-0.6055555555555555,0.003272492347489368,0.009413387612680502,-0.05211700254609718
1589996406.0180106,-3.885695001163723,-0.6056950011637229,8.907219995345109,0.28,-0.3655555555555556,-0.6055555555555555,0.006075382170056485,0.008883180434945731,-0.05641013233986753
1589996406.0280106,-3.9266889793943305,-0.6613645711520626,8.882662204121134,0.28,-0.3655555555555556,-0.6055555555555555,0.006544984694978735,0.0103275049840402,-0.05592277132778143
1589996406.0380106,-3.958623795740269,-0.6986237957402687,8.886207931913424,0.28,-0.3655555555555556,-0.6055555555555555,0.005867804372298353,0.010231127502284177,-0.05427800926195848
1589996406.0480106,-3.984058104680655,-0.7240581046806548,8.897029052340327,0.2854670407091436,-0.37102259626469913,-0.5954024799528604,0.0039206525795607,0.009817477042468105,-0.05115045634294396
1589996406.0580106,-3.9953792786818347,-0.7031036065908279,8.883862163954497,0.2877777777777778,-0.37333333333333335,-0.5911111111111111,0.0020989157927349803,0.007470323932959329,-0.05076500427221416
1589996406.0680106,-3.9828314023327005,-0.6456628046654009,8.8356628046654,0.2877777777777778,-0.37333333333333335,-0.5911111111111111,-0.00015770487268935854,0.003581350429703558,-0.04065649370825401
1589996406.0780106,-3.946211674150096,-0.5486350224502887,8.84171776779987,0.2877777777777778,-0.37333333333333335,-0.5911111111111111,-0.003685734592609578,-0.003008146055233332,-0.009370789183875586
1589996406.0880105,-3.9279543393609644,-0.45772603616578655,8.92829679415373,0.2877777777777778,-0.37333333333333335,-0.5911111111111111,-0.006991278614099011,-0.005020312001014121,0.026292006848783998
1589996406.0980105,-3.9256042257150217,-0.4324169028600876,8.982802112857511,0.28964585301611845,-0.3692858369835953,-0.5873749606344298,-0.0068926676833704174,-0.006982469392983305,0.07515855009047084
1589996406.1080105,-3.937612299235592,-0.4804491969423688,8.988806149617796,0.29364854418964187,-0.36061333944096124,-0.5793695782873829,-0.0029630348129548153,-0.010257163451662974,0.13803267601712046
1589996406.1180105,-3.885077752871953,-0.5370762118240404,8.895847576351919,0.29444444444444445,-0.3588888888888889,-0.5777777777777777,0.0012418171670728778,-0.008340698775915218,0.17278725974293857
1589996406.1280105,-3.7194084302325585,-0.6134069767441861,8.782815406976743,0.29444444444444445,-0.3588888888888889,-0.5777777777777777,0.014285760925072047,-0.002448344323155563,0.15987552076358014
1589996406.1380105,-3.6928455159409697,-0.649268273911454,8.830650337675332,0.29444444444444445,-0.3588888888888889,-0.5777777777777777,0.010447150417214147,-0.001090830782496456,0.11216050428784895
1589996406.1480105,-3.6528611802705067,-0.6757129399098312,8.932851759639323,0.283096210065122,-0.3588888888888889,-0.599601305430321,0.009116008475552865,0.0031942088517937575,0.03865083362444646
1589996406.1580105,-3.0227118717598316,-0.7957415240450315,8.926851695190994,0.28,-0.3588888888888889,-0.6055555555555555,0.022442918766605514,0.011938588164468269,-0.028779443358901143
1589996406.1680105,-2.519926326514617,-0.821792982731144,8.813308775504872,0.28,-0.3588888888888889,-0.6055555555555555,0.03692289926313265,0.027609500776476052,-0.14230595313824884
1589996406.1780105,-2.475655152239097,-0.7601379781087736,8.82420686965213,0.28,-0.3588888888888889,-0.6055555555555555,0.04113560348934175,0.036140347868308755,-0.31194739527228005
1589996406.1880105,-2.468174547126739,-1.0811126804513131,9.101985416085007,0.28,-0.3588888888888889,-0.6055555555555555,0.06015594335098129,0.06417733942821986,-0.4151090982586473
1589996406.1980104,-2.3147807577692636,-0.931392689898437,8.932138295931399,0.2840338678397427,-0.3623464898943826,-0.5980640867103192,0.09628135673111957,0.10440158784891518,-0.516580122364305
1589996406.2080104,-2.164719410146878,-0.5494388202937562,8.67640294926561,0.2877777777777778,-0.3655555555555556,-0.5911111111111111,0.059469842256908,0.08685049918499718,-0.6640319564794062
1589996406.2180104,-2.2100371355023842,-0.804482001941174,8.828666919863274,0.2877777777777778,-0.3655555555555556,-0.5911111111111111,0.010261828206895595,0.04485732600248498,-0.7871800332020504
1589996406.2280104,-2.263384615384615,-0.9243076923076923,8.87523076923077,0.2877777777777778,-0.3655555555555556,-0.5911111111111111,0.009263670645200672,0.04573098280465912,-0.8547917831762614
1589996406.2380104,-2.3516406025136716,-0.9262291726630208,8.839015638491796,0.2877777777777778,-0.3655555555555556,-0.5911111111111111,0.032707306360653984,0.0693842195120679,-0.9036731890352416
1589996406.2480104,-2.472528950631555,-0.9090115802526219,8.793517370378932,0.29628871468303175,-0.36004847873450885,-0.5976194746268936,0.05099318105770206,0.08677495714279163,-0.9536872338135919
1589996406.2580104,-2.5238830108827086,-0.9319415054413542,8.857766021765418,0.30666666666666664,-0.3533333333333333,-0.6055555555555555,0.03887824122249933,0.07901124286859203,-1.0112683535175426
1589996406.2680104,-2.6290153671030168,-0.951126920887877,8.867746158224246,0.30666666666666664,-0.3533333333333333,-0.6055555555555555,0.03272492347489368,0.07660401077353883,-1.0562010958794454
1589996406.2780104,-2.7069315772304683,-0.96,8.870794731691404,0.30666666666666664,-0.3533333333333333,-0.6055555555555555,0.037261630163441375,0.08080816968401867,-1.1012671561099425
1589996406.2880104,-2.7447797089733226,-0.9542033818377795,8.903186472648882,0.30666666666666664,-0.3533333333333333,-0.6055555555555555,0.03926990816987242,0.0830769345923798,-1.132249099676142
1589996406.2980103,-2.7842241018340173,-0.9713361527510258,8.941336152751026,0.32089076850068393,-0.35175287757399804,-0.6055555555555555,0.03694249494978586,0.0832181658455316,-1.1681856757912497
1589996406.3080103,-2.8170818924714567,-1.0138523655893206,8.889065741939222,0.32666666666666666,-0.3511111111111111,-0.6055555555555555,0.035997415822383035,0.08511877161643994,-1.1947314714873503
1589996406.3180103,-2.848857271005681,-1.0488572710056814,8.784570915977275,0.32666666666666666,-0.3511111111111111,-0.6055555555555555,0.038740094713966375,0.09097531987749087,-1.2134713989370285
1589996406.3280103,-2.8541953282665635,-1.06,8.745804671733437,0.32666666666666666,-0.3511111111111111,-0.6055555555555555,0.042893504796016654,0.09571102167743105,-1.230313069666541
1589996406.3380103,-2.8849280841941143,-1.0905620736698498,8.80239212629117,0.32666666666666666,-0.3511111111111111,-0.6055555555555555,0.04091399914109792,0.09517890817155619,-1.2471418376189625
1589996406.3480103,-2.9371707558587303,-1.13,8.873585377929365,0.32905691861957675,-0.3423468539504407,-0.6083441828339506,0.03717072800605352,0.09115620026730478,-1.2611653473682514
1589996406.3580103,-2.960080112590668,-1.1501602251813359,8.890080112590669,0.3333333333333333,-0.32666666666666666,-0.6133333333333333,0.04036947788036549,0.08872381661904395,-1.2679293703537062
1589996406.3680103,-2.98,-1.1997012110008676,8.892537820198438,0.3333333333333333,-0.32666666666666666,-0.6133333333333333,0.04338899088434096,0.08987141934819898,-1.2725762279898745
1589996406.3780103,-3.014776510350655,-1.2747765103506548,8.837388255175327,0.3333333333333333,-0.32666666666666666,-0.6133333333333333,0.046273468847375925,0.09479105972956071,-1.2689210972084561
1589996406.3880103,-3.04,-1.3199881626160619,8.864991121962047,0.3333333333333333,-0.32666666666666666,-0.6133333333333333,0.04526980028817252,0.09599375448882731,-1.2691806469909177
1589996406.3980103,-3.0430714978037163,-1.3492144934111485,8.898428986822298,0.3432303818119743,-0.32666666666666666,-0.6088967253946322,0.04405396521182192,0.09456722964192528,-1.2694776678673056
1589996406.4080102,-3.064896921017403,-1.3886211512717537,8.887860776439089,0.3655555555555556,-0.32666666666666666,-0.5988888888888889,0.04091739851634163,0.09259269579393009,-1.2632045344763452
1589996406.4180102,-3.071611371281578,-1.4383886287184222,8.769352285469296,0.3655555555555556,-0.32666666666666666,-0.5988888888888889,0.037510447978910844,0.09187621376413607,-1.2517102275422278
1589996406.4280102,-3.0157300246849426,-1.4752971287514616,8.756324282187865,0.3655555555555556,-0.32666666666666666,-0.5988888888888889,0.039157863111194784,0.08927125566833995,-1.2444610543320866
1589996406.4380102,-2.975061266167461,-1.4800408441116406,8.76497957794418,0.3655555555555556,-0.32666666666666666,-0.5988888888888889,0.03927436357129854,0.08726646259971647,-1.239197135120252
1589996406.4480102,-2.9870683418258195,-1.5241366836516395,8.829550352016804,0.37999200452932613,-0.3122302176928961,-0.6024980011323315,0.03936015660716558,0.08844754181950609,-1.2317774992992208
1589996406.4580102,-3.026965059359703,-1.5926200791462706,8.863034940640297,0.3922222222222223,-0.3,-0.6055555555555555,0.041594472884131775,0.09006499113059084,-1.2245742592957207
1589996406.4680102,-3.04,-1.6266439145465827,8.80561622787578,0.3922222222222223,-0.3,-0.6055555555555555,0.04254240051736178,0.09174933456911605,-1.2205200967741205
1589996406.4780102,-3.0099756462676233,-1.6460048707464754,8.776004870746474,0.3922222222222223,-0.3,-0.6055555555555555,0.043197430302878564,0.09010049737013162,-1.222168933973105
1589996406.4880102,-2.99,-1.678030287901481,8.81203461474455,0.3922222222222223,-0.3,-0.6055555555555555,0.043196427001498616,0.0879204890838533,-1.2260961594528217
1589996406.4980102,-2.9876685980055973,-1.7246628039888061,8.864662803988805,0.3984392942072971,-0.2953371960111939,-0.6021879748969733,0.04254240051736178,0.08777509561209017,-1.2303835578982532
1589996406.5080101,-2.98,-1.765449298325034,8.88636232458126,0.4188888888888889,-0.28,-0.5911111111111111,0.0439304444176559,0.08944812416470939,-1.238587768654521
1589996406.5180101,-2.9453724354141038,-1.7973137822929481,8.774574784713678,0.4188888888888889,-0.28,-0.5911111111111111,0.0428354214136957,0.09196631172292138,-1.2464018055973907
1589996406.5280101,-2.9256112818560123,-1.8324451274240487,8.718056409280061,0.4188888888888889,-0.28,-0.5911111111111111,0.04083947383708513,0.09197515960135463,-1.25498884392318
1589996406.5380101,-2.9345691471468283,-1.8728457357341406,8.76284573573414,0.4188888888888889,-0.28,-0.5911111111111111,0.04085915558812047,0.09053895494720583,-1.2638028893584263
1589996406.54801,-2.9485220569700026,-1.905681371313335,8.795681371313334,0.42646405064000226,-0.2705310478111083,-0.5952143237262976,0.04176144047063424,0.09208830862605037,-1.2731356089193326
1589996406.55801,-2.97,-1.9727373787438929,8.795617078524392,0.4455555555555555,-0.2466666666666667,-0.6055555555555555,0.044634311649071334,0.09390119772797857,-1.2869559472626095
1589996406.56801,-2.982966835925103,-2.03,8.762710885433195,0.4455555555555555,-0.2466666666666667,-0.6055555555555555,0.04832018602521595,0.09304424810757064,-1.2968778643919054
1589996406.57801,-2.993494510135135,-2.040842483108108,8.746505489864864,0.4455555555555555,-0.2466666666666667,-0.6055555555555555,0.05041476228149741,0.09490227807719166,-1.3062366948873356
1589996406.58801,-2.97,-2.0981251611002687,8.79900025776043,0.4455555555555555,-0.2466666666666667,-0.6055555555555555,0.0500827577573806,0.0960885670971445,-1.324650402900523
1589996406.59801,-2.9675022185814734,-2.142488907092634,8.85,0.4536039623485865,-0.2386182598736357,-0.6113837121987848,0.04745162305798871,0.09817477042468103,-1.3362648044418013
1589996406.60801,-2.9439851855813455,-2.19067654294577,8.823308642635576,0.4777777777777778,-0.21444444444444444,-0.6288888888888889,0.04697952303444024,0.1005040307638592,-1.3548199118725448
1589996406.61801,-2.9073018776190587,-2.2056745305952354,8.748929224642882,0.4777777777777778,-0.21444444444444444,-0.6288888888888889,0.0455205733700438,0.09758613143506635,-1.3686375999875742
1589996406.62801,-2.8498809883144323,-2.230059505842784,8.740089258764176,0.4777777777777778,-0.21444444444444444,-0.6288888888888889,0.04308619313848383,0.09545256177881842,-1.3810144894222798
1589996406.63801,-2.785403815995818,-2.2786955480048787,8.778198728001394,0.4777777777777778,-0.21444444444444444,-0.6288888888888889,0.04433108549360902,0.09842545337437,-1.3939936410467302
1589996406.64801,-2.7651285498920264,-2.3139485800431894,8.793025709978405,0.48416538773218887,-0.20267779452842402,-0.6332593588576965,0.04756583116401784,0.10134659326467928,-1.4063383081246377
1589996406.65801,-2.803018402505873,-2.3332024275646046,8.784907987470636,0.4988888888888889,-0.17555555555555555,-0.6433333333333333,0.04875812857560343,0.1042874376106375,-1.4202817528302674
1589996406.66801,-2.7991105340408717,-2.41,8.728221068081744,0.4988888888888889,-0.17555555555555555,-0.6433333333333333,0.04977833913081874,0.10699844236947269,-1.4344307048581013
1589996406.67801,-2.763558918551267,-2.4364410814487334,8.736441081448733,0.4988888888888889,-0.17555555555555555,-0.6433333333333333,0.05242275660000439,0.10799224746714917,-1.448549456565354
1589996406.68801,-2.7444198310168395,-2.451160337966321,8.773259493050517,0.4988888888888889,-0.17555555555555555,-0.6433333333333333,0.05345070834232633,0.10799224746714917,-1.4605982535867097
1589996406.69801,-2.75,-2.491106265996777,8.807035421998926,0.5102458368881726,-0.16419860755627178,-0.6494850134996121,0.05391527741005747,0.10985052373807369,-1.4707222623525482
1589996406.70801,-2.739221073630758,-2.56,8.803052684076896,0.5255555555555556,-0.14888888888888888,-0.6577777777777778,0.05336574065623961,0.11000397365996861,-1.4852154687802837
1589996406.71801,-2.7368187915226687,-2.583865770329341,8.745906042386656,0.5255555555555556,-0.14888888888888888,-0.6577777777777778,0.05087224802135928,0.1076203400825315,-1.4967193990705634
1589996406.72801,-2.7496358235677083,-2.630218505859375,8.680072835286458,0.5255555555555556,-0.14888888888888888,-0.6577777777777778,0.04802038972160027,0.10688552649014854,-1.505433875914882
1589996406.73801,-2.6914742468415938,-2.671367670877875,8.704209588597344,0.5255555555555556,-0.14888888888888888,-0.6577777777777778,0.050339031378417845,0.10626978078451908,-1.5213756851812044
1589996406.74801,-2.6710937803692905,-2.6985416261742796,8.73817703271785,0.5255555555555556,-0.14888888888888888,-0.6577777777777778,0.04811586735945531,0.10997505414945663,-1.531009395930042
1589996406.75801,-2.6422511634706756,-2.7516232547939867,8.78,0.5255555555555556,-0.1111111111111111,-0.6577777777777778,0.05345070834232633,0.11144180944435003,-1.5453931607451408
1589996406.76801,-2.61266346823493,-2.8003389305888726,8.736658670587325,0.5255555555555556,-0.1111111111111111,-0.6577777777777778,0.05345070834232633,0.11391918194240805,-1.5524344447413472
1589996406.77801,-2.5794711969220496,-2.8610576061559003,8.697548005129917,0.5255555555555556,-0.1111111111111111,-0.6577777777777778,0.05383354642566871,0.11453723216212787,-1.5597359147567125
1589996406.78801,-2.562846810933941,-2.9042702164009113,8.735693621867881,0.5255555555555556,-0.1111111111111111,-0.6577777777777778,0.054231000224953786,0.11500304051193139,-1.5684554511470141
1589996406.7980099,-2.5621760981003114,-2.9359413006332296,8.767029349683385,0.5351276510202031,-0.09592778727063579,-0.6597582113221876,0.0526839252407695,0.11813377219055686,-1.5756890575470843
1589996406.8080099,-2.5116729754701796,-2.9874716103841914,8.75167297547018,0.5577777777777778,-0.06,-0.6644444444444444,0.052542370873953234,0.11935472402630024,-1.5817938167258012
1589996406.8180099,-2.4837223607344994,-3.0562776392655007,8.699305901836249,0.5577777777777778,-0.06,-0.6644444444444444,0.04993733552904484,0.11954748232518062,-1.5876405494639279
1589996406.8280098,-2.46,-3.0888695404841666,8.645913026989446,0.5577777777777778,-0.06,-0.6644444444444444,0.04864156561562589,0.11890055529211367,-1.592812134033893
1589996406.8380098,-2.4408897876643074,-3.1291102123356924,8.698220424671385,0.5577777777777778,-0.06,-0.6644444444444444,0.04851053536477161,0.11890055529211367,-1.5967192751073478
1589996406.8480098,-2.3937777919550864,-3.172977766435931,8.756755558391017,0.5473234659266112,-0.04485927249141387,-0.669130860101864,0.04510706550903301,0.11996229632584089,-1.5977131826793989
1589996406.8580098,-2.383879344051151,-3.2238793440511513,8.75,0.5255555555555556,-0.013333333333333334,-0.6788888888888889,0.04623806365554017,0.124777879995285,-1.594892399690266
1589996406.8680098,-2.3827959947183097,-3.25,8.701637323943661,0.5255555555555556,-0.013333333333333334,-0.6788888888888889,0.04908738521234052,0.12729747970354685,-1.5919534987477488
1589996406.8780098,-2.323457620724346,-3.25,8.596146881287726,0.5255555555555556,-0.013333333333333334,-0.6788888888888889,0.04908738521234052,0.12657827831537016,-1.5905150959713954
1589996406.8880098,-2.276199229830594,-3.3219003850847026,8.691402310508217,0.5255555555555556,-0.013333333333333334,-0.6788888888888889,0.04976361628503878,0.12695097047938708,-1.5826424970554596
1589996406.8980098,-2.262905725559799,-3.3285471372201005,8.731282823320603,0.5255555555555556,-0.013333333333333334,-0.6788888888888889,0.048313519918455616,0.12840106684597025,-1.5782922079557098
1589996406.9080098,-2.2386686082795926,-3.3729956313709177,8.756338672768878,0.54,0.045555555555555564,-0.7144444444444444,0.04577858478804661,0.12769981770569444,-1.5673422940633845
1589996406.9180098,-2.2069398793426256,-3.444385271479093,8.66908466819222,0.54,0.045555555555555564,-0.7144444444444444,0.044913317932698364,0.12943035141639092,-1.5630159597866435
1589996406.9280097,-2.1960787839862985,-3.5009803040034253,8.597842432027402,0.54,0.045555555555555564,-0.7144444444444444,0.0427777546733455,0.13025808642969014,-1.5508620539743736
1589996406.9380097,-2.1601609933633057,-3.5099597516591734,8.669678013273389,0.54,0.045555555555555564,-0.7144444444444444,0.03494170834318085,0.12438105168206663,-1.5381284786878564
1589996406.9480097,-2.105164646860871,-3.5496707062782584,8.65967070627826,0.5494916191249573,0.0498536472347815,-0.7216079305764876,0.0407482961284116,0.12488216440943625,-1.5212533271233475
1589996406.9580097,-2.0778564140239175,-3.5994641035059796,8.70892820701196,0.5988888888888889,0.07222222222222223,-0.7588888888888888,0.0369128748873066,0.12745182983451245,-1.50676819730062
1589996406.9680097,-2.02728072158423,-3.6111987973596165,8.643362645808843,0.5988888888888889,0.07222222222222223,-0.7588888888888888,0.03612818432856758,0.12712962529000887,-1.4859475650098801
1589996406.9780097,-2.01,-3.669492542661352,8.609492542661352,0.5988888888888889,0.07222222222222223,-0.7588888888888888,0.0376613395004178,0.1308996938995747,-1.4682533475377955
1589996406.9880097,-1.9954212166832763,-3.731663026653379,8.66583151332669,0.5988888888888889,0.07222222222222223,-0.7588888888888888,0.03172598791724102,0.12867327591372282,-1.4497612487417748
1589996406.9980097,-1.938189021662726,-3.727283532494089,8.682726372292159,0.5973742376154672,0.06464896585511322,-0.782517448754269,0.023700876132838757,0.12296647734001626,-1.430676118906167
1589996407.0080097,-1.88,-3.6684878193701724,8.69,0.5933333333333334,0.04444444444444445,-0.8455555555555555,0.022130561675046005,0.1213961628822235,-1.4058733501880383
1589996407.0180097,-1.779637791030695,-3.5731284746790664,8.638594966137672,0.5933333333333334,0.04444444444444445,-0.8455555555555555,0.032474663466200045,0.11171376706184223,-1.3830429176966397
1589996407.0280097,-1.4368879738403777,-3.153112026159622,7.619087319849824,0.5933333333333334,0.04444444444444445,-0.8455555555555555,0.18585309859876,0.040252118258488706,-1.3356159315509497
1589996407.0380096,-1.4,-3.19,6.66,0.5933333333333334,0.04444444444444445,-0.8455555555555555,0.31634092692397225,-0.01090830782496456,-1.3057244466482578
1589996407.0480096,-1.3123899786366284,-3.0877883084093996,7.6456127403379295,0.5933333333333334,0.04444444444444445,-0.8455555555555555,0.06069730760041864,0.18580189146761408,-1.2667009658169368
1589996407.0580096,-1.57368388926789,-3.355579332878532,9.355579332878532,0.6233333333333333,0.05666666666666665,-0.8666666666666667,-0.24833157759346744,0.13402378375398016,-1.2709902732670029
1589996407.0680096,-1.5640928906090854,-3.369061723365247,9.207917702179671,0.6233333333333333,0.05666666666666665,-0.8666666666666667,-0.04716108782238222,0.03383819750632722,-1.2227696210428562
1589996407.0780096,-1.438368240248227,-3.478428080673759,8.805643284574467,0.6233333333333333,0.05666666666666665,-0.8666666666666667,0.06702244923977933,0.09849812728895166,-1.1623209961113536
1589996407.0880096,-1.3841422872340425,-3.3312433510638297,7.806336436170213,0.6233333333333333,0.05666666666666665,-0.8666666666666667,0.16588968687828248,0.16102954254749213,-1.0989445617276978
1589996407.0980096,-1.4387265904343824,-3.6547640457393706,9.145565546783729,0.6056862282326934,0.03591677385602403,-0.8565826066091581,-0.02782149487091078,0.06602590539077223,-1.0962334591747869
1589996407.1080096,-1.4758482316706198,-3.632491060997628,9.041624951322264,0.5306180203994131,-0.052350239750140616,-0.8136864878472837,-0.06264584377416954,0.017433790642039065,-1.0913742476999135
1589996407.1180096,-1.4377536975213085,-3.725507395042617,8.455326109256392,0.5222222222222223,-0.06222222222222223,-0.8088888888888889,0.04720212802786481,0.08612426102575828,-1.0236181951567205
1589996407.1280096,-1.5159807523733144,-3.881961504746629,8.478794225711995,0.5222222222222223,-0.06222222222222223,-0.8088888888888889,0.029282307341977384,0.09551083376598503,-1.0014317504980028
1589996407.1380095,-1.4417110762800418,-3.9272370254266806,8.657110762800418,0.5222222222222223,-0.06222222222222223,-0.8088888888888889,-0.004421455177955854,0.05158421366485722,-0.9856811161854361
1589996407.1480095,-1.4361821789545481,-3.9550613877348546,8.472364357909097,0.515629482648147,-0.04214433351935677,-0.7642380617735612,0.022527275637298064,0.07261952115253233,-0.954133052765988
1589996407.1580095,-1.4640201616407404,-4.046804032328148,8.483296775875555,0.4977777777777778,0.012222222222222223,-0.6433333333333333,0.01784687131917583,0.06440396897489148,-0.9351116974450662
1589996407.1680095,-1.4350112915367244,-4.061047424454243,8.347060974298312,0.4977777777777778,0.012222222222222223,-0.6433333333333333,0.01756508537247788,0.06272400170913028,-0.919565422782176
1589996407.1780095,-1.4682163347171042,-4.277495218993423,8.644990437986847,0.4977777777777778,0.012222222222222223,-0.6433333333333333,0.02621926954137162,0.06591764387195129,-0.8905091400240167
1589996407.1880095,-1.4308387873920898,-4.275290503914877,8.656548685003012,0.4977777777777778,0.012222222222222223,-0.6433333333333333,0.02534597116240345,0.062223103357661076,-0.8693182655061428
1589996407.1980095,-1.3800601664880903,-4.168403527569438,8.514909750267865,0.49538485489528106,0.028972682399699627,-0.6370749196406494,0.030362550637106085,0.05963427049171571,-0.8510549742029436
1589996407.2080095,-1.333554878902422,-4.123203835923282,8.592031359372813,0.4833333333333333,0.11333333333333333,-0.6055555555555555,0.029120050727277823,0.0575924445388945,-0.8290142908127146
1589996407.2180095,-1.3671433497536944,-4.289683743842365,9.422210344827587,0.4833333333333333,0.11333333333333333,-0.6055555555555555,0.030473889370974512,0.06141538511974627,-0.7963585946637439
1589996407.2280095,-1.1764341782303336,-3.7335889086004523,9.177568106150819,0.4833333333333333,0.11333333333333333,-0.6055555555555555,0.1481927642695409,0.17982685696193812,-0.7245864878984547
1589996407.2380095,-1.0284401263520628,-3.3951873265052166,7.614782042691682,0.4833333333333333,0.11333333333333333,-0.6055555555555555,0.21913170932899362,0.23093300107451586,-0.6638338383859488
1589996407.2480094,-1.1622188282729549,-4.001489400696439,9.728662410654286,0.48582235390745376,0.1271360837898195,-0.5998986906143726,-0.03521152985390723,-0.04889169674066839,-0.7156214454184769
1589996407.2580094,-1.1967653373913405,-3.850296012174022,9.714440182610327,0.4955555555555556,0.1811111111111111,-0.5777777777777777,-0.17937486679286516,-0.14473233142979053,-0.7318771448931599
1589996407.2680094,-1.1648230344464896,-3.83988903497239,8.69378227714962,0.4955555555555556,0.1811111111111111,-0.5777777777777777,0.06009941231444174,0.06124095539837005,-0.6387635438072177
1589996407.2780094,-1.1386957414901702,-4.042826064627457,9.109783479529161,0.4955555555555556,0.1811111111111111,-0.5777777777777777,0.0515539279732881,0.05013097855591049,-0.6002652062019462
1589996407.2880094,-1.11,-4.069945150998645,8.780904243695643,0.4955555555555556,0.1811111111111111,-0.5777777777777777,-0.035450546371484176,-0.002038234074536174,-0.5930144868155366
1589996407.2980094,-1.117150513622153,-4.176424743188924,8.546944320381122,0.4972769755016294,0.18336219873289994,-0.5768508593452765,0.04139489265535196,0.04417572351795105,-0.5468678835094529
1589996407.3080094,-1.13062063412864,-4.067096071849769,8.84487117844507,0.51,0.2,-0.57,0.01076141478833495,0.027841728879608268,-0.5153294212775376
1589996407.3180094,-1.0402508391544951,-3.8768438719042004,8.90194683842874,0.51,0.2,-0.57,0.015430906301446622,0.03666187951548587,-0.4738228300498783
1589996407.3280094,-0.9575883284234152,-3.7892204252590234,8.825140183170003,0.51,0.2,-0.57,0.01762734800582952,0.030929913426965532,-0.434842894716191
1589996407.3380094,-0.9218774838682108,-3.904156018973548,8.576328789367976,0.51,0.2,-0.57,0.0158331517278213,0.004600335612939681,-0.39891042162101287
1589996407.3480093,-1.0661016778860646,-3.9945423490404903,8.879864362503769,0.5110395525637161,0.2015593288455742,-0.5703032028310838,0.019762526377795235,0.027723738880612726,-0.35067990293918794
1589996407.3580093,-0.9762106792930476,-3.872421358586095,8.633105339646525,0.5366666666666666,0.24,-0.5777777777777777,0.02663358651661393,0.012676618622767987,-0.2965850819305075
1589996407.3680093,-0.9985771008043813,-3.902144275201095,8.655009926407669,0.5366666666666666,0.24,-0.5777777777777777,0.031164118807088893,0.013946896032904069,-0.25626004715278844
1589996407.3780093,-1.0272904329967483,-3.909322608249187,8.70525825774431,0.5366666666666666,0.24,-0.5777777777777777,0.018635564157696773,0.013163861367317063,-0.21945741787019912
1589996407.3880093,-0.9826278889658827,-3.9134302775852934,8.900070109648228,0.5366666666666666,0.24,-0.5777777777777777,0.02672917805928508,0.008153329824578125,-0.16254143436821575
1589996407.3980093,-0.999724452777891,-3.8706888680552725,8.575235397220071,0.5366666666666666,0.24,-0.5777777777777777,0.009012192882284137,0.004423438208367401,-0.12710746401421388
1589996407.4080093,-1.01,-3.9845277111373156,8.722833733176108,0.5188888888888888,0.2644444444444444,-0.5988888888888889,0.017762404857731194,-0.001090830782496456,-0.0675710521915768
1589996407.4180093,-1.0130178340656502,-4.00100594468855,8.627988110622901,0.5188888888888888,0.2644444444444444,-0.5988888888888889,0.007416352391123359,-0.001639488498376038,-0.029097297900825728
1589996407.4280093,-1.0467888565836232,-4.0235777131672466,8.593706744199304,0.5188888888888888,0.2644444444444444,-0.5988888888888889,0.005157934162907486,-0.007433643943703116,0.020643573004114704
1589996407.4380093,-1.0866412025160102,-4.1032824050320205,8.498061113961576,0.5188888888888888,0.2644444444444444,-0.5988888888888889,0.003419047534997681,-0.012650303827432534,0.06498518201581474
1589996407.4480093,-1.1439931116890418,-4.20898737142991,8.750966706497035,0.5188888888888888,0.2644444444444444,-0.5988888888888889,-0.0026172424798282514,-0.012108346918737868,0.10995048308850006
1589996407.4580092,-1.11,-4.0715945905031035,8.673558560831609,0.5511111111111111,0.2855555555555556,-0.6144444444444445,0.0034130227500585486,-0.02019707569521293,0.16980795508751234
1589996407.4680092,-1.11,-4.135090074178736,8.638283292122926,0.5511111111111111,0.2855555555555556,-0.6144444444444445,0.004182609729423889,-0.02327542361267429,0.2036697821795873
1589996407.4780092,-1.1413121689596588,-4.18434391552017,8.643484126719745,0.5511111111111111,0.2855555555555556,-0.6144444444444445,-0.002917106590041907,-0.023262832189873038,0.26701171224171216
1589996407.4880092,-1.0854235650754522,-4.212288217462274,8.601567673806588,0.5511111111111111,0.2855555555555556,-0.6144444444444445,-0.0006309187335052707,-0.02554902004640967,0.3005424674709162
1589996407.4980092,-1.1073495679980323,-4.0052399840113155,8.814097407988193,0.5511111111111111,0.2855555555555556,-0.6144444444444445,0.0,-0.028217041704174838,0.34748234632780167
1589996407.5080092,-1.1023486086806025,-4.074165304513374,8.669320782292647,0.5579123478394646,0.2949072560570416,-0.5965911980325165,-0.008346373180125188,-0.03170014961695793,0.37769971267577546
1589996407.5180092,-1.070671236930361,-4.043219076740974,8.723890313671335,0.56,0.2977777777777777,-0.5911111111111111,-0.0006589853153876055,-0.03716146719547812,0.4172173811243194
1589996407.5280092,-1.0922846404659383,-3.8345692809318765,8.521498120815393,0.56,0.2977777777777777,-0.5911111111111111,-0.010152488641771781,-0.037844065788072284,0.4419498865411975
1589996407.5380092,-1.2022899990261953,-4.043130002921414,8.697405005355927,0.56,0.2977777777777777,-0.5911111111111111,-0.014089169961821787,-0.035531085397301786,0.46563475356557327
1589996407.5480092,-1.2186277144804751,-3.9941168565585747,8.607547570357386,0.56,0.2977777777777777,-0.5911111111111111,-0.02121784313510041,-0.039986506130600924,0.487911857232069
1589996407.5580091,-1.3055628526500787,-4.001092868374804,8.735628526500786,0.6322222222222222,0.3288888888888889,-0.6288888888888889,-0.017937310211519977,-0.0409639700903908,0.5314622721099709
1589996407.5680091,-1.3025388254098538,-4.0274611745901465,8.588956303864181,0.6322222222222222,0.3288888888888889,-0.6288888888888889,-0.01885336912874094,-0.04690572364734761,0.5718569107644168
1589996407.5780091,-1.3653646056266782,-3.9669345110704697,8.631532744464765,0.6322222222222222,0.3288888888888889,-0.6288888888888889,-0.016107613376883833,-0.04740731310050768,0.6173940083570622
1589996407.588009,-1.4224876454336743,-3.9342927740379006,8.64785361298105,0.6322222222222222,0.3288888888888889,-0.6288888888888889,-0.025009266264204126,-0.05274830483289984,0.6636826033711277
1589996407.598009,-1.3746444913465599,-3.886945715491769,8.668451836217814,0.6322222222222222,0.3288888888888889,-0.6288888888888889,-0.023496227987918426,-0.058818129926319365,0.7086839069367734
1589996407.608009,-1.3983511124657118,-3.838118332825358,8.731057223407497,0.7959295099732466,0.3831878407667039,-0.67589395170849,-0.02181661564992912,-0.06376863434406076,0.7775941186069761
1589996407.618009,-1.3897122489785272,-3.7542806224463185,8.70456837346779,0.8566666666666667,0.4033333333333333,-0.6933333333333334,-0.026772437321950743,-0.06683692700330172,0.8379012344269443
1589996407.628009,-1.353507512744835,-3.796513952240408,8.56450965924336,0.8566666666666667,0.4033333333333333,-0.6933333333333334,-0.029561748352320446,-0.06975851146731511,0.8993934923683251
1589996407.638009,-1.4027429903407567,-3.8879512677756907,8.627812416152402,0.8566666666666667,0.4033333333333333,-0.6933333333333334,-0.031096250482393187,-0.06899126040227875,0.9224110243194162
1589996407.648009,-1.428670273711012,-3.980691915977085,8.684681094844048,0.8566666666666667,0.4033333333333333,-0.6933333333333334,-0.03541721327505392,-0.07155967973426924,0.9493942603827604
1589996407.658009,-1.4553195816385822,-3.956240557815224,8.630920976176641,1.4418303312027891,0.45115920976176643,-1.4191613403060235,-0.035997415822383035,-0.07199483164476607,0.9642636707083015
1589996407.668009,-1.5222385337831676,-4.020073402024255,8.6,1.55,0.46,-1.5533333333333332,-0.038056984309459085,-0.0718727385668492,0.9746002610810027
1589996407.678009,-1.5393145337221852,-4.093830803499666,8.599314533722184,1.55,0.46,-1.5533333333333332,-0.03723779214812022,-0.07082922809064927,0.9786247574425617
1589996407.688009,-1.53,-4.012231648689047,8.591115824344524,1.55,0.46,-1.5533333333333332,-0.03893518489558438,-0.06978274069120154,0.9808394497957437
1589996407.698009,-1.53,-4.080010099785884,8.625005049892943,1.55,0.46,-1.5533333333333332,-0.028769147029209848,-0.06885855543062204,0.9863845613592207
1589996407.708009,-1.5212288722056788,-4.101228872205678,8.656144361028394,0.8566666666666667,-0.2977777777777777,-0.9022222222222224,-0.02947086860613375,-0.07321971159023342,0.977402818595554
1589996407.718009,-1.5298057308221453,-4.11,8.69969471986337,0.8566666666666667,-0.2977777777777777,-0.9022222222222224,-0.021822670358480383,-0.07416741114693212,0.969669854428183
1589996407.728009,-1.4601627211917074,-4.11,8.590255704729826,0.8566666666666667,-0.2977777777777777,-0.9022222222222224,-0.023993205749639774,-0.07091160806019302,0.9414528943431107
1589996407.738009,-1.402607324098203,-4.0526073240982035,8.54080627779846,0.8566666666666667,-0.2977777777777777,-0.9022222222222224,-0.02042080878272075,-0.06643216532201804,0.9056122809724285
1589996407.748009,-1.39,-3.9162650177568445,8.711477973956628,0.8566666666666667,-0.2977777777777777,-0.9022222222222224,-0.017835301718236392,-0.06275036839973763,0.8446639891769386
1589996407.758009,-1.39,-3.89,8.651837936987484,0.6913852443293531,-0.034334292427948,-0.7495256797583081,-0.013334900211966007,-0.04982217767836613,0.7024298424336146
1589996407.768009,-1.461206796229489,-4.0027440940300245,8.673405097172116,0.6377777777777778,0.05111111111111112,-0.7,-0.011999138607461015,-0.04581489286485115,0.6599526234103559
1589996407.778009,-1.5173373670956911,-4.050650531617236,8.555915290990487,0.6377777777777778,0.05111111111111112,-0.7,-0.019202581908871842,-0.04581489286485115,0.5775132167386542
1589996407.788009,-1.5445218664619011,-4.015478133538099,8.60421793246308,0.6377777777777778,0.05111111111111112,-0.7,-0.014460583785179094,-0.038458861000101124,0.4800553056914252
1589996407.798009,-1.491352144469526,-3.969489841986456,8.67,0.6377777777777778,0.05111111111111112,-0.7,-0.0073213705769677485,-0.018839115464388004,0.2585355137535534
1589996407.808009,-1.5562328926452913,-4.091406777032528,8.666822975225836,0.6055555555555555,0.13777777777777778,-0.6711111111111111,0.0017839500665787424,-0.010728419919976823,0.07427708410714078
1589996407.818009,-1.4505338657775364,-3.871878028922576,8.642430892102508,0.6055555555555555,0.13777777777777778,-0.6711111111111111,0.007105477090606446,-0.0009722870425927007,-0.01707579647200147
1589996407.828009,-1.459525348362245,-3.8988133709056125,8.669288022543368,0.6055555555555555,0.13777777777777778,-0.6711111111111111,0.0023111027193492804,0.005324712758125911,-0.1401287918038094
1589996407.8380089,-1.375267511189132,-3.758039885499201,8.602217899448055,0.6055555555555555,0.13777777777777778,-0.6711111111111111,0.011908412870320231,0.014422735471496013,-0.2494612223450844
1589996407.8480089,-1.5013001534057662,-3.950405497303538,8.655284275118216,0.6055555555555555,0.13777777777777778,-0.6711111111111111,0.009737671516700228,0.020211379081149363,-0.31964852611213124
1589996407.8580089,-1.4566778097982709,-3.902237079731028,8.688610182516811,0.5931186252534956,0.15978157754296082,-0.6912015369836695,0.01999734881867163,0.027603572498550562,-0.43968628757628014
1589996407.8680089,-1.4872421727339962,-3.9666106500123264,8.642757827266005,0.5911111111111111,0.16333333333333333,-0.6944444444444444,0.01494552014989474,0.03265603503242934,-0.5310854298939124
1589996407.8780088,-1.5204199923555994,-4.0214699732445975,8.6793700114666,0.5911111111111111,0.16333333333333333,-0.6944444444444444,0.0197494892324115,0.04371340590309094,-0.6444720823084686
1589996407.8880088,-1.558141061672325,-4.153493715853138,8.622788407491512,0.5911111111111111,0.16333333333333333,-0.6944444444444444,0.03003631512225318,0.05091418402598012,-0.7236806416602497
1589996407.8980088,-1.3908188375053034,-3.9102563791744958,8.71667494999697,0.5911111111111111,0.16333333333333333,-0.6944444444444444,0.0314220620045091,0.05390544706115843,-0.7970093393991946
1589996407.9080088,-1.3099487825530245,-3.8166239854608537,8.666572768013879,0.5866609758392249,0.16704177939323847,-0.7181784992278373,0.031634092692397225,0.06109490425496579,-0.8698274431891351
1589996407.9180088,-1.29,-3.8635346756152122,8.655413870246086,0.5844444444444444,0.1688888888888889,-0.73,0.03232714849156723,0.0657451277656309,-0.9552773653256939
1589996407.9280088,-1.122049561177078,-3.6760660815694375,8.55803304078472,0.5844444444444444,0.1688888888888889,-0.73,0.04697424081059166,0.0807899950679818,-1.0697173594314917
1589996407.9380088,-1.1099148318718064,-3.780141946880323,8.630397451264905,0.5844444444444444,0.1688888888888889,-0.73,0.04038551335661458,0.08183708309147991,-1.1674397781141959
1589996407.9480088,-1.0834540407545266,-3.8242432654091223,8.753881143145543,0.5844444444444444,0.1688888888888889,-0.73,0.0480826454845979,0.08953421521946321,-1.2453732409100269
1589996407.9580088,-1.0144278273965153,-3.977213913698258,8.728606956849129,0.5333333333333333,0.11,-0.6433333333333333,0.05157296164739666,0.09543412909980231,-1.360407128219493
1589996407.9680088,-0.9442435524692003,-3.9421217762346,8.7110608881173,0.5333333333333333,0.11,-0.6433333333333333,0.055400920024292116,0.10213305625936939,-1.4446222125111932
1589996407.9780087,-0.8958949276984376,-3.8253268120159376,8.60414782647625,0.5333333333333333,0.11,-0.6433333333333333,0.05755681672855029,0.1073492106077445,-1.5286164296082627
1589996407.9880087,-4.506632844935119,-14.71624616014745,-1.771201571314207,0.5333333333333333,0.11,-0.6433333333333333,-1.4026794678943877,1.4860476315343862,-7.35151107659841
1589996407.9980087,1.3967626086794631,-8.274048740528364,3.2185731573362126,0.5333333333333333,0.11,-0.6433333333333333,-1.3992722692266348,-0.292510073032471,-12.868617519356807
1589996408.0080087,-0.34755854331760305,-6.247058587837236,2.0769054402991722,0.52,0.2677777777777778,-0.5777777777777777,-0.8522410510825179,0.9244913261390875,-13.541704066546856
1589996408.0180087,-0.5840815599679459,-5.792685424272104,1.5353922179681239,0.52,0.2677777777777778,-0.5777777777777777,-0.5365224639536527,1.6407990883346848,-13.084081856385874
1589996408.0280087,-6.195066299429471,-6.066491442061775,12.462095219358647,0.52,0.2677777777777778,-0.5777777777777777,0.36725317353231524,2.639008948693041,-12.130954959752163
1589996408.0380087,-10.000054011043328,-18.5749615412437,-2.7542651845779176,0.52,0.2677777777777778,-0.5777777777777777,1.9912343044579535,1.3667405858039652,-9.670097579057591
1589996408.0480087,-1.534797790491222,-2.5420122312093127,0.11301637403827147,0.52,0.2677777777777778,-0.5777777777777777,1.9312271318761858,0.4502634852941976,-3.5743753012190167
1589996408.0580087,2.7558339995431704,2.780993033348561,27.101236295111924,0.33061862342013093,0.5111108255926095,-0.5700703961727831,2.356332152140113,0.055701761495470264,-1.5399876140296045
1589996408.0680087,0.6772150230617173,0.8617808038655832,0.9180496376015839,0.3288888888888889,0.5133333333333333,-0.57,1.3263610579560055,-0.2407518401948636,-1.2911778959217604
1589996408.0780087,-0.6088153653725885,0.45125727618222927,-0.324789291384038,0.3288888888888889,0.5133333333333333,-0.57,-0.054162553224442966,0.12489852405998692,-1.0171204387955686
1589996408.0880086,1.96503722561122,1.6107060857870215,12.039825640040348,0.3288888888888889,0.5133333333333333,-0.57,-1.2782621699764736,0.12823798086096483,-0.7351505228007185
1589996408.0980086,1.6551861765277267,-0.6130975457076868,11.106230491937747,0.3288888888888889,0.5133333333333333,-0.57,-1.1150290151370468,0.15279201099716344,-0.5001008578741284
1589996408.1080086,1.38,-1.07,11.66,0.22,0.5555555555555556,-0.5844444444444444,0.3490658503988659,0.02399827721492203,-0.2716168648416175
1589996408.1180086,1.3354443853113358,-1.025444385311336,11.30673762639702,0.22,0.5555555555555556,-0.5844444444444444,0.3876007975412553,0.01853048066093434,-0.26094164299811773
1589996408.1280086,0.9030193356470004,-0.51,5.940525532969756,0.22,0.5555555555555556,-0.5844444444444444,0.4615658195180269,-0.05058382982075285,-0.03836133319982084
1589996408.1380086,1.32838902232269,-2.0698908589997176,11.276993147781859,0.22,0.5555555555555556,-0.5844444444444444,-0.4564843637185809,0.01079969479953869,0.2500124279540227
1589996408.1480086,0.9987630787090073,-2.1852534787456657,10.666861720814431,0.22,0.5555555555555556,-0.5844444444444444,-0.40927798009878424,0.027554919742873826,0.38092164487977215
1589996408.1580086,0.69,-2.043423047499826,9.063153905000346,0.2184384635000116,0.5664863110554744,-0.5875675174444213,-0.03444875321762031,-0.024203789461238388,0.5251896179036712
1589996408.1680086,7.057966485973989,-14.470776841107241,6.828737968134881,0.21666666666666667,0.5788888888888889,-0.5911111111111111,0.1728687657908125,-0.1402242657079049,0.7549230264184164
1589996408.1780086,3.973355002321677,-8.700997249705326,10.011075115190913,0.21666666666666667,0.5788888888888889,-0.5911111111111111,-0.2965510582699319,-0.11580031578919399,1.6651533258492988
1589996408.1880085,-0.4933265486291627,-1.7190249644416107,8.982511157977342,0.21666666666666667,0.5788888888888889,-0.5911111111111111,-0.0244889343882152,-0.05649707894268631,2.510016396785367
1589996408.1980085,-0.6525705673992915,-2.12974897146503,8.738432446703188,0.21666666666666667,0.5788888888888889,-0.5911111111111111,0.1945371293320996,-0.2495095001777632,2.7112547380903607
1589996408.2080085,-0.2750256081946223,-2.3914212548015366,8.485025608194622,0.2096235239721155,0.5753673175416133,-0.596041310997297,0.00041613238957752263,-0.19628939500996226,2.8331145075749933
1589996408.2180085,0.15516348629677967,-2.725199816584953,9.480871926916159,0.20555555555555555,0.5733333333333334,-0.5988888888888889,-0.2979156942115615,-0.19657824171251187,2.962933032162859
1589996408.2280085,0.3095128111970381,-2.6833710489437896,9.153110153803567,0.20555555555555555,0.5733333333333334,-0.5988888888888889,-0.1850616757728349,-0.25441266620410136,3.028562836675704
1589996408.2380085,0.02899426487903073,-2.832979604238672,8.961787762543203,0.20555555555555555,0.5733333333333334,-0.5988888888888889,-0.02855251333992262,-0.20839943215189538,3.1326750943348065
1589996408.2480085,0.08278253066108286,-2.8504927709642036,8.702304516900988,0.20555555555555555,0.5733333333333334,-0.5988888888888889,-0.09459553154485575,-0.24429073254430825,3.196991020770473
1589996408.2580085,0.16752843408831677,-3.215284340883168,9.64141404595079,0.27435768471746963,0.5472719207720023,-0.6134832799232344,-0.13049528487295975,-0.23628105735206942,3.2637355198595297
1589996408.2680085,-0.2767185039370079,-5.125414862204725,8.639189468503938,0.2788888888888889,0.5455555555555556,-0.6144444444444445,-0.10510176062400253,-0.24241132007094063,3.3465818211765663
1589996408.2780085,-0.09747372845733493,-4.017902480033628,8.963984867591424,0.2788888888888889,0.5455555555555556,-0.6144444444444445,-0.20814669922996737,-0.274652529068401,3.9168661282489885
1589996408.2880085,-0.20452865064695008,-3.0154713493530503,8.609741219963032,0.2788888888888889,0.5455555555555556,-0.6144444444444445,-0.051744899022562935,-0.3513422791482901,4.439989782190746
1589996408.2980084,8.223531254617999,-15.648560809812327,7.083034136249446,0.2788888888888889,0.5455555555555556,-0.6144444444444445,-0.14502857200980873,-0.39324951036577194,3.691330697566585
1589996408.3080084,8.041972789115647,-14.819248461289279,5.890557175251053,0.3228834179174315,0.5264049958607782,-0.6144444444444445,-0.27536993051732045,-0.29446035261786174,0.7417239420195956
1589996408.3180084,-3.5993757287952275,-3.118840687475707,7.675917732749734,0.37333333333333335,0.5044444444444445,-0.6144444444444445,0.11230476483037372,0.3471111556699993,-1.7467721652657127
1589996408.3280084,-3.8308539101971113,-2.6649647762043696,7.819277022699779,0.37333333333333335,0.5044444444444445,-0.6144444444444445,0.5372196061368718,0.5211478411389432,-1.0932220251553604
1589996408.3380084,-0.7832811707317073,-0.5066735609756098,6.877752195121952,0.37333333333333335,0.5044444444444445,-0.6144444444444445,0.2174273926821269,-0.00649334849052341,-0.1351345650535144
1589996408.3480084,-1.1202636307209826,-3.5843209957204927,8.592366796249713,0.37333333333333335,0.5044444444444445,-0.6144444444444445,-0.28282711017989737,-0.11725399271212508,0.2705166619871274
1589996408.3580084,-1.007779013718947,-4.8047756766777905,9.637612161661105,0.3771103695464096,0.4893362995921394,-0.6226280229061097,-0.2930197170912894,-0.14415751452228562,0.6396114807654498
1589996408.3680084,-0.2633436940437177,-3.3333686948883408,9.276686036690428,0.38,0.4777777777777778,-0.6288888888888889,0.028353713666727676,-0.10545012048495978,1.191538982445146
1589996408.3780084,4.158712715855573,-9.396177394034536,7.1074175824175825,0.38,0.4777777777777778,-0.6288888888888889,0.06331185286509847,-0.09323520779970296,0.9879287932725889
1589996408.3880084,0.5734644670050768,-6.362233502538071,8.138447546531303,0.38,0.4777777777777778,-0.6288888888888889,-0.01816343997098477,0.026529244576171243,-0.15057110129746243
1589996408.3980083,-1.5250125532562386,-3.1933395465611687,8.48201004260499,0.38,0.4777777777777778,-0.6288888888888889,0.07401715091651545,0.10851110580952346,-0.21759488948077976
1589996408.4080083,0.7943785734705544,-4.258141080617495,8.194726629502574,0.39663021726700975,0.4777777777777778,-0.640899601359507,-0.0035256708041901397,-0.059062616406351034,0.23664140122852229
1589996408.4180083,0.27893897798057443,-4.204448378363027,8.755685101387812,0.4,0.4777777777777778,-0.6433333333333333,-0.06129809340035124,-0.07183615445935382,0.10582900839979881
1589996408.4280083,-0.17579055307789967,-4.324476382694749,8.370887073146912,0.4,0.4777777777777778,-0.6433333333333333,0.017534823412114653,-0.0013484201081981131,-0.02700735660155464
1589996408.4380083,-0.13585636951196922,-4.599778935018422,8.579392174217318,0.4,0.4777777777777778,-0.6433333333333333,0.0006629452624166976,0.006195437453723465,-0.0064666464161542425
1589996408.4480083,-0.11437122480168838,-4.608083472818572,8.596825922421948,0.4,0.4777777777777778,-0.6433333333333333,-0.008112642134564557,0.0023841332854468242,0.0009536533141787297
1589996408.4580083,-0.14322392820056373,-4.579934356920338,8.666250927162142,0.4,0.4644882064975523,-0.6337353096309483,0.0025118559295803644,0.0,0.0
1589996408.4680083,-0.11119408521055366,-4.598134319131574,8.624253851289533,0.4,0.4577777777777778,-0.6288888888888889,0.00852313204781231,0.0,0.0017746331406742373
1589996408.4780083,-0.1,-4.516609224428777,8.572203074809593,0.4,0.4577777777777778,-0.6288888888888889,0.007968602718560445,-0.001516087082822404,0.002181661564992912
1589996408.4880083,-0.11951861547411285,-4.551568256738414,8.579518615474113,0.4,0.4577777777777778,-0.6288888888888889,-0.0008807871588743937,0.0006572059804569497,0.0014719446786304465
1589996408.4980083,-0.11814988592828549,-4.613700228143429,8.625550342215144,0.4,0.4577777777777778,-0.6288888888888889,-0.004807830452206249,-0.00040363227611121084,0.0004445073222204253
1589996408.5080082,-0.11444749405647796,-4.612210023774088,8.632210023774087,0.40592999207530395,0.4577777777777778,-0.6353130469704682,-0.002907884103452968,-0.0012113688806376748,0.0004851463421776186
1589996408.5180082,-0.1253942857142857,-4.568422857142857,8.64776,0.4133333333333333,0.4577777777777778,-0.6433333333333333,0.002439720961537788,0.000588425290672374,0.001090830782496456
1589996408.5280082,-0.13524668435013262,-4.565740053050398,8.622286472148541,0.4133333333333333,0.4577777777777778,-0.6433333333333333,0.004309504953448864,0.001090830782496456,0.0005185063029797477
1589996408.5380082,-0.12890906955806944,-4.596636395662896,8.603272791325793,0.4133333333333333,0.4577777777777778,-0.6433333333333333,0.00024791026434314856,0.0016957471991257,-0.0006049164166292438
1589996408.5480082,-0.12,-4.604617389619767,8.603086948098836,0.4133333333333333,0.4577777777777778,-0.6433333333333333,-0.003943116692875787,0.00159450985569862,-0.001090830782496456
1589996408.5580082,-0.12,-4.578328280044101,8.601671719955899,0.4061094266813671,0.4577777777777778,-0.6240695822614235,-0.0019081270268517456,-9.117817938038872e-05,0.0006821826603188113
1589996408.5680082,-0.12,-4.56,8.625853359489946,0.4,0.4577777777777778,-0.6077777777777778,0.004921845610087001,0.0008246766312988165,0.0015431590937278212
1589996408.5780082,-0.12590138464893152,-4.5540986153510685,8.63,0.4,0.4577777777777778,-0.6077777777777778,0.008923297884356503,0.000894179158111601,0.001090830782496456
1589996408.5880082,-0.13640314136125656,-4.56920942408377,8.61079057591623,0.4,0.4577777777777778,-0.6077777777777778,0.004229682081240185,0.0006984743701534898,0.00039235641234296615
1589996408.5980082,-0.14489562424729024,-4.57510437575271,8.61958249698916,0.4,0.4577777777777778,-0.6077777777777778,-0.0005112585060476167,0.0026929200710405286,0.0016020892885440727
1589996408.6080081,-0.139549670855775,-4.606576152004788,8.634774835427889,0.4,0.46184179466719866,-0.6298395837489195,-0.0027516386008799368,0.0032233690582117746,0.0027025153116023433
1589996408.6180081,-0.10535466159856403,-4.590709323197128,8.660806673001796,0.4,0.4655555555555556,-0.65,-0.0005841029701565336,0.0008374668763264947,0.0015095642206597033
1589996408.6280081,-0.11052910052910053,-4.5805291005291,8.6184126984127,0.4,0.4655555555555556,-0.65,0.001090830782496456,-0.0005598443698526784,0.0016506751523491345
1589996408.638008,-0.12441977509993961,-4.577679100399758,8.621382473900665,0.4,0.4655555555555556,-0.65,0.002308247001344274,0.00012658543635136175,0.001572953455569003
1589996408.648008,-0.11483980582524271,-4.5806407766990285,8.649359223300971,0.4,0.4655555555555556,-0.65,-0.0006677367071495294,-0.0005978388123487857,0.001090830782496456
1589996408.658008,-0.11680556666400065,-4.5931944333359995,8.640208349996001,0.3954629555573329,0.46290894629733315,-0.6526466092582225,-0.004363323129985824,-0.002181661564992912,0.0007196447020252753
1589996408.668008,-0.12643267160966276,-4.590701985171012,8.624326716096627,0.38666666666666666,0.4577777777777778,-0.6577777777777778,-0.0024176473202591267,-0.0010142560791568938,0.0007782703238906789
1589996408.678008,-0.11551979166666666,-4.596559375,8.577920833333334,0.38666666666666666,0.4577777777777778,-0.6577777777777778,0.002068260614895885,0.0006021158662967417,0.0016929466487931976
1589996408.688008,-0.12079987230419978,-4.5692001276958,8.607199914869465,0.38666666666666666,0.4577777777777778,-0.6577777777777778,0.004057881224586171,0.0007853888770968027,0.001090830782496456
1589996408.698008,-0.1355532401808473,-4.5677870392766105,8.642233799095763,0.38666666666666666,0.4577777777777778,-0.6577777777777778,0.004484021413862253,0.0026667278143029257,0.0001206982838764289
1589996408.708008,-0.11708382274426055,-4.59,8.66138921516284,0.38666666666666666,0.4549075161653912,-0.6515588776176069,0.0004546195989411283,0.0009242650570325016,0.00031810559177766393
1589996408.718008,-0.10642528109366486,-4.59,8.630724156719005,0.38666666666666666,0.4511111111111111,-0.6433333333333333,-0.0018707134668569415,-0.0014807721246766989,0.0007798826843604858
1589996408.728008,-0.11,-4.59,8.575714318568604,0.38666666666666666,0.4511111111111111,-0.6433333333333333,-0.0017809477043421625,-0.0017809477043421625,0.0020703507655371197
1589996408.738008,-0.11600601295097132,-4.59,8.562012025901943,0.38666666666666666,0.4511111111111111,-0.6433333333333333,-0.0002161984228953428,-0.002181661564992912,0.0019621835860909884
1589996408.748008,-0.11518397064277489,-4.5707358825711,8.61816029357225,0.38666666666666666,0.4511111111111111,-0.6433333333333333,0.0016161780897232338,-0.001656314257766134,0.0016161780897232338
1589996408.758008,-0.10649927186675162,-4.5640029125329935,8.666499271866751,0.3913343041776645,0.458501537170191,-0.6382767260297524,0.0006541807614334348,-0.001090830782496456,0.0017997913641030427
1589996408.768008,-0.1,-4.599497107570004,8.650502892429996,0.4,0.4722222222222222,-0.6288888888888889,-0.0011456878367888746,-0.0005728439183944373,0.001090830782496456
