time,acc_x,acc_y,acc_z,mag_x,mag_y,mag_z,gyr_x,gyr_y,gyr_z
1589996413.6174793,-3.92,-0.79,8.75,0.3111111111111111,-0.3511111111111111,-0.5722222222222222,-0.003272492347489368,-0.001090830782496456,0.0
1589996413.6274793,-3.913610340940252,-0.79,8.86501386307547,0.31892069440635906,-0.3511111111111111,-0.5821616918707195,0.0036975444445414753,-0.00178783446169954,-0.0006970036792030842
1589996413.6374793,-3.9057269001053987,-0.7942730998946013,8.955638599367607,0.3233333333333333,-0.3511111111111111,-0.5877777777777777,0.007169692587303852,-0.0017155386748215723,-0.002023076562839135
1589996413.6474793,-3.9085522906175134,-0.78717156407373,8.947238546912434,0.3233333333333333,-0.3511111111111111,-0.5877777777777777,0.006544984694978735,0.0003085344974694177,-0.002339582160845452
1589996413.6574793,-3.92,-0.7541618941789897,8.893959526455253,0.3233333333333333,-0.3511111111111111,-0.5877777777777777,0.004385398024229437,0.0017497442308430523,-0.0006589134483465963
1589996413.6674793,-3.92,-0.7317532209473752,8.901753220947375,0.3233333333333333,-0.3511111111111111,-0.5877777777777777,-0.0004391431198350901,0.0014733242580793426,-0.00019124673779144326
1589996413.6774793,-3.92,-0.7371301839625665,8.907130183962567,0.3233333333333333,-0.3511111111111111,-0.5877777777777777,-0.005131428538487623,0.002646395612742476,-0.0007777824151230098
1589996413.6874793,-3.92,-0.7755113713740978,8.874488628625903,0.3179079849289573,-0.3481518301632696,-0.5902438452343124,-0.011025293967034009,0.000367225070724668,-0.001090830782496456
1589996413.6974792,-3.916987096439861,-0.8290387106804166,8.805896771518888,0.3111111111111111,-0.34444444444444444,-0.5933333333333334,-0.013299690186094792,-0.003929805937107899,-0.0014194875773057215
1589996413.7074792,-3.910308448261624,-0.8496915517383764,8.750925344784871,0.3111111111111111,-0.34444444444444444,-0.5933333333333334,-0.008322888429667814,-0.005487800398340932,-0.002148015079134259
1589996413.7174792,-3.918967916425799,-0.841032083574201,8.776903749277396,0.3111111111111111,-0.34444444444444444,-0.5933333333333334,0.0030123288905689154,-0.006432401841693993,-0.0012034136357811985
1589996413.7274792,-3.881059798697454,-0.8047010065127295,8.874239194789816,0.3111111111111111,-0.3432668903361621,-0.5918025129925664,0.015336861214886522,-0.0009752246782531962,-0.0013220429909829754
1589996413.7374792,-3.907259602552593,-0.7341105961711111,8.914314900638148,0.3111111111111111,-0.3333333333333333,-0.5788888888888889,0.022735694777665683,0.0009413652879011223,-0.0051552229232916125
1589996413.7474792,-3.93,-0.7,8.92,0.3111111111111111,-0.3333333333333333,-0.5788888888888889,0.01963495408493621,0.002181661564992912,-0.007635815477475192
1589996413.7574792,-3.9238671286133666,-0.7674615852529687,8.92,0.3111111111111111,-0.3333333333333333,-0.5788888888888889,0.016958984127483583,0.0015126690756297552,-0.002283875562569938
1589996413.7674792,-3.92,-0.7600034424254346,8.900001475325187,0.3111111111111111,-0.3333333333333333,-0.5788888888888889,0.020725570290082346,-0.0032721168371263164,0.0010906698494837195
1589996413.7774792,-3.9209764683374786,-0.8290235316625215,8.929023531662521,0.3111111111111111,-0.33420130518886976,-0.5795941160215122,0.01673526833967597,0.0040437746137894255,-0.002075145392927446
1589996413.7874792,-3.931943536217304,-0.8019435362173039,8.901943536217304,0.3111111111111111,-0.3511111111111111,-0.5933333333333334,0.025755924953368595,-0.0048181331726627604,-0.0005858825794821885
1589996413.7974792,-3.912164078219316,-0.7821640782193159,8.882164078219317,0.3111111111111111,-0.3511111111111111,-0.5933333333333334,0.03007113328242879,-0.011290945666253046,-0.0020242853558355856
1589996413.8074791,-3.924968493259951,-0.7524527398899258,8.782578766850124,0.3111111111111111,-0.3511111111111111,-0.5933333333333334,0.02972685724912353,-0.017460166224323705,-0.0027236401040509344
1589996413.8174791,-3.9093766780657377,-0.73,8.821246643868525,0.3111111111111111,-0.3511111111111111,-0.5933333333333334,0.030407274159241077,-0.020861772618092352,-0.0012268185331561477
1589996413.8274791,-3.903449679224486,-0.73,8.833100641551027,0.3111111111111111,-0.3511111111111111,-0.5933333333333334,0.029114203602469493,-0.022154843174863936,-0.002519889089927729
1589996413.837479,-3.878254775489953,-0.7010063673199372,8.84,0.3199702766522414,-0.3422519455699808,-0.6046086349311356,0.022826849615741492,-0.018954053054449603,-0.004063171023084562
1589996413.847479,-3.89,-0.766992093502922,8.86368511515985,0.3233333333333333,-0.3388888888888889,-0.6088888888888889,0.009710981359336788,-0.0036006040472777484,-0.0014189424822848365
1589996413.857479,-3.89,-0.7878563564665613,8.82714914826751,0.3233333333333333,-0.3388888888888889,-0.6088888888888889,0.0005448149179107847,-0.0006231603119015625,0.0008569955471990092
1589996413.867479,-3.89057003257329,-0.7817100977198698,8.89513029315961,0.3233333333333333,-0.3388888888888889,-0.6088888888888889,-0.00539197300468525,0.0012773735058875437,0.0
1589996413.877479,-3.8994416007445323,-0.808324802233597,8.974974406700792,0.3233333333333333,-0.3388888888888889,-0.6088888888888889,-0.004424235039664546,0.004180587400949657,0.0
1589996413.887479,-3.895970713949731,-0.8600732151256724,8.96589749882406,0.3111111111111111,-0.3511111111111111,-0.5866666666666667,0.0013105942452523018,0.004355336598703051,0.0013105942452523018
1589996413.897479,-3.8816892128279883,-0.9016892128279883,8.899020116618075,0.3111111111111111,-0.3511111111111111,-0.5866666666666667,0.002181661564992912,0.0,0.0028265874378280618
1589996413.907479,-3.904161484552364,-0.9095962886190899,8.792484453657092,0.3111111111111111,-0.3511111111111111,-0.5866666666666667,0.0024086353375230205,0.000453947545060217,0.011179319677648755
1589996413.917479,-3.920382306807487,-0.8696176931925128,8.840382306807488,0.3111111111111111,-0.3511111111111111,-0.5866666666666667,0.00356441477126485,0.0018063327344244357,0.01648757134763633
1589996413.927479,-3.929154240301161,-0.8608457596988393,8.84915424030116,0.3111111111111111,-0.3511111111111111,-0.5866666666666667,0.01026250132510239,-0.006805492834795259,0.019358179870709567
1589996413.937479,-3.883916662042945,-0.7963124895966266,8.843916662042945,0.3033333333333333,-0.3511111111111111,-0.6,0.014180800172453925,-0.012330933222655242,0.021318923727137777
1589996413.947479,-3.85288742162792,-0.7264966986628197,8.81288742162792,0.3033333333333333,-0.3511111111111111,-0.6,0.014180800172453925,-0.014023315752764873,0.018780349931973327
1589996413.957479,-3.886206295018007,-0.6134498799519807,8.800687650060024,0.3033333333333333,-0.3511111111111111,-0.6,-0.0004888400027127629,-0.00756080449216922,0.009779971549815117
1589996413.967479,-3.9098086734693878,-0.5505102040816326,8.87936224489796,0.3033333333333333,-0.3511111111111111,-0.6,-0.006496286892188715,0.0010212624927964271,0.005488938057332294
1589996413.977479,-3.9286904173592707,-0.5126191652814592,8.973452086796353,0.3033333333333333,-0.3511111111111111,-0.6,-0.010622601213618393,7.142665283654186e-05,0.003415345653162452
1589996413.987479,-3.8964988519066934,-0.6021281572565935,8.971624712976674,0.3033333333333333,-0.3511111111111111,-0.5897635380826007,-0.01090830782496456,-0.002740806269186357,0.005099696526946939
1589996413.997479,-3.8868467666659434,-0.7331532333340569,8.90950398332863,0.3033333333333333,-0.3511111111111111,-0.5877777777777777,-0.010048396828668756,0.0028695903620295548,0.010220379027927917
1589996414.007479,-3.8718284016775395,-0.75,8.80182840167754,0.3033333333333333,-0.3511111111111111,-0.5877777777777777,-0.00545415391248228,0.00684415621987299,0.006445260853347317
1589996414.017479,-3.897511271100549,-0.7481221822248628,8.83314472442596,0.3033333333333333,-0.3511111111111111,-0.5877777777777777,-0.004839639482570688,0.009817477042468105,0.004634801339266824
1589996414.027479,-3.9268287142208087,-0.7407928214447979,8.884450249886417,0.3033333333333333,-0.3511111111111111,-0.5877777777777777,-0.0024411117760955447,0.009817477042468105,0.0014367643972999665
1589996414.037479,-3.91,-0.7086408621498983,8.878640862149899,0.31555555555555553,-0.3388888888888889,-0.5866666666666667,0.0007943129015870571,-0.00029651788090939886,-0.001090830782496456
1589996414.047479,-3.91,-0.7004373337505867,8.870437333750585,0.31555555555555553,-0.3388888888888889,-0.5866666666666667,-0.0009954193590235225,-0.0020862501415199785,-0.001090830782496456
1589996414.057479,-3.9,-0.7019793142533295,8.797968971379994,0.31555555555555553,-0.3388888888888889,-0.5866666666666667,-0.006978684465567496,-1.8803874355871955e-06,-0.002181661564992912
1589996414.067479,-3.9,-0.75,8.880135074371841,0.31555555555555553,-0.3388888888888889,-0.5866666666666667,-0.014195534500727004,0.0045212610029529005,-0.0015499100731246071
1589996414.077479,-3.9,-0.75,8.932941959387758,0.31555555555555553,-0.3388888888888889,-0.5866666666666667,-0.019955872071038376,0.005344166370140239,0.0017417113956247478
1589996414.0874789,-3.890178370652692,-0.7698810862315388,8.91988108623154,0.3111111111111111,-0.3588888888888889,-0.5722222222222222,-0.024017734434787046,0.015284602434860394,0.0010778593025864457
1589996414.0974789,-3.914157217722725,-0.7538951881848499,8.90389518818485,0.3111111111111111,-0.3588888888888889,-0.5722222222222222,-0.02663342088606378,0.017028393402378217,-0.0006659316649313763
1589996414.1074789,-3.926948905109489,-0.7615255474452555,8.836102189781021,0.3111111111111111,-0.3588888888888889,-0.5722222222222222,-0.024756285174729786,0.015530404680725089,0.001090830782496456
1589996414.1174788,-3.91295088983202,-0.77,8.872950889832019,0.3111111111111111,-0.3588888888888889,-0.5722222222222222,-0.02210271606629486,0.010747361751738417,0.0004470464895918819
1589996414.1274788,-3.927909697207461,-0.77,8.887909697207462,0.3111111111111111,-0.3588888888888889,-0.5722222222222222,-0.018023334177653248,0.009931485374010096,-0.0028164590213214076
1589996414.1374788,-3.9036313366300455,-0.787579108913303,8.907579108913303,0.3111111111111111,-0.3481461001085371,-0.6044505885632777,-0.01457691755021999,0.007899893729319235,-0.002313700690914933
1589996414.1474788,-3.926504602229564,-0.7769907955408724,8.900678939278837,0.3111111111111111,-0.3466666666666667,-0.6088888888888889,-0.012962873140455428,0.002054565315490869,0.0
1589996414.1574788,-3.9042745084182817,-0.8214509831634366,8.841398689115419,0.3111111111111111,-0.3466666666666667,-0.6088888888888889,-0.012154564119551079,0.0012462562945865204,0.0
1589996414.1674788,-3.9008268480848116,-0.76,8.900826848084812,0.3111111111111111,-0.3466666666666667,-0.6088888888888889,-0.007726010611811294,-0.001090830782496456,0.0030921020788171653
1589996414.1774788,-3.9079073889629794,-0.76,8.907907388962979,0.3111111111111111,-0.3466666666666667,-0.6088888888888889,-0.008498377806474238,-0.001090830782496456,0.0015473676894912755
1589996414.1874788,-3.909923878123146,-0.76,8.919771634369436,0.2966666666666667,-0.34444444444444444,-0.5866666666666667,-0.009842387868416376,0.0054292430865340085,-0.0021650543476940645
1589996414.1974788,-3.9013411365078063,-0.76,8.89402340952342,0.2966666666666667,-0.34444444444444444,-0.5866666666666667,-0.012651083494083904,0.0026205474608664786,-0.0002925905972490444
1589996414.2074788,-3.9059056608351734,-0.7980314463882756,8.83,0.2966666666666667,-0.34444444444444444,-0.5866666666666667,-0.008314325828803575,-0.001090830782496456,0.002396397452659273
1589996414.2174788,-3.9276839872191087,-0.79,8.835790031952229,0.2966666666666667,-0.34444444444444444,-0.5866666666666667,-0.0010447914496696518,-0.001090830782496456,0.0030198545440841993
1589996414.2274787,-3.916698968100152,-0.79,8.86325257974962,0.2966666666666667,-0.34444444444444444,-0.5866666666666667,0.004347467200901817,-0.001090830782496456,0.0018215748439572058
1589996414.2374787,-3.91,-0.79,8.917307648466887,0.2966666666666667,-0.353425915371658,-0.5908119609407653,0.009670632045987046,-0.0031256473510083106,0.0004125585929925043
1589996414.2474787,-3.91,-0.7772771745615082,8.920915761842263,0.2966666666666667,-0.3588888888888889,-0.5933333333333334,0.01368399775069173,-0.0029754781671222385,0.0006939224814317927
1589996414.2574787,-3.901634472511144,-0.7616344725111441,8.826344725111442,0.2966666666666667,-0.3588888888888889,-0.5933333333333334,0.022571930872281792,-0.004006736544325764,0.00017829329283003002
1589996414.2674787,-3.910838067133899,-0.7391619328661011,8.825866469937292,0.2966666666666667,-0.3588888888888889,-0.5933333333333334,0.019177859371208444,-0.0030896544619982615,-0.001090830782496456
1589996414.2774787,-3.918573773515308,-0.731426226484692,8.880016414607157,0.2966666666666667,-0.3588888888888889,-0.5933333333333334,0.014958686048610795,-0.0014019851329592037,-0.001090830782496456
1589996414.2874787,-3.8983850382258165,-0.7372049872580612,8.882795012741939,0.3158799660214963,-0.3588888888888889,-0.5933333333333334,0.007893262661583682,-0.001090830782496456,-0.0026627151602140174
1589996414.2974787,-3.9186425878846323,-0.7786425878846323,8.89117682125011,0.3233333333333333,-0.3588888888888889,-0.5933333333333334,0.002107626218994073,0.001090830782496456,7.403534599883897e-05
1589996414.3074787,-3.9039347768913824,-0.7639347768913824,8.795576049793986,0.3233333333333333,-0.3588888888888889,-0.5933333333333334,0.0013054395702652424,0.001090830782496456,0.0008762219947276695
1589996414.3174787,-3.91083929131936,-0.7716785826387194,8.825035747916159,0.3233333333333333,-0.3588888888888889,-0.5933333333333334,0.0026394239683127114,-0.009725924561804145,-0.002090109084328952
1589996414.3274786,-3.9181533149652985,-0.7863066299305967,8.86891988979179,0.3233333333333333,-0.3588888888888889,-0.5933333333333334,0.006628605036761152,-0.008928088348114456,-0.001292272870639264
1589996414.3374786,-3.91,-0.7779710195714261,8.893043470642862,0.3233333333333333,-0.3466666666666667,-0.5788888888888889,0.01451279131873962,-0.013643287967100294,-0.0012014944979250209
1589996414.3474786,-3.91,-0.7632730012440209,8.915090498133969,0.3233333333333333,-0.3466666666666667,-0.5788888888888889,0.01691774894372423,-0.017651550675407975,-0.002003147039586557
1589996414.3574786,-3.919306907579896,-0.7686138151597918,8.902079277260313,0.3233333333333333,-0.3466666666666667,-0.5788888888888889,0.01986176804902557,-0.018695332611832656,-0.004287718475289371
1589996414.3674786,-3.91,-0.751177327230775,8.930784884820516,0.3233333333333333,-0.3466666666666667,-0.5788888888888889,0.02307868173701234,-0.0210254466504595,-0.003486536478222824
1589996414.3774786,-3.91,-0.7749752241177138,8.94665014941181,0.3233333333333333,-0.3466666666666667,-0.5788888888888889,0.026539945534738922,-0.02708265829648102,-0.007813116225381054
1589996414.3874786,-3.916752448979592,-0.7732475510204082,8.95,0.3233333333333333,-0.3496677551020408,-0.5743872562358276,0.0272707695624114,-0.030571334106160523,-0.013882691702894537
1589996414.3974786,-3.934087022405022,-0.7770435112025111,8.914782443987445,0.3233333333333333,-0.3511111111111111,-0.5722222222222222,0.028807425329722948,-0.04162235517992227,-0.01713078962110261
1589996414.4074786,-3.8888515125856364,-0.7488515125856362,8.759617170861878,0.3233333333333333,-0.3511111111111111,-0.5722222222222222,0.033773994076560204,-0.06547072704020232,-0.018502363121609824
1589996414.4174786,-3.829347715424178,-0.69,8.74326142287911,0.3233333333333333,-0.3511111111111111,-0.5722222222222222,0.031064867016993854,-0.06540222638147707,-0.016220155318595997
1589996414.4274786,-3.821985290245572,-0.69,8.780073548772139,0.3233333333333333,-0.3511111111111111,-0.5722222222222222,0.02463993900207362,-0.0525523703516366,-0.014613923314865936
1589996414.4374785,-3.82,-0.69,8.854455633040759,0.3049174381788305,-0.35827284811564003,-0.5916612226630864,0.007840977441106317,-0.021967741027965858,-0.015185231438541879
1589996414.4474785,-3.862079207920792,-0.6927722772277227,8.88930693069307,0.3033333333333333,-0.3588888888888889,-0.5933333333333334,-0.00910465692717339,0.01181553342624874,-0.011923536474020667
1589996414.4574785,-3.8827397665139647,-0.7203196886852864,8.882420077828678,0.3033333333333333,-0.3588888888888889,-0.5933333333333334,-0.01286085247667414,0.020830402745050543,-0.011172297364120516
1589996414.4674785,-3.88,-0.7235201669729026,8.941005761992258,0.3033333333333333,-0.3588888888888889,-0.5933333333333334,-0.021706904035827132,0.02536338703267345,-0.006270705659723771
1589996414.4774785,-3.88,-0.7758956062579161,8.955970173216548,0.3033333333333333,-0.3588888888888889,-0.5933333333333334,-0.020074539995288083,0.029444297134021084,-0.0021897955583761383
1589996414.4874785,-3.889719341642089,-0.7414032917895538,8.96,0.3033333333333333,-0.33945020560471045,-0.5868537722386071,-0.016454306970299027,0.03266369331965889,-0.002151046487375515
1589996414.4974785,-3.882077110107676,-0.7320771101076763,8.89661688086141,0.3033333333333333,-0.3388888888888889,-0.5866666666666667,-0.014633955301271487,0.030132163820630657,-0.0004531551288175621
1589996414.5074785,-3.92,-0.74,8.770617814475667,0.3033333333333333,-0.3388888888888889,-0.5866666666666667,-0.014214496724850433,0.030543261909900768,0.004295930025192806
1589996414.5174785,-3.92,-0.74,8.789491079262941,0.3033333333333333,-0.3388888888888889,-0.5866666666666667,-0.015243873634658723,0.030543261909900768,0.0022371762055762357
1589996414.5274785,-3.92,-0.7713095512082854,8.868273878020714,0.3033333333333333,-0.3388888888888889,-0.5866666666666667,-0.010148617618328363,0.022004906348864067,0.0013278260088892418
1589996414.5374784,-3.9272075995856484,-0.8016227987569451,8.93324559751389,0.2929223561540635,-0.347698177271348,-0.5866666666666667,-0.0032230562128178902,0.011772682589002268,0.0018770579320898499
1589996414.5474784,-3.8904743290740074,-0.7704743290740071,8.969762835462998,0.2888888888888889,-0.3511111111111111,-0.5866666666666667,0.006454437462860727,-0.003130203839875353,2.5870637748002297e-05
1589996414.5574784,-3.8971977289643593,-0.7484068131069221,8.86923179449897,0.2888888888888889,-0.3511111111111111,-0.5866666666666667,0.00968558642233451,-0.004057642779328312,0.001570300863677888
1589996414.5674784,-3.8906728958423873,-0.7306728958423874,8.895289729103288,0.2888888888888889,-0.3511111111111111,-0.5866666666666667,0.0037863031962923855,-0.002328464664650917,0.0031990907976603656
1589996414.5774784,-3.906054228327693,-0.7139457716723071,8.916054228327694,0.2888888888888889,-0.3511111111111111,-0.5866666666666667,0.0006456253801282669,-0.002181661564992912,0.001521247702581967
1589996414.5874784,-3.91774011956547,-0.72,8.926836167391658,0.3033333333333333,-0.3588888888888889,-0.5933333333333334,0.0010415278396415254,-0.004215414301421032,9.860588570986131e-05
1589996414.5974784,-3.870427804936211,-0.721069512340527,8.857433170382734,0.3033333333333333,-0.3588888888888889,-0.5933333333333334,-6.999941899840141e-05,-0.001090830782496456,0.0022516609839913133
1589996414.6074784,-3.8896258397932817,-0.7694387596899225,8.740935400516795,0.3033333333333333,-0.3588888888888889,-0.5933333333333334,-0.003272492347489368,-0.0010704235089427755,0.005392932091821239
1589996414.6174784,-3.8722850645994833,-0.7434275968992248,8.784287338501292,0.3033333333333333,-0.3588888888888889,-0.5933333333333334,-0.003272492347489368,-0.00012463094025546065,0.002555554385759294
1589996414.6274784,-3.892591271441422,-0.7512956357207109,8.85212599646391,0.3033333333333333,-0.3588888888888889,-0.5933333333333334,-0.0026564109898884664,0.0006160813576009017,0.0003334174921902065
1589996414.6374784,-3.91,-0.7649108469539376,8.924554234769689,0.3000594353640416,-0.3528867426118541,-0.5976985306257223,-0.002181661564992912,0.0005551404799480479,-0.001626521085044864
1589996414.6474783,-3.9271995631143706,-0.7528004368856296,8.96719956311437,0.2966666666666667,-0.3466666666666667,-0.6022222222222222,0.0006326103686039677,-0.0037523625781291725,-0.00030548027592832566
1589996414.6574783,-3.909861530891966,-0.730276938216068,8.86069234554017,0.2966666666666667,-0.3466666666666667,-0.6022222222222222,0.0032573877109425345,-0.013059760116863803,0.0010606215094027887
1589996414.6674783,-3.9000344415547903,-0.7499311168904196,8.90982779222605,0.2966666666666667,-0.3466666666666667,-0.6022222222222222,0.0021854185558091294,-0.010915821806596993,-0.0010833168008640211
1589996414.6774783,-3.892195978116773,-0.75,8.902195978116772,0.2966666666666667,-0.3466666666666667,-0.6022222222222222,-0.0020747720837571934,-0.01005702109521454,0.0006117426770035862
1589996414.6874783,-3.8811897950843597,-0.7588102049156401,8.882379590168721,0.3133081648406536,-0.33981428506561323,-0.5885174590201153,-0.008077713708530297,-0.004051211409218988,0.001090830782496456
1589996414.6974783,-3.870173603902844,-0.7108680195142204,8.840694415611376,0.31555555555555553,-0.3388888888888889,-0.5866666666666667,-0.013014220397483926,0.0020869753244009822,1.89372481183862e-05
1589996414.7074783,-3.8967786933108415,-0.7278524622072277,8.777516382274703,0.31555555555555553,-0.3388888888888889,-0.5866666666666667,-0.016011071687807254,0.011918669224492192,0.0009737007659499281
1589996414.7174783,-3.90001891753845,-0.75,8.88001891753845,0.31555555555555553,-0.3388888888888889,-0.5866666666666667,-0.021812488483275078,0.025084980830764443,0.0010928943658234768
1589996414.7274783,-3.9079535006904904,-0.75,8.887953500690491,0.31555555555555553,-0.3388888888888889,-0.5866666666666667,-0.020081430973570426,0.023353923321059792,0.0019584231206758035
1589996414.7374783,-3.873494018296974,-0.7134940182969739,8.899126495425756,0.2983166197513488,-0.3632262100242396,-0.573483951051685,-0.016648315440917716,0.018925261573734253,0.001186115350320082
1589996414.7474782,-3.9274252658986515,-0.7387126329493258,8.909570877649776,0.2966666666666667,-0.3655555555555556,-0.5722222222222222,-0.020538544919799707,0.022720206484792622,4.680998690823881e-05
1589996414.7574782,-3.93,-0.7476027993190846,8.833972006809155,0.2966666666666667,-0.3655555555555556,-0.5722222222222222,-0.028189815644793132,0.024566119938505677,0.004146683765200259
1589996414.7674782,-3.9652087092505717,-0.75,8.854010886563215,0.2966666666666667,-0.3655555555555556,-0.5722222222222222,-0.03630427348927441,0.025089107997418484,0.012175334088418205
1589996414.7774782,-3.9318711436361027,-0.7391060410388864,8.865446979480556,0.2966666666666667,-0.3655555555555556,-0.5722222222222222,-0.03530572673817414,0.01855320181949884,0.018437528990073546
1589996414.7874782,-3.8825022486829144,-0.7168766865121857,8.883123313487815,0.3029852990867254,-0.35729272854470956,-0.5785408546422809,-0.031907045681275635,0.011658437957871597,0.029587926448826327
1589996414.7974782,-3.844931743292013,-0.6849317432920132,8.910045504471992,0.3111111111111111,-0.3466666666666667,-0.5866666666666667,-0.030000328402592005,0.008173785216905032,0.039274871937751345
1589996414.8074782,-3.8452319763475096,-0.6649226745508301,8.869226745508302,0.3111111111111111,-0.3466666666666667,-0.5866666666666667,-0.026666309885005755,0.004329583537895872,0.04534539155580531
1589996414.8174782,-3.86,-0.6308275403493925,8.860841443510852,0.3111111111111111,-0.3466666666666667,-0.5866666666666667,-0.02099811341314447,-0.0016370044735693054,0.06799865750812732
1589996414.8274782,-3.8661514879833416,-0.6161514879833415,8.908454463950024,0.3111111111111111,-0.3466666666666667,-0.5866666666666667,-0.014937791369666019,-0.0077184393551788175,0.1001811520108571
1589996414.8374782,-3.887878504089405,-0.65575700817881,8.925959501363135,0.3111111111111111,-0.34534233303041445,-0.59461266848418,-0.010698977100413566,-0.01306788081008673,0.1260072664211332
1589996414.8474782,-3.8914895546069284,-0.756594008537645,8.887447773034642,0.3111111111111111,-0.34444444444444444,-0.6,-0.007032440300212787,-0.010629903051191525,0.1464031639985818
1589996414.8574781,-3.89,-0.7958446261880877,8.815388434529781,0.3111111111111111,-0.34444444444444444,-0.6,-0.005135379004574732,-0.011227082732872108,0.14835298641951802
1589996414.8674781,-3.932771836307817,-0.8242572787692722,8.808514557538544,0.3111111111111111,-0.34444444444444444,-0.6,-0.006696164913409134,-0.008111068968422164,0.14446491678047915
1589996414.8774781,-3.921902340631172,-0.787853510946758,8.89024414842207,0.3111111111111111,-0.34444444444444444,-0.6,-0.003038346714132562,-0.00501249510719786,0.1444313220948166
1589996414.887478,-3.882368211657052,-0.7792105961143161,8.910789403885683,0.3223685063619418,-0.34444444444444444,-0.5877192051809119,0.0019233297474949946,-0.007377483659977275,0.154122975662003
1589996414.897478,-3.897274850992293,-0.7713625745038535,8.93591227648844,0.3233333333333333,-0.34444444444444444,-0.5866666666666667,0.0012394646037212748,-0.006693618516203554,0.15207138023068184
1589996414.907478,-3.9266412954257146,-0.7788804318085715,8.860076113722856,0.3233333333333333,-0.34444444444444444,-0.5866666666666667,0.0039969452960915966,-0.004607575019248643,0.15162547876700738
1589996414.917478,-3.885794569067296,-0.7888410861865408,8.85,0.3233333333333333,-0.34444444444444444,-0.5866666666666667,0.006292148922582391,-0.005327736026284107,0.1506610658707091
1589996414.927478,-3.8487296829484525,-0.7743648414742264,8.85521171950859,0.3233333333333333,-0.34444444444444444,-0.5866666666666667,0.007682005508920455,-0.0037486226915697013,0.14882911676359836
1589996414.937478,-3.810030641370047,-0.7533537609133647,8.866646239086636,0.316687094246698,-0.3492445060070144,-0.5818666051040967,0.009089142369148295,-0.003269149892522853,0.14508717898196166
1589996414.947478,-3.8111514298093585,-0.7188485701906412,8.88705047660312,0.3033333333333333,-0.3588888888888889,-0.5722222222222222,0.008279301660477327,-0.003915978530491502,0.1284117678861166
1589996414.957478,-3.931940580201883,-0.6573220799049961,8.824152599881245,0.3033333333333333,-0.3588888888888889,-0.5722222222222222,0.0040443969276302665,-0.002554208637520383,0.12470044584203752
1589996414.967478,-4.018545544937304,-0.6157272275313483,8.847091089874606,0.3033333333333333,-0.3588888888888889,-0.5722222222222222,-0.00248909230311902,-0.007630874411123499,0.13556550670133496
1589996414.977478,-4.062452516033547,-0.6294715096201283,8.895962012826837,0.3033333333333333,-0.3588888888888889,-0.5722222222222222,-0.005071327199162884,-0.011233485180822223,0.1495383971280252
1589996414.987478,-4.044384206219313,-0.6450879705400983,8.925263911620295,0.3072906437534097,-0.36228086924895436,-0.5722222222222222,-0.008229211355269397,-0.013109161584575861,0.160448086000071
1589996414.997478,-3.955219748749475,-0.6910851884378938,8.919457405781053,0.3111111111111111,-0.3655555555555556,-0.5722222222222222,-0.012402207433388625,-0.014180800172453925,0.16431237933103723
1589996415.007478,-3.9016906450636997,-0.7156618709872601,8.85904316111466,0.3111111111111111,-0.3655555555555556,-0.5722222222222222,-0.011854740758072094,-0.014180800172453925,0.15312517400344267
1589996415.017478,-3.9031764959413833,-0.7084117520293082,8.831588247970691,0.3111111111111111,-0.3655555555555556,-0.5722222222222222,-0.0077481034245563945,-0.011020595772045762,0.12295906326917148
1589996415.027478,-3.9332258628986394,-0.6338706855068026,8.879677588695918,0.3111111111111111,-0.3655555555555556,-0.5722222222222222,-0.0011260004000081536,-0.004398492747497521,0.08381793128479066
1589996415.037478,-3.9574876896130076,-0.5650246207739846,8.891256155193497,0.29848111305727226,-0.3655555555555556,-0.5906814501470637,0.00013702527526583913,-0.007904494608376613,0.04910349947123129
1589996415.047478,-3.96,-0.56,8.89,0.2966666666666667,-0.3655555555555556,-0.5933333333333334,0.0,-0.008726646259971648,0.04581489286485115
1589996415.057478,-3.9676310085426496,-0.5828930256279484,8.836582940201454,0.2966666666666667,-0.3655555555555556,-0.5933333333333334,-0.011653794627741685,-0.008726646259971648,0.04581489286485115
1589996415.067478,-3.7612558304723573,-0.5204186101574524,8.889581389842547,0.2966666666666667,-0.3655555555555556,-0.5933333333333334,-0.019488382173235782,-0.012100047234599967,0.06183854749433567
1589996415.077478,-3.687878413304866,-0.42120968648162715,8.903939206652433,0.2966666666666667,-0.3655555555555556,-0.5933333333333334,-0.019403524877457466,-0.015734489369907862,0.07381310767714738
1589996415.087478,-3.8075732127476316,-0.3249741602067183,8.907504306632214,0.30166953775480904,-0.3605526844674132,-0.5983362044214757,-0.015269751832155383,-0.013360328182087837,0.056437808915325356
1589996415.097478,-3.6427064904288136,-0.5172935095711864,9.002924676704325,0.3033333333333333,-0.3588888888888889,-0.6,-0.012621337129336866,-0.008880212521226895,0.03739141238896257
1589996415.107478,-3.548962429740657,-0.5061806527955823,8.93514308253624,0.3033333333333333,-0.3588888888888889,-0.6,-0.0017650354150308498,-0.005829797267046339,0.027306868843607123
1589996415.117478,-3.5696876930680834,-0.329061843568516,8.8856252316817,0.3033333333333333,-0.3588888888888889,-0.6,0.01690794452216983,0.0008181567836097236,0.0034768967564422736
1589996415.127478,-2.767178442705112,-0.5608825097570859,8.96526413444518,0.3033333333333333,-0.3588888888888889,-0.6,0.015290614467469677,0.007042603975355779,-0.03728010570751015
1589996415.1374779,-1.8216594099615362,-1.1829964660171428,9.097773395552258,0.300229416014214,-0.3588888888888889,-0.5937921653617614,0.012356863460982513,0.029041737608086912,-0.0936480899699447
1589996415.1474779,-1.4180350400241655,-1.327859839903338,8.912881739918442,0.2966666666666667,-0.3588888888888889,-0.5866666666666667,0.05548475106105482,0.07096594805668419,-0.23516703679619638
1589996415.1574779,-1.5352145474011745,-0.8792371647958245,8.499189487595563,0.2966666666666667,-0.3588888888888889,-0.5866666666666667,0.1108259403266095,0.12070062590251232,-0.41499416871919803
1589996415.1674778,-1.7617449611795153,-0.844351815543879,8.593051917496668,0.2966666666666667,-0.3588888888888889,-0.5866666666666667,0.09551762948637502,0.12829033187994365,-0.6265198704401774
1589996415.1774778,-1.9927334182423826,-0.9753237973939453,8.823885568727345,0.2966666666666667,-0.3588888888888889,-0.5866666666666667,0.037708418156836676,0.07274068331822967,-0.8385966565299489
1589996415.1874778,-2.1102122699386503,-0.9661803680981594,8.866949693251533,0.2992130879345603,-0.3588888888888889,-0.591759509202454,0.020627409330606295,0.04587565816242825,-0.9809693998296057
1589996415.1974778,-2.24,-0.9340221516536287,8.941284176283789,0.3033333333333333,-0.3588888888888889,-0.6,0.033066256939480905,0.0699717549592361,-1.08355480346098
1589996415.2074778,-2.355373979874812,-0.9371468187940734,8.924653751683703,0.3033333333333333,-0.3588888888888889,-0.6,0.040711255095179616,0.08430520404097362,-1.1673128344209351
1589996415.2174778,-2.4043557831868005,-0.9782210840659982,8.96,0.3033333333333333,-0.3588888888888889,-0.6,0.04036073895236887,0.08413451655831511,-1.227653384905459
1589996415.2274778,-2.423801833916722,-1.0102007859643094,8.97020078596431,0.3033333333333333,-0.3588888888888889,-0.6,0.04258620521947419,0.08990664461345176,-1.2785208130624528
1589996415.2374778,-2.4884871639821893,-1.03,8.937619702050466,0.3094957213273963,-0.3544382753376212,-0.5914411277860235,0.04959457265439181,0.10229055634010221,-1.338809702274876
1589996415.2474778,-2.53,-1.051458182283448,8.791389090288735,0.3233333333333333,-0.34444444444444444,-0.5722222222222222,0.05563236990731925,0.11064356130105925,-1.4154814607837414
1589996415.2574778,-2.5636497910424976,-1.0734599164169991,8.719430376123503,0.3233333333333333,-0.34444444444444444,-0.5722222222222222,0.05122762256007167,0.10612586790951634,-1.4609123872835867
1589996415.2674778,-2.58,-1.09284205621991,8.696421028109954,0.3233333333333333,-0.34444444444444444,-0.5722222222222222,0.04698610867705635,0.10432934984892471,-1.5025102181646377
1589996415.2774777,-2.610837964317052,-1.1462569464755776,8.751396607195087,0.3233333333333333,-0.34444444444444444,-0.5722222222222222,0.0486181429270651,0.1080836551943165,-1.536968368888068
1589996415.2874777,-2.628648628668589,-1.2183784283285282,8.839729799659938,0.3422522855523521,-0.34129128574127465,-0.5760060126660259,0.04817344045937064,0.1112647398146385,-1.5759556975385007
1589996415.2974777,-2.6312842325199615,-1.2738526975598836,8.909494813819864,0.3566666666666667,-0.3388888888888889,-0.5788888888888889,0.047661271093294336,0.11064928040515744,-1.6056776780803936
1589996415.3074777,-2.6503178701313126,-1.336112545459593,8.888410649343438,0.3566666666666667,-0.3388888888888889,-0.5788888888888889,0.05133839528214775,0.1129876716194011,-1.6301172800785912
1589996415.3174777,-2.6801770275833676,-1.3800885137916838,8.860177027583369,0.3566666666666667,-0.3388888888888889,-0.5788888888888889,0.05675216676040896,0.11727879215366563,-1.6532457767635909
1589996415.3274777,-2.694021380891038,-1.4049465477724055,8.891957238217925,0.3566666666666667,-0.3388888888888889,-0.5788888888888889,0.05869136068512957,0.11792230602798205,-1.6700386050679725
1589996415.3374777,-2.6800591370657125,-1.44007392133214,8.91992607866786,0.35671430485849037,-0.3388215383418278,-0.578910243940396,0.055629144480735984,0.11563451379779086,-1.6853625877962741
1589996415.3474777,-2.713425421059009,-1.4932872894704956,8.823977947413061,0.3888888888888889,-0.2933333333333333,-0.5933333333333334,0.05452647130594424,0.1228600873109246,-1.709988740205511
1589996415.3574777,-2.7,-1.5139275855171035,8.695181036207241,0.3888888888888889,-0.2933333333333333,-0.5933333333333334,0.05748283264021112,0.1287180323345818,-1.7259373836248766
1589996415.3674777,-2.7178438635849815,-1.5533828976887358,8.63,0.3888888888888889,-0.2933333333333333,-0.5933333333333334,0.0584182463628795,0.12920464822651093,-1.7414687646536493
1589996415.3774776,-2.7467865788058097,-1.5971463152232384,8.686554823381748,0.3888888888888889,-0.2933333333333333,-0.5933333333333334,0.05583989572052146,0.12709442645836605,-1.7497318162800868
1589996415.3874776,-2.7739511169093958,-1.69,8.87012220772651,0.39415704476808344,-0.2893822164239374,-0.589162709928971,0.048440885219838824,0.11780972450961726,-1.7588368905842944
1589996415.3974776,-2.7939945854483925,-1.7019837563451776,8.83,0.4155555555555556,-0.2733333333333333,-0.5722222222222222,0.049736567958228256,0.12216714128003625,-1.764092722725182
1589996415.4074776,-2.8102449351144227,-1.750734805343269,8.83512246755721,0.4155555555555556,-0.2733333333333333,-0.5722222222222222,0.05507359537794468,0.12368906157021062,-1.7644588681023965
1589996415.4174776,-2.82,-1.8276506175951601,8.866472565330644,0.4155555555555556,-0.2733333333333333,-0.5722222222222222,0.053386455558650174,0.11890055529211367,-1.763744869729417
1589996415.4274776,-2.7876296187305734,-1.8792486803626933,8.853005278549228,0.4155555555555556,-0.2733333333333333,-0.5722222222222222,0.05891756196394254,0.12444936517251669,-1.7576562156369375
1589996415.4374776,-2.7682883854728515,-1.8945720963682129,8.791711614527149,0.4399400695193576,-0.2580930121059571,-0.5889865755723361,0.061553294273296956,0.1274085254782839,-1.7434890388997297
1589996415.4474776,-2.79,-1.938169798355567,8.77,0.4688888888888889,-0.24,-0.6088888888888889,0.05563236990731925,0.12326387842209953,-1.7322392826043722
1589996415.4574776,-2.7504656201542157,-1.9938866112963867,8.713522314506022,0.4688888888888889,-0.24,-0.6088888888888889,0.04762338218539124,0.11463881472156168,-1.7273106747754934
1589996415.4674776,-2.693405780633432,-2.033297109683284,8.665567630105572,0.4688888888888889,-0.24,-0.6088888888888889,0.04483604559904219,0.11282721298740181,-1.713842705303895
1589996415.4774776,-2.674607984022213,-2.0573039920111063,8.689215968044426,0.4688888888888889,-0.24,-0.6088888888888889,0.050282498110463994,0.11810381336003135,-1.6877530368830305
1589996415.4874775,-2.6958642602286638,-2.1154931374846995,8.797900356798708,0.482215161485417,-0.22667372740347191,-0.6061317290413314,0.051006459884539335,0.11491433682673338,-1.6562987157055453
1589996415.4974775,-2.69,-2.1967283812410656,8.869962971255362,0.5011111111111111,-0.20777777777777776,-0.6022222222222222,0.04908738521234052,0.11235557059713497,-1.6460636507871518
1589996415.5074775,-2.69,-2.2340243457090687,8.839268411442482,0.5011111111111111,-0.20777777777777776,-0.6022222222222222,0.05084333728388442,0.1136725346507929,-1.6399178185367482
1589996415.5174775,-2.6568141307849245,-2.2526253623966497,8.77,0.5011111111111111,-0.20777777777777776,-0.6022222222222222,0.062981802773047,0.12056415129810502,-1.5938131725563087
1589996415.5274775,-2.614326530612245,-2.26865306122449,8.780233236151604,0.5011111111111111,-0.20777777777777776,-0.6022222222222222,0.05989392456780103,0.11423765123002536,-1.5821257016624342
1589996415.5374775,-2.67,-2.4076930387265385,8.840769779044905,0.507649745254877,-0.19431588395237717,-0.601452971146485,0.04254240051736178,0.10413248437764575,-1.576879736383288
1589996415.5474775,-2.653483460109676,-2.46,8.834579515301611,0.52,-0.1688888888888889,-0.6,0.05019951932375748,0.11486808984117765,-1.5673829700442192
1589996415.5574775,-2.611589803181059,-2.4922178444331466,8.700961761928971,0.52,-0.1688888888888889,-0.6,0.0535556202940818,0.11647696442927429,-1.5639912111627163
1589996415.5674775,-2.582726190121766,-2.5518214296347015,8.645458334573819,0.52,-0.1688888888888889,-0.6,0.04393061251023425,0.11037194666683386,-1.5718878070940696
1589996415.5774775,-2.5573155190133607,-2.5942281603288797,8.728053442959917,0.52,-0.1688888888888889,-0.6,0.04669338721342692,0.1096687411486961,-1.5855188427269624
1589996415.5874774,-2.4601331842212284,-2.5624156161041074,8.775301952013013,0.5320061226334102,-0.14696466494961818,-0.6135721386290723,0.059022085530235496,0.11754622166911179,-1.5998535036615429
1589996415.5974774,-2.420017328825021,-2.6200346576500424,8.747770076077769,0.5455555555555556,-0.12222222222222222,-0.6288888888888889,0.05865972500753332,0.11489832204752569,-1.6219494209341074
1589996415.6074774,-2.450281732667518,-2.7242956683312043,8.78345047032865,0.5455555555555556,-0.12222222222222222,-0.6288888888888889,0.04758943423836954,0.11120327528140574,-1.6430753495646715
1589996415.6174774,-2.428023579201935,-2.761976420798065,8.796086457073761,0.5455555555555556,-0.12222222222222222,-0.6288888888888889,0.0529937992938901,0.11736567592082953,-1.6595762346664829
1589996415.6274774,-2.4045025300203915,-2.7891624499660144,8.733664979986406,0.5455555555555556,-0.12222222222222222,-0.6288888888888889,0.06712319010271474,0.12326387842209953,-1.6732602263911982
1589996415.6374774,-2.3854965637036476,-2.8208390604939204,8.746335624197568,0.5455555555555556,-0.12222222222222222,-0.6288888888888889,0.0615945786068762,0.12326387842209953,-1.6843174493828752
1589996415.6474774,-2.32,-2.811057399649085,8.780324775307049,0.5455555555555556,-0.09222222222222222,-0.6522222222222223,0.051721362474017964,0.11886512780188117,-1.7087732380045642
1589996415.6574774,-2.338316981325409,-2.8891584906627044,8.669628301355125,0.5455555555555556,-0.09222222222222222,-0.6522222222222223,0.052543466417605884,0.12544553998709246,-1.7326875523846526
1589996415.6674774,-2.3091890922723346,-2.893225212302978,8.637099150788087,0.5455555555555556,-0.09222222222222222,-0.6522222222222223,0.050917230691315964,0.12470652529061346,-1.7439219876502596
1589996415.6774774,-2.205150640100106,-2.88044085089999,8.69088170179998,0.5455555555555556,-0.09222222222222222,-0.6522222222222223,0.052888860665250725,0.12360050403464007,-1.7495483070046551
1589996415.6874774,-2.1112327348704767,-2.905725828818668,8.707753453025905,0.5515463474864766,-0.07749485872537479,-0.650474907909037,0.06239853409235689,0.12918427208400746,-1.747400323814293
1589996415.6974773,-2.1499961075863143,-2.9600272468958,8.700046708964228,0.5722222222222222,-0.02666666666666667,-0.6444444444444445,0.05563152071438593,0.12326345382563286,-1.7507808583280118
1589996415.7074773,-2.1161024265691877,-3.0479231800731093,8.766230459780672,0.5722222222222222,-0.02666666666666667,-0.6444444444444445,0.05573167660579005,0.12543157373026553,-1.740002337293972
1589996415.7174773,-2.056979346300381,-3.09,8.649061961098857,0.5722222222222222,-0.02666666666666667,-0.6444444444444445,0.060592270513980605,0.13324610656650793,-1.7279158567141553
1589996415.7274773,-2.023716245345875,-3.0859290613364685,8.720354693317656,0.5722222222222222,-0.02666666666666667,-0.6444444444444445,0.05781403147231216,0.13239590416393013,-1.7096598335759565
1589996415.7374773,-1.981709340177789,-3.1056069237510955,8.764632527857769,0.570189926686421,-0.007969547737295326,-0.6570446767664121,0.05581882999568826,0.12821270193577916,-1.693023424300804
1589996415.7474773,-1.922097632120796,-3.1174472374742623,8.729544869595058,0.5666666666666667,0.024444444444444446,-0.6788888888888889,0.051345318833590683,0.12392370189773365,-1.6717629352346286
1589996415.7574773,-1.8728955178831932,-3.10565672317521,8.655723879470798,0.5666666666666667,0.024444444444444446,-0.6788888888888889,0.04784595404337786,0.12263950002989489,-1.6521641599381789
1589996415.7674773,-1.8591383662776853,-3.1537075494165276,8.63172326744463,0.5666666666666667,0.024444444444444446,-0.6788888888888889,0.043727220958612034,0.1207717756127429,-1.6304531063197356
1589996415.7774773,-1.8397083844418947,-3.1586406441657107,8.674369683060974,0.5666666666666667,0.024444444444444446,-0.6788888888888889,0.04047721134846615,0.1186358001771755,-1.6143659374492676
1589996415.7874773,-1.7879334287899888,-3.1441331424200225,8.767600572739932,0.5636816193633172,0.035466157564504074,-0.6846293644722533,0.03956795404399076,0.12111852581966073,-1.5981109794935475
1589996415.7974772,-1.7789936091490077,-3.1620127817019847,8.717987218298017,0.5522222222222222,0.07777777777777778,-0.7066666666666667,0.04881293468246923,0.12489663892734987,-1.5761886192644157
1589996415.8074772,-1.739175148108765,-3.2,8.683470808648538,0.5522222222222222,0.07777777777777778,-0.7066666666666667,0.04136159235146937,0.11605165812772043,-1.5453473092638943
1589996415.8174772,-1.6972316287359472,-3.2055367425281056,8.673389772415684,0.5522222222222222,0.07777777777777778,-0.7066666666666667,0.0407120361155282,0.12010848512899658,-1.5194964349601336
1589996415.8274772,-1.6900437003016178,-3.2199125993967646,8.630262201809707,0.5522222222222222,0.07777777777777778,-0.7066666666666667,0.05012101243378612,0.12324481056841591,-1.4967580755243437
1589996415.8374772,-1.670653298835705,-3.2409799482535577,8.74,0.5636869340232858,0.08565976714100906,-0.7188479229552969,0.03596178389837524,0.11714189052796593,-1.459887906220336
1589996415.8474772,-1.5812979932722422,-3.175129799327224,8.725389397981672,0.5877777777777777,0.10222222222222224,-0.7444444444444445,0.029678973690097928,0.11929022267151007,-1.420183507454693
1589996415.8574772,-1.5117473940955843,-3.1836894544283116,8.664368485238962,0.5877777777777777,0.10222222222222224,-0.7444444444444445,0.020228022257899835,0.11847686345363284,-1.3867846772219612
1589996415.8674772,-1.49,-3.230704842649806,8.588067969535853,0.5877777777777777,0.10222222222222224,-0.7444444444444445,0.021548884801171547,0.11208783974837738,-1.3541596689822284
1589996415.8774772,-1.4760130768358593,-3.2839869231641408,8.591470577119317,0.5877777777777777,0.10222222222222224,-0.7444444444444445,0.02170967226394341,0.11186719305265282,-1.323733853020769
1589996415.8874772,-1.4479286343127544,-3.3120713656872454,8.654142731374492,0.5919205091522688,0.09969055304892216,-0.7488173275619627,0.017227341574597863,0.10780522046603441,-1.2945436712136782
1589996415.8974771,-1.437652110131134,-3.3293915594754635,8.667652110131135,0.6077777777777778,0.09,-0.7655555555555555,0.014313541303150403,0.11152085486892556,-1.2553088500133456
1589996415.9074771,-1.4301484873964614,-3.3594060504141545,8.660148487396462,0.6077777777777778,0.09,-0.7655555555555555,0.007765395175773428,0.1123393731348477,-1.2266607107060712
1589996415.9174771,-1.398527465318644,-3.3907252696366896,8.549978004592024,0.6077777777777778,0.09,-0.7655555555555555,0.011840909318398747,0.09854397209915965,-1.1823790542548176
1589996415.9274771,-1.2776923857095768,-3.308391693501356,8.28965085321636,0.6077777777777778,0.09,-0.7655555555555555,0.025989176846121544,0.058233641345819445,-1.1550295719155281
1589996415.937477,-1.3680120744973705,-3.4090110682892565,8.93301710553794,0.612217750186159,0.08988900068979047,-0.7693295321026796,-0.04483742581146421,0.12774495569233318,-1.1063236528957023
1589996415.947477,-1.2724572361551458,-3.321419133142217,8.79764775121979,0.6476084310536497,0.0890042336681032,-0.7994116108400466,-0.010961324110408545,0.059124134297887085,-1.082002349110329
1589996415.957477,-1.2481771694328727,-3.2246337807754193,8.324531508298618,0.6522222222222223,0.08888888888888889,-0.8033333333333333,-0.014857216721286232,0.08893707899549776,-1.0247676813436146
1589996415.967477,-1.2437348445421077,-3.395873089303957,8.337348445421076,0.6522222222222223,0.08888888888888889,-0.8033333333333333,0.01524208880399513,0.06319587545089045,-0.9885819286774049
1589996415.977477,-1.276073941286455,-3.5333142504674337,8.66073941286455,0.6522222222222223,0.08888888888888889,-0.8033333333333333,0.005541056197107231,0.07201499600260673,-0.9533054464705399
1589996415.987477,-1.2811674440613805,-3.5522081389846547,8.66791861015345,0.6338210640167647,0.06656215026626708,-0.7888577555450401,0.00845812329002229,0.06339553377669407,-0.9014497500762219
1589996415.997477,-1.2542378965316103,-3.5684757930632207,8.645092654910934,0.5688888888888889,-0.012222222222222223,-0.7377777777777778,0.014586356050937603,0.06461852102702062,-0.8470362941144876
1589996416.007477,-1.2490013078380084,-3.601997384323983,8.683337692793362,0.5688888888888889,-0.012222222222222223,-0.7377777777777778,0.007671653405907078,0.06570499233868507,-0.8025260613015883
1589996416.017477,-1.23,-3.646079515534492,8.601761453396524,0.5688888888888889,-0.012222222222222223,-0.7377777777777778,0.01361370028302811,0.0567232006898157,-0.7633119993827554
1589996416.027477,-1.2176269066257768,-3.6455647243967397,8.578559640061336,0.5688888888888889,-0.012222222222222223,-0.7377777777777778,0.011392121340653762,0.054698658020719854,-0.7271217767262279
1589996416.037477,-1.1729096877681202,-3.597759167381654,8.649030104077294,0.5645782403435256,-0.005540716976909018,-0.7257079618507604,0.017347493287112662,0.046799924414516976,-0.6915064714538524
1589996416.047477,-1.1830844062947066,-3.647445875059609,8.679469718645684,0.5244444444444445,0.05666666666666665,-0.6133333333333333,0.013902188361721881,0.04212448280126371,-0.6390639161771254
1589996416.057477,-1.1430815450643776,-3.5941087267525034,8.772809728183118,0.5244444444444445,0.05666666666666665,-0.6133333333333333,0.008084008039324951,0.033397212317668325,-0.6128821047263392
1589996416.067477,-1.1578102325581394,-3.694379534883721,8.578759069767441,0.5244444444444445,0.05666666666666665,-0.6133333333333333,0.01455503123532341,0.03418998532025962,-0.5576454815636855
1589996416.077477,-1.15000688372093,-3.7099862325581396,8.609972465116279,0.5244444444444445,0.05666666666666665,-0.6133333333333333,0.012001391299867659,0.03163634538480387,-0.5312578688973094
1589996416.087477,-1.1340671778021174,-3.7323921950427974,8.831720417021621,0.5228708323755178,0.0720093843387016,-0.6056619744973158,0.02080402059107283,0.03916543161811086,-0.4894334386391228
1589996416.097477,-1.0534200769019502,-3.762740318593793,9.522841252403186,0.5155555555555555,0.14333333333333334,-0.57,0.04642460915054961,0.081712955004662,-0.4436518294926407
1589996416.107477,-0.9225806451612903,-3.284838709677419,7.494516129032258,0.5155555555555555,0.14333333333333334,-0.57,0.10362892433716331,0.1272753206545058,-0.3900247868771199
1589996416.117477,-0.936987041418029,-3.50616503654532,8.001653543307087,0.5155555555555555,0.14333333333333334,-0.57,-0.029572795740069876,-0.17646006856906776,-0.4442967912728176
1589996416.127477,-1.0626562274498486,-3.601986578149805,9.593180473372781,0.5155555555555555,0.14333333333333334,-0.57,-0.12149365952560923,-0.04049829320207392,-0.4012004853346437
1589996416.137477,-0.9642592668609663,-3.473194450145725,8.114490784450556,0.5155555555555555,0.1458770621530771,-0.5688760268005782,0.11867581576182555,0.03772709077276575,-0.32957987189019367
1589996416.147477,-1.04,-3.53,8.55,0.5155555555555555,0.19111111111111112,-0.5488888888888889,0.0370882466048795,0.04908738521234052,-0.29343348049154666
1589996416.157477,-1.0478018487793317,-3.572910168286324,8.69043327802797,0.5155555555555555,0.19111111111111112,-0.5488888888888889,0.02900327463644606,0.03632163999902456,-0.2687530397458025
1589996416.167477,-1.1020876112251883,-3.7471321013004792,9.005653661875428,0.5155555555555555,0.19111111111111112,-0.5488888888888889,0.013440886890144558,0.009267208536855585,-0.2159747887055697
1589996416.177477,-1.1552084960174918,-3.8854864907074806,9.004689208183663,0.5155555555555555,0.19111111111111112,-0.5488888888888889,0.010071231915266552,-0.002450578696051893,-0.18500953457010325
1589996416.1874769,-1.11590535686397,-3.7937791660159297,8.592006247071685,0.5155555555555555,0.19111111111111112,-0.5488888888888889,0.013643988085050157,-0.0031651299300086144,-0.1635729975514016
1589996416.1974769,-1.0997542794036446,-3.7774594146880176,8.669508558807289,0.5311111111111111,0.2311111111111111,-0.5911111111111111,0.024391723193456918,-0.0015110807200711535,-0.1099862813188634
1589996416.2074769,-1.068141503396164,-3.711710675723104,8.61713834465388,0.5311111111111111,0.2311111111111111,-0.5911111111111111,0.019821559858699357,-9.330288688157444e-05,-0.07163774485393958
1589996416.2174768,-1.0756509276952475,-3.73720212044628,8.655152252974172,0.5311111111111111,0.2311111111111111,-0.5911111111111111,0.02260224511813405,-0.0026016747859054505,-0.04458806964830432
1589996416.2274768,-1.037257975454659,-3.647392280151761,8.614918865000623,0.5311111111111111,0.2311111111111111,-0.5911111111111111,0.00998168165127232,-0.0028238296304265147,-0.014122198693320865
1589996416.2374768,-1.0796204675061796,-3.7403795324938205,8.848861402518539,0.531870176098752,0.2318280058216608,-0.5911111111111111,0.012758764808183892,-0.009858877615189802,0.008670829795517625
1589996416.2474768,-1.0714570155121743,-3.748542984487826,8.824371046536523,0.5481970800867626,0.24724785958811535,-0.5911111111111111,0.00563480902698942,-0.01074937208783911,0.03093319161175035
1589996416.2574768,-1.0983649266971707,-3.75,8.674028387337755,0.5511111111111111,0.25,-0.5911111111111111,0.001447548440569347,-0.014537517830526816,0.06245136102725975
1589996416.2674768,-1.0905317023064713,-3.75,8.501697450742366,0.5511111111111111,0.25,-0.5911111111111111,0.0031564928988847404,-0.01624646228884221,0.08466763898535987
1589996416.2774768,-1.0981804188294255,-3.826135314122069,8.72,0.5511111111111111,0.25,-0.5911111111111111,0.0030740068322780024,-0.019610353283326297,0.11902355930016321
1589996416.2874768,-1.128209414712726,-3.8486570610345447,8.72,0.5511111111111111,0.25,-0.5911111111111111,0.0063496621399743575,-0.015515784148705854,0.13949640497326546
1589996416.2974768,-1.09,-3.79,8.701137985191833,0.57,0.26222222222222225,-0.5911111111111111,0.001891736022039064,-0.02078104840584139,0.1740355533537544
1589996416.3074768,-1.0974511458806726,-3.7825488541193275,8.727907117661061,0.57,0.26222222222222225,-0.5911111111111111,-7.1055436285450465e-06,-0.01881505461215673,0.20148302464672754
1589996416.3174767,-1.1116429084671906,-3.7516429084671903,8.561728437985304,0.57,0.26222222222222225,-0.5911111111111111,0.0025431985317990414,-0.0207288948084717,0.22872536712160577
1589996416.3274767,-1.07,-3.7150365529231864,8.676295691153983,0.57,0.26222222222222225,-0.5911111111111111,-0.0013655321308106727,-0.02604258810575783,0.25732263782728776
1589996416.3374767,-1.0698681466944684,-3.7501977799582975,8.719142953514044,0.5701391784891723,0.26222222222222225,-0.5912209888657209,-0.003279683829711763,-0.025096299479640878,0.2794324673746526
1589996416.3474767,-1.0596590104219368,-3.8017327734493573,8.592414752605483,0.5911111111111111,0.26222222222222225,-0.6077777777777778,-0.006734000956743906,-0.027496982017002767,0.3115282141824378
1589996416.3574767,-1.0947110042945511,-3.8652889957054493,8.60471100429455,0.5911111111111111,0.26222222222222225,-0.6077777777777778,-0.013409963897308533,-0.03189103811744569,0.33238814324990607
1589996416.3674767,-1.1108211865072097,-3.845894067463952,8.61917881349279,0.5911111111111111,0.26222222222222225,-0.6077777777777778,-0.010818730272941062,-0.03281450102691718,0.35058866878326533
1589996416.3774767,-1.1171712179249558,-3.798585608962478,8.628387083487787,0.5911111111111111,0.26222222222222225,-0.6077777777777778,-0.010897479940019479,-0.03412432651383338,0.37038712400929497
1589996416.3874767,-1.100117053761451,-3.790117053761451,8.739531784954197,0.5920410382159712,0.2622547371559586,-0.6078102927115141,-0.017427755350703764,-0.03601656869931268,0.38735346075550986
1589996416.3974767,-1.1195225316924218,-3.8095225316924215,8.661909873230314,0.7462067795564603,0.2676451476923393,-0.6132007032478949,-0.013194136815472077,-0.03919178260073647,0.4053463395302445
1589996416.4074767,-1.1217331334332832,-3.7348440779610197,8.732799100449775,0.75,0.2677777777777778,-0.6133333333333333,-0.015160094734011465,-0.039759555450651185,0.4259476693663545
1589996416.4174767,-1.0798110944527737,-3.657987006496752,8.54414992503748,0.75,0.2677777777777778,-0.6133333333333333,-0.009062781322683948,-0.03671089874498742,0.4396666245418414
1589996416.4274766,-1.130152034170684,-3.71,8.688783726634526,0.75,0.2677777777777778,-0.6133333333333333,-0.02384901801688569,-0.038245414808725446,0.4672404307259054
1589996416.4374766,-1.1390209760636048,-3.71,8.61783219149116,0.75,0.2677777777777778,-0.6133333333333333,-0.01514195467441255,-0.0421152207387135,0.48852436334083965
1589996416.4474766,-1.1505565055184206,-3.63,8.737378916746241,1.3777777777777778,0.32666666666666666,-0.94,-0.021981120809573217,-0.03926990816987242,0.5076260295151525
1589996416.4574766,-1.21191468459152,-3.63095734229576,8.601383919338158,1.3777777777777778,0.32666666666666666,-0.94,-0.023220735966105854,-0.039478767858992604,0.5169028287218644
1589996416.4674766,-1.234567170050484,-3.638477609983172,8.533701510151452,1.3777777777777778,0.32666666666666666,-0.94,-0.02551567082258642,-0.04145156973486533,0.5276071740459451
1589996416.4774766,-1.262951974226418,-3.6288192103094326,8.616494343298118,1.3777777777777778,0.32666666666666666,-0.94,-0.02181661564992912,-0.04138716764775907,0.5388100091644529
1589996416.4874766,-1.3022332733947704,-3.6131066906420917,8.702913201468496,1.3777777777777778,0.32666666666666666,-0.94,-0.02181661564992912,-0.040530182641573244,0.5525217692634261
1589996416.4974766,-1.3907427748746932,-3.556171483416871,8.728971419430522,1.0667685708530326,-0.13187254867109827,-0.8303493180714041,-0.01496620531567935,-0.04427525914336873,0.5767627293411954
1589996416.5074766,-1.4246978951795406,-3.5329305269060542,8.691722107624217,1.0311111111111109,-0.18444444444444444,-0.8177777777777778,-0.01783887246328863,-0.047676883534038275,0.6243506618732101
1589996416.5174766,-1.4008496781907451,-3.4997875804523138,8.562973873667609,1.0311111111111109,-0.18444444444444444,-0.8177777777777778,-0.019611782706794194,-0.05143124642432755,0.6576301575666892
1589996416.5274765,-1.4407016585760517,-3.496314927184466,8.702104975728155,1.0311111111111109,-0.18444444444444444,-0.8177777777777778,-0.01862066237979574,-0.059211018564232595,0.7046953734715288
1589996416.5374765,-1.449185275080906,-3.5726674757281556,8.72755582524272,1.0311111111111109,-0.18444444444444444,-0.8177777777777778,-0.01954608138283476,-0.06291269457638865,0.7444883906022064
1589996416.5474765,-1.45,-3.541013236156488,8.69506618078244,0.6588888888888889,0.13333333333333333,-0.6788888888888889,-0.02205210789475557,-0.06284051611595944,0.7866428363197062
1589996416.5574765,-1.45,-3.549797478428416,8.738987392142079,0.6588888888888889,0.13333333333333333,-0.6788888888888889,-0.03355065414010587,-0.0685897892386346,0.8163474141201945
1589996416.5674765,-1.4199666507860886,-3.602558361124345,8.642391615054787,0.6588888888888889,0.13333333333333333,-0.6788888888888889,-0.028901558983790092,-0.0654462091148767,0.8416032324578457
1589996416.5774765,-1.4141697157962334,-3.5041697157962335,8.829369763586673,0.6588888888888889,0.13333333333333333,-0.6788888888888889,-0.030963733280384702,-0.0747146346580812,0.8637766660017987
1589996416.5874765,-1.3327379441150555,-3.422737944115055,8.541226571484042,0.6588888888888889,0.13333333333333333,-0.6788888888888889,-0.006365131772462555,-0.08223087400772408,0.8767592612420909
1589996416.5974765,-1.2822481524698561,-3.473022170361727,8.614803578374174,0.6132391201002636,0.19362548079000821,-0.6676917757897921,-0.026433235542711663,-0.07264610556585985,0.8894921015570993
1589996416.6074765,-1.1928532412241948,-3.5508356092858864,8.600115471122178,0.6,0.2111111111111111,-0.6644444444444444,-0.03837397499906909,-0.065553593728362,0.8888321901229185
1589996416.6174765,-1.18,-3.604793373588633,8.546776807560214,0.6,0.2111111111111111,-0.6644444444444444,-0.017756797594109797,-0.06894171016935884,0.851509134752439
1589996416.6274765,-1.18,-3.659198486122792,8.739799621530699,0.6,0.2111111111111111,-0.6644444444444444,-0.03355345945443325,-0.058795572753576594,0.7946889866041787
1589996416.6374764,-1.18,-3.6239226240538267,8.730980656013458,0.6,0.2111111111111111,-0.6644444444444444,-0.022009460587255236,-0.05398557322558573,0.7235009935899144
1589996416.6474764,-1.1723445457532446,-3.5970336372597336,8.76062181698702,0.6110578783564244,0.19580020261760037,-0.6916638373217968,-0.02156086538206806,-0.05094546679842014,0.6354172639126768
1589996416.6574764,-1.1553463448636403,-3.6066829310795505,8.637326827568181,0.6144444444444445,0.19111111111111112,-0.7,-0.00821901123258526,-0.035192860400771776,0.4819588267912972
1589996416.6674764,-1.1936090529115606,-3.6448442101263416,8.620515578987366,0.6144444444444445,0.19111111111111112,-0.7,-0.011605452006302122,-0.02223255511615319,0.36012992827928675
1589996416.6774764,-1.2608179408766564,-3.5512269113149846,8.63449867482161,0.6144444444444445,0.19111111111111112,-0.7,-0.004229487867007971,-0.009683641779490253,0.21628383402364387
1589996416.6874764,-1.2779200815494394,-3.576880122324159,8.728560448521916,0.6144444444444445,0.19111111111111112,-0.7,-0.0014311566431395393,-0.00688531055562182,0.08569504357645041
1589996416.6974764,-1.2189493249853258,-3.55836561664384,8.67210135002935,0.5344444444444445,0.10222222222222224,-0.6433333333333333,0.010971980527653812,0.007648550018013043,-0.08258072082326395
1589996416.7074764,-1.1368851496771668,-3.4307102328311485,8.836229700645665,0.5344444444444445,0.10222222222222224,-0.6433333333333333,0.01594520989244966,0.008643195890972212,-0.22779901827530274
1589996416.7174764,-2.7715664889460063,-4.08730345079106,-2.2339103176394985,0.5344444444444445,0.10222222222222224,-0.6433333333333333,-0.4152912194782283,1.1864933514993685,-0.6337848658046674
1589996416.7274764,-5.134992102323072,-3.4280448433948454,-1.5712532264899632,0.5344444444444445,0.10222222222222224,-0.6433333333333333,-1.1112008296987566,-0.29178977496333514,-6.782383504716145
1589996416.7374763,-2.4873606491951574,-2.858025143009179,-0.4005254755886657,0.5344444444444445,0.10222222222222224,-0.6433333333333333,-0.7870620540123351,-1.1721136384618678,-8.869634628542645
1589996416.7474763,-0.221421483789085,-2.232179916157071,-0.2537440867658936,0.5344444444444445,0.1971985692857967,-0.6081569084949724,-0.7002358744024435,-0.7943002588452358,-9.312075896905347
1589996416.7574763,-0.025389262281965114,-2.10077852456393,-0.09928188510161629,0.5344444444444445,0.2222222222222222,-0.5988888888888889,-0.7245664111454262,-0.44532069144042397,-9.010001644064307
1589996416.7674763,-0.16749247584349755,-1.9523412006969745,-0.20618881672738792,0.5344444444444445,0.2222222222222222,-0.5988888888888889,-0.7658404469744439,-0.23766512391769407,-8.581424422706194
1589996416.7774763,-0.9837442013079586,-6.56511257948451,8.924440949514606,0.5344444444444445,0.2222222222222222,-0.5988888888888889,-0.29890205012616644,0.490178984695031,-8.090673202958781
1589996416.7874763,-0.775151566219376,-4.1357685744981145,7.236123738703629,0.5344444444444445,0.2222222222222222,-0.5988888888888889,1.2074011866506482,2.4906717441537696,-7.263005703170403
1589996416.7974763,-0.039062905524709146,-1.7388973982598337,14.928083689663241,0.4364391828167436,0.3618797200416959,-0.6054225729974023,1.7932498309315474,3.0853345881395025,-6.784857054362558
1589996416.8074763,0.6375263246804437,1.7264958612534491,0.5507049946505997,0.4011111111111111,0.4122222222222222,-0.6077777777777778,2.6423191157478447,1.8602538860228464,-5.8717307418133915
1589996416.8174763,-0.25995326313418543,0.0732439889633425,-0.30741145334759823,0.4011111111111111,0.4122222222222222,-0.6077777777777778,1.2820266561830385,-0.25575660663351885,-5.1666801677586545
1589996416.8274763,0.6085689101555122,-0.4573476883040568,1.6602514218556528,0.4011111111111111,0.4122222222222222,-0.6077777777777778,-0.13921328091782914,-0.03325899536149906,-4.425201684542515
1589996416.8374763,4.754543222313165,-2.7900083947197216,17.170244496211883,0.4011111111111111,0.4122222222222222,-0.6077777777777778,-0.9333012098770055,0.6283209115948161,-3.9422195463726655
1589996416.8474762,-4.435997810019162,0.9933674866059208,6.000956943412459,0.3055555555555556,0.4933333333333334,-0.6022222222222222,-0.10097306641777556,1.811651473489581,-3.3721763472071524
1589996416.8574762,0.21412948261702702,-1.3850044972820774,8.198900707833092,0.3055555555555556,0.4933333333333334,-0.6022222222222222,0.23093138499793606,-0.43832075106706325,-2.8747669806650076
1589996416.8674762,1.388910391742904,-2.6325733051841427,11.372570372976776,0.3055555555555556,0.4933333333333334,-0.6022222222222222,-0.08376700170799196,-0.3761093315628366,-2.378529333626053
1589996416.8774762,0.6837931034482758,-1.2879310344827586,5.887413793103448,0.3055555555555556,0.4933333333333334,-0.6022222222222222,0.1451933386357352,0.304511055162071,-2.1146883164330865
1589996416.8874762,0.4229040601210228,-1.3052796213156355,5.679291918797579,0.3055555555555556,0.4933333333333334,-0.6022222222222222,0.06147942944178117,0.5766979928388868,-1.914006174678066
1589996416.8974762,0.7366852173913043,-2.47024,10.201158260869565,0.2574488888888889,0.5302848309178744,-0.607799806763285,-0.260419439431866,0.3293292119140309,-1.698440602220099
1589996416.9074762,0.9159544524053225,-2.370223259979529,9.013700955305357,0.2288888888888889,0.5522222222222222,-0.6111111111111112,0.08901957020836526,0.12539634374210396,-1.461173718094893
1589996416.9174762,0.5939764585465712,-1.5921097748208803,5.328841692255203,0.2288888888888889,0.5522222222222222,-0.6111111111111112,0.3153636080448062,0.034663604436978926,-1.3314161446800363
1589996416.9274762,0.5525807344710978,-1.8958018075029168,7.1138447999683585,0.2288888888888889,0.5522222222222222,-0.6111111111111112,0.07622056862705157,0.03722885283108062,-1.16557211667382
1589996416.9374762,1.012962602649575,-2.997261151964291,10.978463189218576,0.2288888888888889,0.5522222222222222,-0.6111111111111112,-0.09372914105493316,0.17762494933368603,-0.9178563385878071
1589996416.9474761,0.654907359445352,-2.1573919193529107,7.487973064509702,0.17555555555555555,0.5822222222222222,-0.5877777777777777,0.031801300965109656,0.009901081178824319,-0.6864277736766922
1589996416.9574761,0.8053185639717895,-2.332871657967088,8.07290552655696,0.17555555555555555,0.5822222222222222,-0.5877777777777777,0.055500759132748614,0.0217508102626438,-0.5023012140665741
1589996416.9674761,7.471264102215576,-10.221274976213131,3.8893597933940462,0.17555555555555555,0.5822222222222222,-0.5877777777777777,-0.02395957844718631,0.022105744374391275,-0.31677313729925793
1589996416.9774761,4.122619350518915,-7.164592567793774,0.6687298292601273,0.17555555555555555,0.5822222222222222,-0.5877777777777777,-0.19034087824583773,-0.3933849137072706,0.1769554679107716
1589996416.987476,-0.5182114161365918,-2.271008536993639,7.556256277201205,0.17555555555555555,0.5822222222222222,-0.5877777777777777,-0.44767118309089315,-0.0027942724245970663,1.0776115348684658
1589996416.997476,-1.010064690485817,-0.341659608877918,0.8796386695890878,0.14888888888888888,0.6044444444444445,-0.6144444444444445,0.5528499764987872,-0.04489706575996511,1.74248087747773
1589996417.007476,-1.322452705722129,-1.4573310918647457,7.413010873959951,0.14888888888888888,0.6044444444444445,-0.6144444444444445,0.634632967643445,0.17319091062578898,1.8339999389967514
1589996417.017476,1.1478032273755894,-2.7622805236554364,12.91175982911406,0.14888888888888888,0.6044444444444445,-0.6144444444444445,-0.4792918929047284,-0.43545799654245543,1.696481497502074
1589996417.027476,0.4470234545185373,-2.3187490218471756,8.990941353129031,0.14888888888888888,0.6044444444444445,-0.6144444444444445,-0.4405864676903817,-0.13452331550091,1.772924712300409
1589996417.037476,-0.009088925377003843,-2.487774489046364,7.947005141943568,0.14888888888888888,0.6044444444444445,-0.6144444444444445,0.08276960779247139,-0.10584643159243357,1.8446746988285017
1589996417.047476,0.21144997434581833,-2.533229348383786,8.382276038994355,0.1767237899777664,0.6014352659483496,-0.6242242745567528,0.05142094594324906,-0.1275811952461227,1.9418470348822845
1589996417.057476,0.4875452874770281,-2.7912365450249412,9.256986085586767,0.19,0.6,-0.6288888888888889,-0.30330622934840745,-0.20499399534388965,2.099405363495788
1589996417.067476,2.07324016563147,-7.449232229123534,8.984839544513457,0.19,0.6,-0.6288888888888889,-0.00898147456906416,-0.19750247897454723,2.264990045658026
1589996417.077476,-0.19420979986197384,-3.1475097768576035,9.394910282953761,0.19,0.6,-0.6288888888888889,-0.12300365492970274,-0.20276504114503827,2.763179264464509
1589996417.087476,-0.6105300713557594,-2.4549519440803844,7.871408912188729,0.19,0.6,-0.6288888888888889,-0.04879557566705932,-0.22360323391415904,3.215618158790412
1589996417.097476,-0.4062919529411765,-2.8377852235294116,8.437432847058824,0.21550475294117646,0.5834563764705882,-0.6254423006535947,-0.04644175353231156,-0.22501404821927484,3.371840307703954
1589996417.107476,-0.04117935741124146,-3.078443370907139,8.859622728318381,0.2311111111111111,0.5733333333333334,-0.6233333333333333,-0.17328768343430573,-0.2844598268471174,3.4636707096994
1589996417.117476,-0.0562739918999824,-3.0719252749363686,8.530804398981894,0.2311111111111111,0.5733333333333334,-0.6233333333333333,-0.13742374171212837,-0.2743606441565239,3.5170150529677797
1589996417.127476,-0.04091732207941684,-3.0665647419911757,8.37282370995588,0.2311111111111111,0.5733333333333334,-0.6233333333333333,-0.09783339667855313,-0.25890162396984434,3.5802890540647785
1589996417.137476,-0.08604337803855826,-3.270477996647108,8.355434828164292,0.2311111111111111,0.5733333333333334,-0.6233333333333333,-0.12951002760116087,-0.27059241655267446,3.6333391246212248
1589996417.147476,-0.7131157136425034,-6.960181599879935,8.250235629596279,0.3088888888888889,0.5488888888888889,-0.6144444444444445,-0.09460939254966862,-0.2700041117216457,3.7017166610757255
1589996417.157476,-0.41635556699041615,-6.105872086790592,9.12253060611908,0.3088888888888889,0.5488888888888889,-0.6144444444444445,-0.1760286457250005,-0.2945279831599987,3.8655361222839244
1589996417.167476,-0.2044607168864795,-3.911759851120641,8.736151792216198,0.3088888888888889,0.5488888888888889,-0.6144444444444445,-0.1630203753211493,-0.33128126624188886,4.281495816748624
1589996417.177476,-0.5088394263675375,-1.8880227062849695,6.246680971264055,0.3088888888888889,0.5488888888888889,-0.6144444444444445,-0.1780167515675521,-0.35690529670821947,4.027003953407444
1589996417.187476,-4.20113792820849,-3.1671627602032455,10.583700213079823,0.3088888888888889,0.5488888888888889,-0.6144444444444445,-0.3993012362253212,-0.3006833660814594,0.30838949285302064
1589996417.197476,-4.092420207502897,-2.7958722754643373,11.680859977949282,0.37990444689452413,0.49335108070499467,-0.6217280914193813,0.1961699406323248,0.3562661106796661,-1.6454311027700044
1589996417.207476,-1.235476178434149,-0.009511177422617756,4.868492312360915,0.3955555555555556,0.4811111111111111,-0.6233333333333333,0.7644820403649533,0.27957269670356927,-0.7166253431085681
1589996417.217476,-1.0338721241436886,-4.2397755788543225,11.612576423502835,0.3955555555555556,0.4811111111111111,-0.6233333333333333,0.03492715512953126,-0.04564701093530349,-0.1300839344981336
1589996417.227476,-0.6477508511916683,-4.515085119166834,9.861419987983176,0.3955555555555556,0.4811111111111111,-0.6233333333333333,-0.43429047352467653,-0.07105452808220554,0.1478970353193638
1589996417.2374759,-0.6672890965166909,-3.9201274492017415,9.116854136429609,0.3955555555555556,0.4811111111111111,-0.6233333333333333,-0.22746867018002065,-0.08356573704114682,0.5303936846264498
1589996417.2474759,4.429180158812004,-8.090731841462995,7.6729356158262005,0.41773118070117143,0.4755672048247072,-0.652161646022634,0.23383784498469612,0.010700160917892346,1.0790441404702196
1589996417.2574759,1.2913205491392459,-10.746716060143822,9.568334277620396,0.4177777777777778,0.4755555555555556,-0.6522222222222223,-0.09101897754083704,-0.10059423262484705,1.1993894822962896
1589996417.2674758,-1.9321216114885587,-3.16457656388466,10.172371560362654,0.4177777777777778,0.4755555555555556,-0.6522222222222223,-0.21620078227116263,-0.1103244624683229,0.21130734943758778
1589996417.2774758,-1.6405052727725649,-2.676940753964959,7.6711207755542645,0.4177777777777778,0.4755555555555556,-0.6522222222222223,0.1301886792906815,0.07095461131645213,-0.2403235039183855
1589996417.2874758,-0.5382024417698501,-4.84944324183912,7.9500380985366705,0.4177777777777778,0.4755555555555556,-0.6522222222222223,0.13882132234335298,0.051333935577019554,-0.0682210804036315
1589996417.2974758,-0.09692384270781484,-5.31370831259333,9.031214534594325,0.4296056634035728,0.4713810076876279,-0.6376113046844755,-0.09418121123838862,-0.052819231886356524,0.13311067595349482
1589996417.3074758,-0.3224329112989554,-4.298640507917758,8.336189878557454,0.43666666666666665,0.4688888888888889,-0.6288888888888889,-0.02015993477011538,-0.009726759027150672,0.006364515034680149
1589996417.3174758,-0.1741156921798733,-4.4223841174230625,8.439614359400421,0.43666666666666665,0.4688888888888889,-0.6288888888888889,0.031755837367952615,0.010795059598540673,-0.014550074732707079
1589996417.3274758,-0.12,-4.643517107925059,8.522896648781774,0.43666666666666665,0.4688888888888889,-0.6288888888888889,0.007951790843199295,0.00015798768286205168,-0.003505703122397969
1589996417.3374758,-0.13192684559673787,-4.5928412756375145,8.585231878765748,0.43666666666666665,0.4688888888888889,-0.6288888888888889,-0.0034627288277549384,-0.0013209668002387705,-0.0030623060984854254
1589996417.3474758,-0.12810559714647146,-4.577313618547936,8.59863358287883,0.43270186571549046,0.4688888888888889,-0.6381400911083001,-0.0007063333475595557,0.0012974780772042622,-0.0008841834877886497
1589996417.3574758,-0.13340434444377955,-4.63670217222189,8.57680868888756,0.43,0.4688888888888889,-0.6444444444444445,-0.0025762562678946577,0.0014505679880699087,0.0
1589996417.3674757,-0.12417958557175748,-4.592538756715272,8.510897927858787,0.43,0.4688888888888889,-0.6444444444444445,-0.0028655446549555787,-0.0023606482275391454,0.0017257395050178008
1589996417.3774757,-0.13346516495564636,-4.613662912389116,8.590988737167349,0.43,0.4688888888888889,-0.6444444444444445,-0.004384894028744649,-0.0010692598837376303,-2.157089875882588e-05
1589996417.3874757,-0.11236725424461988,-4.63,8.628946901697848,0.43,0.4688888888888889,-0.6444444444444445,-0.004851300918984941,0.0,-0.0016936837759937945
1589996417.3974757,-0.09837123225641328,-4.625814383871793,8.63255684838462,0.43279041075213776,0.4688888888888889,-0.6379334860227898,-0.0025370035634412484,0.00045657989163614386,-0.0017250816733567682
1589996417.4074757,-0.11940757305840882,-4.601184853883183,8.626481067353978,0.43666666666666665,0.4688888888888889,-0.6288888888888889,0.0015393105421045014,-0.0004484797596080454,-0.001090830782496456
1589996417.4174757,-0.10734916992846538,-4.587550276690512,8.577349169928466,0.43666666666666665,0.4688888888888889,-0.6288888888888889,0.0049197071935644585,-0.0013580541419553663,0.0013799914866161804
1589996417.4274757,-0.11860909279634628,-4.571390907203654,8.594812123728461,0.43666666666666665,0.4688888888888889,-0.6288888888888889,0.002747571078270604,-0.000414185073943537,0.000828370147887074
1589996417.4374757,-0.1261106358711149,-4.5950042771599655,8.629446820644425,0.43666666666666665,0.4688888888888889,-0.6288888888888889,-0.00018196065234115408,0.0,-0.00042426381161253664
1589996417.4474757,-0.12,-4.638485691723386,8.634092806377618,0.43666666666666665,0.4688888888888889,-0.6333666754409055,-0.002181661564992912,0.0009420121430463322,0.00016518540823198683
1589996417.4574757,-0.12,-4.588039863303996,8.62270432807041,0.43666666666666665,0.4688888888888889,-0.6444444444444445,-0.0031398532888261645,0.0023143006236561155,0.0023143006236561155
1589996417.4674757,-0.12501876697013256,-4.565018766970132,8.599662194537613,0.43666666666666665,0.4688888888888889,-0.6444444444444445,-0.002720935479626701,-0.0005515568678626669,-4.0943177429591734e-06
1589996417.4774756,-0.1197763977310181,-4.57,8.571341613613892,0.43666666666666665,0.4688888888888889,-0.6444444444444445,-0.0027636637919473675,-0.00329688357129352,-0.001090830782496456
1589996417.4874756,-0.12510245508160747,-4.600204910163216,8.599795089836785,0.43666666666666665,0.4688888888888889,-0.6444444444444445,-0.004363323129985824,-0.0031277564129142655,-0.0015026863548536422
1589996417.4974756,-0.13356741992616777,-4.637675564944626,8.574648870110748,0.4307326794177828,0.462954901640005,-0.6476396683476896,-0.0034670649209671196,-0.0006427016779871038,-0.00038914514695550335
1589996417.5074756,-0.11528212877308075,-4.6252821287730805,8.588871484907678,0.4222222222222222,0.4544444444444444,-0.6522222222222223,-0.00045308896615689595,0.0,0.0010292798324355679
1589996417.5174756,-0.12,-4.576740987800978,8.583314753049756,0.4222222222222222,0.4544444444444444,-0.6522222222222223,0.003995659280098843,-0.0007262071244005967,0.0
1589996417.5274756,-0.10651275340131855,-4.630923479592089,8.556281883503296,0.4222222222222222,0.4544444444444444,-0.6522222222222223,0.004718538724434162,0.00038039959359977894,-0.0022068455641443526
1589996417.5374756,-0.105215758828971,-4.623058170539261,8.59215758828971,0.4222222222222222,0.4544444444444444,-0.6522222222222223,0.0009496169591542854,-4.707127444739025e-05,-0.002134590290545522
1589996417.5474756,-0.1128255858276006,-4.594127929138003,8.634348828344798,0.42850130183911245,0.45664212231035595,-0.6522222222222223,-0.0018734379650596658,-0.0007826071825632098,-0.001399054382429702
1589996417.5574756,-0.12088392334698654,-4.623812536571094,8.623535693387945,0.4444444444444444,0.4622222222222222,-0.6522222222222223,-0.001283672941748499,-0.00048210539813010785,-0.0019888194057408686
1589996417.5674756,-0.13,-4.591048262019888,8.597903475960223,0.4444444444444444,0.4622222222222222,-0.6522222222222223,-0.001579072349773859,-0.004889680579910443,0.0
1589996417.5774755,-0.11404259225261612,-4.593404320421027,8.577233951410562,0.4444444444444444,0.4622222222222222,-0.6522222222222223,-0.0017406831579693768,-0.0032028676913395727,0.0005802277193231256
1589996417.5874755,-0.10672615253877205,-4.583452305077544,8.606636923730614,0.4444444444444444,0.4622222222222222,-0.6522222222222223,-0.0036393470593423295,-0.0010810974294340274,0.00035712135879053294
1589996417.5974755,-0.12,-4.606796231706879,8.606407536586243,0.44017275338694917,0.46329014498659604,-0.649908389566079,-0.004013846222573525,0.0007413538750841578,-0.001440307689908754
1589996417.6074755,-0.11268674627687829,-4.600969880584683,8.610746985107514,0.4177777777777778,0.4688888888888889,-0.6377777777777778,-0.00018728099464591615,-0.0006919546684270568,-0.002873616233419969
1589996417.6174755,-0.103430724063528,-4.616569275936472,8.542846379682361,0.4177777777777778,0.4688888888888889,-0.6377777777777778,0.002898258406014601,0.0003742339414747666,-0.001058959740568612
1589996417.6274755,-0.11,-4.60170196523993,8.539043121660246,0.4177777777777778,0.4688888888888889,-0.6377777777777778,0.002634249152518426,-0.00026693198008008586,0.001090830782496456
1589996417.6374755,-0.11,-4.592788640595903,8.59673184357542,0.4177777777777778,0.4688888888888889,-0.6377777777777778,0.0026641053468232814,-0.002181661564992912,0.0007866372821634126
1589996417.6474755,-0.11,-4.584150128142673,8.647924935928664,0.4195388746508142,0.4631653240515206,-0.6461429879247006,0.0002263543764666041,-0.00131718515896306,-0.0008644764060298519
1589996417.6574755,-0.1230927868533013,-4.586185573706603,8.646907213146699,0.4222222222222222,0.4544444444444444,-0.6588888888888889,-0.0025190322753210516,0.0,-0.0012295272364431817
1589996417.6674755,-0.12327703851472356,-4.597702718019631,8.563108154058895,0.4222222222222222,0.4544444444444444,-0.6588888888888889,-0.003147195052476344,-0.0018241921162642206,-0.0006080640387547402
1589996417.6774755,-0.11603791877625767,-4.610189593881288,8.570379187762576,0.4222222222222222,0.4544444444444444,-0.6588888888888889,-0.0028402963313284325,-0.0026138575811538475,-0.002408100315167497
1589996417.6874754,-0.1251287315189754,-4.599227610886148,8.635643657594876,0.4222222222222222,0.4544444444444444,-0.6588888888888889,-0.002713034525883548,-0.003300577208204551,-0.0021535767042777285
1589996417.6974754,-0.12016604996789089,-4.589667900064218,8.640332099935781,0.426046536123598,0.44952746942838984,-0.6588888888888889,-0.002181661564992912,-0.003290605589130161,0.0005182455287870385
1589996417.7074754,-0.1040055869889444,-4.61,8.602016760966833,0.43,0.4444444444444444,-0.6588888888888889,-0.002181661564992912,-0.0008738835179015665,-0.000433894529189779
1589996417.7174754,-0.11264873881615528,-4.622648738816156,8.539405044735378,0.43,0.4444444444444444,-0.6588888888888889,-0.0008018981989509153,-0.0006898816830209983,-0.002181661564992912
1589996417.7274754,-0.12,-4.606812084796682,8.544781872804975,0.43,0.4444444444444444,-0.6588888888888889,0.0031617614607120227,-0.001090830782496456,-0.0015493092728505074
1589996417.7374754,-0.12,-4.59,8.60175371907619,0.43,0.4444444444444444,-0.6588888888888889,0.00545415391248228,-0.00010117551886638042,-0.0015856584143114937
1589996417.7474754,-0.12,-4.59,8.646600739530484,0.42743304573814506,0.4477448142096865,-0.6636560896609052,0.00401409593906362,0.001090830782496456,-0.001461632578283582
1589996417.7574754,-0.12,-4.59,8.649729394949976,0.4222222222222222,0.4544444444444444,-0.6733333333333333,0.00019455141102209304,-2.951843184649766e-05,0.0
1589996417.7674754,-0.12009101964108045,-4.590364078564321,8.609362862512436,0.4222222222222222,0.4544444444444444,-0.6733333333333333,-0.003282421050119601,-0.004343465724725358,-9.928702630232693e-06
1589996417.7774754,-0.12714705380664482,-4.621441161419934,8.542852946193355,0.4222222222222222,0.4544444444444444,-0.6733333333333333,-0.003740906824282238,-0.001870453412141119,-0.000779622629644663
1589996417.7874753,-0.11863579232331045,-4.597271584646621,8.560913661413517,0.4222222222222222,0.4544444444444444,-0.6733333333333333,-0.0018840376195027255,-0.001090830782496456,-0.0002976239454901865
1589996417.7974753,-0.11303115807168157,-4.586062316143363,8.633031158071683,0.4266005616590956,0.4588227838813178,-0.6713125612855456,-0.0003306480531202861,-0.0007601827293761698,-0.002181661564992912
1589996417.8074753,-0.12256383476788994,-4.605127669535779,8.64512766953578,0.43666666666666665,0.4688888888888889,-0.6666666666666666,-0.0013705017711013565,-0.0002796709886049004,-0.0013426485991782106
1589996417.8174753,-0.1262451289827729,-4.616245128982773,8.603676934741594,0.43666666666666665,0.4688888888888889,-0.6666666666666666,-0.0009528828980243844,-0.0002716450045174378,-0.00013794788447207156
1589996417.8274753,-0.11742938186975535,-4.61,8.525423708781467,0.43666666666666665,0.4688888888888889,-0.6666666666666666,0.0008104198438450209,0.001371241721147891,-0.002181661564992912
1589996417.8374753,-0.11769064196955059,-4.598464037045674,8.589226604923876,0.43666666666666665,0.4688888888888889,-0.6666666666666666,0.0012583783496317431,0.0009232832153611688,-0.0017622021151156644
1589996417.8474753,-0.12606508292951976,-4.581967458535241,8.62786983414096,0.43382478211576425,0.4675772498653955,-0.6638247821157642,0.003272492347489368,-0.0008762143491439247,-0.001090830782496456
1589996417.8574753,-0.11408971026317287,-4.598179420526346,8.639551448684136,0.4222222222222222,0.4622222222222222,-0.6522222222222223,0.0019341377935211722,-0.0004461181846560653,-0.001983067151808587
1589996417.8674753,-0.11629301463012569,-4.6062930146301255,8.580344117041005,0.4222222222222222,0.4622222222222222,-0.6522222222222223,-0.0008087387503445803,-0.001090830782496456,-0.003676861722661658
1589996417.8774753,-0.11522324686525576,-4.6,8.540446493730512,0.4222222222222222,0.4622222222222222,-0.6522222222222223,-0.002181661564992912,-0.003369902168576094,-0.002654019590426095
1589996417.8874753,-0.11183159669939167,-4.604084201650304,8.578589411552128,0.4222222222222222,0.4622222222222222,-0.6522222222222223,-0.0012906269885779907,-0.004117602047859898,-0.001090830782496456
1589996417.8974752,-0.1082069328422022,-4.604528711438532,8.622735644280734,0.42100638031967375,0.4622222222222222,-0.6500944988927624,0.0,-0.002181661564992912,-0.0007924182833579465
1589996417.9074752,-0.13,-4.596110263522885,8.639165395284328,0.4177777777777778,0.4622222222222222,-0.6444444444444445,-0.0003332631769964034,-0.002181661564992912,0.0
1589996417.9174752,-0.12472904389657245,-4.615270956103428,8.591477570655442,0.4177777777777778,0.4622222222222222,-0.6444444444444445,-0.0005158586654158225,-0.001031717330831645,0.0005749721170806335
1589996417.9274752,-0.12546770710639968,-4.6090645857872,8.568273949744798,0.4177777777777778,0.4622222222222222,-0.6444444444444445,0.0005964343221335403,-0.0005964343221335403,0.001090830782496456
1589996417.9374752,-0.12097522059247583,-4.613537169111286,8.618049558815049,0.4177777777777778,0.4622222222222222,-0.6444444444444445,0.0005986054233480812,-0.0020752815007932055,0.0005986054233480812
1589996417.9474752,-0.11371046363485293,-4.618868609095441,8.643710463634854,0.4177777777777778,0.4622222222222222,-0.6419708020212092,0.0008094975900462538,-0.0016534971673968606,0.0
1589996417.9574752,-0.12449802390028297,-4.582007904398868,8.654498023900283,0.4177777777777778,0.4622222222222222,-0.6377777777777778,0.0012003449788262257,0.00010951419632976972,-0.0009813165861666862
1589996417.9674752,-0.1221300826905408,-4.567869917309459,8.612780496143245,0.4177777777777778,0.4622222222222222,-0.6377777777777778,-0.0008584748056859781,-0.0006615933796534669,-0.00304013637067889
1589996417.9774752,-0.10179446831689161,-4.584102765841554,8.548205531683108,0.4177777777777778,0.4622222222222222,-0.6377777777777778,-0.003076746219661371,-0.002237711636671148,-0.0025731538206489055
1589996417.9874752,-0.09815744541722672,-4.60223616812584,8.580393613543066,0.4177777777777778,0.4622222222222222,-0.6377777777777778,-0.0030285642448389903,-0.004119395027335446,0.0013347588851468333
1589996417.9974751,-0.11620225017423916,-4.6137977498257605,8.622404500348479,0.42156804177314616,0.4642896389469686,-0.6398451945025242,-0.0017673913235768638,-0.0025199418355331157,0.0029342120769491643
1589996418.0074751,-0.13,-4.5963586292363035,8.646358629236303,0.43,0.4688888888888889,-0.6444444444444445,-0.0028752804155370965,-0.002478068483584825,0.0005928138371838259
1589996418.0174751,-0.13,-4.593980099502487,8.616119402985076,0.43,0.4688888888888889,-0.6444444444444445,-0.002615823070464138,-0.001090830782496456,-0.002181661564992912
1589996418.027475,-0.1253610307875489,-4.614638969212451,8.529277938424901,0.43,0.4688888888888889,-0.6444444444444445,-0.0013271248803888246,-7.876469929745636e-05,-0.0006635624401944123
1589996418.037475,-0.12333765611906947,-4.613324687761861,8.570038905071625,0.43,0.4688888888888889,-0.6444444444444445,0.000725334350565458,0.0007267489788895925,0.000362667175282729
1589996418.047475,-0.12824952911309476,-4.598249529113095,8.63,0.42863852264351815,0.4653879471150784,-0.6469729023921965,-0.002372608317722924,-0.00019094675273001184,-0.0008998840297664442
1589996418.057475,-0.11942471392687691,-4.591150572146246,8.632301144292493,0.4222222222222222,0.4488888888888889,-0.6588888888888889,-0.0030842304202981187,-0.0012163387339572888,0.0
1589996418.067475,-0.11335505910909335,-4.606644940890907,8.626384231581786,0.4222222222222222,0.4488888888888889,-0.6588888888888889,0.0,-0.0029065121721599508,-0.0007319603506588347
1589996418.077475,-0.11641225578294394,-4.6,8.550763232651168,0.4222222222222222,0.4488888888888889,-0.6588888888888889,-0.001565448732675359,-0.0013989371986552323,-0.0017902993818240721
1589996418.087475,-0.11,-4.5963487999410555,8.591907200353663,0.4222222222222222,0.4488888888888889,-0.6588888888888889,-0.0031684707047811922,0.00039828414173487725,-0.00029426249902670147
1589996418.097475,-0.11,-4.59461410276192,8.62769294861904,0.4240165955185242,0.4501705841005332,-0.6573508546349157,-0.001090830782496456,0.001090830782496456,0.001342491048811639
