time,acc_x,acc_y,acc_z,mag_x,mag_y,mag_z,gyr_x,gyr_y,gyr_z
1589996547.1436665,-3.91,-0.74,8.85,0.2911111111111111,-0.3555555555555556,-0.6022222222222222,-0.004363323129985824,-0.001090830782496456,-0.00545415391248228
1589996547.1536665,-3.9470673551785684,-0.7470673551785684,8.905865289642863,0.2911111111111111,-0.3555555555555556,-0.6022222222222222,-0.0037235192809165272,0.001090830782496456,-0.00603630585480195
1589996547.1636665,-3.94,-0.7404117040566004,8.920411704056601,0.29220898859537886,-0.35610449429768953,-0.6019477528511553,-0.002181661564992912,0.001090830782496456,-0.002226571510814752
1589996547.1736665,-3.94,-0.7578132011479259,8.906560396556221,0.31777777777777777,-0.3688888888888889,-0.5955555555555555,0.0008013465477050672,0.001090830782496456,-0.003272492347489368
1589996547.1836665,-3.94,-0.7404000382202122,8.834480045864254,0.31777777777777777,-0.3688888888888889,-0.5955555555555555,0.0035168409442756076,-0.0008464821857102163,-0.003272492347489368
1589996547.1936665,-3.9500879531839743,-0.7452198829599362,8.825131929775962,0.31777777777777777,-0.3688888888888889,-0.5955555555555555,0.0010812365784466586,1.918840809959476e-05,-0.003272492347489368
1589996547.2036664,-3.9469094483351763,-0.7569094483351764,8.869453741245852,0.31777777777777777,-0.3688888888888889,-0.5955555555555555,-0.0003569894178962477,0.0007537038934079211,-0.002201524093800625
1589996547.2136664,-3.9265946802490097,-0.7431893604980192,8.946486700622524,0.313747695403383,-0.3648588065144941,-0.5977537823052254,-0.0021698828149476195,-0.0025413455758099665,-0.0007193680216341089
1589996547.2236664,-3.934902673885192,-0.7598053477703848,8.969805347770386,0.3055555555555556,-0.3566666666666667,-0.6022222222222222,-0.0060314192003223886,-0.001604396277152803,-0.002181661564992912
1589996547.2336664,-3.9354193315917487,-0.7554193315917485,8.900387352490768,0.3055555555555556,-0.3566666666666667,-0.6022222222222222,-0.008226972849558669,0.0005911573720834771,-0.001590504192909435
1589996547.2436664,-3.94,-0.7658049551924091,8.867414865577228,0.3055555555555556,-0.3566666666666667,-0.6022222222222222,-0.009359868641460893,-0.0008088363619712783,0.0008088363619712783
1589996547.2536664,-3.94,-0.7799222909295328,8.904805727323833,0.3055555555555556,-0.3566666666666667,-0.6022222222222222,-0.007111591947763179,-0.001640484546051927,0.001640484546051927
1589996547.2636664,-3.9316597570732417,-0.7816597570732418,8.934170121463378,0.3023121277507051,-0.35388658569108056,-0.5961987134417857,-0.002543764386384564,0.0007287279611048038,0.001090830782496456
1589996547.2736664,-3.932828992969601,-0.7764144964848005,8.875855035151995,0.2977777777777777,-0.35,-0.5877777777777777,0.0,0.003272492347489368,0.001090830782496456
1589996547.2836664,-3.94,-0.75765380859375,8.828826904296875,0.2977777777777777,-0.35,-0.5877777777777777,0.004265784855061672,0.0020536966746146045,-0.0007373627268156891
1589996547.2936664,-3.9285615838675967,-0.74,8.860034456463412,0.2977777777777777,-0.35,-0.5877777777777777,0.005140340193429299,0.00046696196148498267,-0.0015577927439814386
1589996547.3036664,-3.931269616436435,-0.736243461187855,8.91253923287287,0.2977777777777777,-0.35,-0.5877777777777777,0.004092041981875458,-0.001229324451579135,-0.00027128114811036616
1589996547.3136663,-3.94891620503471,-0.73036126498843,8.94783241006942,0.2977777777777777,-0.35,-0.5877777777777777,0.005375338118478749,-0.0031542686564840724,0.0010120149884929252
1589996547.3236663,-3.925599869335392,-0.7555998693353922,8.937999346676962,0.31777777777777777,-0.3688888888888889,-0.6022222222222222,0.004363323129985824,-0.005105045302190532,0.0007417221722047084
1589996547.3336663,-3.9247480564353587,-0.7547480564353585,8.853023322775698,0.31777777777777777,-0.3688888888888889,-0.6022222222222222,0.0033274579066419393,-0.0037904249591613104,-5.496555915257117e-05
1589996547.3436663,-3.934698857290145,-0.76,8.794698857290145,0.31777777777777777,-0.3688888888888889,-0.6022222222222222,-0.00038116752233122164,-0.003850757312520997,0.0005782649650316293
1589996547.3536663,-3.94,-0.7686558067375887,8.843279033687944,0.31777777777777777,-0.3688888888888889,-0.6022222222222222,3.221480535630598e-05,-0.003272492347489368,-0.0004721010218350963
1589996547.3636663,-3.9424367596650325,-0.7726897210049031,8.907310278995098,0.31127975200435826,-0.3659106270760716,-0.6005977157788673,0.004097513884769523,-0.0043357293283545735,-0.0008250215372801546
1589996547.3736663,-3.9418176565749943,-0.7445451043833294,8.938182343425005,0.2911111111111111,-0.3566666666666667,-0.5955555555555555,0.003272492347489368,-0.006148223463982895,0.00029751840269845946
1589996547.3836663,-3.929206570989441,-0.7392065709894409,8.909363859558075,0.2911111111111111,-0.3566666666666667,-0.5955555555555555,0.0017660706920112187,-0.0016795210131668621,0.0005886902306704062
1589996547.3936663,-3.9181090289608176,-0.75,8.871890971039182,0.2911111111111111,-0.3566666666666667,-0.5955555555555555,-0.0009551738027311385,-0.002046004585227595,-0.0009551738027311385
1589996547.4036663,-3.8941953526024324,-0.7583907052048645,8.925172115614593,0.2911111111111111,-0.3566666666666667,-0.5955555555555555,-0.003554587493640826,-0.0018995664188414542,-0.005385155398504711
1589996547.4136662,-3.9034755710129416,-0.77,8.96,0.29613138035202713,-0.35241874653973776,-0.595941730112549,-0.00545415391248228,0.00037912598476693533,-0.013608736890137457
1589996547.4236662,-3.9045363988406927,-0.7809272023186147,8.916291190725541,0.3055555555555556,-0.34444444444444444,-0.5966666666666667,-0.0018782353157688193,0.001090830782496456,-0.03204952709035862
1589996547.4336662,-3.918040232108317,-0.7945100580270793,8.848429593810446,0.3055555555555556,-0.34444444444444444,-0.5966666666666667,0.0025667438205314577,0.0005988597698181221,-0.048831134925040334
1589996547.4436662,-3.9356912713291603,-0.7913825426583204,8.831543643354198,0.3055555555555556,-0.34444444444444444,-0.5966666666666667,0.005773351290258959,0.0,-0.061104097179616144
1589996547.4536662,-3.9365322098396307,-0.7767338950801849,8.876330524599075,0.3055555555555556,-0.34444444444444444,-0.5966666666666667,0.007279538698935441,-0.00035627677853975034,-0.062243355942929596
1589996547.4636662,-3.9479328621908127,-0.7710335689045936,8.904832155477031,0.3055555555555556,-0.34444444444444444,-0.5966666666666667,0.006657729572674924,-0.0009780859048002675,-0.056647073806584944
1589996547.4736662,-3.9371651777641143,-0.7328348222358856,8.92,0.31222222222222223,-0.3622222222222222,-0.5733333333333334,0.00578042866278955,-0.0031263985868620623,-0.04426873718594645
1589996547.4836662,-3.93445607747599,-0.7444560774759901,8.888807457668069,0.31222222222222223,-0.3622222222222222,-0.5733333333333334,0.001090830782496456,0.0024304132399995534,-0.03793032571236932
1589996547.4936662,-3.932228485126352,-0.7577715148736481,8.861657272310472,0.31222222222222223,-0.3622222222222222,-0.5733333333333334,-0.0001807803651242138,0.0037586723823213866,-0.031515621979564805
1589996547.5036662,-3.9163170065167123,-0.7773659869665756,8.891048980449863,0.31222222222222223,-0.3622222222222222,-0.5733333333333334,-0.001378157032332079,0.001090830782496456,-0.02658169104624536
1589996547.5136662,-3.913872429417916,-0.7938724294179157,8.917744858835832,0.31093141241625033,-0.3598557375779404,-0.5776360326865729,-0.0002112082606053612,0.001302039043101817,-0.0272707695624114
1589996547.5236661,-3.93,-0.8061403783635581,8.946140378363557,0.3055555555555556,-0.35,-0.5955555555555555,-0.0006698113735144311,0.002181661564992912,-0.02748127926690241
1589996547.5336661,-3.93,-0.7825978215623699,8.889288018593035,0.3055555555555556,-0.35,-0.5955555555555555,0.001090830782496456,0.003392840179587674,-0.02674669552544817
1589996547.5436661,-3.9279859669220305,-0.774028066155939,8.832084198467818,0.3055555555555556,-0.35,-0.5955555555555555,0.0008711338546549345,0.005014760056799236,-0.02377858028708051
1589996547.553666,-3.9274630836769986,-0.7862684581615006,8.88,0.3055555555555556,-0.35,-0.5955555555555555,0.0004070480703608566,0.0036795404178502247,-0.024535638713869
1589996547.563666,-3.94,-0.7712261286847517,8.888773871315248,0.3055555555555556,-0.3519497491811663,-0.5955555555555555,0.0014098577462409716,0.0046823500937303395,-0.025356607779944303
1589996547.573666,-3.94,-0.7573181210961476,8.902681878903852,0.3055555555555556,-0.3566666666666667,-0.5955555555555555,0.0013833783888214614,0.004256729148225104,-0.018730076927004034
1589996547.583666,-3.94,-0.77,8.866176573358699,0.3055555555555556,-0.3566666666666667,-0.5955555555555555,-0.0011549923166612318,0.00102666924833168,-0.014982882875785076
1589996547.593666,-3.94,-0.77,8.821094426996172,0.3055555555555556,-0.3566666666666667,-0.5955555555555555,-0.004938584387649529,-0.001606400307329207,-0.010153971368807992
1589996547.603666,-3.937141018594238,-0.7728589814057619,8.865730832651858,0.3055555555555556,-0.3566666666666667,-0.5955555555555555,-0.0060778868972803015,-0.0020264302596934886,-0.00467378574058467
1589996547.613666,-3.931518104916011,-0.7784818950839891,8.916337055755902,0.3055555555555556,-0.3566666666666667,-0.5955555555555555,-0.007304616362786418,-0.0038665244579526624,-0.0009935973440663229
1589996547.623666,-3.9325395124564695,-0.797618537369408,8.964920975087061,0.31777777777777777,-0.3622222222222222,-0.5877777777777777,-0.003826528019499355,0.0005540356720099868,-0.0005367951104864692
1589996547.633666,-3.9261440651811617,-0.8153813550603872,8.908432195543485,0.31777777777777777,-0.3622222222222222,-0.5877777777777777,-0.003438889883061837,0.002181661564992912,-0.001428249254279097
1589996547.643666,-3.9207694406548432,-0.8064101864483857,8.870769440654843,0.31777777777777777,-0.3622222222222222,-0.5877777777777777,-0.00030765495739167893,0.0017900736524405234,-0.0039717352174334355
1589996547.653666,-3.92851259345892,-0.79712814836473,8.90723110981162,0.31777777777777777,-0.3622222222222222,-0.5877777777777777,0.002030642032451059,0.0014041011991479902,-0.0026459515141862996
1589996547.663666,-3.903035023990365,-0.7915175119951825,8.946964976009633,0.31693471555823194,-0.36036748533922136,-0.5867661031143228,0.0045288580097010925,0.0020161266852776433,-0.002084040060788068
1589996547.673666,-3.9193302123195863,-0.7996651061597934,8.930669787680413,0.31240827435567037,-0.35040931469358594,-0.581334373671249,0.005417622661505689,0.0011273620334730462,-0.00741662797161565
1589996547.683666,-3.93,-0.7825035986565017,8.857467612091487,0.31222222222222223,-0.35,-0.5811111111111111,0.004090222881832955,-0.0002731002481528686,-0.014182370382568945
1589996547.693666,-3.93,-0.7899573492562777,8.7903838566935,0.31222222222222223,-0.35,-0.5811111111111111,0.0032771448219042383,-0.001086178308081586,-0.017434682622283815
1589996547.703666,-3.93,-0.784327236826693,8.850818092066733,0.31222222222222223,-0.35,-0.5811111111111111,0.000382788312440106,-0.001090830782496456,-0.02228864396330002
1589996547.713666,-3.93,-0.7983641505329563,8.885910376332392,0.31222222222222223,-0.35,-0.5811111111111111,-0.0019139963218656544,-0.001090830782496456,-0.023819833719503858
1589996547.723666,-3.9178014358124025,-0.7852009572082682,8.93300239302067,0.31777777777777777,-0.3566666666666667,-0.6022222222222222,-0.0019418354156803186,-0.001090830782496456,-0.023758451065609438
1589996547.733666,-3.9389733051661224,-0.8,8.95767966199347,0.31777777777777777,-0.3566666666666667,-0.6022222222222222,-0.004027338031278734,-0.0008668407166917295,-0.026963904010231483
1589996547.743666,-3.93,-0.8,8.881969511880387,0.31777777777777777,-0.3566666666666667,-0.6022222222222222,0.0006528356005291844,-0.0003041023239240561,-0.03451322081060039
1589996547.753666,-3.930508582192216,-0.8010171643844315,8.950508582192215,0.31777777777777777,-0.3566666666666667,-0.6022222222222222,0.004418800841055667,-0.003161536925349683,-0.035941938111313194
1589996547.763666,-3.939385595462338,-0.8187711909246757,8.959385595462338,0.31777777777777777,-0.3566666666666667,-0.6022222222222222,0.00538713277422354,-0.0012248730590139361,-0.03497360617814533
1589996547.773666,-3.93,-0.8079749960184743,8.967974996018475,0.31777777777777777,-0.3566666666666667,-0.5811111111111111,0.007194028141929964,0.00042814977917861373,-0.030543261909900768
1589996547.783666,-3.924940546281545,-0.8,8.873989286786268,0.31777777777777777,-0.3566666666666667,-0.5811111111111111,0.0037984515548702526,-0.002181661564992912,-0.029439460338159414
1589996547.793666,-3.9246186183485827,-0.7953813816514175,8.813093091742912,0.31777777777777777,-0.3566666666666667,-0.5811111111111111,0.0016778484582692268,-0.004196913991887652,-0.02634634791801311
1589996547.8036659,-3.93,-0.79,8.846669383068175,0.31777777777777777,-0.3566666666666667,-0.5811111111111111,-4.444701575190887e-07,-0.005089951024773436,-0.024362035632473356
1589996547.8136659,-3.927758159846403,-0.7944836803071943,8.873451040921582,0.3150377509233813,-0.3551721065642686,-0.5845984180167066,-0.001448021090298819,-0.00169256791519685,-0.025822748472112578
1589996547.8236659,-3.92,-0.814218487394958,8.911563025210084,0.3055555555555556,-0.35,-0.5966666666666667,0.0015509963730958012,-0.00046016559059934526,-0.031582759479103266
1589996547.8336658,-3.9269320600272852,-0.8234660300136425,8.882669849931787,0.3055555555555556,-0.35,-0.5966666666666667,0.001425491118605328,-0.000712745559302664,-0.03750975671515821
1589996547.8436658,-3.94,-0.8225551763367464,8.872334470989761,0.3055555555555556,-0.35,-0.5966666666666667,0.0,0.0004060521411067581,-0.039548634670155354
1589996547.8536658,-3.94,-0.8058228851419513,8.926708459432195,0.3055555555555556,-0.35,-0.5966666666666667,0.0006834788203774271,0.0006351782355781713,-0.036584293473161965
1589996547.8636658,-3.94,-0.7907115578613634,8.987153768554547,0.3055555555555556,-0.35,-0.5966666666666667,0.0031560639646840017,-0.0010132118606262115,-0.030814928136446623
1589996547.8736658,-3.94,-0.7882542957771532,8.981745704222847,0.31777777777777777,-0.35,-0.6044444444444445,0.005644580702823811,-0.0024817962290445534,-0.022688030685005352
1589996547.8836658,-3.9386407656374613,-0.8090938437583077,8.95184459382477,0.31777777777777777,-0.35,-0.6044444444444445,0.003173646035270442,-0.003272492347489368,-0.01621419226911845
1589996547.8936658,-3.907054906153064,-0.7929450938469358,8.791780375387743,0.31777777777777777,-0.35,-0.6044444444444445,0.0007695708799386154,-0.0019874527372580057,-0.01341122929251531
1589996547.9036658,-3.900933849986161,-0.8009338499861611,8.821400774979242,0.31777777777777777,-0.35,-0.6044444444444445,-0.0001018672311138401,0.0012436316291672162,-0.014282667403567765
1589996547.9136658,-3.921639917785455,-0.82,8.85655967114182,0.3168667123414139,-0.35,-0.5982491994771699,-0.002181661564992912,0.004721097690213376,-0.017256898138015717
1589996547.9236658,-3.9313496106542467,-0.82,8.895398442616987,0.31222222222222223,-0.35,-0.5666666666666667,-0.002476100934200346,0.006544984694978735,-0.0216693959653254
1589996547.9336658,-3.9359925894885426,-0.8079777684656271,8.905955536931254,0.31222222222222223,-0.35,-0.5666666666666667,-0.002177619757986904,0.006544984694978735,-0.01941436284423331
1589996547.9436657,-3.926192194669279,-0.7938078053307213,8.885231221322885,0.31222222222222223,-0.35,-0.5666666666666667,0.0002600965287954894,0.003637414807025353,-0.015376456885690878
1589996547.9536657,-3.923335566847209,-0.8033355668472091,8.926677834236045,0.31222222222222223,-0.35,-0.5666666666666667,-0.001090830782496456,0.001092292613909707,-0.011635284708059988
1589996547.9636657,-3.93,-0.811928540003771,8.95807145999623,0.31222222222222223,-0.3523571044490534,-0.5735236977911857,-0.001301201862635377,0.005874896072760122,-0.010487565664686716
1589996547.9736657,-3.93,-0.8161998036557431,8.942399607311486,0.31222222222222223,-0.3622222222222222,-0.6022222222222222,-0.003010735795362104,0.006806741247106,-0.008726646259971648
1589996547.9836657,-3.926125489998995,-0.8138745100010052,8.89125489998995,0.31222222222222223,-0.3622222222222222,-0.6022222222222222,-0.002672749219511117,0.0041862234796262495,-0.008304002782352972
1589996547.9936657,-3.93055501031506,-0.8270366735433733,8.847591683858434,0.31222222222222223,-0.3622222222222222,-0.6022222222222222,0.0007675820107490033,0.002181661564992912,-0.0099385615097222
1589996548.0036657,-3.9472021315424484,-0.84,8.885595736915104,0.31222222222222223,-0.3622222222222222,-0.6022222222222222,0.002334261616936573,0.002029061513049251,-0.014333400224397585
1589996548.0136657,-3.9349551062121324,-0.84,8.910089787575735,0.31222222222222223,-0.3622222222222222,-0.6022222222222222,0.0030022332281527033,0.0013610899018331208,-0.015001371835613718
1589996548.0236657,-3.939938315822986,-0.8300616841770136,8.949814947468958,0.31222222222222223,-0.3500753917719056,-0.5955966783402313,0.0021883902649008614,0.002174932865084963,-0.01635573303753889
1589996548.0336657,-3.93146835443038,-0.8044050632911393,8.898810126582278,0.31222222222222223,-0.35,-0.5955555555555555,0.0012510034037237837,0.0003203452424546554,-0.02008509438252335
1589996548.0436656,-3.9316450548470527,-0.8116450548470525,8.849870329082314,0.31222222222222223,-0.35,-0.5955555555555555,0.003824980190167855,0.001090830782496456,-0.02036688957422068
1589996548.0536656,-3.939126192811915,-0.8191261928119147,8.894757156871488,0.31222222222222223,-0.35,-0.5955555555555555,0.0013767835161154767,0.001090830782496456,-0.018734758458185764
1589996548.0636656,-3.92091564222128,-0.8109156422212802,8.927253073336159,0.3133413404926758,-0.34949130987706656,-0.5948433893834487,0.0,0.002081780492920324,-0.018644004374512337
1589996548.0736656,-3.929805637982196,-0.8198056379821957,8.900583086053413,0.32420689086712823,-0.3445524233432245,-0.5879289482360699,0.0,0.0011120323896933455,-0.019613752477739322
1589996548.0836656,-3.937545680179648,-0.8224543198203522,8.867362959461056,0.3244444444444444,-0.34444444444444444,-0.5877777777777777,-0.002181661564992912,0.0006792777717547958,-0.01963495408493621
1589996548.0936656,-3.946751020578189,-0.8197469382654337,8.846244897109056,0.3244444444444444,-0.34444444444444444,-0.5877777777777777,-0.002181661564992912,-0.000708817353001842,-0.018217319378932527
1589996548.1036656,-3.9364299762123283,-0.84,8.88892505946918,0.3244444444444444,-0.34444444444444444,-0.5877777777777777,-0.0017922323808092326,-0.002181661564992912,-0.015661060139134063
1589996548.1136656,-3.920717750847553,-0.84,8.928205622881118,0.3244444444444444,-0.34444444444444444,-0.5877777777777777,-7.829447186735857e-05,-0.002181661564992912,-0.017374998048075935
1589996548.1236656,-3.92,-0.8320614526320238,8.937938547367976,0.31222222222222223,-0.3566666666666667,-0.6022222222222222,0.006994723892512724,-0.0017319223674589239,-0.013314838988724464
1589996548.1336656,-3.918667052410391,-0.8373341048207814,8.918003471693517,0.31222222222222223,-0.3566666666666667,-0.6022222222222222,0.008726646259971648,0.0001454020262200258,-0.014617006251114003
1589996548.1436656,-3.918227361484013,-0.8172575461719958,8.848227361484012,0.31222222222222223,-0.3566666666666667,-0.6022222222222222,0.008128335648939196,0.001988296699045133,-0.018350758436491973
1589996548.1536655,-3.9386154288367567,-0.8086154288367569,8.87415371348973,0.31222222222222223,-0.3566666666666667,-0.6022222222222222,0.006696017979520996,0.004061256560901303,-0.021329918005601703
1589996548.1636655,-3.9307356537634943,-0.8,8.9,0.31263091875749666,-0.35576753428906294,-0.6017317863798929,0.007475320723379471,0.00194091943384933,-0.025169355374466344
1589996548.1736655,-3.93869802357633,-0.8026039528473403,8.89739604715266,0.31777777777777777,-0.34444444444444444,-0.5955555555555555,0.005170106720277467,-0.0009488071863940496,-0.025611844395505314
1589996548.1836655,-3.9239651105651108,-0.8169825552825553,8.852842997542998,0.31777777777777777,-0.34444444444444444,-0.5955555555555555,0.0019558837145813605,0.0009874564746810057,-0.021158311333475115
1589996548.1936655,-3.9164716391246093,-0.81,8.800786065207681,0.31777777777777777,-0.34444444444444444,-0.5955555555555555,-0.0015614616605185982,0.003978438664522581,-0.018693692328891925
1589996548.2036655,-3.936542621068079,-0.81,8.83423770178013,0.31777777777777777,-0.34444444444444444,-0.5955555555555555,-0.0030210646564430817,0.006167843158409306,-0.015774486337042957
1589996548.2136655,-3.930481524698561,-0.8304815246985608,8.93048152469856,0.31777777777777777,-0.3453004883529971,-0.594913522624141,-0.005611732501599037,0.0034300709366061255,-0.01189408621471651
1589996548.2236655,-3.938638467522365,-0.8386384675223648,8.938638467522365,0.31777777777777777,-0.3598017200397597,-0.584037598859069,-0.008281085798579717,0.006099424233586805,-0.010114517350062725
1589996548.2336655,-3.94,-0.8365946577929669,8.942973288964836,0.31777777777777777,-0.3622222222222222,-0.5822222222222222,-0.006521419846165385,0.0068928850566019875,-0.00561632166888723
1589996548.2436655,-3.94,-0.8215058908175195,8.867529454087597,0.31777777777777777,-0.3622222222222222,-0.5822222222222222,-0.0015836324001451832,0.0036010267592551867,-0.0015014987972037288
1589996548.2536654,-3.937567577561661,-0.8224324224383389,8.89243242243834,0.31777777777777777,-0.3622222222222222,-0.5822222222222222,0.0002948224009638944,0.0013856531834603504,-0.0002653361271775205
1589996548.2636654,-3.9296691164461865,-0.830661767107627,8.901654417769068,0.3175939535812147,-0.36200163318634654,-0.5821854573829096,-0.002037286378624281,-0.0009825493927199827,-0.0010186431893121405
1589996548.2736654,-3.9242110830546646,-0.85,8.945788916945334,0.31222222222222223,-0.3555555555555556,-0.5811111111111111,0.0017223036626251797,0.002641019467360644,0.0006314728801287236
1589996548.2836654,-3.938523169316863,-0.85,8.931476830683136,0.31222222222222223,-0.3555555555555556,-0.5811111111111111,0.00016109723697006273,0.004202225893015761,-0.0009297335455263932
1589996548.2936654,-3.932056274828644,-0.8061688244859313,8.842337648971863,0.31222222222222223,-0.3555555555555556,-0.5811111111111111,-0.00044860957607144867,0.00545415391248228,0.0013151355705321804
1589996548.3036654,-3.9392566128173265,-0.8307433871826735,8.893716935913368,0.31222222222222223,-0.3555555555555556,-0.5811111111111111,-0.002181661564992912,0.005048699101395478,0.0019383886783408309
1589996548.3136654,-3.9300461507456674,-0.8399076985086659,8.940092301491333,0.3122478615253706,-0.35552991625240726,-0.5810444489229254,-0.002171593034191151,0.0,-0.0010958650478973364
1589996548.3236654,-3.9384989923417977,-0.8230020153164046,8.956997984683596,0.31694388463433204,-0.3508338931434457,-0.5688347888396256,-0.00032746907166600575,0.0,-0.002017927029159909
1589996548.3336654,-3.94,-0.8362731950298319,8.926335048442716,0.31777777777777777,-0.35,-0.5666666666666667,0.0,0.002317172017720248,-0.001090830782496456
1589996548.3436654,-3.94,-0.8148582362999756,8.831619412099991,0.31777777777777777,-0.35,-0.5666666666666667,-0.00017665045682183468,0.002742540977023864,-0.0012674812393182907
1589996548.3536654,-3.94,-0.8353498900740982,8.838449963358032,0.31777777777777777,-0.35,-0.5666666666666667,-0.0009217480141909228,0.0005072483049165999,-0.0020125787966873785
1589996548.3636653,-3.922674325407427,-0.8313371627037136,8.900639861074005,0.31777777777777777,-0.35,-0.5666666666666667,-0.002980768699805972,0.0,-0.0002917236476833963
1589996548.3736653,-3.92,-0.83,8.924126510631789,0.3138537470467255,-0.35,-0.5964893002226642,-0.002502010715168462,0.0,-0.0007704816323209058
1589996548.3836653,-3.92,-0.8390185901350159,8.957055770405049,0.31222222222222223,-0.35,-0.6088888888888889,-0.004149212711791764,0.0009837755733994261,0.0008767203643023963
1589996548.3936653,-3.928041210725027,-0.8258763678249184,8.845876367824918,0.31222222222222223,-0.35,-0.6088888888888889,0.003486163111245793,-0.0028226738562621865,-0.0019455138375221556
1589996548.4036653,-3.917888304840234,-0.8485922032268227,8.871407796773177,0.31222222222222223,-0.35,-0.6088888888888889,0.0042097563244177325,-0.005300587106914188,-0.006145204537538693
1589996548.4136653,-3.897023562770491,-0.8346823751803273,8.885317624819672,0.31222222222222223,-0.35,-0.6088888888888889,0.002692429463182756,-0.0037832602456792123,-0.012973175413096085
1589996548.4236653,-3.900957163787785,-0.85,8.919617134484886,0.3322222222222222,-0.3566666666666667,-0.6177777777777778,-0.0011534770059128839,0.0022443077884093396,-0.025256164593195626
1589996548.4336653,-3.9413864898210984,-0.85,8.903445404071562,0.3322222222222222,-0.3566666666666667,-0.6177777777777778,-0.0037995702070762584,0.004890400989572714,-0.03231241312963129
1589996548.4436653,-3.938658938537024,-0.8473178770740477,8.844023184388929,0.3322222222222222,-0.3566666666666667,-0.6177777777777778,-0.00174280022748268,0.002035374452489501,-0.03293803158236967
1589996548.4536653,-3.930804149968164,-0.8316082999363271,8.867587550095509,0.3322222222222222,-0.3566666666666667,-0.6177777777777778,0.0008276733207915354,0.001178549936398096,-0.02779708448582124
1589996548.4636652,-3.9389224097070814,-0.8389224097070812,8.905689638828324,0.3322222222222222,-0.3566666666666667,-0.6177777777777778,0.003037398615002337,-0.003775588798768246,-0.024350917813652576
1589996548.4736652,-3.94,-0.84,8.902307249238872,0.32111047112281377,-0.3566666666666667,-0.5946995254943909,0.003272492347489368,-0.0001675784638295796,-0.02148083041522828
1589996548.4836652,-3.9209055090410185,-0.8218110180820375,8.940039400548793,0.31777777777777777,-0.3566666666666667,-0.5877777777777777,0.0013871579232280972,0.001090830782496456,-0.019437402657781783
1589996548.4936652,-3.9283330260974907,-0.8374995391462354,8.849168356463803,0.31777777777777777,-0.3566666666666667,-0.5877777777777777,0.003908726518366873,0.0009089921378488757,-0.017271453875295717
1589996548.5036652,-3.908632198451039,-0.8141034046468829,8.948632198451039,0.31777777777777777,-0.3566666666666667,-0.5877777777777777,-0.0006432187723105683,-0.0009416267791011601,-0.014227202931183312
1589996548.5136652,-3.900591595736523,-0.8382252127904302,8.940591595736523,0.31777777777777777,-0.3566666666666667,-0.5877777777777777,0.001988062312934937,-6.453308401932478e-05,-0.008087547065610465
1589996548.5236652,-3.915339344515901,-0.84,8.91266967225795,0.31222222222222223,-0.3566666666666667,-0.6088888888888889,-0.0004368241017223758,0.003709316449211744,-0.006399376661071277
1589996548.5336652,-3.947075388441687,-0.8392688471104217,8.919763859545904,0.31222222222222223,-0.3566666666666667,-0.6088888888888889,-0.003192735939623048,0.006146202655647135,-0.00529464109674964
1589996548.5436652,-3.911443948855189,-0.83,8.798663693131132,0.31222222222222223,-0.3566666666666667,-0.6088888888888889,-0.0018666407930748156,0.0014058515544145523,-0.0026424508036531754
1589996548.5536652,-3.9197585489146594,-0.83,8.848551293487956,0.31222222222222223,-0.3566666666666667,-0.6088888888888889,-5.26764552713126e-05,0.0032198158922180555,0.0009854778719538305
1589996548.5636652,-3.92,-0.83,8.876257817705088,0.31222222222222223,-0.3566666666666667,-0.6088888888888889,-0.004773805972314919,0.009001059514267272,0.00013606958803347234
1589996548.5736651,-3.9290352175199765,-0.8509647824800236,8.909035217519977,0.3244444444444444,-0.3566666666666667,-0.5733333333333334,-0.009817477042468105,0.0074253325919505725,0.0019711786794682925
1589996548.5836651,-3.9221391930551444,-0.8578608069448554,8.902139193055145,0.3244444444444444,-0.3566666666666667,-0.5733333333333334,-0.009817477042468105,0.005920853439333136,0.000466699526850856
1589996548.5936651,-3.9298936497623362,-0.8501063502376637,8.830744451663646,0.3244444444444444,-0.3566666666666667,-0.5733333333333334,-0.009817477042468105,0.007612613454881314,0.0
1589996548.603665,-3.938027921865057,-0.85,8.878167531190343,0.3244444444444444,-0.3566666666666667,-0.5733333333333334,-0.006314635326515813,0.004132973761522902,0.0
1589996548.613665,-3.94,-0.8332558139534884,8.940232558139535,0.3244444444444444,-0.3566666666666667,-0.5733333333333334,-0.008193914947589658,0.00509899970422762,0.0
1589996548.623665,-3.94,-0.8379306599277337,8.942069340072266,0.31915733782595523,-0.361072588848741,-0.5847887310067266,-0.007861545462503332,0.008049456304887228,0.0
1589996548.633665,-3.93,-0.849228933489249,8.948434002338736,0.31777777777777777,-0.3622222222222222,-0.5877777777777777,-0.00990158735099604,0.0024339924905767162,0.002936051113377629
1589996548.643665,-3.9307786241371105,-0.8392213758628898,8.814671744822661,0.31777777777777777,-0.3622222222222222,-0.5877777777777777,-0.01090830782496456,0.005539088630157736,-0.001090830782496456
1589996548.653665,-3.939380066946578,-0.8306199330534217,8.87061993305342,0.31777777777777777,-0.3622222222222222,-0.5877777777777777,-0.01090830782496456,0.006342112077650872,-0.0008203339593926388
1589996548.663665,-3.9312646324710254,-0.8387353675289747,8.878735367528975,0.31777777777777777,-0.3622222222222222,-0.5877777777777777,-0.01090830782496456,0.003686342355871051,0.0027206923363137904
1589996548.673665,-3.9405295253967654,-0.8410590507935305,8.910529525396765,0.31777777777777777,-0.34444444444444444,-0.5877777777777777,-0.007635815477475192,0.003214730087198847,0.005627440693353842
1589996548.683665,-3.9484729745085416,-0.8569459490170827,8.918472974508541,0.31777777777777777,-0.34444444444444444,-0.5877777777777777,-0.007635815477475192,0.0023482342061669002,0.008226928336449684
1589996548.693665,-3.92,-0.8610577107739581,8.85528855386979,0.31777777777777777,-0.34444444444444444,-0.5877777777777777,-0.00039856069976944644,0.0009754524353752877,0.013205347737078639
1589996548.703665,-3.92,-0.8676151839555525,8.903974693407413,0.31777777777777777,-0.34444444444444444,-0.5877777777777777,0.005540868270878104,0.0,0.014007371455662276
1589996548.713665,-3.92,-0.8463012399214038,8.939497933464326,0.31777777777777777,-0.34444444444444444,-0.5877777777777777,0.0063158651458399715,0.0,0.012457377705738543
1589996548.723665,-3.958894118421486,-0.84,8.95,0.31237581688590477,-0.3617307192984381,-0.6018228760966476,0.005484312154173259,0.008485380326443814,0.005635103362628156
1589996548.733665,-3.94569633908686,-0.8328481695434298,8.93569633908686,0.31222222222222223,-0.3622222222222222,-0.6022222222222222,0.003893866549837798,0.007946502578649407,0.00623429759380452
1589996548.743665,-3.9499081786835073,-0.839908178683507,8.821010034481423,0.31222222222222223,-0.3622222222222222,-0.6022222222222222,0.003272492347489368,0.005474186216186255,0.0011409115417563955
1589996548.753665,-3.935543596942755,-0.8472282015286227,8.856141007643114,0.31222222222222223,-0.3622222222222222,-0.6022222222222222,0.0048494412933912795,0.00545415391248228,0.0026677797283983676
1589996548.763665,-3.9440103660511827,-0.85,8.877005183025592,0.31222222222222223,-0.3622222222222222,-0.6022222222222222,0.004690006984348627,0.004690006984348627,-0.0005482422931788961
1589996548.773665,-3.9433015590393885,-0.8566984409606114,8.913492204803058,0.31222222222222223,-0.35850086613299365,-0.5977565949151479,0.0029019500110718027,0.0029019500110718027,-0.0007202884460788905
1589996548.783665,-3.94,-0.8414634822697493,8.920731741134874,0.31222222222222223,-0.3566666666666667,-0.5955555555555555,0.00015964115094804126,0.00015964115094804126,0.0010110102070224353
1589996548.793665,-3.94,-0.8325146110912747,8.852631499821472,0.31222222222222223,-0.3566666666666667,-0.5955555555555555,0.002449587792178537,-0.0008165292640595124,-0.0005422277456225688
1589996548.803665,-3.9211770133122448,-0.8111770133122447,8.895880453407145,0.31222222222222223,-0.3566666666666667,-0.5955555555555555,0.0022458576826131396,-0.004170734777125141,-0.0021174654473726843
1589996548.813665,-3.9275836606738177,-0.8327509820214534,8.937918303369088,0.31222222222222223,-0.3566666666666667,-0.5955555555555555,0.002181661564992912,-0.004363323129985824,-0.0013544125142920852
1589996548.823665,-3.93,-0.84,8.930048598514665,0.3321736237075571,-0.36220872263481524,-0.5877966772001475,0.0032698417097003526,-0.008716043708815586,-2.6506377890157026e-06
1589996548.833665,-3.9298611145556905,-0.8599305572778453,8.909305572778454,0.3322222222222222,-0.3622222222222222,-0.5877777777777777,0.0032497672698053566,-0.009817477042468105,2.2725077684011384e-05
1589996548.843665,-3.910708274372533,-0.8503541371862664,8.811416548745067,0.3322222222222222,-0.3622222222222222,-0.5877777777777777,0.0002317822464036932,-0.009817477042468105,0.003117970849886906
1589996548.8536649,-3.9263271765844943,-0.8581635882922469,8.842654353168987,0.3322222222222222,-0.3622222222222222,-0.5877777777777777,0.005343056042886397,-0.009817477042468105,-0.0002895450144348973
1589996548.8636649,-3.93,-0.8383145561063542,8.907827850383056,0.3322222222222222,-0.3622222222222222,-0.5877777777777777,0.004967974712892827,-0.008240467060382195,0.0004861791995894524
1589996548.8736649,-3.936809160656039,-0.823190839343961,8.957236642624157,0.3223867679412771,-0.3501170477225974,-0.6036658193085354,0.002877794720671612,-0.005407522863503874,0.0003480665778393502
1589996548.8836648,-3.9308068427607004,-0.82,8.979193157239301,0.31777777777777777,-0.34444444444444444,-0.6111111111111112,0.005190115236480483,-0.0033605052394899667,-0.0010028178904958572
1589996548.8936648,-3.9459432228885256,-0.8359432228885254,8.852454216891797,0.31777777777777777,-0.34444444444444444,-0.6111111111111112,0.00545415391248228,-0.004142060262439649,-0.0028299666123970187
1589996548.9036648,-3.9208259146341464,-0.8497246951219511,8.878348170731709,0.31777777777777777,-0.34444444444444444,-0.6111111111111112,0.007575753270365783,-0.005424122808927575,0.0009707063682776384
1589996548.9136648,-3.92,-0.85,8.895474237882473,0.31777777777777777,-0.34444444444444444,-0.6111111111111112,0.010167781730156294,-0.00461016516158858,0.0019348195333901564
1589996548.9236648,-3.928160039246682,-0.8418399607533182,8.908160039246681,0.31777777777777777,-0.3589511808829898,-0.6038577428918385,0.010018185625298597,-0.00347320093031986,0.001291539365326948
1589996548.9336648,-3.921353741830868,-0.8140612254926048,8.866768709154341,0.31777777777777777,-0.3622222222222222,-0.6022222222222222,0.009817477042468105,0.000500149478230771,0.00014767032606642118
1589996548.9436648,-3.92,-0.81,8.81073459315101,0.31777777777777777,-0.3622222222222222,-0.6022222222222222,0.004443454812159004,0.0071366057915941946,-0.0006717527787886376
1589996548.9536648,-3.9438544942890252,-0.833854494289025,8.859514980963418,0.31777777777777777,-0.3622222222222222,-0.6022222222222222,-0.007582908107955004,0.011775681714009705,-0.00022345689345131003
1589996548.9636648,-3.924850091780543,-0.8337125229451356,8.89257495410973,0.31777777777777777,-0.3622222222222222,-0.6022222222222222,-0.010503334394036725,0.013370853310598256,0.0
1589996548.9736648,-3.9236664966853647,-0.8368332483426822,8.906833248342682,0.3139815286985098,-0.3622222222222222,-0.5923519746161255,-0.00941752429763641,0.011944624881461701,0.0014907835273281498
1589996548.9836648,-3.93,-0.8539635803393747,8.930945370509061,0.31222222222222223,-0.3622222222222222,-0.5877777777777777,-0.01101143175017949,0.011669902988367174,0.002943256728395526
1589996548.9936647,-3.93,-0.8690754384821021,8.84924561517898,0.31222222222222223,-0.3622222222222222,-0.5877777777777777,-0.009029208309182048,0.01397909213964699,0.00129253881530339
1589996549.0036647,-3.9390668181396644,-0.8427995455810071,8.912534545117314,0.31222222222222223,-0.3622222222222222,-0.5877777777777777,-0.006748573394763036,0.0092356180094324,0.003068903647705067
1589996549.0136647,-3.9541924617284874,-0.8258075382715124,8.94128869259273,0.31222222222222223,-0.3622222222222222,-0.5877777777777777,-0.006544984694978735,0.010274803673255348,0.003272492347489368
1589996549.0236647,-3.995407134483336,-0.802296432758332,8.967703567241669,0.32304106886990824,-0.35730456465509225,-0.5956460298851858,-0.007510564500339106,0.01090830782496456,0.006169231763570477
1589996549.0336647,-4.029303086404099,-0.7706969135959018,8.979767695468032,0.3244444444444444,-0.3566666666666667,-0.5966666666666667,-0.007635815477475192,0.01090830782496456,0.02785479047614127
1589996549.0436647,-4.002130921112218,-0.77,8.84065460556109,0.3244444444444444,-0.3566666666666667,-0.5966666666666667,-0.008649163781829011,0.002801521390134001,0.06484213930164537
1589996549.0536647,-3.9649472709617686,-0.7962895467786736,8.83,0.3244444444444444,-0.3566666666666667,-0.5966666666666667,-0.016373965429053682,-0.004509742707953868,0.11064767884086671
1589996549.0636647,-3.9530112307869216,-0.820966307639235,8.857955076852313,0.3244444444444444,-0.3566666666666667,-0.5966666666666667,-0.018978005437821167,-0.00850357974823802,0.14187665687210566
1589996549.0736647,-3.861734169470786,-0.7738308351177731,8.96628999694096,0.33068546276469185,-0.36112453689541485,-0.608257129261412,-0.01613375099461323,-0.01331868013279108,0.17022232500111872
1589996549.0836647,-3.7829701060752168,-0.6673264223722276,8.961485053037608,0.3322222222222222,-0.3622222222222222,-0.6111111111111112,-0.016049255502646145,-0.010292677433975116,0.18230917067639055
1589996549.0936646,-3.7080927351229582,-0.5896276828734122,8.921162630623865,0.3322222222222222,-0.3622222222222222,-0.6111111111111112,-0.012587658913241909,-0.011872315280142423,0.1967656414970123
1589996549.1036646,-3.703969013532065,-0.7043683075112768,8.916984506766033,0.3322222222222222,-0.3622222222222222,-0.6111111111111112,-0.0014802267798096642,-0.01510716131274931,0.2171188819331737
1589996549.1136646,-3.5646671752813277,-0.6391669845508297,8.962388740542947,0.3322222222222222,-0.3622222222222222,-0.6111111111111112,0.00792667594551449,-0.01328996196857176,0.18424750185576533
1589996549.1236646,-3.3839036447423547,-0.6158734813573523,8.968475911185589,0.3266419028999674,-0.3582362798491831,-0.6007476609412093,0.006046227796773191,-0.0026074831498819756,0.08944026396803618
1589996549.1336646,-3.336418566963769,-0.7114885982173863,8.94641856696377,0.3244444444444444,-0.3566666666666667,-0.5966666666666667,0.013643024005923956,0.006276096611713751,0.009974617788945345
1589996549.1436646,-3.41015907091325,-0.9014115783916945,8.79749498504311,0.3244444444444444,-0.3566666666666667,-0.5966666666666667,0.028259676863383026,0.009698201616065976,-0.059843901908887304
1589996549.1536646,-3.376678490953305,-0.9113356981906611,8.840650112665372,0.3244444444444444,-0.3566666666666667,-0.5966666666666667,0.031342688551897646,0.010762605754714771,-0.07395600536000738
1589996549.1636646,-2.978977748034131,-1.3010222519658692,8.96279488037477,0.3244444444444444,-0.3566666666666667,-0.5966666666666667,0.028353022622509105,0.012548842859908618,-0.06296331123017503
1589996549.1736646,-2.799822988553677,-1.2543804599378687,8.937278735692097,0.3167785121401451,-0.3601511813504391,-0.5966666666666667,0.0341125981448272,0.021984346547098008,-0.045905387948218614
1589996549.1836646,-2.5866196109740165,-0.7832392219480331,8.769014007838583,0.31222222222222223,-0.3622222222222222,-0.5966666666666667,0.07151857292999564,0.04917958091899004,-0.05246743261992724
1589996549.1936646,-2.020382968601332,-0.8397526165556612,8.704269743101808,0.31222222222222223,-0.3622222222222222,-0.5966666666666667,0.05141616881674244,0.04437844205326685,-0.08646728115107492
1589996549.2036645,-1.8658435739018264,-0.9541564260981736,8.916992554371195,0.31222222222222223,-0.3622222222222222,-0.5966666666666667,0.010268231319916284,0.046473657194425866,-0.1434162161614943
1589996549.2136645,-1.8429326913667234,-0.8781249877674044,8.872259605033957,0.31222222222222223,-0.3622222222222222,-0.5966666666666667,0.007447018252618242,0.04921849498932192,-0.22486323792952728
1589996549.2236645,-2.1312699293348127,-0.8793608012614612,8.863616480756876,0.3165956445846068,-0.3622222222222222,-0.6010400890290513,0.018172560460711633,0.03815614337571335,-0.4407378092277922
1589996549.2336645,-2.2007859193874295,-0.9176422418377114,8.694932468361161,0.31777777777777777,-0.3622222222222222,-0.6022222222222222,0.02072578486743266,0.03490658503988659,-0.4908738521234052
1589996549.2436645,-2.3176191325096336,-0.9681169178448501,8.877813995584384,0.31777777777777777,-0.3622222222222222,-0.6022222222222222,0.018976204362632147,0.017993973493481606,-0.5451108477722212
1589996549.2536645,-2.4258676535248425,-0.9953308661878939,8.982521984464313,0.31777777777777777,-0.3622222222222222,-0.6022222222222222,0.02609412558593796,0.020554158479478692,-0.6464063292716162
1589996549.2636645,-2.4702597547132013,-0.96,8.850259754713202,0.31777777777777777,-0.3622222222222222,-0.6022222222222222,0.04690572364734761,0.062177354602297986,-0.7766715171374766
1589996549.2736645,-2.551096321786839,-0.9855481608934195,8.924709281563484,0.3220358045933477,-0.3508674840473691,-0.6022222222222222,0.03575823551186196,0.06566094464463726,-0.8881463984923331
1589996549.2836645,-2.606499068367493,-1.0176660455783288,9.020664182313315,0.3244444444444444,-0.34444444444444444,-0.6022222222222222,0.0333065643917696,0.07437624172741954,-1.0167247078311192
1589996549.2936645,-2.6915855234812582,-1.0363171046962516,8.866828953037484,0.3244444444444444,-0.34444444444444444,-0.6022222222222222,0.04182539429514007,0.08416692403419984,-1.086788175836085
1589996549.3036644,-2.698284100477126,-1.045857949761437,8.835857949761436,0.3244444444444444,-0.34444444444444444,-0.6022222222222222,0.04235522491543959,0.08681463500942935,-1.141544463840321
1589996549.3136644,-2.673371510217041,-1.0707856122286985,8.85662848978296,0.3244444444444444,-0.34444444444444444,-0.6022222222222222,0.040998098021823345,0.0868129908866745,-1.197216260688174
1589996549.3236644,-2.657315308798264,-1.1219459263947915,8.876342345600868,0.33419818950879626,-0.34444444444444444,-0.5997837859561342,0.04075972715339954,0.09016551382752672,-1.2599567024509202
1589996549.3336644,-2.7129406307977737,-1.1784031274847602,8.85159687251524,0.3511111111111111,-0.34444444444444444,-0.5955555555555555,0.046135665924268016,0.10176803583158726,-1.3410155545984863
1589996549.3436644,-2.7698913924461017,-1.2019565569784405,8.780217215107797,0.3511111111111111,-0.34444444444444444,-0.5955555555555555,0.0497395142325783,0.1027633680589464,-1.4004964050161448
1589996549.3536644,-2.8020553165334974,-1.240138291333743,8.776165949600491,0.3511111111111111,-0.34444444444444444,-0.5955555555555555,0.04820566943971539,0.1014472627721704,-1.4575007778590645
1589996549.3636644,-2.8536674191121145,-1.3091258465011286,8.881876410835215,0.3511111111111111,-0.34444444444444444,-0.5955555555555555,0.04809656777133932,0.10621063926813723,-1.5053651117930118
1589996549.3736644,-2.901980078072419,-1.361980078072419,8.93801992192758,0.36309118918353,-0.33179880647911336,-0.5955555555555555,0.05366126849067738,0.11409438041357364,-1.5513393356805332
1589996549.3836644,-2.895424140190772,-1.377287929904614,8.886272420572315,0.3711111111111111,-0.3233333333333333,-0.5955555555555555,0.05910817017400452,0.11592390389905784,-1.5953484784296101
1589996549.3936644,-2.9300664105736054,-1.4150581092519043,8.844958493391497,0.3711111111111111,-0.3233333333333333,-0.5955555555555555,0.05562512563752209,0.11672070479457008,-1.6182682931091592
1589996549.4036644,-2.9824358503051247,-1.4624358503051247,8.828290566870082,0.3711111111111111,-0.3233333333333333,-0.5955555555555555,0.05036468622271024,0.12007062589617523,-1.6389312648238104
1589996549.4136643,-3.0037824753209366,-1.4951299012837473,8.843782475320937,0.3711111111111111,-0.3233333333333333,-0.5955555555555555,0.049912593315162734,0.12161346221645508,-1.6549656184826602
1589996549.4236643,-3.009880348341887,-1.5195213933675473,8.849880348341886,0.3711111111111111,-0.3233333333333333,-0.5955555555555555,0.05124294283496411,0.11895276317685231,-1.6622825408415678
1589996549.4336643,-3.0169821636293137,-1.5722679333074836,8.816035672741371,0.3911111111111111,-0.3033333333333333,-0.6111111111111112,0.05345070834232633,0.12246134165330975,-1.6731902733427102
1589996549.4436643,-3.036451288075858,-1.639353864227574,8.75774355962071,0.3911111111111111,-0.3033333333333333,-0.6111111111111112,0.05415443470431616,0.12435470920459595,-1.671539863205077
1589996549.4536643,-3.045318330570785,-1.66063666114157,8.766591652853924,0.3911111111111111,-0.3033333333333333,-0.6111111111111112,0.0545415391248228,0.12145400985554385,-1.6670917796958973
1589996549.4636643,-3.0372975099410975,-1.7123416335296744,8.815404980117805,0.3911111111111111,-0.3033333333333333,-0.6111111111111112,0.0545415391248228,0.11936243086446721,-1.6584363120112062
1589996549.4736643,-3.0101104910962406,-1.7831860118716791,8.86318601187168,0.4108901289186298,-0.29454265875221386,-0.6059832176054581,0.05526072450722236,0.11855301530981102,-1.6464835070228374
1589996549.4836643,-2.9982955145118733,-1.8307387862796833,8.881704485488127,0.4511111111111111,-0.2766666666666667,-0.5955555555555555,0.055818300431195955,0.1160805130739342,-1.6281020714171062
1589996549.4936643,-3.01,-1.86,8.812301510401824,0.4511111111111111,-0.2766666666666667,-0.5955555555555555,0.0545415391248228,0.11566990558450008,-1.6050723500909199
1589996549.5036643,-2.995271573007289,-1.914004232306607,8.774547378321186,0.4511111111111111,-0.2766666666666667,-0.5955555555555555,0.051863835534589314,0.11400169144408116,-1.5792244244936584
1589996549.5136642,-2.9699192804861987,-1.9800807195138013,8.815121079270702,0.4511111111111111,-0.2766666666666667,-0.5955555555555555,0.05018702112787724,0.11124712954855796,-1.5521465418959737
1589996549.5236642,-2.9426761033090005,-2.0188731611516655,8.824225367769667,0.46651013039199946,-0.2542097635487045,-0.6045383168027404,0.05063913211788908,0.10845316359020125,-1.5240442822758349
1589996549.5336642,-2.93,-2.06051086883521,8.82,0.4777777777777778,-0.23777777777777775,-0.6111111111111112,0.049432419758130494,0.10575485875702971,-1.4943373894049226
1589996549.5436642,-2.924323094193285,-2.109738340647005,8.77458475354628,0.4777777777777778,-0.23777777777777775,-0.6111111111111112,0.050325893933000035,0.10471975511965977,-1.4702301667519293
1589996549.5536642,-2.909872195121951,-2.155191707317073,8.75012780487805,0.4777777777777778,-0.23777777777777775,-0.6111111111111112,0.05126904677733343,0.1058245272516691,-1.4457358766796542
1589996549.5636642,-2.8966655400734336,-2.183337839706266,8.783341219485965,0.4777777777777778,-0.23777777777777775,-0.6111111111111112,0.05126904677733343,0.10471901776611284,-1.4264407182916334
1589996549.5736642,-2.8902219900757378,-2.209112039697049,8.828446069469836,0.4777777777777778,-0.23777777777777775,-0.6111111111111112,0.05126904677733343,0.10050172415448803,-1.413085955188155
1589996549.5836642,-2.841744470030005,-2.298255529969995,8.84697788012002,0.5022222222222222,-0.19111111111111112,-0.6322222222222222,0.05036850815562416,0.10407919364801796,-1.3947732236843393
1589996549.5936642,-2.8202242292120836,-2.33932731236375,8.770672687636251,0.5022222222222222,-0.19111111111111112,-0.6322222222222222,0.04802101404253162,0.10365338394985087,-1.38218043987376
1589996549.6036642,-2.8037826155920373,-2.3793260766119437,8.73689130779602,0.5022222222222222,-0.19111111111111112,-0.6322222222222222,0.047583935077229515,0.101520776409844,-1.3763628554332603
1589996549.6136642,-2.7624463190184048,-2.406888420245399,8.746072980572597,0.5022222222222222,-0.19111111111111112,-0.6322222222222222,0.04808550509948015,0.09826372109431711,-1.3743578352758985
1589996549.6236641,-2.6734368254702434,-2.4368736509404876,8.8,0.5113870901428719,-0.1850011991640114,-0.6299310052420598,0.04509896158405565,0.0971516750873974,-1.3803435748049306
1589996549.6336641,-2.6528969634497273,-2.4669393978439205,8.796612120431217,0.5288888888888889,-0.17333333333333334,-0.6255555555555555,0.04655401352905525,0.1021863834363745,-1.3883115764273155
1589996549.6436641,-2.604867084662487,-2.519468338649947,8.741329153375132,0.5288888888888889,-0.17333333333333334,-0.6255555555555555,0.04799655442984406,0.10256709118299194,-1.3999218223784131
1589996549.653664,-2.5928874708553193,-2.5656687937170206,8.72422505828936,0.5288888888888889,-0.17333333333333334,-0.6255555555555555,0.04892989810771331,0.10284727828897428,-1.4135476280608856
1589996549.663664,-2.565635014336313,-2.613094956991061,8.778729971327373,0.5288888888888889,-0.17333333333333334,-0.6255555555555555,0.053035092431100245,0.1071004854832125,-1.4292479240304015
1589996549.673664,-2.5472660327446914,-2.638489311503539,8.79424465575177,0.5350200583081115,-0.15399656824193894,-0.6373462659771375,0.05533414034327645,0.1092478688011159,-1.4486626635511726
1589996549.683664,-2.5080470608222902,-2.6774411739721375,8.789023530411145,0.5433333333333333,-0.12777777777777774,-0.6533333333333333,0.05345070834232633,0.10859092101268211,-1.4805512530765972
1589996549.693664,-2.4565711978465683,-2.716714401076716,8.735428263795423,0.5433333333333333,-0.12777777777777774,-0.6533333333333333,0.052235202795294755,0.10969083102316138,-1.5073256550285112
1589996549.703664,-2.4416540940886025,-2.7125188588670963,8.7,0.5433333333333333,-0.12777777777777774,-0.6533333333333333,0.05126904677733343,0.11271643794693353,-1.5336916227238155
1589996549.713664,-2.4282609094663425,-2.7108695452668288,8.710869545266828,0.5433333333333333,-0.12777777777777774,-0.6533333333333333,0.050478591139413734,0.11414200434316801,-1.5541018556700181
1589996549.723664,-2.39,-2.7306462485345837,8.730553927315357,0.5434461703790543,-0.12748029829360424,-0.653466686205549,0.04908738521234052,0.1134464013796314,-1.5710279524988586
1589996549.733664,-2.3986707792585698,-2.813006168887854,8.78132922074143,0.5555555555555556,-0.09555555555555556,-0.6677777777777778,0.0509790557970364,0.11722974254902319,-1.6039250347772724
1589996549.743664,-2.4010282612166693,-2.861401085741657,8.716169567300016,0.5555555555555556,-0.09555555555555556,-0.6677777777777778,0.05442937322606377,0.12119438275586564,-1.6232375420483915
1589996549.753664,-2.368078660575279,-2.896346443429213,8.686535565707869,0.5555555555555556,-0.09555555555555556,-0.6677777777777778,0.0544367463154173,0.12198409206111341,-1.638448465349998
1589996549.763664,-2.305965377307593,-2.9180403931411414,8.762017311346204,0.5555555555555556,-0.09555555555555556,-0.6677777777777778,0.05323380110244873,0.12719338707233013,-1.6486854214150084
1589996549.773664,-2.2611170731707317,-2.9659219512195123,8.774078048780487,0.5552265582655826,-0.07811869918699188,-0.670409756097561,0.05518752379309143,0.12948587078294393,-1.6526086354821306
1589996549.783664,-2.2377674627536126,-2.981116268623194,8.763348805869581,0.5544444444444444,-0.03666666666666667,-0.6766666666666666,0.05647966865467274,0.12835273428186736,-1.6523651034469875
1589996549.793664,-2.19183478828705,-2.9962589359362113,8.752446384382733,0.5544444444444444,-0.03666666666666667,-0.6766666666666666,0.0545415391248228,0.12544553998709246,-1.6487201139209147
1589996549.803664,-2.13,-3.0155132270884346,8.669212396130224,0.5544444444444444,-0.03666666666666667,-0.6766666666666666,0.054369710615709714,0.12561736849620556,-1.6440277632045337
1589996549.813664,-2.1227953420448724,-3.0763976710224363,8.685216302842946,0.5544444444444444,-0.03666666666666667,-0.6766666666666666,0.04960920562364607,0.12566243588338263,-1.6310089157284917
1589996549.823664,-2.0854317715458275,-3.087548734610123,8.751058481532148,0.5548344163246693,-0.02067781957744338,-0.6840761323909409,0.04472406208235469,0.12370446363212974,-1.6221595715108688
1589996549.833664,-2.022692034062736,-3.125769321979088,8.743845424167295,0.5555555555555556,0.008888888888888889,-0.6977777777777778,0.04912940988860054,0.1284243769722657,-1.600919859313701
1589996549.843664,-1.988347885137757,-3.0921087989910747,8.672108798991076,0.5555555555555556,0.008888888888888889,-0.6977777777777778,0.05235987755982988,0.1268565139423428,-1.581984485415778
1589996549.853664,-1.9750245445620158,-3.125319079306207,8.645024544562016,0.5555555555555556,0.008888888888888889,-0.6977777777777778,0.049619413621693816,0.1259989875674776,-1.5642085037578541
1589996549.863664,-1.961089306535444,-3.19,8.691603525622023,0.5555555555555556,0.008888888888888889,-0.6977777777777778,0.04566802165437807,0.12473923023515643,-1.548098483882129
1589996549.873664,-1.93,-3.194962356172167,8.757518821913916,0.5621720304517785,0.020192033503269827,-0.7049456255820193,0.044445194929804935,0.12215662242113468,-1.5299353418020676
1589996549.883664,-1.919374021909233,-3.21,8.771251956181533,0.5822222222222222,0.054444444444444434,-0.7266666666666667,0.04883758097993784,0.12524068913591938,-1.5033912922766912
1589996549.893664,-1.8557087211016128,-3.155866214679749,8.691889922937635,0.5822222222222222,0.054444444444444434,-0.7266666666666667,0.05128622666164107,0.12265833343577452,-1.4739357256487113
1589996549.9036639,-1.8179281122800774,-3.155496785960542,8.649281122800774,0.5822222222222222,0.054444444444444434,-0.7266666666666667,0.0346114039348831,0.12350949064682008,-1.4526130038425007
1589996549.9136639,-1.8077973436161097,-3.24,8.79220265638389,0.5822222222222222,0.054444444444444434,-0.7266666666666667,0.011254298411203689,0.11371069649852675,-1.4361964544942496
1589996549.9236639,-1.756775030427263,-3.24,8.788400486836204,0.5886721613676965,0.052294464729286325,-0.7402832048626681,0.019386720380828934,0.10957388571977915,-1.4119251140854396
1589996549.9336638,-1.721110096478342,-3.252381387223568,8.684127129074522,0.6022222222222222,0.04777777777777778,-0.7688888888888888,0.030854785545843793,0.11985270976677062,-1.3771821566284936
1589996549.9436638,-1.6762248762905492,-3.2662248762905493,8.671124381452746,0.6022222222222222,0.04777777777777778,-0.7688888888888888,0.022618295307417807,0.11674081829963232,-1.3488581775430697
1589996549.9536638,-1.6575985814243266,-3.264133806191891,8.627598581424326,0.6022222222222222,0.04777777777777778,-0.7688888888888888,0.02034783651963546,0.12127119103100521,-1.316078880516815
1589996549.9636638,-1.636010482069681,-3.283963312756116,8.619973794825796,0.6022222222222222,0.04777777777777778,-0.7688888888888888,0.020949096397854562,0.12042657497118149,-1.294833290069702
1589996549.9736638,-1.6212571448671276,-3.335599992965054,8.656857137832182,0.6022222222222222,0.04777777777777778,-0.7688888888888888,0.013707068933561491,0.12203591440769107,-1.2706931985220582
1589996549.9836638,-1.4111122013812885,-2.9740649884892627,8.479655432690492,0.6322222222222222,0.021111111111111112,-0.7777777777777778,0.04601459925145681,0.0652898677664541,-1.2267014816477821
1589996549.9936638,-1.414648186018329,-3.1658452624403544,8.124367946678786,0.6322222222222222,0.021111111111111112,-0.7777777777777778,0.06403605490630637,0.07606675432259219,-1.1812082568131694
1589996550.0036638,-1.5694180824057802,-3.347503861106673,9.28018391294314,0.6322222222222222,0.021111111111111112,-0.7777777777777778,-0.06625001415369881,0.15848448082310101,-1.1281829694461798
1589996550.0136638,-1.6142165960096053,-3.5142165960096055,9.897636002490291,0.6322222222222222,0.021111111111111112,-0.7777777777777778,-0.05738624962205978,-0.013871153119523277,-1.1281563012086306
1589996550.0236638,-1.4292065296001653,-3.314731893790681,8.37681888624858,0.6302922707809576,0.014677939640229135,-0.7964339750433356,0.06484870102625848,0.1337979069797151,-1.0387859035973428
1589996550.0336637,-1.3245817511520737,-3.213590783410138,7.877799447004608,0.6255555555555555,-0.0011111111111111113,-0.8422222222222222,0.06775010243100449,0.08633777853482466,-1.0104132492573075
1589996550.0436637,-1.4522331158654371,-3.4585439370193534,8.74436818894194,0.6255555555555555,-0.0011111111111111113,-0.8422222222222222,-0.06146756118611148,0.056913719372970684,-1.0023039624729717
1589996550.0536637,-1.4501693669734401,-3.5033051055044266,8.543982573398187,0.6255555555555555,-0.0011111111111111113,-0.8422222222222222,0.000157305303379221,0.05656616258787393,-0.9727990899356012
1589996550.0636637,-1.4179838300404248,-3.5419353201616994,8.541692770768073,0.6255555555555555,-0.0011111111111111113,-0.8422222222222222,0.029056667800615086,0.0794415848036748,-0.9352862503228065
1589996550.0736637,-1.4214518363221145,-3.618493878926285,8.69306652689903,0.595478683355588,-0.0068098868963681215,-0.7966320159401661,0.0069904892813384325,0.06340879151650555,-0.9194415866084144
1589996550.0836637,-1.3905883564748052,-3.704117465287792,8.584704791726752,0.52,-0.021111111111111112,-0.6822222222222222,0.024704141944619944,0.07231573032166547,-0.8842147311759281
1589996550.0936637,-1.372756944754091,-3.6982708342622734,8.622055558032729,0.52,-0.021111111111111112,-0.6822222222222222,0.024186899936397093,0.06101001439719187,-0.8675290100431508
1589996550.1036637,-1.3681744052971472,-3.6899728194228727,8.569046431782882,0.52,-0.021111111111111112,-0.6822222222222222,0.026280991995337493,0.05334965512690379,-0.8513503114833266
1589996550.1136637,-1.3888456849651558,-3.778080205243909,8.68614821958187,0.52,-0.021111111111111112,-0.6822222222222222,0.020977617341973957,0.05877894601753798,-0.8295337298248416
1589996550.1236637,-1.3812139958878435,-3.8315020287850943,8.594567950654124,0.52,-0.021111111111111112,-0.6822222222222222,0.02264259361556878,0.057946457880740564,-0.8112189908152986
1589996550.1336637,-1.3670012199179329,-3.8610036597537984,8.74,0.51,0.06888888888888889,-0.6022222222222222,0.025198590292878097,0.053723748718958755,-0.7838179890954666
1589996550.1436636,-1.351496062992126,-3.814488188976378,8.74,0.51,0.06888888888888889,-0.6022222222222222,0.020124539554245643,0.04949537310343171,-0.7643674612640422
1589996550.1536636,-1.1790301283921798,-3.659937445287423,8.682678910125475,0.51,0.06888888888888889,-0.6022222222222222,0.02901515981504525,0.056875071899940774,-0.7217387813299319
1589996550.1636636,-0.643574555004377,-2.994442661219726,9.057497811496937,0.51,0.06888888888888889,-0.6022222222222222,0.0457034861610654,0.0718945656113589,-0.6950374591762996
1589996550.1736636,-0.9923277883219829,-3.1815300881991737,7.472349559004131,0.5115373450932232,0.08887437510079019,-0.5955603934849217,0.15224883673956605,0.15058689387104557,-0.6367841302231818
1589996550.1836636,-0.9077466682968578,-3.233072502750948,7.319943758405674,0.5166666666666667,0.15555555555555556,-0.5733333333333334,-0.017632007918958484,-0.0890520161534593,-0.6796932062982921
1589996550.1936636,-1.176222777421566,-3.7042835349001746,8.52008600676557,0.5166666666666667,0.15555555555555556,-0.5733333333333334,-0.06613470027176593,-0.007098949899673981,-0.6444456977304716
1589996550.2036636,-1.1381576861040488,-3.6883829519669757,8.125261488832392,0.5166666666666667,0.15555555555555556,-0.5733333333333334,0.08435113912731829,0.06814839989926348,-0.5833689306709788
1589996550.2136636,-1.219961785721394,-3.8659273928706486,8.747724857194038,0.5166666666666667,0.15555555555555556,-0.5733333333333334,-0.006315563504392185,0.017248882516217326,-0.576181821552
1589996550.2236636,-1.255248131135729,-3.969392056201027,8.904193461226695,0.5217741951624686,0.16773504658400631,-0.5733333333333334,0.0033875389877040182,0.013765315764710299,-0.5532799245552673
1589996550.2336636,-1.2699603436880371,-4.073668208856576,8.69230667547918,0.5311111111111111,0.19,-0.5733333333333334,0.035872687649632286,0.035459570638151486,-0.5216925253742931
1589996550.2436635,-1.32919945682046,-4.200948947589641,8.909696401435546,0.5311111111111111,0.19,-0.5733333333333334,0.01572444793631001,0.019422282817890595,-0.5043018383331578
1589996550.2536635,-1.241948951994591,-4.038462039988409,8.343642663962136,0.5311111111111111,0.19,-0.5733333333333334,0.031589260421755645,0.026370120327524917,-0.4604759394904728
1589996550.2636635,-1.268416555725555,-4.14316688854889,8.590694259542591,0.5311111111111111,0.19,-0.5733333333333334,0.027389027609767705,0.026104206811904878,-0.43200219575726034
1589996550.2736635,-1.2627818592005553,-4.215150112801527,8.652668479204026,0.5293358528888118,0.20242680755609546,-0.5761737464890123,0.03587443154546481,0.025269577485353925,-0.401483213169713
1589996550.2836635,-1.2778747777997235,-4.265749555599447,8.765123444598064,0.5255555555555556,0.2288888888888889,-0.5822222222222222,0.026643590339056236,0.01768511829951394,-0.3684653698921425
1589996550.2936635,-1.250260714991112,-4.210521429982224,8.571825004937784,0.5255555555555556,0.2288888888888889,-0.5822222222222222,0.03266804428734103,0.020697345273656336,-0.3406022703813253
1589996550.3036635,-1.2121232572172642,-4.171520468764887,8.466684663511925,0.5255555555555556,0.2288888888888889,-0.5822222222222222,0.019899442528070493,0.013618946276226038,-0.29591103514617345
1589996550.3136635,-1.2454250960713946,-4.2581052497856255,8.759740845428272,0.5255555555555556,0.2288888888888889,-0.5822222222222222,0.020625975946786924,0.01507201311365891,-0.26975583207238174
1589996550.3236635,-1.1912509405568097,-4.180007524454477,8.513767870579382,0.526528509321963,0.23041781623610066,-0.5847241033358415,0.016771010286722694,0.011861861370160388,-0.2173449554474569
1589996550.3336635,-1.199970436067997,-4.249970436067997,8.679674796747967,0.5333333333333333,0.2411111111111111,-0.6022222222222222,0.012012038306293198,0.0032789421969054594,-0.18860407793181333
1589996550.3436635,-1.204315457413249,-4.2901041009463725,8.598630914826499,0.5333333333333333,0.2411111111111111,-0.6022222222222222,0.015321412296654216,0.00545415391248228,-0.14355734560086456
1589996550.3536634,-1.2484195583596214,-4.444468454258676,8.686839116719243,0.5333333333333333,0.2411111111111111,-0.6022222222222222,0.012114071566878623,0.00545415391248228,-0.11870045494510371
1589996550.3636634,-1.2224301450832886,-4.327290435249866,8.503742611499195,0.5333333333333333,0.2411111111111111,-0.6022222222222222,0.012264226313739373,-0.0005606553699397421,-0.07848808833514767
1589996550.3736634,-1.2294732334766254,-4.348419700429876,8.630518202579259,0.5333333333333333,0.2411111111111111,-0.6022222222222222,0.013032508076068913,0.000975908154719341,-0.05620791722759097
1589996550.3836634,-1.217995409031543,-4.371981636126172,8.739931135473146,0.5611111111111111,0.2611111111111111,-0.5877777777777777,0.0100336400110817,-0.0056728208659529945,-0.011765447744847592
1589996550.3936634,-1.2074315754339118,-4.346164218958611,8.620513684913217,0.5611111111111111,0.2611111111111111,-0.5877777777777777,0.006657053358147097,-0.006657053358147097,0.017232832560396698
1589996550.4036634,-1.1770270100107032,-4.417432474973242,8.635675670003568,0.5611111111111111,0.2611111111111111,-0.5877777777777777,0.007178847372175778,-0.010584004925326691,0.06459486033445659
1589996550.4136634,-1.2149664040529806,-4.308322134684326,8.65503359594702,0.5611111111111111,0.2611111111111111,-0.5877777777777777,0.0025403854934016278,-0.015088604241428449,0.0996756316260323
1589996550.4236634,-1.19,-4.303826321623054,8.673877885403114,0.5640871390401534,0.2631518159767401,-0.5900735707516103,-0.0012577855589028337,-0.014097322784250736,0.1370104174459725
1589996550.4336634,-1.1909342873379138,-4.351868574675827,8.59065712662086,0.6,0.2877777777777778,-0.6177777777777778,-0.003272492347489368,-0.013599544083904064,0.1746236258319911
1589996550.4436634,-1.2055283983849259,-4.375528398384926,8.522113593539704,0.6,0.2877777777777778,-0.6177777777777778,-0.003473510585362066,-0.018946159778185145,0.21369043228625298
1589996550.4536633,-1.2228305896484284,-4.394622942236322,8.609245884472642,0.6,0.2877777777777778,-0.6177777777777778,-0.004363323129985824,-0.02072578486743266,0.24881195519247976
1589996550.4636633,-1.1969944715647474,-4.375245853673561,8.570491707347122,0.6,0.2877777777777778,-0.6177777777777778,-0.004363323129985824,-0.02072578486743266,0.27276736316248856
1589996550.4736633,-1.209990197039506,-4.320024507401236,8.629965689638272,0.6,0.2877777777777778,-0.6177777777777778,-0.007634211471815213,-0.02726756155109144,0.31305185985132983
1589996550.4836633,-1.235572406252531,-4.308898517858589,8.633369441969709,0.7388888888888889,0.28,-0.6111111111111112,-0.011999138607461015,-0.02908960863481361,0.3592556031528222
1589996550.4936633,-1.280166574125486,-4.326069313344438,8.734430409032019,0.7388888888888889,0.28,-0.6111111111111112,-0.012088526971138658,-0.0319916461471078,0.390462908878637
1589996550.5036633,-1.1730993831391363,-4.166280740233036,8.570537902673065,0.7388888888888889,0.28,-0.6111111111111112,-0.012954733288560652,-0.03613265192377985,0.4290843218826538
1589996550.5136633,-1.22,-4.103552396683185,8.717104793366369,0.7388888888888889,0.28,-0.6111111111111112,-0.01203362689237402,-0.038882401804506875,0.47373366591145305
1589996550.5236633,-1.22,-4.068563157982548,8.647126315965098,0.7388888888888889,0.28,-0.6111111111111112,-0.018140401073297174,-0.04269913566758384,0.5050308835886842
1589996550.5336633,-1.267846422338569,-3.8726154741128562,8.746076788830715,1.2744444444444445,0.3622222222222222,-0.8488888888888889,-0.02262214246511295,-0.04676307166369129,0.5600830357350107
1589996550.5436633,-1.3166457242582899,-3.8888819080860966,8.721677137870856,1.2744444444444445,0.3622222222222222,-0.8488888888888889,-0.020847749775167283,-0.045875875318718465,0.5902477114640869
1589996550.5536633,-1.3587920199501247,-3.9165546134663343,8.594653366583541,1.2744444444444445,0.3622222222222222,-0.8488888888888889,-0.023866507032617473,-0.04600280954927722,0.6356518514747016
1589996550.5636632,-1.3911713335479026,-3.8558107499195367,8.641171333547904,1.2744444444444445,0.3622222222222222,-0.8488888888888889,-0.02694156593713916,-0.04984901236956474,0.671828998205904
1589996550.5736632,-1.4611342549923194,-3.8311342549923197,8.71,1.2757677419354838,0.3278795016214371,-0.857962928827445,-0.031139180588068263,-0.05478899517698728,0.7076461581186844
1589996550.5836632,-1.5118138929252136,-3.8542418523900284,8.707879073804987,1.2977777777777777,-0.2433333333333333,-1.0088888888888892,-0.023832875064795426,-0.060061648045270935,0.7692984924314409
1589996550.5936632,-1.629827871068521,-3.869885247379014,8.699196731653098,1.2977777777777777,-0.2433333333333333,-1.0088888888888892,-0.02725199320870986,-0.0643590161672909,0.8151760513223459
1589996550.6036632,-1.5980775500445565,-3.853844899910887,8.581146949509879,1.2977777777777777,-0.2433333333333333,-1.0088888888888892,-0.025046811009525386,-0.06582696347973559,0.8841562007499086
1589996550.6136632,-1.590997516124319,-3.87,8.674987580621595,1.2977777777777777,-0.2433333333333333,-1.0088888888888892,-0.029670055386293064,-0.07243008016254357,0.943552369931118
1589996550.6236632,-1.5997522386190488,-3.87,8.718761193095244,1.2977777777777777,-0.2433333333333333,-1.0088888888888892,-0.0315800395441861,-0.07625004847832967,1.0008518946679092
1589996550.6336632,-1.6453880708160176,-3.9107761416320352,8.698082106224026,0.7244444444444444,0.03888888888888889,-0.7266666666666667,-0.030921799503500033,-0.08240005603767249,1.0775414035061048
1589996550.6436632,-1.6704351367863688,-3.9321736474102233,8.693912158034077,0.7244444444444444,0.03888888888888889,-0.7266666666666667,-0.035191159250539894,-0.08513226709484034,1.1364564775709822
1589996550.6536632,-1.6978466001392434,-3.9229203991645396,8.622153399860757,0.7244444444444444,0.03888888888888889,-0.7266666666666667,-0.03693701376443777,-0.08929689132426767,1.1904632511833255
1589996550.6636631,-1.6923770827243496,-3.97,8.63713124817305,0.7244444444444444,0.03888888888888889,-0.7266666666666667,-0.04062003845319498,-0.09323921551385098,1.236863593205434
1589996550.6736631,-1.7046375328851213,-3.97,8.673912598655363,0.7244444444444444,0.03888888888888889,-0.7266666666666667,-0.041957446097458315,-0.09591403080237765,1.2642804499128326
1589996550.6836631,-1.646906153317291,-3.9159195599862495,8.708026813337918,0.6433237844238189,0.15906764447500096,-0.6805981436919903,-0.041559190372395916,-0.0990503599321163,1.2988858488550685
1589996550.6936631,-1.6016142722414337,-3.99993712668972,8.709748506758881,0.6344444444444445,0.17222222222222222,-0.6755555555555556,-0.03926990816987242,-0.10035643198967394,1.3173508304425867
1589996550.703663,-1.5604096589122918,-3.9504915906947504,8.511966362779,0.6344444444444445,0.17222222222222222,-0.6755555555555556,-0.03926990816987242,-0.10035643198967394,1.31015926874654
1589996550.713663,-1.5760841273530095,-3.9902103183825237,8.670841273530096,0.6344444444444445,0.17222222222222222,-0.6755555555555556,-0.04190166735381082,-0.09684741974442274,1.2934199616133004
1589996550.723663,-1.6093031604786745,-4.04883860079779,8.592787358085301,0.6344444444444445,0.17222222222222222,-0.6755555555555556,-0.0382804285874189,-0.09705860184217384,1.2499387445588392
1589996550.733663,-1.6271679866611086,-3.9899120466861193,8.658671946644436,0.6067849103793247,0.17699110740586355,-0.6889084340697513,-0.03724270897120466,-0.09333846597749938,1.1937555094043353
1589996550.743663,-1.6526365652086272,-3.9973634347913727,8.692090304374117,0.6022222222222222,0.17777777777777778,-0.6911111111111111,-0.03172996090871822,-0.08271140303708867,1.0908697014741828
1589996550.753663,-1.6756944164482968,-3.9743055835517036,8.62291675065511,0.6022222222222222,0.17777777777777778,-0.6911111111111111,-0.032568368039066736,-0.08103458877639164,1.005352174178634
1589996550.763663,-1.7675286454713346,-3.938614293941259,8.71722858788252,0.6022222222222222,0.17777777777777778,-0.6911111111111111,-0.02557531045016851,-0.06860391342028031,0.8476457460394797
1589996550.773663,-1.6925664753658876,-3.9302851639295433,8.700570327859085,0.6022222222222222,0.17777777777777778,-0.6911111111111111,-0.02194104188689041,-0.06133537629372411,0.7431605248452342
1589996550.783663,-1.6360877950610035,-3.9439122049389965,8.683043897530501,0.6055555555555555,0.12777777777777774,-0.7177777777777777,-0.011916129179335105,-0.0439769772292215,0.6019236363941364
1589996550.793663,-1.7064294998113287,-3.8735705001886713,8.718214749905664,0.6055555555555555,0.12777777777777774,-0.7177777777777777,-0.01095699296889846,-0.035344751335291705,0.47339938419562594
1589996550.803663,-1.7164615097247191,-3.8146153307338486,8.62169231128441,0.6055555555555555,0.12777777777777774,-0.7177777777777777,-0.00904549821929998,-0.02070900050436873,0.31219572410548796
1589996550.813663,-1.6586695997508176,-3.6937155427503505,8.643623656751286,0.6055555555555555,0.12777777777777774,-0.7177777777777777,0.0049137501250471095,-0.01446102527379763,0.19022510616249264
1589996550.823663,-1.715826000622956,-3.7182111431241243,8.733440858121789,0.6055555555555555,0.12777777777777774,-0.7177777777777777,0.0013510094685879248,-0.009116914289108852,0.08512425679694668
1589996550.833663,-1.5436351831281194,-3.607270366256239,8.678482093965611,0.5277777777777778,0.054444444444444434,-0.6466666666666666,0.007436838740564413,0.004858640209955075,-0.06428796889430355
1589996550.843663,-1.5633214950639112,-3.6466429901278223,8.724416821815792,0.5277777777777778,0.054444444444444434,-0.6466666666666666,0.018174056267258917,0.013448414231310678,-0.14660663659896145
1589996550.853663,-2.223661146903786,-3.895751024972046,8.030293381609072,0.5277777777777778,0.054444444444444434,-0.6466666666666666,-0.008696966555490755,0.10112520022550392,-0.33069283552969564
1589996550.863663,-14.87140035141899,-10.20101006336191,-4.721664980565466,0.5277777777777778,0.054444444444444434,-0.6466666666666666,-0.44070173469798213,1.5059527357264624,-0.6157185378191965
1589996550.873663,2.5162368791079466,-1.5606945489029123,0.35412445636179335,0.5277777777777778,0.054444444444444434,-0.6466666666666666,-0.527605004226353,-0.46910196692052675,-4.457594187974495
1589996550.883663,0.5302596714361423,-1.0741374708041374,0.22168305560462426,0.5431034738442145,0.14369408624310587,-0.6412575974667478,-0.025929074890957082,-1.0976511029951386,-5.3247335811560115
1589996550.893663,0.11692030616839261,-0.8658937415578568,0.007946870778928411,0.5466666666666666,0.16444444444444445,-0.64,-0.008415752119800437,-0.44898761996507774,-5.285084472930974
1589996550.903663,0.08915634062747166,-0.8297099920906933,-0.009472712892169787,0.5466666666666666,0.16444444444444445,-0.64,0.022904570527383403,-0.30186390853217443,-5.103370284001723
1589996550.913663,0.25425166988400494,-1.258207287698379,1.4498636759656285,0.5466666666666666,0.16444444444444445,-0.64,0.022846603503938447,-0.176856137418266,-4.829410840216357
1589996550.923663,2.8265626868476343,-4.117126774518681,8.142171447118915,0.5466666666666666,0.16444444444444445,-0.64,0.028317826979206092,-0.1080750423006157,-4.634010001813941
1589996550.933663,3.73,4.6,13.27,0.5044444444444445,0.2677777777777778,-0.6255555555555555,1.784599160164202,2.183843226557905,-4.099342080621681
1589996550.943663,3.257434954886141,3.613270874110851,12.714236883563279,0.5044444444444445,0.2677777777777778,-0.6255555555555555,1.4215790911909458,1.8053948046532855,-3.9024036932036896
1589996550.9536629,0.9326030530787545,-1.2431553148779235,9.633417207413286,0.5044444444444445,0.2677777777777778,-0.6255555555555555,-0.2311905365121022,-0.06926874769539944,-2.8675305475122896
1589996550.9636629,1.052322132969949,-0.7539048267948074,7.538322814315427,0.5044444444444445,0.2677777777777778,-0.6255555555555555,0.6063693458389583,0.07961525438348663,-2.5952873195130066
1589996550.9736629,0.3830029405436419,-0.4380463314925052,3.552489421214947,0.5044444444444445,0.2677777777777778,-0.6255555555555555,0.5456632397685571,0.3560741428392326,-2.417270765225479
1589996550.9836628,-0.11257623821983465,-2.504477273253525,10.334941996434113,0.4709742386469179,0.34088375359869094,-0.5929661446474376,0.004434728382078257,0.20972409565683844,-2.1865355859623232
1589996550.9936628,-0.707204866820125,-2.227227885563959,8.686103255508057,0.4622222222222222,0.36,-0.5844444444444444,-0.4832850273833542,0.04921113944448826,-1.8660423584025083
1589996551.0036628,0.18020748783831,-2.5619679092643857,8.417095170263659,0.4622222222222222,0.36,-0.5844444444444444,0.227418267325465,0.17726291928586085,-1.5726503902422335
1589996551.0136628,-0.07172858774267224,-3.3288591549295776,10.97244175866007,0.4622222222222222,0.36,-0.5844444444444444,0.30506683575820026,0.09725034635557835,-1.3634880474397422
1589996551.0236628,-0.4070171298058622,-2.738112676056338,9.367846593071945,0.4622222222222222,0.36,-0.5844444444444444,-0.1285999385871352,0.08418809411626102,-1.2076118373838887
1589996551.0336628,-0.2681110563993788,-3.052426044468013,9.704180712851786,0.4391445399795462,0.38546502868157356,-0.5931980480537353,-0.12125996595851563,0.09618451348829744,-1.0555580186069093
1589996551.0436628,-0.2,-2.7568699702065,7.85975548782576,0.43,0.3955555555555556,-0.5966666666666667,0.17750320799826316,0.08432755878986943,-0.8382419497945255
1589996551.0536628,-0.3476096358192599,-3.1395221228547388,9.290399209408818,0.43,0.3955555555555556,-0.5966666666666667,-0.0018297421058779129,0.04137766792924503,-0.7119560773860026
1589996551.0636628,-0.29164942099970803,-2.537050504395212,6.920388270784002,0.43,0.3955555555555556,-0.5966666666666667,-0.011745122123386215,0.04207459832541959,-0.49915314772058844
1589996551.0736628,-0.3256620389892634,-3.094857439423919,8.784279736611632,0.43,0.3955555555555556,-0.5966666666666667,0.06097481884136107,0.032428075544381686,-0.37745855263672573
1589996551.0836627,-0.34957345223533126,-3.0140760762340686,8.344598113877598,0.39915220946393265,0.42959449683673334,-0.6190047218824396,-0.037863617544227304,0.005386964280178409,-0.1684688564312519
1589996551.0936627,-0.4170119665513264,-3.278087754709727,9.127370963091119,0.3977777777777778,0.4311111111111111,-0.62,0.034172156269827766,-0.0032681411866403096,0.02731415011184027
1589996551.1036627,-0.38758217993079586,-3.090477220299885,8.329491061130334,0.3977777777777778,0.4311111111111111,-0.62,-0.0309307773435904,-0.01361745590156259,0.18925049086506168
1589996551.1136627,-0.3649053849480969,-3.18874333189158,8.699878712514417,0.3977777777777778,0.4311111111111111,-0.62,-0.02433436507279327,-0.018564765104660437,0.317055978611756
1589996551.1236627,-0.36,-3.202761825068264,8.584569276843125,0.3977777777777778,0.4311111111111111,-0.62,-0.018170072017646418,-0.03463663973173687,0.46471601244328536
1589996551.1336627,-0.36,-3.4033325314971288,9.058113780557477,0.3997423432994892,0.4507567663282249,-0.6386633724562581,-0.012505046355881658,-0.047111215870107935,0.6484114060992965
1589996551.1436627,0.10726188221927663,-3.7568936859601507,8.54280839066675,0.4,0.4533333333333333,-0.6411111111111111,-0.008320072014523085,-0.0575684803657892,0.8267610051598099
1589996551.1536627,5.428566559363756,-8.504591722948096,5.727723495129289,0.4,0.4533333333333333,-0.6411111111111111,-0.028535246449399185,-0.06719475390620641,0.9499773064771498
1589996551.1636627,-20.71112778256057,-23.11950190628459,5.625434755872586,0.4,0.4533333333333333,-0.6411111111111111,-0.4074605134818833,-0.10388409100157214,-1.098745510432031
1589996551.1736627,-4.241074020064303,-6.870522690935925,3.16413813096263,0.4,0.4533333333333333,-0.6411111111111111,-0.4669453940581332,0.28678688143163655,-3.6614184736358775
1589996551.1836627,1.0241097958690664,-1.0589237830655878,10.110800620042678,0.42179901848944,0.4376652887940483,-0.6458796464056761,-0.15152042311488623,0.1195878529091885,-2.045981333846577
1589996551.1936626,0.47318545074314744,0.3855388751960564,3.2601389200089628,0.4355555555555555,0.42777777777777776,-0.6488888888888888,0.9473989591029394,0.15945723479507665,0.010696398730538292
1589996551.2036626,0.30307486584881893,-0.1702807253653571,3.716523974670877,0.4355555555555555,0.42777777777777776,-0.6488888888888888,0.9920026842921794,-0.007226017547504765,0.21441678681970883
1589996551.2136626,0.9676357324362048,-2.132773343831645,11.150959521849611,0.4355555555555555,0.42777777777777776,-0.6488888888888888,-0.07018549938698015,-0.3129046206126536,0.4540451468034488
1589996551.2236626,0.09733540246260297,-2.8294754248499037,12.280201485702655,0.4355555555555555,0.42777777777777776,-0.6488888888888888,-0.6313941584686478,0.029973314758915903,0.6767279624344106
1589996551.2336626,1.4123856667898043,-3.93046176579239,8.046690801625417,0.41156023478225173,0.43319607601691085,-0.6488888888888888,-0.19214966100174813,0.09277936905305137,0.9513904517529423
1589996551.2436626,4.118201634877384,-13.751877363073739,9.25267389054348,0.4011111111111111,0.4355555555555555,-0.6488888888888888,0.07853981633974483,0.008726646259971648,1.0231992739816758
1589996551.2536626,-3.6742037133437444,-4.876510845045983,8.325777199375324,0.4011111111111111,0.4355555555555555,-0.6488888888888888,-0.26251782564715287,-0.1585846498090725,-0.2584481542395278
1589996551.2636626,-0.6431783594989042,-1.5127301887128684,7.336953507849671,0.4011111111111111,0.4355555555555555,-0.6488888888888888,0.17570714718347102,-0.045393193861064815,-0.025678755714799106
1589996551.2736626,-0.11591584158415846,-1.6395049504950499,7.27809405940594,0.4011111111111111,0.4355555555555555,-0.6488888888888888,0.060551908733330495,-0.0034965986716161152,0.38504706576408315
1589996551.2836626,2.2734842617631155,-5.952591022174148,9.184025743645213,0.41620597319872604,0.42968533141037196,-0.6421800612943933,-0.20740875971497702,-0.03620437279290752,0.345295151031797
1589996551.2936625,-0.9140359694804407,-7.52084049897057,9.072811251059706,0.4211111111111111,0.42777777777777776,-0.64,0.06955063484027747,0.031286742948558204,-0.2126619990199959
1589996551.3036625,-0.24097704977594758,-5.2095815671551415,8.368004269105002,0.4211111111111111,0.42777777777777776,-0.64,0.09102232826430731,0.02228248441590053,-0.06997913304095896
1589996551.3136625,0.0038077535847052535,-4.725249601699415,8.693608603292619,0.4211111111111111,0.42777777777777776,-0.64,-0.0023794941259182995,-0.005783488644213148,0.022036172137749704
1589996551.3236625,-0.1386853475397458,-4.877715508200847,8.666901925416335,0.4211111111111111,0.42777777777777776,-0.64,-0.02280165337193093,-0.007099803405401553,0.010515702090083918
1589996551.3336625,-0.153864792000819,-4.539630072006279,8.659081663993447,0.4211111111111111,0.4403613964440501,-0.645807823999818,-0.0023221893677408943,0.0017600781567489656,0.0
1589996551.3436625,-0.158840096349824,-4.616081156197888,8.619279229201407,0.4211111111111111,0.44222222222222224,-0.6466666666666666,0.00938999749735415,0.0031459664868551673,0.0009643049218622552
1589996551.3536625,-0.13451264534382223,-4.5726534520236,8.692833902632577,0.4211111111111111,0.44222222222222224,-0.6466666666666666,0.010213248049380484,0.001882372796321214,-0.0002992887686716979
1589996551.3636625,-0.1281281094527363,-4.6700497512437815,8.561181592039802,0.4211111111111111,0.44222222222222224,-0.6466666666666666,0.0062709202446500235,0.00020419158304193607,0.0024557260153216234
1589996551.3736625,-0.08460969496913015,-4.711347576257717,8.599433033804022,0.4211111111111111,0.44222222222222224,-0.6466666666666666,-0.00382956020400083,-0.0012378285488644147,0.0007968352497605387
1589996551.3836625,-0.09775816169258791,-4.705672551492223,8.612241838307412,0.4211111111111111,0.43532382108884843,-0.6604634689334142,-0.006740621993787123,-0.0006187793783013732,-4.8909324702097e-05
1589996551.3936625,-0.15549425754649862,-4.618574651895518,8.631425348104482,0.4211111111111111,0.42777777777777776,-0.6755555555555556,-0.0009830005132560806,0.001090830782496456,0.001090830782496456
1589996551.4036624,-0.12468518981464947,-4.658881468518982,8.598181493518089,0.4211111111111111,0.42777777777777776,-0.6755555555555556,0.005393147483947961,-0.0012205181391955276,-0.00045006849863153306
1589996551.4136624,-0.12845795927304576,-4.620015509816802,8.603068571637108,0.4211111111111111,0.42777777777777776,-0.6755555555555556,0.0022666127689140647,-0.0028528119035630527,0.00025146989464382586
1589996551.4236624,-0.14,-4.634008369368113,8.635818942669829,0.4211111111111111,0.42777777777777776,-0.6755555555555556,-0.00362982349682884,-0.002637744168906272,-0.000178665574669736
1589996551.4336624,-0.1341918941630217,-4.627727047467195,8.645808105836979,0.4178843856461232,0.4322951934287608,-0.6671660693465868,-0.00798841816647159,-0.002181661564992912,-0.00045726471899912844
1589996551.4436624,-0.11457560272986042,-4.620848794540279,8.66542439727014,0.4155555555555556,0.4355555555555555,-0.6611111111111111,0.002801578465323815,0.00034214953656547167,-0.0008412703671861278
1589996551.4536624,-0.14409240286100908,-4.587384496423739,8.567722791416973,0.4155555555555556,0.4355555555555555,-0.6611111111111111,0.008404436819481683,0.0020205568447479298,0.0007686213420064919
1589996551.4636624,-0.13208853008073185,-4.5620885300807315,8.657468819515609,0.4155555555555556,0.4355555555555555,-0.6611111111111111,0.009703565397356501,0.002181661564992912,0.002067749919881307
1589996551.4736624,-0.14394339936125827,-4.601830198083775,8.690915099041886,0.4155555555555556,0.4355555555555555,-0.6611111111111111,0.0006915435009269295,0.001421167103197814,0.000660672641402716
1589996551.4836624,-0.1273141266692328,-4.597314126669232,8.707561957776923,0.4155555555555556,0.4355555555555555,-0.655229588395727,-0.006572018875091535,-0.0005589324813046273,-0.0016497632638010832
1589996551.4936624,-0.14572616957948561,-4.701480068177771,8.581369152102573,0.4155555555555556,0.4355555555555555,-0.6533333333333333,-0.006700385554374298,-0.00015540085939556218,-0.0012462316418920183
1589996551.5036623,-0.1440196804396834,-4.630295206595251,8.530098402198417,0.4155555555555556,0.4355555555555555,-0.6533333333333333,0.0019355869702479848,0.0006523516665559016,0.0002138725506153473
1589996551.5136623,-0.14,-4.5964797036813065,8.569579333282938,0.4155555555555556,0.4355555555555555,-0.6533333333333333,0.0033030840944321587,0.001090830782496456,0.0003687088853226172
1589996551.5236623,-0.13480429511603742,-4.58921718046415,8.667544163491513,0.4155555555555556,0.4355555555555555,-0.6533333333333333,0.0005240673000770988,-0.0006094596647616155,0.0
1589996551.5336623,-0.13,-4.618142375737152,8.699363942712722,0.4209047084152392,0.4321515491903023,-0.6533333333333333,-0.0038192862106615592,-0.000749429235994827,0.001432232328998085
1589996551.5436623,-0.13,-4.6388421815546295,8.61884218155463,0.42777777777777776,0.42777777777777776,-0.6533333333333333,-0.004237024729910587,0.001090830782496456,0.003272492347489368
1589996551.5536623,-0.13,-4.665876048832862,8.531072692567701,0.42777777777777776,0.42777777777777776,-0.6533333333333333,0.0014236714630585633,-0.0020399450912021652,0.0017071044106400574
1589996551.5636623,-0.13,-4.607641621943947,8.58786374478235,0.42777777777777776,0.42777777777777776,-0.6533333333333333,0.006655238611277573,-0.0015811192155952656,0.0027822039143905585
1589996551.5736623,-0.13923161171316578,-4.5676948351394975,8.67,0.42777777777777776,0.42777777777777776,-0.6533333333333333,0.0062929328623964765,0.001510518934316412,0.0018457915727918043
1589996551.5836623,-0.13378163564107926,-4.616218364358921,8.67,0.4319825389078683,0.43558661987651737,-0.661142175432073,-0.0013566366518979146,0.002682775978007564,-0.0016805471519782604
1589996551.5936623,-0.12710814795820244,-4.679757035707417,8.61313481633438,0.4355555555555555,0.44222222222222224,-0.6677777777777778,-0.006689459109789793,0.0014062829050582558,-0.0014062829050582558
1589996551.6036623,-0.14826441543070606,-4.657383030661686,8.541294892184784,0.4355555555555555,0.44222222222222224,-0.6677777777777778,-0.004979363933992866,-0.00023739498924470713,0.00023739498924470713
1589996551.6136622,-0.13798679984470405,-4.607986799844704,8.554026400310592,0.4355555555555555,0.44222222222222224,-0.6677777777777778,0.002330465467662901,0.0013104368525688026,0.0018912533275182086
1589996551.6236622,-0.1426820276497696,-4.58731797235023,8.658774193548387,0.4355555555555555,0.44222222222222224,-0.6677777777777778,0.006438415051711801,0.0007982669505089274,0.0014899642577509197
1589996551.6336622,-0.1360910350037774,-4.593908964996222,8.682182070007554,0.42164659055933296,0.44685854388762974,-0.6530960925039873,-0.0007089644663247387,0.0,0.003366679858078255
1589996551.6436622,-0.13730524552308077,-4.643831473138484,8.66269475447692,0.4155555555555556,0.4488888888888889,-0.6466666666666666,-0.004363323129985824,-0.0023906360070812733,0.0019726871229045506
1589996551.6536622,-0.1259280946246633,-4.638892141936995,8.582604520435648,0.4155555555555556,0.4488888888888889,-0.6466666666666666,-0.002828316374806363,-0.0009699822147201768,0.001090830782496456
1589996551.6636622,-0.13196478542394346,-4.641964785423943,8.603841534407746,0.4155555555555556,0.4488888888888889,-0.6466666666666666,0.003038960933568062,0.0006525778123201218,0.0004382529701763342
1589996551.6736622,-0.14,-4.628838395034361,8.654107736643759,0.4155555555555556,0.4488888888888889,-0.6466666666666666,0.008083900035215367,0.001860288452614772,0.001154186505177474
1589996551.6836622,-0.13958473318227987,-4.59,8.6820763340886,0.4155555555555556,0.4494425779791824,-0.6469435112118134,0.010500620580017939,0.003272492347489368,0.003181895181945675
1589996551.6936622,-0.12377106666189573,-4.596228933338104,8.64279493326654,0.4155555555555556,0.4622222222222222,-0.6533333333333333,-0.003665467776629323,0.0012340786792926057,0.0024497732279609645
1589996551.7036622,-0.13361543464123132,-4.627230869282462,8.549153696076306,0.4155555555555556,0.4622222222222222,-0.6533333333333333,-0.005802377933792551,0.0,0.0017872788251169984
1589996551.7136621,-0.13418079579226444,-4.6458192042077355,8.547457612623207,0.4155555555555556,0.4622222222222222,-0.6533333333333333,-0.004819377204539194,-0.0006347767079430853,-0.00017872263338971467
1589996551.7236621,-0.11948626438131017,-4.6184587931439305,8.607311810284104,0.4155555555555556,0.4622222222222222,-0.6533333333333333,-0.0009227111944169362,-0.001090830782496456,0.0012029105078828022
1589996551.7336621,-0.11851708941337773,-4.598517089413378,8.662775634120067,0.4155555555555556,0.4537051328088445,-0.6443430722858791,0.003110731895931623,-0.0015553659479658115,0.0014143516856119462
1589996551.743662,-0.13462874734295976,-4.61,8.67537125265704,0.4155555555555556,0.44222222222222224,-0.6322222222222222,0.0023436510955461495,-0.002181661564992912,0.0009288412519432184
1589996551.753662,-0.14,-4.634350782630424,8.601817808634813,0.4155555555555556,0.44222222222222224,-0.6322222222222222,-0.0010625033308458403,-0.0005879065687241513,0.0022099890166435276
1589996551.763662,-0.13000113614845674,-4.645001704222685,8.574994887331943,0.4155555555555556,0.44222222222222224,-0.6322222222222222,-0.0005456012931047412,0.0021815376304219034,0.0005454773585337325
1589996551.773662,-0.12,-4.635766714824625,8.637300144473874,0.4155555555555556,0.44222222222222224,-0.6322222222222222,0.0036070348003281955,0.0039015433519473033,0.0
1589996551.783662,-0.12622175794657514,-4.590225936427399,8.699774063572601,0.4231599263791474,0.44222222222222224,-0.6453570445538809,0.006811530930355501,0.002327257603175993,0.0006786885089366101
1589996551.793662,-0.14190817965557204,-4.583816359311144,8.718091820344428,0.42777777777777776,0.44222222222222224,-0.6533333333333333,0.0024398919047567786,0.001090830782496456,-0.00020815011068314737
