time,acc_x,acc_y,acc_z,mag_x,mag_y,mag_z,gyr_x,gyr_y,gyr_z
1589996587.3931966,-3.93,-0.9,8.92,0.3244444444444444,-0.3377777777777778,-0.6166666666666667,-0.004363323129985824,0.0,0.001090830782496456
1589996587.4031966,-3.93,-0.9084416133317232,8.92,0.3244444444444444,-0.3377777777777778,-0.6166666666666667,-0.0034424859623682085,0.0,0.001090830782496456
1589996587.4131966,-3.9383996445449774,-0.9132007109100457,8.848001777275114,0.3244444444444444,-0.3377777777777778,-0.6166666666666667,-0.0023562332643204138,0.002923348948834365,0.00200708986566541
1589996587.4231966,-3.93,-0.9298942322097379,8.890634606741573,0.3244444444444444,-0.3377777777777778,-0.6166666666666667,-0.00330710477591375,0.001090830782496456,0.0010792933063549952
1589996587.4331965,-3.933449329157484,-0.9234493291574837,8.95,0.3257858502279103,-0.33988570115179556,-0.6151336314855629,-0.006356852973781448,0.0012789625036937432,-0.00037626344239457464
1589996587.4431965,-3.9496667053319414,-0.9396667053319413,8.95,0.33209260762908827,-0.34979631992507526,-0.6079259087413593,-0.005472332316660293,0.0021634831608148978,-0.002145304756636884
1589996587.4531965,-3.94,-0.9318329412373,8.886890980067733,0.3322222222222222,-0.35,-0.6077777777777778,-0.004593638142541046,-0.0008605157699412336,0.0002303150125552224
1589996587.4631965,-3.94,-0.936959369058517,8.816081261882966,0.3322222222222222,-0.35,-0.6077777777777778,-0.002324150903879675,-0.0007591493995783728,-0.0015650015043013022
1589996587.4731965,-3.9368972167205256,-0.92,8.865513916397372,0.3322222222222222,-0.35,-0.6077777777777778,0.0002630138225700304,-0.000601474973836652,-0.0018432004137262903
1589996587.4831965,-3.9316778197315787,-0.92,8.9,0.33278149546608177,-0.34934751454883045,-0.6071252923266083,0.003730046700160879,-0.004271812259451522,-0.001182341653030758
1589996587.4931965,-3.945877931164902,-0.907633793494705,8.9,0.3388888888888889,-0.3422222222222222,-0.6,0.007377702388103276,-0.003722140304778825,-0.0026313095222823693
1589996587.5031965,-3.94,-0.9020563386910786,8.879906102181536,0.3388888888888889,-0.3422222222222222,-0.6,0.006769296449325429,-0.003048180593142675,-0.001957349810646219
1589996587.5131965,-3.936010572814831,-0.9160105728148309,8.869947135925845,0.3388888888888889,-0.3422222222222222,-0.6,0.008291467262160585,-0.004572262764984965,-0.0004351789978110635
1589996587.5231965,-3.93,-0.9169037733174003,8.9207113199522,0.3388888888888889,-0.3422222222222222,-0.6,0.006882730632475411,-0.008687849774968432,-0.0014673732049963466
1589996587.5331964,-3.927984991720293,-0.9279849917202927,8.964030016559416,0.33754555003575065,-0.3422222222222222,-0.6,0.005234350606633275,-0.006105378083280728,-0.002181661564992912
1589996587.5431964,-3.9219813651806854,-0.9190093174096572,8.9730652218676,0.3322222222222222,-0.3422222222222222,-0.6,0.004471389836508753,-0.004255256423462895,-0.0017493947389011937
1589996587.5531964,-3.9315982663858016,-0.9234427737827171,8.908319653277161,0.3322222222222222,-0.3422222222222222,-0.6,0.005820748698590384,-0.0021727079891650557,0.0016317693858307557
1589996587.5631964,-3.878248605083695,-0.987649721016739,8.909401115933044,0.3322222222222222,-0.3422222222222222,-0.6,0.008661318142433422,0.002759741015010253,-6.532811753822538e-05
1589996587.5731964,-3.879478648602298,-0.9569707883153261,8.910391013548276,0.3322222222222222,-0.3422222222222222,-0.6,0.010563654435902767,-0.0024978796463991622,0.0021958792188206825
1589996587.5831964,-3.9516715143263816,-0.9058357571631909,8.860410607092023,0.32921471350674886,-0.3422222222222222,-0.5912088206778472,0.007862939691084285,-0.00845473176081355,0.0002271242136090925
1589996587.5931964,-3.923327094437889,-0.8966541888757782,8.883364527810555,0.31777777777777777,-0.3422222222222222,-0.5577777777777778,0.00691199774541057,-0.0021837032387527215,0.001090830782496456
1589996587.6031964,-3.928270533045814,-0.9169178678167442,8.846541066091628,0.31777777777777777,-0.3422222222222222,-0.5577777777777778,0.003083836768395714,-0.0001886555790936537,0.0005248640452154948
1589996587.6131964,-3.9203367003367005,-0.9486531986531986,8.830673400673401,0.31777777777777777,-0.3422222222222222,-0.5577777777777778,0.002218389874167877,-0.001054102473321491,-0.0020714766374680177
1589996587.6231964,-3.9428103243670884,-0.9028103243670886,8.886861946202531,0.31777777777777777,-0.3422222222222222,-0.5577777777777778,-0.0004777131168124313,-0.0006131176656840247,-0.0004777131168124313
1589996587.6331964,-3.946017094017094,-0.9060170940170941,8.93597435897436,0.32198195631528964,-0.3437711301044634,-0.5619819563152897,0.00022189549250782614,-0.002181661564992912,0.0008735969599992985
1589996587.6431963,-3.933244500775478,-0.89,8.96,0.3388888888888889,-0.35,-0.5788888888888889,-0.002564652083544317,-0.002181661564992912,-0.0007078402639450512
1589996587.6531963,-3.938448480916856,-0.89,8.955862615778283,0.3388888888888889,-0.35,-0.5788888888888889,-0.0013164900858996945,-0.0020688319132912926,-0.002181661564992912
1589996587.6631963,-3.9193128512700337,-0.89,8.870687148729967,0.3388888888888889,-0.35,-0.5788888888888889,-0.004776904256604692,0.00033862482793879417,-0.0011657870811765292
1589996587.6731963,-3.9330727168073674,-0.8969272831926324,8.853463641596315,0.3388888888888889,-0.35,-0.5788888888888889,-0.003272492347489368,0.001090830782496456,0.0014686554697761428
1589996587.6831963,-3.9048100994052857,-0.9283966335315714,8.871603366468428,0.33550400412220627,-0.350890759149127,-0.58156116633627,-0.0030975921975509107,0.0016155312323118285,0.0025728917477355383
1589996587.6931963,-3.93,-0.9168637721789812,8.88,0.31777777777777777,-0.3555555555555556,-0.5955555555555555,-0.002181661564992912,0.0048194689763977104,-0.0012048672440994276
1589996587.7031963,-3.945771127624914,-0.8860572180937716,8.852400526656401,0.31777777777777777,-0.3555555555555556,-0.5955555555555555,-0.0017515707777945146,0.007866464685574852,-0.0017515707777945146
1589996587.7131963,-3.9505554825656253,-0.8916667104606248,8.84888903486875,0.31777777777777777,-0.3555555555555556,-0.5955555555555555,-0.0006666172191323561,0.0035754897514300365,-0.0002424036557682563
1589996587.7231963,-3.926947888973582,-0.8926302775660451,8.920421833460372,0.31777777777777777,-0.3555555555555556,-0.5955555555555555,-0.00037894855828754536,-0.0014697793407840013,0.00033293366592136524
1589996587.7331963,-3.94,-0.8661831440021696,8.948244192002893,0.3191518097782599,-0.3528074915545914,-0.5950975448887281,-0.0008660053221572943,-0.0017320106443145886,-0.00019152894113980926
1589996587.7431962,-3.9339247803984962,-0.8991128294022555,8.964811950996241,0.3244444444444444,-0.3422222222222222,-0.5933333333333334,-0.0006627036551745994,-0.0006627036551745994,0.0019470850371401693
1589996587.7531962,-3.923162434605078,-0.9247436519076178,8.915769044277146,0.3244444444444444,-0.3422222222222222,-0.5933333333333334,-0.002526629666478074,-0.0009742732097948441,-0.001090830782496456
1589996587.7631962,-3.9372719517396866,-0.9418158552190604,8.845456096520627,0.3244444444444444,-0.3422222222222222,-0.5933333333333334,-0.004065739228137269,0.00545415391248228,-0.0007932468806479011
1589996587.7731962,-3.93,-0.9138640414155987,8.875339896461004,0.3244444444444444,-0.3422222222222222,-0.5933333333333334,-0.0022684984718911276,0.00545415391248228,-0.00033466462519941343
1589996587.7831962,-3.930423449017199,-0.898729652948403,8.910423449017198,0.32529134247884245,-0.34255157145782145,-0.5936156326781328,4.619112227785592e-05,0.005500345034760135,-0.0009984485379407441
1589996587.7931962,-3.9479250913046857,-0.8779250913046857,8.92,0.34444444444444444,-0.35,-0.6,-6.182702406969586e-05,0.007121313598261811,0.000802666330854918
1589996587.8031962,-3.967480456911959,-0.897480456911959,8.92,0.34444444444444444,-0.35,-0.6,-0.002906039659721191,0.00854341991608756,9.161317194204431e-05
1589996587.8131962,-3.9384735350652953,-0.904579394804114,8.830685254542933,0.34444444444444444,-0.35,-0.6,-0.0036972771543149203,-0.0015903652642496337,0.001090830782496456
1589996587.8231962,-3.930161900798605,-0.9295142976041852,8.888866694409765,0.34444444444444444,-0.35,-0.6,-7.064254993160209e-05,-0.0043103412175371225,0.001090830782496456
1589996587.8331962,-3.930954850777995,-0.9271354476660149,8.929045149222004,0.3425347428884543,-0.34883296016022824,-0.5966049750115731,-0.002960018161091055,-0.001090830782496456,-0.00010415806213277103
1589996587.8431962,-3.9398705467222173,-0.9003883598333475,8.920129453277783,0.3247033510000094,-0.33793599845062305,-0.5649047227654489,-4.2363486090065024e-05,-0.001090830782496456,-0.0010767096204664342
1589996587.8531961,-3.94,-0.9373693054518297,8.884215832710979,0.3244444444444444,-0.3377777777777778,-0.5644444444444444,-0.00545415391248228,-0.0013777950417454303,-0.0016647593009944048
1589996587.8631961,-3.94,-0.9302501867064974,8.841501120238984,0.3244444444444444,-0.3377777777777778,-0.5644444444444444,-0.00545415391248228,-0.0021543704289110365,-0.0032179100753256173
1589996587.8731961,-3.9126391416802377,-0.9052782833604752,8.905834850081426,0.3244444444444444,-0.3377777777777778,-0.5644444444444444,-0.0018937758665756557,0.0008636570952517684,-0.0024088352522375995
1589996587.883196,-3.924658820417879,-0.92,8.94883529489553,0.3244444444444444,-0.3377777777777778,-0.5663856196185606,-0.0013449300185937197,0.003145442729440736,-0.0003811488541458954
1589996587.893196,-3.9535441722345954,-0.9232279138827023,8.92708834446919,0.3244444444444444,-0.3377777777777778,-0.5811111111111111,-0.002568270782189503,0.001477439999693047,-0.002568270782189503
1589996587.903196,-3.9349511039419296,-0.9325244480290352,8.879804415767719,0.3244444444444444,-0.3377777777777778,-0.5811111111111111,-0.0005400816587196386,0.0,-0.001916954468161682
1589996587.913196,-3.923091462800765,-0.94,8.823091462800765,0.3244444444444444,-0.3377777777777778,-0.5811111111111111,0.002439735896903379,0.0006744525572034616,-0.0036888705727823622
1589996587.923196,-3.9321028044162665,-0.9336915867512006,8.8363084132488,0.3244444444444444,-0.3377777777777778,-0.5811111111111111,0.0056835342911655765,0.0024110419436762093,-0.0033285634584093986
1589996587.933196,-3.9381879379633524,-0.9154361861099424,8.854563813890056,0.3244444444444444,-0.3377777777777778,-0.5811111111111111,0.006347319390041907,0.00307482704255254,-0.006647488952791053
1589996587.943196,-3.94,-0.9006324319563112,8.933794591737866,0.3244444444444444,-0.3422222222222222,-0.5866666666666667,0.0062690341966672915,-0.002181661564992912,-0.005316178663326558
1589996587.953196,-3.94,-0.9080213159517309,8.978127895710385,0.3244444444444444,-0.3422222222222222,-0.5866666666666667,0.0030450253524676022,-0.002181661564992912,-0.0037041742412267133
1589996587.963196,-3.94,-0.91,8.884355952137453,0.3244444444444444,-0.3422222222222222,-0.5866666666666667,0.00015838688928710814,-0.001249217671783564,-0.004046549351411607
1589996587.973196,-3.94,-0.9117342571836152,8.91,0.3244444444444444,-0.3422222222222222,-0.5866666666666667,0.001090830782496456,-0.0019924834529276006,-0.002749195901188847
1589996587.983196,-3.9397061760394316,-0.9202938239605686,8.910881471881705,0.3242485618040654,-0.34245075196933106,-0.5866666666666667,0.0009946771162495037,-0.001026728338331821,-0.005390051468317645
1589996587.993196,-3.9307952155346406,-0.9292047844653594,8.937614353396077,0.31830792146753817,-0.3493814990286128,-0.5866666666666667,-0.0019214278898212979,0.0009173416657153801,-0.0034459814642704444
1589996588.003196,-3.9377961075980474,-0.9077961075980473,8.863553291176567,0.31777777777777777,-0.35,-0.5866666666666667,-0.00036960868048842104,0.0007212221020080349,-0.002791677612817345
1589996588.013196,-3.930924936928672,-0.900924936928672,8.781099243144064,0.31777777777777777,-0.35,-0.5866666666666667,0.001878976662893948,0.002969807445390404,-0.0012926207172290986
1589996588.023196,-3.94,-0.92,8.808625053987567,0.31777777777777777,-0.35,-0.5866666666666667,0.002256653236724449,0.0016737420096104524,0.0008368710048052262
1589996588.033196,-3.94,-0.9203441730988233,8.872065038592938,0.31850436543084903,-0.34973230981202635,-0.5869725983100651,-0.000903113477144668,3.754346107035758e-05,-3.754346107035758e-05
1589996588.043196,-3.944553484198983,-0.93,8.939106968397967,0.3388888888888889,-0.3422222222222222,-0.5955555555555555,0.004114969093392722,0.0003457686727171499,-0.000842476745903354
1589996588.053196,-3.958169938370235,-0.93,8.964509815110706,0.3388888888888889,-0.3422222222222222,-0.5955555555555555,0.003472121103450686,-0.001982032809031594,0.0
1589996588.063196,-3.94,-0.9228969202643792,8.921838466226035,0.3388888888888889,-0.3422222222222222,-0.5955555555555555,0.004937603377406144,0.00025827526753806774,-0.00025827526753806774
1589996588.073196,-3.9416064607848176,-0.9016064607848175,8.956787078430366,0.3388888888888889,-0.3422222222222222,-0.5955555555555555,0.0034477300349846024,0.0016165438449821587,-0.00021464234502028472
1589996588.083196,-3.9487905725981878,-0.9087905725981879,8.942418854803623,0.3388888888888889,-0.3422222222222222,-0.5955555555555555,0.004231395066076681,0.003967538938258396,0.0037036828104401107
1589996588.093196,-3.942403592761771,-0.892403592761771,8.927596407238228,0.3244444444444444,-0.3422222222222222,-0.5866666666666667,0.000870705078430224,0.002748109752864293,0.0016572789703678367
1589996588.103196,-3.9485081774278643,-0.9014918225721359,8.897622661417962,0.3244444444444444,-0.3422222222222222,-0.5866666666666667,-0.0029470271507475985,0.0009280981841255712,0.00016273259837088478
1589996588.113196,-3.940004182350481,-0.910004182350481,8.770016729401924,0.3244444444444444,-0.3422222222222222,-0.5866666666666667,-0.0010926556771555884,0.0,0.0010903745588316729
1589996588.123196,-3.948005503072549,-0.92,8.817977987709805,0.3244444444444444,-0.3422222222222222,-0.5866666666666667,-0.005236588048076447,-0.00021756586440583263,0.0
1589996588.1331959,-3.940311657342016,-0.92,8.848753370631936,0.3244444444444444,-0.3422222222222222,-0.5866666666666667,-0.004397319672212028,-0.0010568342402702525,0.0
1589996588.1431959,-3.94,-0.9113887105747422,8.92750160482732,0.31870358482760586,-0.3383949824776632,-0.5981483859003438,0.00033340666104291015,0.0026665530503265315,-0.003757383832822987
1589996588.1531959,-3.94,-0.9037257339231529,8.948822798230543,0.31777777777777777,-0.3377777777777778,-0.6,0.0013688325148396283,-0.00020320726253832087,0.0027912833526078746
1589996588.1631958,-3.94,-0.9190597009468797,8.902820897159362,0.31777777777777777,-0.3377777777777778,-0.6,-0.0019765201346137293,-0.0010395454249016603,0.0053002978396978935
1589996588.1731958,-3.94,-0.9116702282246346,8.948329771775365,0.31777777777777777,-0.3377777777777778,-0.6,0.000726443510251294,-0.0047253793679919555,0.0009086371463738749
1589996588.1831958,-3.94,-0.918840584665356,8.941159415334644,0.31777777777777777,-0.3377777777777778,-0.6,-0.0008378855951508377,-0.0015967211571876923,0.00012647259367280913
1589996588.1931958,-3.94,-0.93,8.92,0.31222222222222223,-0.3377777777777778,-0.6077777777777778,-0.0014363227223154421,-0.003272492347489368,-0.0016634236552644328
1589996588.2031958,-3.9383130365342383,-0.9266260730684768,8.899756438410861,0.31222222222222223,-0.3377777777777778,-0.6077777777777778,-0.0034565115152293373,-0.0034565115152293373,0.0014588691179763943
1589996588.2131958,-3.9342036820572766,-0.9078981589713618,8.81261104617183,0.31222222222222223,-0.3377777777777778,-0.6077777777777778,-0.003675497261800047,-0.0034462219724047884,0.0025846664793035914
1589996588.2231958,-3.948493966363665,-0.9015060336363349,8.861506033636335,0.31222222222222223,-0.3377777777777778,-0.6077777777777778,-0.000762265212498632,-0.000492848354996736,0.00032856556999782396
1589996588.2331958,-3.941851740411111,-0.9081482595888892,8.868148259588889,0.31222222222222223,-0.3377777777777778,-0.6077777777777778,0.0006868436941700042,-0.0026665117149996904,0.0017776744766664601
1589996588.2431958,-3.94,-0.91,8.92783906652523,0.3244444444444444,-0.3555555555555556,-0.6077777777777778,0.002181661564992912,-0.002181661564992912,0.00011786063766024748
1589996588.2531958,-3.9413755526496046,-0.9127511052992092,8.898995578803163,0.3244444444444444,-0.3555555555555556,-0.6077777777777778,0.0018815625303662637,-0.00248176059961956,0.0013909298171231042
1589996588.2631958,-3.949882833462525,-0.9301171665374754,8.830468666149901,0.3244444444444444,-0.3555555555555556,-0.6077777777777778,1.2780886575669525e-05,-0.004376104016561493,0.00322136880118669
1589996588.2731957,-3.943311866832373,-0.9350321997514405,8.881591533913305,0.3244444444444444,-0.3555555555555556,-0.6077777777777778,0.0009101964680823816,-0.00545415391248228,-0.0009101964680823816
1589996588.2831957,-3.959107822091666,-0.9113382668625014,8.93687737732083,0.3244444444444444,-0.3555555555555556,-0.6077777777777778,4.8660756293716304e-05,-0.00545415391248228,-4.8660756293716304e-05
1589996588.2931957,-3.9305377798636227,-0.9089244402727549,8.92784888054551,0.3322222222222222,-0.33,-0.5866666666666667,-0.002298986930882159,-0.004245997764096577,-0.0009148427336625856
1589996588.3031957,-3.938766171075497,-0.8937014867735085,8.878895539679476,0.3322222222222222,-0.33,-0.5866666666666667,-0.004363323129985824,-0.002181661564992912,0.001912481850756482
1589996588.3131957,-3.932017281328442,-0.9139481560146747,8.818155531955977,0.3322222222222222,-0.33,-0.5866666666666667,-0.004363323129985824,-0.002181661564992912,0.0004401025140039281
1589996588.3231957,-3.9405963812038647,-0.9188072375922703,8.910596381203865,0.3322222222222222,-0.33,-0.5866666666666667,-0.004168157837402402,-0.002181661564992912,0.004103102739874595
1589996588.3331957,-3.946889215627438,-0.9062215687451239,8.916889215627439,0.3322222222222222,-0.33,-0.5866666666666667,-0.00210883258788631,-0.002181661564992912,0.0013573357405198055
1589996588.3431957,-3.942122641509434,-0.9157547169811321,8.951509433962265,0.3260953878406708,-0.3457547169811321,-0.5805398322851153,0.0006277422427573944,-0.00046308853973906156,-0.0008592865126269252
1589996588.3531957,-3.94,-0.9078448014549864,8.952758411639891,0.3244444444444444,-0.35,-0.5788888888888889,-0.002064113719228289,0.00038554370790872016,-0.0009732829367318333
1589996588.3631957,-3.938807155983137,-0.8923856880337261,8.81715706410118,0.3244444444444444,-0.35,-0.5788888888888889,-0.001090830782496456,-0.005714392106944465,0.00026023819446218554
1589996588.3731956,-3.9312506756026377,-0.907498648794725,8.862495946384174,0.3244444444444444,-0.35,-0.5788888888888889,-0.001090830782496456,-0.007362960388220322,0.0019088064757380424
1589996588.3831956,-3.93682200912174,-0.9031779908782599,8.89728803648696,0.3244444444444444,-0.35,-0.5788888888888889,-0.004811659556729338,-0.005403318212935462,0.002181661564992912
1589996588.3931956,-3.94,-0.935089304044344,8.936316978033258,0.31859622710372043,-0.3431770797691553,-0.5857118091197335,-0.00463116004558134,-0.004363323129985824,0.0012247492402942145
1589996588.4031956,-3.93,-0.9312559656570017,8.88246420605799,0.31777777777777777,-0.3422222222222222,-0.5866666666666667,-0.006407980094937151,-0.006407980094937151,0.0035465015475725364
1589996588.4131956,-3.93,-0.9386952383218713,8.835219046712515,0.31777777777777777,-0.3422222222222222,-0.5866666666666667,-0.005027171651784942,-0.005311826492249834,0.005169499072017388
1589996588.4231956,-3.9310136960600377,-0.927972607879925,8.876082176360224,0.31777777777777777,-0.3422222222222222,-0.5866666666666667,-0.001960507391716051,-0.004584477303262685,0.002719606914297215
1589996588.4331956,-3.9388829268292684,-0.9122341463414635,8.923297560975609,0.31777777777777777,-0.3422222222222222,-0.5866666666666667,-0.00024370756018701322,-0.006301277134791722,-0.0015723926645253797
1589996588.4431956,-3.94,-0.9274369534145692,8.956155430121854,0.32359009558263413,-0.35384685783193504,-0.5866666666666667,0.001902076553756872,-0.001789793310586556,-0.001230623288114476
1589996588.4531956,-3.9225295519542422,-0.9125295519542421,8.96,0.3244444444444444,-0.3555555555555556,-0.5866666666666667,0.0002759313137611387,-0.0029965610337282294,0.0017677645943512037
1589996588.4631956,-3.92,-0.930964406973639,8.890118643421204,0.3244444444444444,-0.3555555555555556,-0.5866666666666667,0.0,-0.003272492347489368,-0.00010520048136997053
1589996588.4731956,-3.9365472951597593,-0.94,8.893094590319519,0.3244444444444444,-0.3555555555555556,-0.5866666666666667,0.001805029892732035,-0.0023699774011233504,-0.00018831583613043842
1589996588.4831955,-3.927626621449767,-0.9338133107248834,8.887626621449767,0.3244444444444444,-0.3555555555555556,-0.5866666666666667,0.0015067984546891272,-0.0015067984546891272,0.0
1589996588.4931955,-3.9272492174690714,-0.893753912654643,8.916246087345357,0.3389428793825872,-0.3458899322634604,-0.5914994783127143,-0.001281470086785783,0.001281470086785783,0.0007907669564274129
1589996588.5031955,-3.939994794528471,-0.8899947945284711,8.890020821886116,0.34444444444444444,-0.3422222222222222,-0.5933333333333334,-0.002181661564992912,-0.001089127295922096,0.002181093736134792
1589996588.5131955,-3.9313009586954575,-0.91,8.802601917390916,0.34444444444444444,-0.3422222222222222,-0.5933333333333334,-0.0032015360579013,-0.002323574144169048,0.003130579768313232
1589996588.5231955,-3.9463329450766063,-0.91,8.832665890153212,0.34444444444444444,-0.3422222222222222,-0.5933333333333334,-0.002381668384570078,-0.003963309490831493,0.0014908444216507875
1589996588.5331955,-3.941911490881265,-0.9261770182374698,8.904708072949878,0.34444444444444444,-0.3422222222222222,-0.5933333333333334,-0.0012993420918709859,-0.004363323129985824,0.002855469728740309
1589996588.5431955,-3.925746027805362,-0.9442539721946375,8.934253972194638,0.3357336836588326,-0.3477654336312479,-0.5980846573982125,-0.001090830782496456,-0.0035858895478478644,0.0001627580189375302
1589996588.5531955,-3.9406546507480225,-0.91,8.945417444763843,0.3322222222222222,-0.35,-0.6,0.001090830782496456,-0.0020388389274474767,0.0008765968261783035
1589996588.5631955,-3.9494552970058123,-0.91,8.883812920959317,0.3322222222222222,-0.35,-0.6,0.001090830782496456,-0.00011883575867562479,-0.0020034079269794754
1589996588.5731955,-3.94,-0.9094462380817522,8.9,0.3322222222222222,-0.35,-0.6,-0.0022420676196528216,-0.002060849455673093,-0.0009096126185167275
1589996588.5831954,-3.94,-0.9015272349664873,8.9,0.3322222222222222,-0.35,-0.6,-0.003105896856134439,-0.0003331909827098587,0.0016818750909281244
1589996588.5931954,-3.93,-0.9217869138788124,8.912382551838416,0.3244444444444444,-0.35,-0.6166666666666667,-0.003402440391801275,0.0018567914542131443,6.497402215595354e-05
1589996588.6031954,-3.93,-0.949963052532581,8.949950736710107,0.3244444444444444,-0.35,-0.6166666666666667,-0.005451467016829214,-0.0032657751083567037,0.0010894873346699232
1589996588.6131954,-3.937464005702067,-0.935071988595866,8.838039914468995,0.3244444444444444,-0.35,-0.6166666666666667,-0.006268350630536655,-0.001644098911380617,-0.0005375626536122948
1589996588.6231954,-3.9301081602056116,-0.9201081602056115,8.85935103876633,0.3244444444444444,-0.35,-0.6166666666666667,-0.004386920026330253,-0.00432792778546918,-0.001090830782496456
1589996588.6331954,-3.9363106207565473,-0.92,8.904174345295829,0.3244444444444444,-0.35,-0.6166666666666667,-0.003674941192195565,-0.003674941192195565,0.0009743150308743201
1589996588.6431954,-3.9338355108760377,-0.9384934673718869,8.948493467371888,0.32033478502846957,-0.35,-0.5981731992947797,-0.003272492347489368,-0.0005827265495762885,0.001509220115514642
1589996588.6531954,-3.9391198799435028,-0.9408801200564971,8.941760240112995,0.31777777777777777,-0.35,-0.5866666666666667,0.0017016305400330929,9.600620499196377e-05,9.600620499196377e-05
1589996588.6631954,-3.94,-0.94,8.84572631782758,0.31777777777777777,-0.35,-0.5866666666666667,0.001153295220063294,0.0,0.0
1589996588.6731954,-3.9185888951003554,-0.911451860133807,8.825725930066904,0.31777777777777777,-0.35,-0.5866666666666667,-0.0004662287049564226,0.0015570594874528786,0.0
1589996588.6831954,-3.942334170620523,-0.8919164573448694,8.892751883896176,0.31777777777777777,-0.35,-0.5866666666666667,-0.007263274794384254,0.0012998838490089408,0.002645333147951914
1589996588.6931953,-3.923495145631068,-0.863495145631068,8.896747572815535,0.3221952535059331,-0.34190129449838186,-0.591084142394822,-0.018845955120897505,0.005427677437178968,0.0025496845717089493
1589996588.7031953,-3.937534707451951,-0.9142476507212189,8.908356471634635,0.3244444444444444,-0.3377777777777778,-0.5933333333333334,-0.02399827721492203,0.009638195909183371,0.002181661564992912
1589996588.7131953,-3.94,-0.92,8.852528746692325,0.3244444444444444,-0.3377777777777778,-0.5933333333333334,-0.030267418436588218,0.011907190783023498,0.002181661564992912
1589996588.7231953,-3.919937839641529,-0.8701864810754123,8.94006216035847,0.3244444444444444,-0.3377777777777778,-0.5933333333333334,-0.029418527911168845,0.002174880921745818,-1.3561286494187993e-05
1589996588.7331953,-3.9119403184288304,-0.8941790447135094,8.94805968157117,0.3244444444444444,-0.3377777777777778,-0.5933333333333334,-0.025056556749928603,0.0013024866894977703,-0.001758349750990283
1589996588.7431953,-3.8831644749809926,-0.8642192999746572,8.994725875031678,0.3244444444444444,-0.341753411113927,-0.5873698833291096,-0.016192139413538895,-0.0008607036678493283,-0.005108963240511587
1589996588.7531953,-3.870111065085694,-0.7512217159426293,8.950555325428468,0.3244444444444444,-0.3422222222222222,-0.5866666666666667,-0.012035484571761563,0.0032240310617553053,-0.01300516213992286
1589996588.7631953,-3.8785142950900364,-0.715942819639854,8.890399934369745,0.3244444444444444,-0.3422222222222222,-0.5866666666666667,-0.011999138607461015,-0.0013713352402457604,-0.01959132801278665
1589996588.7731953,-3.8866954172696575,-0.7970404245055475,8.886695417269658,0.3244444444444444,-0.3422222222222222,-0.5866666666666667,-0.009808068429640783,-0.002181661564992912,-0.02437756849713305
1589996588.7831953,-3.9427114714055613,-0.954208188045383,8.88560737738287,0.3244444444444444,-0.3422222222222222,-0.5866666666666667,-0.005851681479978245,-0.0026608223616584794,-0.03001322515323948
1589996588.7931952,-4.021583521444695,-1.1386117381489842,8.914750564334087,0.3218703285678455,-0.3375030097817908,-0.5810894156007023,-0.0034452277411510523,-0.002851303622103321,-0.042487982096835436
1589996588.8031952,-4.048284356512462,-1.1834312869750752,8.961715643487539,0.31777777777777777,-0.33,-0.5722222222222222,-0.011779935680360572,-0.0012779784552960128,-0.0464083911375507
1589996588.8131952,-4.05,-1.0879444111564258,8.924594004290933,0.31777777777777777,-0.33,-0.5722222222222222,0.007765883612411902,0.001998925217854563,-0.030047721080687352
1589996588.8231952,-3.922928124485427,-0.9616021735550799,8.943149184916846,0.31777777777777777,-0.33,-0.5722222222222222,0.029018514700133474,0.004477830724888094,-0.014355570195732217
1589996588.8331952,-3.8449857761286332,-0.9149857761286333,9.019971552257267,0.31777777777777777,-0.33,-0.5722222222222222,0.04949062831700178,0.00545415391248228,0.002312972765866711
1589996588.8431952,-3.7020861890902266,-0.9495502769692986,9.008057459393484,0.3322222222222222,-0.3422222222222222,-0.5866666666666667,0.062177354602297986,-0.00545415391248228,0.03926990816987242
1589996588.8531952,-3.48,-0.82,8.86,0.3322222222222222,-0.3422222222222222,-0.5866666666666667,0.062177354602297986,-0.00545415391248228,0.03926990816987242
1589996588.8631952,-3.4507004071364733,-0.7960276058389328,8.817382410380324,0.3322222222222222,-0.3422222222222222,-0.5866666666666667,0.05840015758837138,-0.004291939446658708,0.0401415690192401
1589996588.8731952,-3.091357126085936,-0.8825901452386542,8.753074833126488,0.3322222222222222,-0.3422222222222222,-0.5866666666666667,0.025561985501627527,-0.0032619180981303137,0.04760827092050745
1589996588.8831952,-2.7896422779084906,-0.8287982273796742,8.707110126322041,0.3322222222222222,-0.3422222222222222,-0.5866666666666667,0.020541641607669574,0.02108004261087676,0.05256353153304283
1589996588.8931952,-1.5994317398659232,-1.3075985213959025,9.207598521395903,0.3322222222222222,-0.349549979463832,-0.5950412463713635,0.012630290933527978,0.08706761715383754,-0.05651485549587796
1589996588.9031951,-1.5218514002357437,-1.0873934073080518,8.620706417916514,0.3322222222222222,-0.35,-0.5955555555555555,0.06088722762147929,0.04076199158747812,-0.16104436341283104
1589996588.9131951,-1.7651983340514146,-0.9734157690650581,8.762921154674709,0.3322222222222222,-0.35,-0.5955555555555555,0.005127358994733086,0.038711004263562734,-0.2830464152602231
1589996588.9231951,-1.937144806847097,-0.9884876243349525,9.085045801526716,0.3322222222222222,-0.35,-0.5955555555555555,8.248729650661376e-05,0.0029695426742380945,-0.37881272761465673
1589996588.933195,-2.1131257155482355,-0.9744642175668347,9.164375238516078,0.3322222222222222,-0.35,-0.5955555555555555,0.011862836795785068,0.03304647393111554,-0.4437735900118443
1589996588.943195,-2.16,-0.9526537884471118,9.070140660165041,0.32065808118696343,-0.3384358589647412,-0.598125364674502,0.02914760407078021,0.046326756821679006,-0.5051121398145916
1589996588.953195,-2.1921070178913316,-0.9464214035782663,8.983578596421735,0.31222222222222223,-0.33,-0.6,0.03226524347986662,0.053290184026343994,-0.5910150274147967
1589996588.963195,-2.235613637767392,-0.9948238660929362,8.826318173395649,0.31222222222222223,-0.33,-0.6,0.027663096731698228,0.05563236990731925,-0.6702764717783669
1589996588.973195,-2.243756154807766,-1.0075123096155318,8.715024619231063,0.31222222222222223,-0.33,-0.6,0.0272707695624114,0.059718957029418124,-0.7451274527018689
1589996588.983195,-2.233685187333256,-1.012629625333488,8.712629625333488,0.31222222222222223,-0.33,-0.6,0.024515412745378246,0.06424387221507286,-0.8202400906795508
1589996588.993195,-2.2975821824547755,-1.0453433184205407,8.812925500875316,0.334749616373814,-0.33,-0.6,0.021985937370301065,0.06637135601191187,-0.9074736070378395
1589996589.003195,-2.362273138378052,-1.0574675911968647,8.867337955984324,0.3388888888888889,-0.33,-0.6,0.030777081833432564,0.07142820474146752,-0.9722423159630366
1589996589.013195,-2.3899059804533866,-1.0649529902266934,8.86514102931992,0.3388888888888889,-0.33,-0.6,0.03651719135973079,0.07524681210913507,-1.0212707334734654
1589996589.023195,-2.433243030087937,-1.088996017193107,8.897490042982767,0.3388888888888889,-0.33,-0.6,0.0387518721623956,0.07537684152734107,-1.0837338655576896
1589996589.033195,-2.4750671740862025,-1.1606717408620233,9.010806089034428,0.3388888888888889,-0.33,-0.6,0.04204827801882445,0.08027132074280974,-1.1473969282684058
1589996589.043195,-2.48,-1.197457672429157,8.994746034574941,0.3514312164597319,-0.3258192241430523,-0.5972128160953681,0.05265567136406591,0.09410724109893123,-1.2101194760272533
1589996589.053195,-2.4976959836958432,-1.2253919673916862,8.932304016304156,0.3588888888888889,-0.3233333333333333,-0.5955555555555555,0.050932203567221376,0.09624443805048292,-1.2632727730173703
1589996589.063195,-2.51,-1.256139904925393,8.827901426119107,0.3588888888888889,-0.3233333333333333,-0.5955555555555555,0.042887165270815535,0.0969115572654577,-1.3182379595755782
1589996589.073195,-2.4987584079675944,-1.3105871641458249,8.725033631870378,0.3588888888888889,-0.3233333333333333,-0.5955555555555555,0.042200140147351094,0.10001417161966325,-1.363587853121242
1589996589.083195,-2.494538493837528,-1.3590769876750564,8.717230963025168,0.3588888888888889,-0.3233333333333333,-0.5955555555555555,0.043138158421443626,0.1014472627721704,-1.4039664930989197
1589996589.093195,-2.521080213448987,-1.3826481280693923,8.775296256138784,0.3724739153337916,-0.31490124795373853,-0.5974293523065766,0.04254240051736178,0.10282695951607544,-1.4455446859972179
1589996589.103195,-2.5645030179766435,-1.4338403752788347,8.853509053929931,0.3911111111111111,-0.3033333333333333,-0.6,0.046761157436834365,0.10735647819433013,-1.4830238824583837
1589996589.113195,-2.6221784808598,-1.4963615505373746,8.826187658495352,0.3911111111111111,-0.3033333333333333,-0.6,0.05644512512142421,0.11247438829618239,-1.515479969814423
1589996589.123195,-2.664601286654698,-1.543006433273489,8.829019299820466,0.3911111111111111,-0.3033333333333333,-0.6,0.059078833770987736,0.11202761960111063,-1.544991340696428
1589996589.133195,-2.6646674375213517,-1.6019953748718891,8.984655874701076,0.3911111111111111,-0.3033333333333333,-0.6,0.05730489301994521,0.11373661689068165,-1.578938758108681
1589996589.143195,-2.6293306699641716,-1.63,8.950324677383557,0.41666888614096836,-0.28885059414974756,-0.5787018541417857,0.06283228886455591,0.12199160566982038,-1.6112676741001752
1589996589.153195,-2.6398568503243833,-1.6630947505406388,8.939856850324382,0.4244444444444445,-0.28444444444444444,-0.5722222222222222,0.0607489389044139,0.12254186296952413,-1.6303295132586801
1589996589.163195,-2.6567220468516366,-1.68,8.768504735005815,0.4244444444444445,-0.28444444444444444,-0.5722222222222222,0.058171600692093775,0.12363957076503274,-1.652002235781477
1589996589.173195,-2.6454191892284595,-1.6872904053857702,8.68,0.4244444444444445,-0.28444444444444444,-0.5722222222222222,0.05145195258297118,0.11719737045408736,-1.672673037816959
1589996589.1831949,-2.663946118508137,-1.7259191777622052,8.757824885151445,0.4244444444444445,-0.28444444444444444,-0.5722222222222222,0.04647526889334215,0.11519026124187746,-1.6842280342770453
1589996589.1931949,-2.686439874373377,-1.782199371866884,8.81,0.44948840034090987,-0.2715646956976908,-0.5858175125660178,0.0517488752842442,0.11773550690519116,-1.6942259018660253
1589996589.2031949,-2.7000107896353103,-1.8350377637235862,8.835026974088276,0.4633333333333333,-0.2644444444444444,-0.5933333333333334,0.05454036215818995,0.11780854754298438,-1.69787870143905
1589996589.2131948,-2.747609359508229,-1.9170116993852866,8.850597660122942,0.4633333333333333,-0.2644444444444444,-0.5933333333333334,0.05601479878367335,0.12082143843327602,-1.6973978921704431
1589996589.2231948,-2.770730802939392,-1.97,8.859269197060609,0.4633333333333333,-0.2644444444444444,-0.5933333333333334,0.06415972058173401,0.12544553998709246,-1.6915124942877562
1589996589.2331948,-2.7535093274807965,-1.9805279824423891,8.887018654961594,0.4633333333333333,-0.2644444444444444,-0.5933333333333334,0.0690475535913905,0.12467992349870977,-1.6825963072976076
1589996589.2431948,-2.738413179129657,-2.021586820870343,8.912952092522206,0.47484630446418286,-0.24525615922636185,-0.5962115761160457,0.06621865439268386,0.12326387842209953,-1.6693937140521387
1589996589.2531948,-2.699465556852849,-2.076336107867877,8.845724454822793,0.49,-0.22,-0.6,0.06206075719501672,0.1203910547067568,-1.6515676811099371
1589996589.2631948,-2.7109198157994685,-2.1278930877326245,8.756053456133687,0.49,-0.22,-0.6,0.051628367389959316,0.11248506273403357,-1.6275778390808522
1589996589.2731948,-2.6985741547193816,-2.154283896853746,8.728574154719382,0.49,-0.22,-0.6,0.04955468586805106,0.10705764615572803,-1.6014978998121463
1589996589.2831948,-2.695255288110868,-2.18627644055434,8.735765864332604,0.49,-0.22,-0.6,0.049031689986392485,0.10638384890637846,-1.5776524091090995
1589996589.2931948,-2.634688756243148,-2.2218747715921547,8.779686928980388,0.5091315764540274,-0.19559074728279258,-0.622430124118515,0.04864422274923592,0.10625374836526083,-1.5508548132489761
1589996589.3031948,-2.602354169890144,-2.2670625096704318,8.818531254835216,0.5222222222222223,-0.17888888888888888,-0.6377777777777778,0.04841356977192252,0.10311532414048426,-1.5296322330820467
1589996589.3131948,-2.6340414114586155,-2.3260621171879237,8.805958588541383,0.5222222222222223,-0.17888888888888888,-0.6377777777777778,0.050619065597216156,0.10669228510691459,-1.5066295023701664
1589996589.3231947,-2.6183053577319386,-2.376412201890051,8.80584732113403,0.5222222222222223,-0.17888888888888888,-0.6377777777777778,0.05696967641665848,0.11075013388924561,-1.4902813601569982
1589996589.3331947,-2.59,-2.420971501974404,8.849360102764166,0.5222222222222223,-0.17888888888888888,-0.6377777777777778,0.06062899662162423,0.1117222670128158,-1.4805029501940807
1589996589.3431947,-2.565782641717876,-2.456054339570531,8.877891320858938,0.5350036057600098,-0.156689643796942,-0.6364323689843264,0.06065611903442723,0.1103742926057685,-1.4741427919380863
1589996589.3531947,-2.5208093112244896,-2.48919068877551,8.850539540816326,0.5433333333333333,-0.14222222222222222,-0.6355555555555555,0.057371611933964825,0.10696027145773891,-1.475304492246642
1589996589.3631947,-2.455812429290368,-2.52,8.773020715483947,0.5433333333333333,-0.14222222222222222,-0.6355555555555555,0.0505501529916387,0.10471975511965977,-1.479885434850889
1589996589.3731947,-2.4,-2.542802640333368,8.702802640333369,0.5433333333333333,-0.14222222222222222,-0.6355555555555555,0.04581489286485115,0.10372480223974644,-1.4876055536174164
1589996589.3831947,-2.406370852004803,-2.576370852004803,8.739556278007205,0.5433333333333333,-0.14222222222222222,-0.6355555555555555,0.04616236893872959,0.10462294999793748,-1.4935980121898043
1589996589.3931947,-2.383586260683066,-2.626413739316934,8.778206869658467,0.5628888600035384,-0.11390042497571826,-0.6544367537198915,0.04822976457243803,0.10775903732455518,-1.5054216997755825
1589996589.4031947,-2.3382996049538307,-2.678933860061559,8.81170039504617,0.5755555555555556,-0.09555555555555556,-0.6666666666666666,0.04908738521234052,0.10611236805436283,-1.5168112406477037
1589996589.4131947,-2.304895769088442,-2.715104230911558,8.750963364993217,0.5755555555555556,-0.09555555555555556,-0.6666666666666666,0.05182583199726315,0.1099182560795402,-1.5250041735874085
1589996589.4231946,-2.302438470572883,-2.754876941145765,8.747315411718649,0.5755555555555556,-0.09555555555555556,-0.6666666666666666,0.05616436165994169,0.1130339839265388,-1.5370732995597847
1589996589.4331946,-2.2810369198312235,-2.8037902601969056,8.78448154008439,0.5755555555555556,-0.09555555555555556,-0.6666666666666666,0.05992028609924643,0.11607921966329922,-1.5477003630173243
1589996589.4431946,-2.225087551735116,-2.8449824896529767,8.81494746895893,0.5727875057483462,-0.07673281686653224,-0.6816141356255969,0.05945982805882941,0.1194440606008074,-1.5587780873618904
1589996589.4531946,-2.2,-2.8904629991494057,8.836743833191568,0.57,-0.057777777777777775,-0.6966666666666667,0.05525192452233905,0.11999138607461016,-1.5701364467698244
1589996589.4631946,-2.157422158966499,-2.91,8.736596671775782,0.57,-0.057777777777777775,-0.6966666666666667,0.05188752657330372,0.11866437979885062,-1.582930535428086
1589996589.4731946,-2.1022412864507194,-2.91,8.679252904516426,0.57,-0.057777777777777775,-0.6966666666666667,0.047150210072631295,0.11780972450961726,-1.592873123673243
1589996589.4831946,-2.0813492359299293,-2.916809541557958,8.703619083115914,0.57,-0.057777777777777775,-0.6966666666666667,0.043385629381654606,0.11880013218243178,-1.5984618770840333
1589996589.4931946,-2.1153337438623216,-2.937200246317393,8.744400492634785,0.57,-0.057777777777777775,-0.6966666666666667,0.042644202434041635,0.12176583997288366,-1.602910438769711
1589996589.5031946,-2.0547610134076266,-2.9677788176911024,8.725079662197459,0.5822222222222222,-0.012222222222222223,-0.7111111111111111,0.048273607024327585,0.12326387842209953,-1.6010799157057516
1589996589.5131946,-2.0047273602420406,-3.014727360242041,8.724182080726123,0.5822222222222222,-0.012222222222222223,-0.7111111111111111,0.050237696762939814,0.12441418997269883,-1.602370938719191
1589996589.5231946,-1.99,-3.0200022739085237,8.696668561590437,0.5822222222222222,-0.012222222222222223,-0.7111111111111111,0.0530870567406706,0.12726354995042963,-1.5977033207331812
1589996589.5331945,-1.9892952507732664,-3.06,8.731409498453468,0.5822222222222222,-0.012222222222222223,-0.7111111111111111,0.05224456323726066,0.12661324698463505,-1.5942564705044955
1589996589.5431945,-1.948424819811956,-3.081575180188044,8.765684963962391,0.576948289287367,0.0021612312364737724,-0.7226178738780679,0.04720459555737843,0.13013012457580336,-1.5762280911586848
1589996589.5531945,-1.92,-3.1321960761584604,8.754450980960385,0.57,0.021111111111111112,-0.7377777777777778,0.040486933535604896,0.13501704507260673,-1.5640182045620008
1589996589.5631945,-1.8923997591312112,-3.1610400963475156,8.694799518262423,0.57,0.021111111111111112,-0.7377777777777778,0.033475383523600515,0.13262752781951478,-1.547469912007982
1589996589.5731945,-1.853734227759144,-3.1754219240802852,8.671687696321142,0.57,0.021111111111111112,-0.7377777777777778,0.02936038157247395,0.12812659216586839,-1.528516311065658
1589996589.5831945,-1.8307710955710956,-3.193843356643357,8.680771095571096,0.57,0.021111111111111112,-0.7377777777777778,0.02987167630087288,0.12662048424810868,-1.5099634656297847
1589996589.5931945,-1.8064510441156134,-3.214516318628129,8.674516318628129,0.5845525822461931,0.012078473854853333,-0.7437995359486163,0.028185515124209613,0.1274161557403425,-1.487963108507255
1589996589.6031945,-1.79,-3.2150672340425532,8.69479829787234,0.6022222222222222,0.0011111111111111113,-0.7511111111111111,0.022922114625075315,0.1292707818221549,-1.4629654294468946
1589996589.6131945,-1.7644791959121793,-3.239774271435791,8.667465326520299,0.6022222222222222,0.0011111111111111113,-0.7511111111111111,0.019960690403725365,0.13150192020388743,-1.4396693892430639
1589996589.6231945,-1.7248115486832567,-3.254057743416284,8.646319159217201,0.6022222222222222,0.0011111111111111113,-0.7511111111111111,0.01915120924287961,0.13299912806564543,-1.411041668156881
1589996589.6331944,-1.7021418727199027,-3.2389290636400485,8.666606404539927,0.6022222222222222,0.0011111111111111113,-0.7511111111111111,0.018290760498073932,0.12943867927795946,-1.3862699413136628
1589996589.6431944,-1.6674383263694121,-3.279310571804705,8.71280836815294,0.6087356826232677,0.006228829997646895,-0.769255750799738,0.009790566844582696,0.12123262675665637,-1.358385144007187
1589996589.6531944,-1.659989840214279,-3.3599593608571166,8.770030479357164,0.6177777777777778,0.013333333333333334,-0.7944444444444444,0.004361106608584242,0.10745181924905448,-1.3270095001656985
1589996589.6631944,-1.6648143694189288,-3.4311137834864263,8.68814369418929,0.6177777777777778,0.013333333333333334,-0.7944444444444444,0.009938971973671109,0.09970977082242322,-1.2980873193716174
1589996589.6731944,-1.6635086628030462,-3.4529826743939074,8.647017325606093,0.6177777777777778,0.013333333333333334,-0.7944444444444444,0.015386383824535456,0.0947875252076066,-1.2716602873472462
1589996589.6831944,-1.6698719543647782,-3.4402560912704434,8.659743908729556,0.6177777777777778,0.013333333333333334,-0.7944444444444444,0.019551148412657756,0.0906227606194843,-1.2494482095439272
1589996589.6931944,-1.5100294827124094,-3.3850073706781023,8.685036853390512,0.5878220018463921,-0.03659295988564281,-0.7728097173828881,0.024003101312459203,0.0834461428122103,-1.190671547696361
1589996589.7031944,-1.4843489000062797,-3.402604399974881,8.744766499905804,0.5577777777777778,-0.08666666666666667,-0.7511111111111111,0.021342224250244225,0.084468361651912,-1.1488860512202925
1589996589.7131944,-1.465633664206329,-3.4235915839484177,8.745351488928481,0.5577777777777778,-0.08666666666666667,-0.7511111111111111,0.02299195874858539,0.0839939702522271,-1.1170028919487898
1589996589.7231944,-1.4367713247235325,-3.436457350552935,8.63807168819117,0.5577777777777778,-0.08666666666666667,-0.7511111111111111,0.025089107997418484,0.08293738873875033,-1.083224365714186
1589996589.7331944,-1.42,-3.47,8.721184124918672,0.5577777777777778,-0.08666666666666667,-0.7511111111111111,0.025089107997418484,0.07789823466936305,-1.0318584973891183
1589996589.7431943,-1.4037327750523387,-3.4455991625785085,8.763732775052338,0.5419624201897739,-0.04509486957819927,-0.6986944973908695,0.02597634748335364,0.07321637942413389,-0.9868739238106878
1589996589.7531943,-1.3757952484750793,-3.4562522667741287,8.697952484750793,0.5188888888888888,0.015555555555555557,-0.6222222222222222,0.026353435083184898,0.06544984694978735,-0.9380267357285187
1589996589.7631943,-1.37,-3.513985116007588,8.646014883992413,0.5188888888888888,0.015555555555555557,-0.6222222222222222,0.025089107997418484,0.062497297674356626,-0.8977212621604043
1589996589.7731943,-1.3563530810482647,-3.5,8.678195891935648,0.5188888888888888,0.015555555555555557,-0.6222222222222222,0.0231042440935802,0.0546399379554001,-0.84686561707034
1589996589.7831943,-1.3310057553639552,-3.5044971223180226,8.677514388409888,0.5188888888888888,0.015555555555555557,-0.6222222222222222,0.022197464704577872,0.05001678872232084,-0.8033545721194401
1589996589.7931943,-1.154832334616453,-3.2942708043969997,8.558989245604986,0.520761538156276,0.04476888412679516,-0.6117353863248541,0.022895195743451942,0.050594912574554854,-0.7630300935890914
1589996589.8031943,-0.94220060687795,-2.898769386378962,8.543985502360082,0.5244444444444445,0.10222222222222224,-0.5911111111111111,0.016959880996748,0.11052156996899098,-0.707484195588578
1589996589.8131943,-1.1044022617124394,-3.1486510500807756,8.240650242326332,0.5244444444444445,0.10222222222222224,-0.5911111111111111,0.09017240760833789,0.0011926005364369385,-0.6637802235066116
1589996589.8231943,-1.0576178620736483,-3.2209542131589073,8.38046013172487,0.5244444444444445,0.10222222222222224,-0.5911111111111111,-0.0061259148784860995,-0.0831135384903593,-0.6478501369619711
1589996589.8331943,-1.1942487431323052,-3.4060486625230695,8.965843957489234,0.5244444444444445,0.10222222222222224,-0.5911111111111111,-0.06809076306050918,0.042882415950169804,-0.5891295191013117
1589996589.8431942,-1.1663491751767479,-3.4418558523173606,8.501575019638649,0.5204463428471677,0.14334555293706908,-0.5848283800296762,0.047405187898995386,0.0629218915984815,-0.5196216991102692
1589996589.8531942,-1.04,-3.16,8.21,0.5166666666666667,0.18222222222222226,-0.5788888888888889,0.04581489286485115,0.06981317007977318,-0.49523717525339095
1589996589.8631942,-1.2077584227182345,-3.6225280757274483,9.047384826504608,0.5166666666666667,0.18222222222222226,-0.5788888888888889,0.01872888664219214,0.017199273477277767,-0.4675181224159256
1589996589.8731942,-1.1716018263102825,-3.482804464314024,8.97519959415327,0.5166666666666667,0.18222222222222226,-0.5788888888888889,-0.024346634729152168,-0.012740505100463696,-0.44366165548821074
1589996589.8831942,-1.2224630215041175,-3.604403855910705,8.742541466651057,0.5166666666666667,0.18222222222222226,-0.5788888888888889,0.014042184669670936,0.007920624357579054,-0.38748133192842665
1589996589.8931942,-1.19,-3.538990957729733,8.451232752417008,0.5223940983629354,0.1915669792003449,-0.5788888888888889,0.030078581170759643,0.013217172115978691,-0.34466099098834135
1589996589.9031942,-1.1996910448019673,-3.641685572277159,8.711235820792131,0.5377777777777778,0.21666666666666667,-0.5788888888888889,0.02228545582726658,0.003842437876954724,-0.29833603216621457
1589996589.9131942,-1.2169711232217424,-3.735865241701465,8.623942246443486,0.5377777777777778,0.21666666666666667,-0.5788888888888889,0.03717737988666818,0.013740267902305665,-0.2589254281503115
1589996589.9231942,-1.2031692944736423,-3.649507883420927,8.67864667940755,0.5377777777777778,0.21666666666666667,-0.5788888888888889,0.01854412330243975,0.007662656273126682,-0.2085365650263835
1589996589.9331942,-1.2423651535213731,-3.758852024883204,8.897939141079771,0.5377777777777778,0.21666666666666667,-0.5788888888888889,0.01921853780701016,0.004621321356630188,-0.16813880964807976
1589996589.9431942,-1.2798664141162397,-3.8537862625859836,8.84946565646496,0.539579304157113,0.22049491022275391,-0.578663698091472,0.01894256852096901,0.007827752107034184,-0.12316187470622057
1589996589.9531941,-1.24,-3.791407719753487,8.690703859876743,0.5466666666666666,0.23555555555555555,-0.5777777777777777,0.00809649068954473,-0.0003838960100579483,-0.0901869028458163
1589996589.9631941,-1.248542636479052,-3.832780363944139,8.722780363944137,0.5466666666666666,0.23555555555555555,-0.5777777777777777,0.01355956211678545,-0.005143534884648042,-0.0458515347156174
1589996589.9731941,-1.2705272810637323,-3.89,8.782109124254928,0.5466666666666666,0.23555555555555555,-0.5777777777777777,0.011884103724391696,-0.004593392896124462,-0.017048669822538602
1589996589.983194,-1.2663270553064274,-3.8455629297458893,8.73112585949178,0.5466666666666666,0.23555555555555555,-0.5777777777777777,0.011681835662358161,-0.008353774535993636,0.021376500485786452
1589996589.993194,-1.2456101396402064,-3.7740253491005156,8.644152094603095,0.5507184341845934,0.2330621601599083,-0.5836995918424399,0.012823745749494127,-0.010083700682931449,0.05067090126554497
1589996590.003194,-1.2277585186437812,-3.8261207406781095,8.811637777965672,0.5611111111111111,0.22666666666666666,-0.5988888888888889,0.007424234703394962,-0.01548321172903061,0.08322996443614447
1589996590.013194,-1.2123569235613634,-3.832023931354798,8.678881366606314,0.5611111111111111,0.22666666666666666,-0.5988888888888889,0.006765761357326086,-0.01496515413351215,0.1153085335939458
1589996590.023194,-1.2301673418392458,-3.750209177299057,8.58327755272025,0.5611111111111111,0.22666666666666666,-0.5988888888888889,0.0039966705086628565,-0.017810818059793815,0.14431068050349294
1589996590.033194,-1.161338571939932,-3.6772125726558373,8.63154328668587,0.5611111111111111,0.22666666666666666,-0.5988888888888889,0.004093622949303139,-0.019983677069334946,0.16879704104650226
1589996590.043194,-1.2328319157277514,-3.848796597746604,8.76738063988273,0.5611111111111111,0.22666666666666666,-0.5988888888888889,-0.00448496246690593,-0.015304448660493637,0.19453279729512946
1589996590.053194,-1.276617082127566,-3.969851246382698,8.826022067658357,0.62,0.22666666666666666,-0.6055555555555555,-0.0016443594249827267,-0.018929368899906686,0.23568435502913881
1589996590.063194,-1.262421011659982,-3.927263034979946,8.641473151579767,0.62,0.22666666666666666,-0.6055555555555555,-0.0039671860234621326,-0.025123573162518432,0.25426696781697405
1589996590.073194,-1.3056087594300085,-3.9924350377200333,8.70463065800503,0.62,0.22666666666666666,-0.6055555555555555,-0.008700529869171098,-0.025807623055482603,0.2875547780730309
1589996590.083194,-1.2997351656717016,-3.939735165671702,8.674337914179254,0.62,0.22666666666666666,-0.6055555555555555,-0.014238578059967862,-0.028627085804592722,0.3115387846717597
1589996590.093194,-1.3291201888621897,-3.964721133173138,8.737682644070654,0.6390625746525582,0.22735096421829695,-0.6081949889689866,-0.007635815477475192,-0.03002826617054839,0.3324411772402397
1589996590.103194,-1.3202792883942498,-3.911675730365499,8.613910037519497,0.8306154181245872,0.23422722013780575,-0.6347176903728061,-0.007635815477475192,-0.035814621995798004,0.35172902999107186
1589996590.113194,-1.3200672514129506,-3.8874831871467626,8.722315058614386,0.8366666666666667,0.2344444444444445,-0.6355555555555555,-0.011197521500656553,-0.03135955099898779,0.394932095201706
1589996590.123194,-1.3482041692521844,-3.8804489576869536,8.644938534556493,0.8366666666666667,0.2344444444444445,-0.6355555555555555,-0.018103360123968806,-0.03059223559639754,0.416416926474233
1589996590.133194,-1.3862921174353118,-3.9985767645294263,8.70029958777651,0.8366666666666667,0.2344444444444445,-0.6355555555555555,-0.015614812724226424,-0.03549898314690276,0.461417346556934
1589996590.143194,-1.3407444177628043,-3.9614888355256084,8.611166266442062,0.8922498596227136,0.2247670135279899,-0.666821101593332,-0.013739596438520645,-0.034059364400601325,0.4932287501744467
1589996590.153194,-1.308954349738414,-3.924028658734201,8.708954349738415,1.5833333333333333,0.10444444444444444,-1.0555555555555556,-0.02181661564992912,-0.03912342200455777,0.531055681494451
1589996590.163194,-1.257618889573752,-3.840571333744251,8.64,1.5833333333333333,0.10444444444444444,-1.0555555555555556,-0.020279077481892768,-0.042926785059370864,0.5504123902943461
1589996590.173194,-1.3037150091433394,-3.86,8.64685750457167,1.5833333333333333,0.10444444444444444,-1.0555555555555556,-0.01932338678941517,-0.04512930671543574,0.559596191420682
1589996590.183194,-1.3379558579678656,-3.8420993195723026,8.673922751443765,1.5833333333333333,0.10444444444444444,-1.0555555555555556,-0.020737822739296224,-0.04691174258327938,0.5589453043127431
1589996590.193194,-1.3619383612556466,-3.7881386871747957,8.715892132197382,1.5833333333333333,0.10444444444444444,-1.0555555555555556,-0.01419760953238776,-0.04364163597982515,0.5569832403506706
1589996590.203194,-1.401401679496151,-3.7414016794961515,8.677008397480755,0.8977777777777778,-0.06,-0.7233333333333334,-0.015195181197870593,-0.04550909383653199,0.549702264621134
1589996590.213194,-1.432845946454323,-3.7535770267728386,8.715404727569126,0.8977777777777778,-0.06,-0.7233333333333334,-0.01348016248132008,-0.042502526271566095,0.5465859705223158
1589996590.223194,-1.470103037744915,-3.74,8.617680316053601,0.8977777777777778,-0.06,-0.7233333333333334,-0.012274656221682933,-0.04499957969657661,0.5418673812865167
1589996590.2331939,-1.5,-3.7216294302546635,8.656878164467617,0.8977777777777778,-0.06,-0.7233333333333334,-0.011086051092936321,-0.045528618822419556,0.5416246162031053
1589996590.2431939,-1.5005562505043983,-3.6738937535307885,8.633906262609958,0.8830062366054215,-0.04788610012643585,-0.7212319425389396,-0.006424994189245327,-0.04472406208235469,0.5434764397524258
1589996590.2531939,-1.5090186425631507,-3.7331304979420548,8.845466064078765,0.6582827141563321,0.13640599359750355,-0.6892629058725419,-0.02119465459123027,-0.04472406208235469,0.5471688548529221
1589996590.2631938,-1.5237826530612244,-3.7858551020408164,8.717565306122449,0.6322222222222222,0.15777777777777774,-0.6855555555555556,-0.0170801838686241,-0.04367274608840785,0.5478231219274301
1589996590.2731938,-1.5023831632653062,-3.771588775510204,8.674766326530612,0.6322222222222222,0.15777777777777774,-0.6855555555555556,-0.02330504312171918,-0.047563283121592276,0.548601229334067
1589996590.2831938,-1.4950356150236168,-3.698392691706028,8.593641996871346,0.6322222222222222,0.15777777777777774,-0.6855555555555556,-0.014196340158086138,-0.04072693921080639,0.5464984520379084
1589996590.2931938,-1.5141460747535804,-3.7302434579226342,8.759265981197698,0.6322222222222222,0.15777777777777774,-0.6855555555555556,-0.022534851254527463,-0.04211669106021328,0.5423291964896877
1589996590.3031938,-1.4596502063469474,-3.6880418386224565,8.700558986765333,0.5988888888888889,0.20444444444444448,-0.6577777777777778,-0.010870151256537404,-0.04380867700220312,0.5264594005440351
1589996590.3131938,-1.5129621264354152,-3.7359242528708303,8.762249827631297,0.5988888888888889,0.20444444444444448,-0.6577777777777778,-0.014746872388748122,-0.04310847273365598,0.5001277207265776
1589996590.3231938,-1.5500433772269557,-3.6953756777691713,8.56823702556158,0.5988888888888889,0.20444444444444448,-0.6577777777777778,-0.010610378364152592,-0.03837611978743651,0.47459808228238287
1589996590.3331938,-1.621895863764295,-3.580795717695678,8.692691581459973,0.5988888888888889,0.20444444444444448,-0.6577777777777778,-0.009994281867897142,-0.036174220647812075,0.4477142377940939
1589996590.3431938,-1.5845388150628807,-3.722752502761053,8.797291317823934,0.5988888888888889,0.20444444444444448,-0.6577777777777778,-0.010809286241231581,-0.03698922502114652,0.4297841415807362
1589996590.3531938,-1.6766326610894022,-3.5563979439301354,8.636061210039077,0.6171417248724427,0.17115986118031698,-0.7125362857284391,-0.0003673196938778038,-0.03181775253933613,0.4012531964108938
1589996590.3631938,-1.7221480732274703,-3.6617778901587945,8.840925457671691,0.6177777777777778,0.17,-0.7144444444444444,-0.01338485889288622,-0.03056345226422431,0.3648464989423796
1589996590.3731937,-1.6844375523889354,-3.7069097513271863,8.648034646549316,0.6177777777777778,0.17,-0.7144444444444444,0.002328629601684667,-0.02624735754747242,0.3474477999774864
1589996590.3831937,-1.5913926160684888,-3.6668859071452093,8.744177848205466,0.6177777777777778,0.17,-0.7144444444444444,-0.009182378802683628,-0.02670741760145592,0.3189424478922626
1589996590.3931937,-1.5908563254036534,-3.756649526820192,8.563693803645384,0.6148785427351282,0.16774927805899575,-0.7107059571526069,0.00398880768956568,-0.024035728758964044,0.2987425642331389
1589996590.4031937,-2.589479202096797,-5.141294691982953,7.187440427362398,0.5440145477503674,0.1127364398471419,-0.6193287004617309,-0.005165213940703592,-0.02495113092199097,0.2685342928532503
1589996590.4131937,-10.597752713644239,-9.198150479086376,-7.260220627231906,0.5333333333333333,0.10444444444444444,-0.6055555555555555,-0.46201051512929125,0.696980510429102,-0.8913858169417375
1589996590.4231937,-5.1626469964289505,-2.910333769402113,-1.1948502634091147,0.5333333333333333,0.10444444444444444,-0.6055555555555555,-1.1309193247848408,1.8431035857397586,-5.188740721052902
1589996590.4331937,-0.5844069825436409,-1.5321951787198669,-0.6226071487946799,0.5333333333333333,0.10444444444444444,-0.6055555555555555,-0.17154029487414615,-1.8367413430820854,-8.724185643143208
1589996590.4431937,-0.2915381546134663,-1.7344141313383208,-0.3227652535328346,0.5333333333333333,0.10444444444444444,-0.6055555555555555,-0.32899353029595024,-0.9019102979932099,-8.528700225252368
1589996590.4531937,-0.18330415910627246,-1.6490934642615718,-0.16239762336784433,0.5911111111111111,0.25555555555555554,-0.5933333333333334,-0.38747782619324944,-0.2971779016224408,-8.03096695883044
1589996590.4631937,-0.23553331910200304,-1.5670190699825666,-0.13255238908456968,0.5911111111111111,0.25555555555555554,-0.5933333333333334,-0.43549807408709584,-0.19625399079469574,-7.732264738880582
1589996590.4731936,-0.40111337292441246,-1.3184948099796436,-0.22515469120640635,0.5911111111111111,0.25555555555555554,-0.5933333333333334,-0.3498349612498682,0.09774081279419547,-7.229243662028632
1589996590.4831936,-0.20353863494894098,-1.0785826281522854,-0.5779667233054626,0.5911111111111111,0.25555555555555554,-0.5933333333333334,0.28441139363051837,0.9490472066020931,-6.787426419672634
1589996590.4931936,2.315860082080831,-1.6063903459897262,12.643091077107059,0.5717277441059139,0.2761894623675397,-0.5949590350821564,2.1245460648734764,3.2455136382112046,-5.7937113046532875
1589996590.5031936,-0.3332759286431385,1.9792346899374471,2.2370684994980308,0.4188888888888889,0.4388888888888889,-0.6077777777777778,1.9846873805222502,1.9598819946713641,-5.310424552468515
1589996590.5131936,0.4228005912513281,-0.14986950898424872,3.278349577347684,0.4188888888888889,0.4388888888888889,-0.6077777777777778,1.0297839133408804,0.009785279672150066,-4.69163560856851
1589996590.5231936,2.476466943620178,-0.6751862314540059,13.67625353115727,0.4188888888888889,0.4388888888888889,-0.6077777777777778,-0.13199358030301675,0.30080594287565715,-4.247571417973273
1589996590.5331936,0.2917982679572084,-2.4332959755476313,17.539088130412633,0.4188888888888889,0.4388888888888889,-0.6077777777777778,-1.0542059861578026,0.48296741280941663,-3.909202995618055
1589996590.5431936,-1.3788108622329847,-1.0168165700942662,5.4090135201360665,0.40864715359656123,0.4434143068087546,-0.6069441481609604,-0.7628697672187692,0.5129372875378653,-3.602299778375917
1589996590.5531936,1.2133110220617376,-1.5926372803734201,6.846785855828086,0.3233333333333333,0.4811111111111111,-0.6,0.5235524696898781,0.026881156260336048,-3.2082111002699327
1589996590.5631936,0.7114870190355632,-1.2625032840526402,5.541530965630897,0.3233333333333333,0.4811111111111111,-0.6,0.7612780082680665,0.3989527630671583,-2.8843802315067184
1589996590.5731936,0.6832197429564199,-1.7669910411520913,7.054082555364842,0.3233333333333333,0.4811111111111111,-0.6,-0.05952188239621192,0.3147118275253547,-2.6359526735610816
1589996590.5831935,0.03032545386699547,-1.2504881808004933,4.676545905868228,0.3233333333333333,0.4811111111111111,-0.6,-0.5178866959622398,0.03954342553352546,-2.445333595483761
1589996590.5931935,0.5202740237195191,-1.9854110355792787,7.003801612667716,0.3233333333333333,0.4811111111111111,-0.6,-0.0383653983711702,0.1776099291742978,-2.2538219936594643
1589996590.6031935,0.7474243689849283,-2.421970582894498,8.40076048665335,0.26138002138692173,0.5372563000625467,-0.5690233440267941,0.2400742062311525,0.10080995771322651,-1.9798730036016472
1589996590.6131935,0.5296344612939541,-2.490853585855241,8.909206675054632,0.25222222222222224,0.5455555555555556,-0.5644444444444444,-0.020000394315957293,0.1537604760921822,-1.706492035459922
1589996590.6231935,0.5435731558787708,-2.108591424990733,6.879749880853618,0.25222222222222224,0.5455555555555556,-0.5644444444444444,0.009374486489224742,0.11313977189467464,-1.3367240040391324
1589996590.6331935,0.8841337616719326,-2.9896069051947824,9.6116382186292,0.25222222222222224,0.5455555555555556,-0.5644444444444444,0.1660480396812583,0.10425621990955934,-1.1315947127464698
1589996590.6431935,0.593045014644085,-2.7466990322169873,8.919390997071183,0.24829753668095705,0.547585565318279,-0.5670834571359848,-0.014988574743689444,0.037752565746263594,-0.802605939120236
1589996590.6531935,0.64,-2.85,8.91,0.18777777777777774,0.5788888888888889,-0.6077777777777778,-0.061086523819801536,0.04799655442984406,-0.5465062220307244
1589996590.6631935,0.5896158640226629,-2.514105760151086,7.868727856468366,0.18777777777777774,0.5788888888888889,-0.6077777777777778,0.029598410861583158,0.018684252310608603,-0.3303279939013629
1589996590.6731935,12.867559397961104,-15.645118377258171,4.371220405685458,0.18777777777777774,0.5788888888888889,-0.6077777777777778,-0.00044178064409283735,-0.0075707597553983565,-0.07729768362166356
1589996590.6831934,0.32459587189237904,-4.17822961774339,3.929243180269492,0.18777777777777774,0.5788888888888889,-0.6077777777777778,-0.4027506079194822,-0.37133342014121395,0.9032449818604324
1589996590.6931934,-2.584556565340019,-2.0066013788780945,13.383722970855532,0.18729813015773525,0.5789646227236325,-0.6079797346704272,-0.35908946061646574,-0.11647310640884598,2.180817205220814
1589996590.7031934,-1.127980391781399,-0.8481016027420868,2.7772073607414356,0.16666666666666666,0.5822222222222222,-0.6166666666666667,0.6404372527700665,0.13652379207505205,2.3934835325445416
1589996590.7131934,-1.3665496941013504,-1.9377946438877987,7.77104063257532,0.16666666666666666,0.5822222222222222,-0.6166666666666667,0.35518094980105436,-0.01977837510089643,2.448222933460704
1589996590.7231934,0.18629560249145322,-3.1499669835620288,12.14233807895846,0.16666666666666666,0.5822222222222222,-0.6166666666666667,-0.5024592995550756,-0.38067833388314265,2.4150091352803913
1589996590.7331934,-0.3757808460311348,-2.8607305132295506,8.82318664392981,0.16666666666666666,0.5822222222222222,-0.6166666666666667,-0.30796470982785884,-0.19641824656727608,2.4985897907938126
1589996590.7431934,-0.41038918532372515,-2.7453693822542493,8.00412261400517,0.16666666666666666,0.5822222222222222,-0.6166666666666667,0.022993103561091355,-0.15111603636954907,2.5608803298156873
1589996590.7531934,-0.03766518767238275,-2.7671855138505816,8.382793300555623,0.202993964104409,0.5927167748153478,-0.6320048589181578,-0.014550645745349755,-0.18647101879368316,2.676223669607353
1589996590.7631934,-0.006285774657807622,-2.8759181086093957,7.520325875143803,0.21666666666666667,0.5966666666666667,-0.6377777777777778,-0.26143456530492126,-0.2473114145136191,2.8348331255228345
1589996590.7731934,0.06996137693115344,-3.2870830208489576,8.272902729863507,0.21666666666666667,0.5966666666666667,-0.6377777777777778,0.03234664227358397,-0.20375064854860248,2.950388277012484
1589996590.7831933,0.3294707139643018,-6.597793047847608,9.1300699340033,0.21666666666666667,0.5966666666666667,-0.6377777777777778,-0.09117951329630944,-0.22605398219316658,3.0275921242436667
1589996590.7931933,0.5695381089498737,-10.374900981371571,7.770853264382676,0.21666666666666667,0.5966666666666667,-0.6377777777777778,-0.1808066284775036,-0.24877916183584506,3.295045115264007
1589996590.8031933,-0.31464256335931695,-4.687736887461319,7.4681109718359515,0.27770465831886176,0.5617878142939837,-0.6377777777777778,-0.14497183401170946,-0.3054438782126113,3.9841525889940517
1589996590.8131933,-0.2747085134933651,-3.460063118135282,8.566851051140599,0.29444444444444445,0.5522222222222222,-0.6377777777777778,-0.029328878453416463,-0.2887627123355911,4.503997363798512
1589996590.8231933,1.3278891734575087,-4.854471944121071,8.99736717112922,0.29444444444444445,0.5522222222222222,-0.6377777777777778,-0.22616282235529278,-0.3624528965679354,4.521580174172782
1589996590.8331933,7.846381818551751,-11.603000874890638,6.47447455695945,0.29444444444444445,0.5522222222222222,-0.6377777777777778,-0.15387700818899225,-0.34526224692754615,4.535907545411147
1589996590.8431933,3.9464141691590875,-15.639510061242344,11.014480660847628,0.29444444444444445,0.5522222222222222,-0.6377777777777778,-0.10826299651017492,-0.3722582946558257,4.514496886868027
1589996590.8531933,-1.7258520333663416,0.5219957704637386,5.54375220288347,0.3944444444444444,0.4988888888888889,-0.6522222222222223,-0.46173575733988026,-0.3181280798083248,0.19173491708124418
1589996590.8631933,-2.81699937899666,-1.9207663516892965,15.554149141504844,0.3944444444444444,0.4988888888888889,-0.6522222222222223,-0.08469302030068682,0.21863948269757388,-1.878544551467973
1589996590.8731933,-4.895878969610886,-5.528506146211443,6.16272695389903,0.3944444444444444,0.4988888888888889,-0.6522222222222223,0.9652953393989467,0.4906504907148231,-1.7953385457831899
1589996590.8831933,-1.5567375103021375,-1.7480684588002173,9.56806284742315,0.3944444444444444,0.4988888888888889,-0.6522222222222223,0.39405832108661776,0.16170782567542025,-1.0724669818795265
1589996590.8931932,-0.7280589330704349,-2.216157300909191,10.155328075364224,0.3944444444444444,0.4988888888888889,-0.6522222222222223,-0.38865085559726753,0.05721825074260163,0.2884942120913635
1589996590.9031932,-0.7046076352067868,-2.874859490986214,8.698510074231177,0.40385088959585247,0.473234947566867,-0.6522222222222223,-0.07884462430494926,0.04337642914321538,0.8679273781053104
1589996590.9131932,-1.0329478512795751,-5.970287904394013,7.631849951714148,0.4066666666666667,0.4655555555555556,-0.6522222222222223,0.03926990816987242,0.04036073895236887,0.9948376736367678
1589996590.9231932,8.056354274656162,-14.55378187849886,7.916296219503767,0.4066666666666667,0.4655555555555556,-0.6522222222222223,-0.09061208411017646,-0.12025668661532511,1.237746743168157
1589996590.9331932,1.7716986799169385,-6.374514980717889,8.971285412340553,0.4066666666666667,0.4655555555555556,-0.6522222222222223,0.11303450840061326,0.0949074757839386,-0.0294379705813963
1589996590.9431932,-1.1239194900575071,-2.743097762073027,6.680263285526225,0.4066666666666667,0.4655555555555556,-0.6522222222222223,0.23345660660929188,0.06329509148599091,-0.1246147007442473
1589996590.9531932,0.8087060828805794,-4.390460637051241,9.520589112602536,0.43333333333333335,0.4777777777777778,-0.6522222222222223,-0.20937571284935572,-0.08219741715779916,0.29575698375816045
1589996590.9631932,0.6957245282113996,-7.661296309618013,9.212163633311754,0.43333333333333335,0.4777777777777778,-0.6522222222222223,-0.07533802671400422,-0.0418176910801547,0.05931560766347326
1589996590.9731932,-0.3809176824096736,-4.289971648048077,8.996840090144667,0.43333333333333335,0.4777777777777778,-0.6522222222222223,0.10457630057591759,0.02786726767077438,-0.061287761970070395
1589996590.9831932,-0.18443441338121788,-4.896725728685093,8.523155022917122,0.43333333333333335,0.4777777777777778,-0.6522222222222223,-0.012151706439874704,-0.005288578097761791,0.0032173004092492055
1589996590.9931931,-0.09289033512569693,-4.513905037798369,8.739531935157443,0.43333333333333335,0.4777777777777778,-0.6522222222222223,0.0032810633308396047,-0.002565148138223972,0.0023094904227365987
1589996591.0031931,-0.08296177266576454,-4.7064458728010825,8.714076454668472,0.4211111111111111,0.4655555555555556,-0.6311111111111111,0.009235934339445046,-0.004040243850528568,0.002117045709101461
1589996591.0131931,-0.1184345399188092,-4.6638785520974295,8.643130920162381,0.4211111111111111,0.4655555555555556,-0.6311111111111111,0.0022708727766534396,-0.00017076520453323217,0.0013431499799023937
1589996591.0231931,-0.13902764102687257,-4.630276410268725,8.47555774357004,0.4211111111111111,0.4655555555555556,-0.6311111111111111,-0.004923814362720248,0.0016513220152308806,0.0020755936550405055
1589996591.033193,-0.12706053236049183,-4.553962471287664,8.620734866909876,0.4211111111111111,0.4655555555555556,-0.6311111111111111,0.00048096926779915686,-0.002871684624323404,0.0012511538717628417
1589996591.043193,-0.09872449668963654,-4.688558640724227,8.627818875827591,0.4211111111111111,0.4655555555555556,-0.6311111111111111,0.005117442262352142,0.0009920428711374168,0.00279664486994717
1589996591.053193,-0.12047472075249854,-4.656860670194004,8.654379776602,0.4211111111111111,0.46081504343850027,-0.6527820236462212,0.0018909978071054816,-0.0018074700531841626,0.002607637077793189
1589996591.063193,-0.12203755001538935,-4.592037550015389,8.714906124961527,0.4211111111111111,0.4577777777777778,-0.6666666666666666,-0.005009629456949713,-0.0053430227985991376,0.003161361233606227
1589996591.073193,-0.13862763688077745,-4.673824365963498,8.58029272339417,0.4211111111111111,0.4577777777777778,-0.6666666666666666,-0.00951807385542594,-0.0044381739267463655,-0.00079142759545429
1589996591.083193,-0.13351695970513525,-4.667033919410271,8.595932161179459,0.4211111111111111,0.4577777777777778,-0.6666666666666666,-0.004867147100005729,-0.0015345631628644668,-0.0025052107660571347
1589996591.093193,-0.14249887112796894,-4.678748306691953,8.585002257744062,0.4211111111111111,0.4577777777777778,-0.6666666666666666,0.0032719997841449727,-0.0013634153372844712,0.00013604599572181013
1589996591.103193,-0.14459158029900027,-4.592648445382005,8.661943134916996,0.4211111111111111,0.4577777777777778,-0.6624601180103336,0.009494820042234123,-0.00277162863444399,0.001591694495541834
1589996591.113193,-0.11505236760584157,-4.6035536214780945,8.73376309190146,0.4211111111111111,0.4577777777777778,-0.6588888888888889,0.007917091802567949,-0.001231468945042835,0.001090830782496456
1589996591.123193,-0.12432899603319089,-4.605259758925321,8.663095260908724,0.4211111111111111,0.4577777777777778,-0.6588888888888889,-0.0005170800880714473,0.0006634704445059697,0.0017543012270024257
1589996591.133193,-0.14776641861137202,-4.670963441947836,8.58116790694314,0.4211111111111111,0.4577777777777778,-0.6588888888888889,-0.006057692828193417,0.00024364593339265897,0.001334476715889115
1589996591.143193,-0.1312925051442123,-4.631405852195445,8.607414989711575,0.4211111111111111,0.4577777777777778,-0.6588888888888889,-0.001783418736158367,0.0013604474168058195,0.0004106070740935462
1589996591.153193,-0.1272522265764161,-4.5972522265764155,8.66626113288208,0.44447939674622966,0.4577777777777778,-0.6435786327831216,0.0042552115789738845,-0.0009827192314845164,-0.0007910951991193571
1589996591.163193,-0.12365041087759002,-4.58095123263277,8.68634958912241,0.4533333333333333,0.4577777777777778,-0.6377777777777778,0.002683623004110491,-0.0028742942920858593,-0.0003981980554035088
1589996591.173193,-0.1381969758888435,-4.633689415610952,8.580818144666939,0.4533333333333333,0.4577777777777778,-0.6377777777777778,-0.0028791335070827992,-0.004264983419884182,0.0009924910723948137
1589996591.183193,-0.14744682445981147,-4.654893648919623,8.56255317554019,0.4533333333333333,0.4577777777777778,-0.6377777777777778,-0.004897137418011347,-0.0035510005947248344,-0.0005338142880255234
1589996591.193193,-0.12977166123002928,-4.66674277958999,8.58697111835996,0.4533333333333333,0.4577777777777778,-0.6377777777777778,-0.0010410149906721691,-0.0010659228865843129,-0.00035530762886143766
1589996591.203193,-0.12577219998366146,-4.646911200065354,8.634633199901968,0.43473402227486857,0.4577777777777778,-0.6499635332988408,0.00801697354989027,0.0012592986849806935,0.0012592986849806935
1589996591.213193,-0.137487222868422,-4.585076662789469,8.704923337210532,0.4211111111111111,0.4577777777777778,-0.6588888888888889,0.01063978143587164,0.0013649322469643011,0.002181661564992912
1589996591.223193,-0.1313700701519546,-4.595889789544136,8.633700701519546,0.4211111111111111,0.4577777777777778,-0.6588888888888889,0.006051959790854945,-0.0007919278433101238,-0.0015838556866202475
1589996591.233193,-0.12143193261493576,-4.582863865229871,8.611431932614936,0.4211111111111111,0.4577777777777778,-0.6588888888888889,-0.002957526572636502,-0.00015619961748325798,0.000622231930046682
1589996591.243193,-0.13430589080173155,-4.644376508607792,8.631458836202597,0.4211111111111111,0.4577777777777778,-0.6588888888888889,-0.004363323129985824,0.0007802653028780829,0.001090830782496456
1589996591.253193,-0.14,-4.626219543066894,8.622487817226757,0.4211111111111111,0.4577777777777778,-0.6530514946311415,-0.001497898924322312,0.001090830782496456,0.00013568938060861877
1589996591.263193,-0.13260797697528343,-4.627392023024717,8.627392023024717,0.4211111111111111,0.4577777777777778,-0.6522222222222223,0.0045535815997019185,-0.0005218584695602223,-0.0008063446260283392
1589996591.273193,-0.13858570052961003,-4.57848579682234,8.58707149735195,0.4211111111111111,0.4577777777777778,-0.6522222222222223,0.0027987661241808443,-0.002027385425195929,0.002655387788301436
1589996591.2831929,-0.13295240798561833,-4.598190368057527,8.601142776043144,0.4211111111111111,0.4577777777777778,-0.6522222222222223,-0.0016622035908889607,-0.000644115502640163,0.0009661732539602446
1589996591.2931929,-0.1348626546058704,-4.639175927635223,8.60027469078826,0.4211111111111111,0.4577777777777778,-0.6522222222222223,-0.0022116256817430453,-0.0005304333328731613,0.0
1589996591.3031929,-0.14,-4.655705411701158,8.613824313831403,0.4237582570923782,0.4577777777777778,-0.6485162178484484,0.0015079987074186347,-5.1298986530419824e-05,0.0
1589996591.3131928,-0.13468174136959846,-4.629363482739197,8.650636517260804,0.4266666666666667,0.4577777777777778,-0.6444444444444445,0.007263983241645549,0.0005106987601645113,0.0017403960669958342
1589996591.3231928,-0.13,-4.600507725501114,8.634010300668152,0.4266666666666667,0.4577777777777778,-0.6444444444444445,0.008399958839517706,0.0014175182029503987,0.00114621504306377
1589996591.3331928,-0.12328063740988997,-4.59671936259011,8.62671936259011,0.4266666666666667,0.4577777777777778,-0.6444444444444445,0.001772065435837483,0.0007157240545834847,-0.0007329687552047136
1589996591.3431928,-0.13748768037478176,-4.617487680374782,8.653316907166376,0.4266666666666667,0.4577777777777778,-0.6444444444444445,-0.002362570786981198,-0.0006358700022423709,-0.001090830782496456
1589996591.3531928,-0.14340885714285714,-4.626704428571428,8.673295571428572,0.4288637142857143,0.4577777777777778,-0.6517679365079365,-0.0011155458913684468,-0.0014503218585166094,-0.001090830782496456
1589996591.3631928,-0.13142514285714285,-4.620712571428571,8.679287428571428,0.43285828571428575,0.4577777777777778,-0.6650831746031746,0.0028061154380814553,-0.0021039320800915933,-0.001090830782496456
1589996591.3731928,-0.15615912791109224,-4.62,8.601522616266724,0.43333333333333335,0.4577777777777778,-0.6666666666666666,0.004223665079778755,-0.0012304888327035245,-0.001090830782496456
1589996591.3831928,-0.15194134263141634,-4.595824027894249,8.638351944211502,0.43333333333333335,0.4577777777777778,-0.6666666666666666,0.000847070520688646,-0.001090830782496456,0.000667295522152133
1589996591.3931928,-0.12358831849240025,-4.6032058407538,8.65,0.43333333333333335,0.4577777777777778,-0.6666666666666666,-0.0014405337602991107,-0.0003705639023469006,-0.00106996985795221
1589996591.4031928,-0.12612725564518742,-4.626127255645187,8.65,0.41183032580641676,0.46942524018819093,-0.6550192042562536,-0.001302056220244903,-0.0008796053447480089,-0.002181661564992912
1589996591.4131927,-0.14752472835355454,-4.638762364176777,8.623712907469667,0.4066666666666667,0.4722222222222222,-0.6522222222222223,0.0036882975032399784,-0.0001350051253491692,-0.0002700102506983384
1589996591.4231927,-0.14213673208191127,-4.6006836604095565,8.596410196245733,0.4066666666666667,0.4722222222222222,-0.6522222222222223,0.006936571538806229,0.0008577494696068016,0.0008577494696068016
1589996591.4331927,-0.1340654683346655,-4.601869063330669,8.607803594996003,0.4066666666666667,0.4722222222222222,-0.6522222222222223,0.006341101513425826,0.001090830782496456,0.0030329017285705044
1589996591.4431927,-0.1201542687562848,-4.600154268756285,8.649537193731145,0.4066666666666667,0.4722222222222222,-0.6522222222222223,0.0022321458974327818,1.682811081328995e-05,0.001678316450777909
1589996591.4531927,-0.12458628029938887,-4.614310467165648,8.67027581313374,0.40342527104458026,0.46898082660013585,-0.6484405939964548,-0.003212319256189122,-0.0005604586640732895,-0.0005604586640732895
1589996591.4631927,-0.14,-4.64,8.66,0.4,0.4655555555555556,-0.6444444444444445,-0.0034306680004412803,0.0005058714780102498,-0.0010117429560204997
1589996591.4731927,-0.12591673018984356,-4.625916730189844,8.589583650949217,0.4,0.4655555555555556,-0.6444444444444445,0.0019816620629278785,-0.002749785274283962,0.00012270806907533922
1589996591.4831927,-0.1252720833723361,-4.62,8.607448750351026,0.4,0.4655555555555556,-0.6444444444444445,0.003847587430532563,-0.003788228046942629,0.0016659258655396512
1589996591.4931927,-0.12254619399878311,-4.62,8.646273096999392,0.4,0.4655555555555556,-0.6444444444444445,0.0031436969750531928,-0.0024594082442009474,0.0009620354100602808
1589996591.5031927,-0.12488150186401563,-4.629921001242677,8.64,0.4066140008284514,0.4655555555555556,-0.6483026115943744,-0.0010735959272430947,-8.617427626680637e-06,-0.001090830782496456
1589996591.5131927,-0.14,-4.633665854301146,8.608329271505731,0.4133333333333333,0.4655555555555556,-0.6522222222222223,-0.0005086999038384213,0.001090830782496456,-0.003163675115234666
1589996591.5231926,-0.14,-4.63,8.573774903020835,0.4133333333333333,0.4655555555555556,-0.6522222222222223,0.005220559003731218,0.001680791956958565,-0.0025934396065994975
1589996591.5331926,-0.14,-4.6170256051950185,8.611897579219926,0.4133333333333333,0.4655555555555556,-0.6522222222222223,0.008019002798094862,0.002181661564992912,0.0024473865268874696
