time,acc_x,acc_y,acc_z,mag_x,mag_y,mag_z,gyr_x,gyr_y,gyr_z
1589996616.8046105,-3.83,-0.81,9.04,0.2977777777777777,-0.3511111111111111,-0.6055555555555555,0.0,-0.002181661564992912,0.003272492347489368
1589996616.8146105,-3.8382794764997334,-0.8182794764997334,9.056558952999467,0.30881707977742245,-0.34743134377789625,-0.6119951483886815,0.0,-0.002181661564992912,-0.00034011078405676203
1589996616.8246105,-3.85,-0.8215544747081711,9.00756420233463,0.3111111111111111,-0.3466666666666667,-0.6133333333333333,0.002012094678764377,-0.0012603976687249907,0.0
1589996616.8346105,-3.85,-0.8289727626459144,8.948217898832684,0.3111111111111111,-0.3466666666666667,-0.6133333333333333,0.0012028849951731346,-0.0020696073523162333,0.0
1589996616.8446105,-3.83575954702045,-0.8080801509931834,8.943839698013633,0.3111111111111111,-0.3466666666666667,-0.6133333333333333,0.003316207932795381,0.00020942303943808857,-0.0006719847036202788
1589996616.8546104,-3.858816975738474,-0.8003943414205087,8.959211317158983,0.3111111111111111,-0.3466666666666667,-0.6133333333333333,-0.0008757509023443293,0.0010478148064660307,0.0010047988304356054
1589996616.8646104,-3.84,-0.8046286449187545,8.93194296737813,0.3111111111111111,-0.3388888888888889,-0.6133333333333333,-0.0003739790840888845,0.0026865684008552317,0.0002929619733170681
1589996616.8746104,-3.8430496314011684,-0.799148894203506,8.897801474395326,0.3111111111111111,-0.3388888888888889,-0.6133333333333333,-0.0030326704069207917,0.001423493963262714,0.001423493963262714
1589996616.8846104,-3.840694018404908,-0.82,8.888611963190183,0.3111111111111111,-0.3388888888888889,-0.6133333333333333,0.0,0.001166536446465727,0.0018432865254838502
1589996616.8946104,-3.822097605111066,-0.8241952102221319,8.95097605111066,0.3111111111111111,-0.3388888888888889,-0.6133333333333333,0.0006864396674017988,5.323532983987525e-05,0.00040439111509465715
1589996616.9046104,-3.8298423103199957,-0.839684620639991,9.028423103199955,0.3111111111111111,-0.3388888888888889,-0.6133333333333333,0.003220888520380113,0.004277316751470399,-0.0021300577378836573
1589996616.9146104,-3.8582443919987166,-0.8305852026670943,9.067659189331623,0.3037884909632956,-0.3503958634068846,-0.5997341816302475,0.006353477569999063,0.0012823379074761282,0.001926318731686682
1589996616.9246104,-3.8164567915036334,-0.8078477361654556,9.022020570150923,0.3033333333333333,-0.3511111111111111,-0.5988888888888889,0.0028029412189343817,0.001090830782496456,0.0007043266928324798
1589996616.9346104,-3.84,-0.7982421985360216,8.927031205855913,0.3033333333333333,-0.3511111111111111,-0.5988888888888889,0.0018578163610664567,0.001090830782496456,0.003080745952846868
1589996616.9446104,-3.8362574787745256,-0.7918712606127373,8.96,0.3033333333333333,-0.3511111111111111,-0.5988888888888889,0.00422941670541414,0.0006825850468070759,0.0017734158293035319
1589996616.9546103,-3.820324412619423,-0.7998377936902885,8.96,0.3033333333333333,-0.3511111111111111,-0.5988888888888889,-0.0009846670010473903,-0.0010554428553467673,3.5387927149688626e-05
1589996616.9646103,-3.8356830253686347,-0.8178415126843174,8.942158487315682,0.2977777777777777,-0.3466666666666667,-0.6222222222222222,0.00023545444075747418,0.0015617396640114044,0.0028015834659744195
1589996616.9746103,-3.822666331007696,-0.81,8.943334172480759,0.2977777777777777,-0.3466666666666667,-0.6222222222222222,0.001090830782496456,0.0031270665505133788,0.001090830782496456
1589996616.9846103,-3.852834640005754,-0.81,8.867913399985614,0.2977777777777777,-0.3466666666666667,-0.6222222222222222,0.001090830782496456,0.0014816405449660558,0.001090830782496456
1589996616.9946103,-3.830832257222037,-0.8183354855559263,8.994161286110185,0.2977777777777777,-0.3466666666666667,-0.6222222222222222,0.002181661564992912,-0.000818475243470629,-0.0009092604231459047
1589996617.0046103,-3.836917920517694,-0.8061641589646117,9.02458960258847,0.2977777777777777,-0.3466666666666667,-0.6222222222222222,0.002181661564992912,0.0011730534129729307,0.00041842534781646817
1589996617.0146103,-3.84,-0.7921628681759674,9.079185659120164,0.30822728687648804,-0.35624538334048444,-0.6039355812994792,0.0030365600290066597,0.0004718646369654162,0.0002359323184827081
1589996617.0246103,-3.831238422287248,-0.8162847331382553,9.011145800585235,0.3111111111111111,-0.3588888888888889,-0.5988888888888889,0.003272492347489368,0.0019114797344609129,0.0
1589996617.0346103,-3.853883773232623,-0.8079612577442078,8.917961257744208,0.3111111111111111,-0.3588888888888889,-0.5988888888888889,-0.00022239228101944423,0.0019592692839734676,0.0008684385014770117
1589996617.0446103,-3.828234965258366,-0.8017650347416341,8.911765034741634,0.3111111111111111,-0.3588888888888889,-0.5988888888888889,-0.0008982953596614454,0.00080202764824394,0.0
1589996617.0546103,-3.8114859036818145,-0.8185140963181854,8.928514096318185,0.3111111111111111,-0.3588888888888889,-0.5988888888888889,0.0009287438349016429,-0.0019385311436006926,0.0
1589996617.0646102,-3.8351742079957845,-0.8032171946694768,8.98034841599157,0.3045844645936854,-0.34210608355836575,-0.6063479134802325,-0.0007398892846215727,0.00239513860280216,0.0
1589996617.0746102,-3.8420252163781625,-0.8079747836218376,8.979873918109188,0.3033333333333333,-0.3388888888888889,-0.6077777777777778,-0.003272492347489368,-0.0013117476191480144,0.0017398278916897951
1589996617.0846102,-3.847019058881769,-0.8,8.94496823519705,0.3033333333333333,-0.3388888888888889,-0.6077777777777778,-0.0028389320364792534,-0.0020732714872403833,-0.0003251702332575861
1589996617.0946102,-3.82,-0.8050720773728534,8.998453462288088,0.3033333333333333,-0.3388888888888889,-0.6077777777777778,0.0007219789071956465,-0.0012752567201468608,-0.002534788596887749
1589996617.1046102,-3.82,-0.8282083624462178,9.037013937410363,0.3033333333333333,-0.3388888888888889,-0.6077777777777778,-0.0009605392228469692,-0.0021165157851681686,0.0008302476631974823
1589996617.1146102,-3.8270698787817055,-0.83,9.045349393908527,0.3111111111111111,-0.3644444444444445,-0.5933333333333334,-0.000931017461428357,-0.000931017461428357,0.001090830782496456
1589996617.1246102,-3.812883733661808,-0.827116266338192,8.948465065352769,0.3111111111111111,-0.3644444444444445,-0.5933333333333334,0.0,0.0,0.0007762642378143192
1589996617.1346102,-3.827234996236228,-0.812765003763772,8.89106001505509,0.3111111111111111,-0.3644444444444445,-0.5933333333333334,0.0,0.0,-0.000789215660572352
1589996617.1446102,-3.847611691891611,-0.8011941540541947,8.915223383783221,0.3111111111111111,-0.3644444444444445,-0.5933333333333334,0.0009605687823606125,0.0009605687823606125,-0.0001302620001358435
1589996617.1546102,-3.8374277155070855,-0.7937138577535428,8.932572284492915,0.3111111111111111,-0.3644444444444445,-0.5933333333333334,-0.00028059271062095366,0.00040511903593775116,0.0
1589996617.1646101,-3.845224818077365,-0.8128372271160474,8.970449636154731,0.3111111111111111,-0.3602153283118431,-0.6085581514106984,-0.0027516008041662808,0.0,0.0
1589996617.1746101,-3.848589984939759,-0.818589984939759,8.987309864457831,0.3111111111111111,-0.3588888888888889,-0.6133333333333333,-0.002657257214891593,0.002503448431742149,0.0017202352155445805
1589996617.1846101,-3.839039809338865,-0.8109601906611352,8.918641715950216,0.3111111111111111,-0.3588888888888889,-0.6133333333333333,0.0008813496764500891,-0.0019721804589465453,-0.0008813496764500891
1589996617.19461,-3.831635272310001,-0.8183647276899991,8.985282549209993,0.3111111111111111,-0.3588888888888889,-0.6133333333333333,-0.0007340697077938461,-0.0003567610747026099,0.0007340697077938461
1589996617.20461,-3.83,-0.82,9.0,0.3111111111111111,-0.3588888888888889,-0.6133333333333333,0.0007159328561332889,-0.0009033818193148724,0.00018744896318158353
1589996617.21461,-3.83,-0.8121843117206429,9.039078441396786,0.3050322424493888,-0.3493363809918968,-0.6020440058187063,0.0002382714463444991,0.0023194065621113718,-0.0025576780084558704
1589996617.22461,-3.8388486226754206,-0.8088486226754209,9.002729340131314,0.3033333333333333,-0.3466666666666667,-0.5988888888888889,0.0,0.0028957049991135794,0.001090830782496456
1589996617.23461,-3.831156329090709,-0.8011563290907091,8.887344936360634,0.3033333333333333,-0.3466666666666667,-0.5988888888888889,0.0,0.0003784078100524603,0.001090830782496456
1589996617.24461,-3.831072908337574,-0.81,8.935364541687868,0.3033333333333333,-0.3466666666666667,-0.5988888888888889,-0.0019475892767084357,-0.002181661564992912,0.0008567584942119798
1589996617.25461,-3.838695027985753,-0.81,8.973475139928764,0.3033333333333333,-0.3466666666666667,-0.5988888888888889,-0.0002847007286874699,-0.002181661564992912,-0.0008061300538089861
1589996617.26461,-3.830614098545133,-0.82,8.99,0.3244444444444444,-0.3388888888888889,-0.5933333333333334,0.0008898675035412372,0.0001339755193034792,0.0010238430228447163
1589996617.27461,-3.8390424805079975,-0.82,8.99,0.3244444444444444,-0.3388888888888889,-0.5933333333333334,-0.001868314043977985,0.001972763217649627,0.00010444917367164255
1589996617.28461,-3.82,-0.8057209375562354,8.912852708295842,0.3244444444444444,-0.3388888888888889,-0.5933333333333334,0.0007796485802375921,0.0024945368418422082,0.00015559110112943196
1589996617.29461,-3.8210633924106894,-0.7810633924106896,8.934253569642758,0.3244444444444444,-0.3388888888888889,-0.5933333333333334,-0.0010328317237237958,-0.002007664388674932,0.001148829841269116
1589996617.30461,-3.8327148730485026,-0.7927148730485027,8.98085949219401,0.3244444444444444,-0.3388888888888889,-0.5933333333333334,-0.0003973420366543914,-0.00010119532746671791,0.0017843195283385204
1589996617.31461,-3.820144848204135,-0.8132367678639101,9.003381616068046,0.31561993253517107,-0.3469780248057228,-0.5874503253938178,0.0014439073846712954,0.0003688770901608083,0.0007377541803216166
1589996617.32461,-3.84,-0.83,9.015684414412432,0.3111111111111111,-0.3511111111111111,-0.5844444444444444,-0.0019213968745198729,0.0008305660920234169,0.0020515292197563926
1589996617.33461,-3.8403936526066738,-0.8292126947866525,8.91196826303337,0.3111111111111111,-0.3511111111111111,-0.5844444444444444,-4.294083809696827e-05,-0.001090830782496456,0.0010478899443994876
1589996617.34461,-3.848948560006527,-0.8121028799869463,8.954742800032635,0.3111111111111111,-0.3511111111111111,-0.5844444444444444,-0.0009761364714136211,-0.001090830782496456,0.00011469431108283488
1589996617.35461,-3.8450653914769757,-0.81,8.989607651138147,0.3176905891418104,-0.3549491399623524,-0.5877341834597941,0.0010622983680973455,-0.001090830782496456,0.0
1589996617.36461,-3.8385220542738443,-0.810738972863078,9.017044108547688,0.3244444444444444,-0.3588888888888889,-0.5911111111111111,0.0031918829128418794,-0.001090830782496456,-8.060943464748848e-05
1589996617.37461,-3.8236920357111286,-0.8181539821444356,8.987384071422257,0.3244444444444444,-0.3588888888888889,-0.5911111111111111,0.0023830308751816858,-0.001090830782496456,-0.000889461472307682
1589996617.38461,-3.833455353138415,-0.8334553531384148,8.946361617153963,0.3244444444444444,-0.3588888888888889,-0.5911111111111111,0.0029155372346300746,0.0011107962264150317,0.000376920556777869
1589996617.39461,-3.8302175430860252,-0.8106526292580752,8.920217543086025,0.3244444444444444,-0.3588888888888889,-0.5911111111111111,0.002205391834468453,0.0011145610519719973,2.3730269475541292e-05
1589996617.40461,-3.8379262027985432,-0.8179262027985432,8.959631013992716,0.3244444444444444,-0.3588888888888889,-0.5911111111111111,0.004775505365281063,0.0019554453825925064,0.0017292292001921008
1589996617.41461,-3.8106115587903995,-0.8,8.9787768824192,0.2977777777777777,-0.3511111111111111,-0.6133333333333333,0.0011575414978838572,-0.0021149508496055105,0.0021149508496055105
1589996617.42461,-3.817880079715796,-0.8,8.964239840568409,0.2977777777777777,-0.3511111111111111,-0.6133333333333333,0.0019504141347480605,-0.0013220782127413074,0.0013220782127413074
1589996617.43461,-3.8496339217012148,-0.7907321565975703,8.883660782987853,0.2977777777777777,-0.3511111111111111,-0.6133333333333333,0.00210179566956915,0.0011307637302083368,0.0
1589996617.4446099,-3.840115748016937,-0.810115748016937,8.980115748016937,0.2977777777777777,-0.3511111111111111,-0.6133333333333333,2.525229997754494e-05,0.002181661564992912,1.262614998877247e-05
1589996617.4546099,-3.8478710500526967,-0.8178710500526968,8.987871050052696,0.2977777777777777,-0.3511111111111111,-0.6133333333333333,0.0017171967376104,0.002181661564992912,0.0008585983688052
1589996617.4646099,-3.8435174691095013,-0.8264825308904985,8.99,0.3013791838280547,-0.3482299862708896,-0.6190955830137764,0.0028887959893769055,0.0007673927162249246,0.0003836963581124623
1589996617.4746099,-3.84,-0.8255614506614541,9.007754197354183,0.3033333333333333,-0.3466666666666667,-0.6222222222222222,0.0018199804730548396,0.0009683412496230188,0.0
1589996617.4846098,-3.832419888671581,-0.8162099443357905,8.988309387693697,0.3033333333333333,-0.3466666666666667,-0.6222222222222222,0.00041343093858946847,0.002181661564992912,0.00041343093858946847
1589996617.4946098,-3.8361561917668983,-0.81,8.941541589022531,0.3033333333333333,-0.3466666666666667,-0.6222222222222222,-8.408063798676741e-05,0.0015942058547513001,0.0022657422029796793
1589996617.5046098,-3.831008733350088,-0.7973391555667253,8.966330422216638,0.3033333333333333,-0.3466666666666667,-0.6222222222222222,0.00029025310152503716,0.0017813727245072025,0.0005103245794463819
1589996617.5146098,-3.82,-0.7965051590713672,8.963494840928634,0.30839290149995224,-0.34955784847616317,-0.6070435177223655,0.0025100363345131266,0.0028912643410012474,-0.0018004335585047912
1589996617.5246098,-3.839544209404961,-0.8195442094049612,8.930683685892557,0.3111111111111111,-0.3511111111111111,-0.5988888888888889,-0.0009913927002083139,0.0022065210855649474,-0.0011156903030684914
1589996617.5346098,-3.83296691332823,-0.80593382665646,8.88076839329761,0.3111111111111111,-0.3511111111111111,-0.5988888888888889,-0.002625212270002911,0.000647280077486457,0.00044355070500999897
1589996617.5446098,-3.83,-0.8193485213408614,8.937394085363445,0.3111111111111111,-0.3511111111111111,-0.5988888888888889,-0.006438386748649572,-0.002110596267440136,0.0021461289162165243
1589996617.5546098,-3.8374777674723117,-0.82,9.007299907250804,0.3111111111111111,-0.3511111111111111,-0.5988888888888889,-0.004097891012034261,0.0002654321179515629,0.002181661564992912
1589996617.5646098,-3.8496374653560794,-0.82,9.040181267321959,0.3111111111111111,-0.3511111111111111,-0.5777777777777777,-0.004383096327451331,0.0021421151700618977,0.001110603979961963
1589996617.5746098,-3.83519701847102,-0.82,9.047401490764491,0.3111111111111111,-0.3511111111111111,-0.5777777777777777,-0.005170700526212737,0.0005669067725390853,0.0018982081787233692
1589996617.5846097,-3.83,-0.8110464883612353,8.996278930167412,0.3111111111111111,-0.3511111111111111,-0.5777777777777777,0.0004059057517206517,-0.001953353221400977,0.00022830834359193483
1589996617.5946097,-3.8393544343465997,-0.81,8.9806455656534,0.3111111111111111,-0.3511111111111111,-0.5777777777777777,0.0021112412763077755,0.0029203909040636865,0.002040820987622639
1589996617.6046097,-3.84,-0.8039153275170073,8.986084672482994,0.3111111111111111,-0.3511111111111111,-0.5777777777777777,0.0015179267604071571,0.0026087575429036133,0.002181661564992912
1589996617.6146097,-3.8275567991046446,-0.8062216004476778,8.965113598209289,0.3062720885406951,-0.3511111111111111,-0.590912267611764,0.00041215945402440243,0.0035390042219370192,0.0028603328934649654
1589996617.6246097,-3.774090909090909,-0.7732727272727273,8.812272727272727,0.3033333333333333,-0.3511111111111111,-0.5988888888888889,-0.0030047429736038745,0.009371228085992282,0.0042740733386906595
1589996617.6346097,-3.6724786793676127,-0.77,8.741487207620567,0.3033333333333333,-0.3511111111111111,-0.5988888888888889,-0.011782833027130561,0.026838158401750488,0.006490908299896122
1589996617.6446097,-3.6130974107184213,-0.7036136458381583,8.721032470239475,0.3033333333333333,-0.3511111111111111,-0.5988888888888889,-0.037862095270835526,0.07899668288916041,0.005510466428443756
1589996617.6546097,-3.441933982225984,-0.7080031437035246,8.760015718517623,0.3033333333333333,-0.3511111111111111,-0.5988888888888889,-0.07331720265320688,0.15950998071330513,-0.006767951799483936
1589996617.6646097,-2.910866642514994,-0.37278428531175783,8.90323914181057,0.3111111111111111,-0.3511111111111111,-0.6077777777777778,-0.12942000519292304,0.285548262009419,-0.04700495794145226
1589996617.6746097,-3.0543740691542887,-0.5416165519462224,9.342203035060178,0.3111111111111111,-0.3511111111111111,-0.6077777777777778,-0.18190772374712713,0.33987765489885835,-0.10593853666897968
1589996617.6846097,-2.7717396393041445,-0.8781443847422461,9.65843432462627,0.3111111111111111,-0.3511111111111111,-0.6077777777777778,-0.13448213609061963,0.1321458187808082,-0.3097355307354265
1589996617.6946096,-2.515594280431918,-0.6994540054678127,8.872162932950454,0.3111111111111111,-0.3511111111111111,-0.6077777777777778,0.012641454992536216,0.03063671939448183,-0.42815864497726824
1589996617.7046096,-2.452931131019037,-0.66,8.834308510638298,0.3111111111111111,-0.3511111111111111,-0.6077777777777778,0.023904524401308812,0.0758118232322306,-0.5108465606443552
1589996617.7146096,-2.206153819671567,-0.9038461803284332,9.046061555410198,0.32411624072862755,-0.3326871774862961,-0.6056102561748583,-0.011327861014693286,0.040854123288804264,-0.5802582096110505
1589996617.7246096,-2.283090255617883,-0.8269097443821168,8.932288804541333,0.3244444444444444,-0.3322222222222222,-0.6055555555555555,0.009904901792964781,0.02794023210068666,-0.5829234305465024
1589996617.7346096,-2.294036919019888,-0.6774933157528478,8.871345639673295,0.3244444444444444,-0.3322222222222222,-0.6055555555555555,0.008306422908314404,0.03518002187376586,-0.6185241064301877
1589996617.7446096,-1.98161115289567,-1.091744385946062,9.17838884710433,0.3244444444444444,-0.3322222222222222,-0.6055555555555555,-0.0001830162530211902,0.041573580570212786,-0.653857434023528
1589996617.7546096,-1.8877351745751922,-1.2422648254248079,8.95601929386416,0.3244444444444444,-0.3322222222222222,-0.6055555555555555,0.05465649274334943,0.07747937989225842,-0.6799553008735157
1589996617.7646096,-2.0049518772631982,-1.1068441490375454,8.58864017533829,0.3244444444444444,-0.3362675497109459,-0.6015102280668319,0.08719229566972685,0.10168026231466762,-0.7081716786301688
1589996617.7746096,-2.30027496938954,-1.20018331292636,9.12403603288438,0.3244444444444444,-0.3388888888888889,-0.5988888888888889,0.010097769227090686,0.045264535630456765,-0.7734590138048582
1589996617.7846096,-2.365185924179213,-1.2024070379103935,9.112035189551968,0.3244444444444444,-0.3388888888888889,-0.5988888888888889,0.011645850313946155,0.04585545522843029,-0.8144877097697105
1589996617.7946095,-2.3791773341015556,-1.1632906635937774,8.934807986171998,0.3244444444444444,-0.3388888888888889,-0.5988888888888889,0.051131459839036636,0.07793957111896482,-0.8432401221489936
1589996617.8046095,-2.435889836634379,-1.1669862295792972,8.94794491831719,0.3244444444444444,-0.3388888888888889,-0.5988888888888889,0.04158618885105854,0.07386276305392138,-0.8728287158380188
1589996617.8146095,-2.478866487455197,-1.2171662186379928,8.978866487455198,0.3370221027479092,-0.3388888888888889,-0.5915519215452012,0.02364932865815569,0.06781697907121281,-0.9196500115699365
1589996617.8246095,-2.50492754516865,-1.2116908182771167,8.913526546216934,0.3377777777777778,-0.3388888888888889,-0.5911111111111111,0.03287774875317153,0.07397624635525497,-0.9489437448115395
1589996617.8346095,-2.51,-1.1849154349766888,8.72440804483682,0.3377777777777778,-0.3388888888888889,-0.5911111111111111,0.04037918817847894,0.08256412817704525,-0.9836641514235582
1589996617.8446095,-2.5565367248645394,-1.2331848284166165,8.803017760385309,0.3377777777777778,-0.3388888888888889,-0.5911111111111111,0.03129883133510376,0.07529162305243148,-1.0118645833237576
1589996617.8546095,-2.5875512503521017,-1.2675512503521016,8.867551250352102,0.3377777777777778,-0.3388888888888889,-0.5911111111111111,0.027415509229476397,0.07131585767879012,-1.0376142625598928
1589996617.8646095,-2.6018054630246503,-1.2818054630246503,8.882708194536976,0.3405862758161226,-0.3364816048560219,-0.5918132356206973,0.030634103913772893,0.07297955896673988,-1.0639386424061836
1589996617.8746095,-2.6518975486972494,-1.313670378013107,8.93278396335518,0.3688888888888889,-0.31222222222222223,-0.5988888888888889,0.04204533154585979,0.08290313946973066,-1.105646158802023
1589996617.8846095,-2.6972431057455486,-1.3879448459643882,8.96,0.3688888888888889,-0.31222222222222223,-0.5988888888888889,0.03750106838080469,0.08290313946973066,-1.1459792440657735
1589996617.8946095,-2.6885858700775245,-1.432828259844951,8.971414129922476,0.3688888888888889,-0.31222222222222223,-0.5988888888888889,0.03848759267735309,0.0847707721109582,-1.1715302058660408
1589996617.9046094,-2.688308054463259,-1.4541540272316293,8.971691945536742,0.3688888888888889,-0.31222222222222223,-0.5988888888888889,0.04262640934016379,0.08798816812745595,-1.1964237158076847
1589996617.9146094,-2.7,-1.48545489102889,8.924363152559554,0.3864244804865687,-0.31222222222222223,-0.6034142028495805,0.04359353456889866,0.09164963409518209,-1.2285533382077265
1589996617.9246094,-2.7122794037645526,-1.5284191056468284,8.853161788706343,0.4033333333333333,-0.31222222222222223,-0.6077777777777778,0.04145156973486533,0.09472982925476023,-1.2636392194715746
1589996617.9346094,-2.7007132928693878,-1.565715609507483,8.765710976231293,0.4033333333333333,-0.31222222222222223,-0.6077777777777778,0.03934771635175878,0.09529182439865261,-1.2931028425857058
1589996617.9446094,-2.6751462806909485,-1.5948537193090513,8.79684173689073,0.4033333333333333,-0.31222222222222223,-0.6077777777777778,0.04141965623875097,0.09571242279003542,-1.3251360062603934
1589996617.9546094,-2.675918750903571,-1.6295937545178545,8.849593754517855,0.4033333333333333,-0.31222222222222223,-0.6077777777777778,0.041896764949407396,0.09534747329173374,-1.3471991987056655
1589996617.9646094,-2.67246584938704,-1.627397548161121,8.90013660245184,0.41756450671336837,-0.29213115392099637,-0.6077777777777778,0.04720450812087203,0.09736782309976597,-1.3783615502879019
1589996617.9746094,-2.7280756326017057,-1.6697791136586047,8.959779113658605,0.4222222222222222,-0.2855555555555556,-0.6077777777777778,0.049992395037410445,0.10088979989989082,-1.4061703197471074
1589996617.9846094,-2.784412336760211,-1.7022061683801055,8.903381494859683,0.4222222222222222,-0.2855555555555556,-0.6077777777777778,0.046948459724127825,0.09983238463681582,-1.4241706659184314
1589996617.9946094,-2.8188966188069613,-1.7477932376139222,8.917793237613923,0.4222222222222222,-0.2855555555555556,-0.6077777777777778,0.047876194212824616,0.09995270165650197,-1.4399819322595488
1589996618.0046093,-2.8336328502415458,-1.773632850241546,8.936367149758453,0.4222222222222222,-0.2855555555555556,-0.6077777777777778,0.04829482023800493,0.1027341269126807,-1.4519895724106495
1589996618.0146093,-2.839867409884801,-1.7798674098848013,8.930132590115198,0.4222222222222222,-0.2855555555555556,-0.6077777777777778,0.04693465032317033,0.10681463665718452,-1.4615107618144918
1589996618.0246093,-2.803844691343355,-1.8317960905472046,8.850252510248945,0.44,-0.2611111111111111,-0.6133333333333333,0.049702699064697556,0.1087473582417238,-1.476089971803409
1589996618.0346093,-2.7801861507399437,-1.8803723014798872,8.754906924630028,0.44,-0.2611111111111111,-0.6133333333333333,0.04797624853411256,0.10412357498908278,-1.4836110877781061
1589996618.0446093,-2.7862593389178176,-1.9112219832465474,8.746259338917818,0.44,-0.2611111111111111,-0.6133333333333333,0.04731376647288072,0.1043035625509022,-1.487893187325166
1589996618.0546093,-2.7769399937166193,-1.9544800502670436,8.773660069117184,0.44,-0.2611111111111111,-0.6133333333333333,0.04933173404926165,0.10874928334479121,-1.4855566229911852
1589996618.0646093,-2.777103941267388,-2.038415765069552,8.892623647604328,0.4778876867594024,-0.2334846728490469,-0.6291198694830843,0.05003511821637579,0.10411764856139233,-1.4740580135984798
1589996618.0746093,-2.799152312491523,-2.069152312491523,8.91,0.4933333333333334,-0.2222222222222222,-0.6355555555555555,0.051176578414515,0.10323449128872503,-1.4624775550449627
1589996618.0846093,-2.8052047373841402,-2.10877157569516,8.86684263645726,0.4933333333333334,-0.2222222222222222,-0.6355555555555555,0.053929123581290234,0.10572125236577713,-1.4521191053437303
1589996618.0946093,-2.768484122983871,-2.1610105846774195,8.867273815524193,0.4933333333333334,-0.2222222222222222,-0.6355555555555555,0.05276749584177207,0.10512737340160198,-1.4401388946460967
1589996618.1046093,-2.7342865950887636,-2.2028536196449453,8.904286595088763,0.4933333333333334,-0.2222222222222222,-0.6355555555555555,0.04893174440482837,0.10253809355466686,-1.4275868852377922
1589996618.1146092,-2.701294520773615,-2.22,8.885647260386808,0.4885490867956026,-0.1975036151106132,-0.6459214230539723,0.05034501595732803,0.10253809355466686,-1.4153979557929266
1589996618.1246092,-2.675616636138347,-2.2631500915849583,8.786508134899258,0.4866666666666667,-0.18777777777777774,-0.65,0.04891557436891273,0.10018462114624616,-1.4039964645020346
1589996618.1346092,-2.6422156551823552,-2.293892172408822,8.701377396569121,0.4866666666666667,-0.18777777777777774,-0.65,0.04648115349991494,0.09850790074221293,-1.3938074205407682
1589996618.1446092,-2.6229766223781263,-2.328093510487494,8.715116888109367,0.4866666666666667,-0.18777777777777774,-0.65,0.0450487612141475,0.09817477042468103,-1.386978589429463
1589996618.1546092,-2.630999292865384,-2.36749823216346,8.746498939298077,0.4866666666666667,-0.18777777777777774,-0.65,0.04592389880668013,0.09877468878684374,-1.3841552570461735
1589996618.1646092,-2.617857988903435,-2.4084516759138044,8.815355027741413,0.5038882308528839,-0.17588669774443727,-0.6475397765448261,0.04650317052583909,0.09846049496416044,-1.3851861978130486
1589996618.1746092,-2.5734448596014494,-2.44,8.893612149003623,0.5333333333333333,-0.15555555555555556,-0.6433333333333333,0.04724500265091619,0.09744146708870084,-1.3875550037784397
1589996618.1846092,-2.55123793012112,-2.4662862096366394,8.82495172048448,0.5333333333333333,-0.15555555555555556,-0.6433333333333333,0.052089803103290394,0.09913056397890774,-1.3872666808789524
1589996618.1946092,-2.5124157355420906,-2.510344099171716,8.811032297515148,0.5333333333333333,-0.15555555555555556,-0.6433333333333333,0.053413172945452406,0.10073255404946407,-1.3934796374983862
1589996618.2046092,-2.4507316558155905,-2.5346341720922045,8.853780397677284,0.5333333333333333,-0.15555555555555556,-0.6433333333333333,0.05101629189885528,0.102458282286083,-1.4018904991178402
1589996618.2146091,-2.42,-2.567899927018993,8.807159970807598,0.535719990269199,-0.13964450931645078,-0.6560621703246171,0.04978770016690182,0.10424852259041563,-1.4092050052614127
1589996618.2246091,-2.4081064669567858,-2.603964511014405,8.825946766521607,0.54,-0.1111111111111111,-0.6788888888888889,0.047573771484119884,0.1018797238373763,-1.4180509828869474
1589996618.2346091,-2.3526835060883564,-2.645607728690752,8.787809801751031,0.54,-0.1111111111111111,-0.6788888888888889,0.04145156973486533,0.10402797717610174,-1.437554832058365
1589996618.244609,-2.3321760647870424,-2.6978239352129574,8.687823935212958,0.54,-0.1111111111111111,-0.6788888888888889,0.04486540548308609,0.10685340246229774,-1.4533173033090971
1589996618.254609,-2.304533073929961,-2.7409338521400777,8.74124513618677,0.54,-0.1111111111111111,-0.6788888888888889,0.05074060929709682,0.10904912242762237,-1.4679335306921324
1589996618.264609,-2.2655724142665887,-2.763893103566647,8.786106896433353,0.5359287357110981,-0.0961831420518043,-0.6829601531777908,0.05326752396183914,0.10865840652865105,-1.4827971266732314
1589996618.274609,-2.224969224791935,-2.791288469010081,8.802515387604032,0.5333333333333333,-0.08666666666666667,-0.6855555555555556,0.05590675613015811,0.11317872926565155,-1.4988149233678485
1589996618.284609,-2.2043308634870393,-2.8383456825648032,8.758977771383353,0.5333333333333333,-0.08666666666666667,-0.6855555555555556,0.057341607551666916,0.11686487666832676,-1.513385769049175
1589996618.294609,-2.179787567178706,-2.8549468917946763,8.765477973847911,0.5333333333333333,-0.08666666666666667,-0.6855555555555556,0.05450677988572078,0.11670730731408678,-1.5283466175818068
1589996618.304609,-2.13794005799306,-2.867647953605552,8.805588011598612,0.5333333333333333,-0.08666666666666667,-0.6855555555555556,0.05126904677733343,0.11370296984052376,-1.545643491505959
1589996618.314609,-2.092908804302471,-2.8814544021512356,8.83845519031944,0.5390303985658429,-0.06387840573662819,-0.7016972403809996,0.04847250642085311,0.11685782052759913,-1.564072967573057
1589996618.324609,-2.07,-2.87,8.819585500694464,0.5466666666666666,-0.03333333333333333,-0.7233333333333334,0.04779647421741688,0.124866777893773,-1.577653299966625
1589996618.334609,-2.07,-2.8925314106583073,8.700570031347963,0.5466666666666666,-0.03333333333333333,-0.7233333333333334,0.049425700053397165,0.12667443780304996,-1.5853913280677336
1589996618.344609,-2.04082355739923,-2.931882331950578,8.695529387275673,0.5466666666666666,-0.03333333333333333,-0.7233333333333334,0.04799655442984406,0.1248423774022275,-1.591034443464698
1589996618.354609,-1.9909337318048679,-2.9692997011463493,8.739182984670741,0.5466666666666666,-0.03333333333333333,-0.7233333333333334,0.04799655442984406,0.12008050862170291,-1.5957963122452223
1589996618.364609,-1.955192821121329,-2.984035894393355,8.79,0.5504055835722996,-0.015172879791687268,-0.7302770361580804,0.05170929456125109,0.12435470920459595,-1.5953189858796006
1589996618.374609,-1.945175599644655,-3.0051755996446547,8.794824400355346,0.5544444444444444,0.004444444444444445,-0.7377777777777778,0.05138397647600451,0.12645975097047482,-1.5927278721434968
1589996618.384609,-1.8875544496036532,-3.0121028193222337,8.7636915420333,0.5544444444444444,0.004444444444444445,-0.7377777777777778,0.046236270713619305,0.13091838697986274,-1.5840595989486623
1589996618.394609,-1.815180175185719,-3.0610810511143143,8.741081051114314,0.5544444444444444,0.004444444444444445,-0.7377777777777778,0.04363323129985824,0.1324769778816721,-1.5677744388804191
1589996618.404609,-1.8065368447985963,-3.0989754368009357,8.774487718400467,0.5544444444444444,0.004444444444444445,-0.7377777777777778,0.03971695820033335,0.13334736458677776,-1.554992677595526
1589996618.414609,-1.769794896419262,-3.097876937851557,8.751712854986966,0.571057529610829,0.007587460557003705,-0.7539418606423682,0.03578819899786253,0.13591304083306902,-1.54192679948116
1589996618.424609,-1.7072063534436732,-3.0718015883609184,8.726396823278163,0.5955555555555555,0.012222222222222223,-0.7777777777777778,0.035299630648182,0.13258009309451427,-1.5266077247441059
1589996618.434609,-1.6250541634304867,-3.014301598332175,8.733871152352533,0.5955555555555555,0.012222222222222223,-0.7777777777777778,0.028033231874879494,0.12519926363457115,-1.5160085113175525
1589996618.444609,-1.5701818822961713,-2.99268703253466,8.681070692823074,0.5955555555555555,0.012222222222222223,-0.7777777777777778,0.01770672173868999,0.12001122635535563,-1.4971839656493953
1589996618.454609,-1.62,-3.132540943313239,8.695081886626477,0.5955555555555555,0.012222222222222223,-0.7777777777777778,0.02072578486743266,0.12818154938861728,-1.4785295010811705
1589996618.464609,-1.630277901289462,-3.1805558025789242,8.732870164517562,0.6016461637270886,0.011460896200780595,-0.773209821649128,0.0210994999042995,0.13379847121019725,-1.4545823485166771
1589996618.474609,-1.65,-3.22,8.7453666585187,0.6133333333333333,0.01,-0.7644444444444445,0.022229010213355806,0.13349375002799432,-1.428908332590585
1589996618.484609,-1.634798610459112,-3.250402779081776,8.789597220918223,0.6133333333333333,0.01,-0.7644444444444445,0.021801970189230874,0.12588111442310385,-1.3999128865361712
1589996618.4946089,-1.5723302961275627,-3.2323302961275626,8.72292356365477,0.6133333333333333,0.01,-0.7644444444444445,0.00974809567682868,0.12012081697079703,-1.3730924274531182
1589996618.5046089,-1.53,-3.217821115941166,8.745642231882332,0.6133333333333333,0.01,-0.7644444444444445,0.005563823773204893,0.11104540009319327,-1.346103525259468
1589996618.5146089,-1.5057805907172996,-3.26937552742616,8.780936708860759,0.6090276605719643,-0.005608063759962496,-0.7961987810595406,0.01464106632540602,0.10134508368621503,-1.3122860009247428
1589996618.5246089,-1.48,-3.3231401560115312,8.85494382736985,0.6044444444444445,-0.022222222222222227,-0.83,0.02046581771278607,0.09748969465683711,-1.27986769215372
1589996618.5346088,-1.4291303498143444,-3.2838694547586478,8.741608364275944,0.6044444444444445,-0.022222222222222227,-0.83,0.014583919384824612,0.08441606228844814,-1.2553185567672165
1589996618.5446088,-1.4004726403150936,-3.2762997608665074,8.667717681811787,0.6044444444444445,-0.022222222222222227,-0.83,0.015477859196851528,0.07912389952634952,-1.2223572936342495
1589996618.5546088,-1.4108441952544724,-3.351363544406231,8.80136354440623,0.6044444444444445,-0.022222222222222227,-0.83,0.02466410612525194,0.08405062245638728,-1.1918672616179826
1589996618.5646088,-1.3926613392676512,-3.3937902083754805,8.84379020837548,0.6044444444444445,-0.022222222222222227,-0.83,0.02598640072686024,0.0906620954644288,-1.1693882533906417
1589996618.5746088,-1.413075093172627,-3.46519368012053,8.797494052811038,0.5255555555555556,-0.03555555555555556,-0.67,0.014874106129904146,0.07497413781056712,-1.1321754186372477
1589996618.5846088,-1.3800917685218146,-3.4901835370436296,8.690458842609074,0.5255555555555556,-0.03555555555555556,-0.67,0.033795733471698175,0.08395392868084318,-1.0948337314839867
1589996618.5946088,-1.3400349977818307,-3.451707497412136,8.560958742051561,0.5255555555555556,-0.03555555555555556,-0.67,0.031634092692397225,0.0787222577477899,-1.0395731887164446
1589996618.6046088,-1.27,-3.420558516160288,8.377411354880385,0.5255555555555556,-0.03555555555555556,-0.67,0.05185604746555897,0.09169627187470324,-0.9932152053450777
1589996618.6146088,-1.2809346218705409,-3.49,8.798038656116228,0.5170508496562459,0.0017031560033246365,-0.6465108122780973,0.04146161630193723,0.07746924377582762,-0.9582387608820638
1589996618.6246088,-1.2667844616504533,-3.47754417311892,9.012932962742372,0.5022222222222222,0.06666666666666668,-0.6055555555555555,-0.008784468737423813,0.03213132268576865,-0.9343640247652419
1589996618.6346087,-1.3360659982189387,-3.5840705498202445,9.07432088789208,0.5022222222222222,0.06666666666666668,-0.6055555555555555,0.025095314280936434,0.055198271856387135,-0.8874885050774435
1589996618.6446087,-1.3110966157624127,-3.4705755506100835,9.3553710382933,0.5022222222222222,0.06666666666666668,-0.6055555555555555,0.03468584060174346,0.06318623286111522,-0.848060954858598
1589996618.6546087,-0.8042140035779441,-2.871631330038791,8.040047469755743,0.5022222222222222,0.06666666666666668,-0.6055555555555555,0.042566262501108405,0.1293543647821213,-0.7855709357526405
1589996618.6646087,-1.2401974320640226,-3.7388329962184503,9.789694398030075,0.5083263467495286,0.0910831647758919,-0.6028426113211972,0.106313887608283,0.10019593951767351,-0.7519016193615652
1589996618.6746087,-1.4,-3.85,10.95,0.5222222222222223,0.14666666666666667,-0.5966666666666667,0.12980886311707826,-0.1832595714594046,-0.779944009484966
1589996618.6846087,-1.0282262470909642,-3.329651590272859,8.467420823636546,0.5222222222222223,0.14666666666666667,-0.5966666666666667,-0.18135579599175716,0.07738728623442985,-0.7321290946238489
1589996618.6946087,-1.1401123250405862,-3.6022583475933483,8.707623403975253,0.5222222222222223,0.14666666666666667,-0.5966666666666667,0.07604989731985005,0.042628815987406865,-0.6535430652301888
1589996618.7046087,-1.0487968092178153,-3.4108641701750497,8.224998892089518,0.5222222222222223,0.14666666666666667,-0.5966666666666667,0.03687505964494999,0.05711283490682974,-0.6177793118814434
1589996618.7146087,-1.1756984011038065,-3.767552552552553,8.949888807726646,0.5240681221762303,0.1595879663447231,-0.5908213168123079,-0.002049524161951276,0.01748565179686907,-0.5936991508609646
1589996618.7246087,-1.06,-3.5,8.14,0.5288888888888889,0.19333333333333333,-0.5755555555555556,0.03817907738737596,0.04036073895236887,-0.5574145298556891
1589996618.7346087,-1.218256527899602,-3.9308094370600277,9.221419607313946,0.5288888888888889,0.19333333333333333,-0.5755555555555556,0.02667033790978296,0.02981106109790862,-0.5257654962923083
1589996618.7446086,-1.1980100614868643,-3.891028507546115,8.98956959195081,0.5288888888888889,0.19333333333333333,-0.5755555555555556,0.034524885727509405,0.0272165024077763,-0.4673694669899936
1589996618.7546086,-1.133320516671673,-3.7366025833583656,8.627606888955642,0.5288888888888889,0.19333333333333333,-0.5755555555555556,0.0367218401822338,0.02315171738085604,-0.4236255270021519
1589996618.7646086,-1.11689300931961,-3.77585734575948,8.819651925209643,0.529501981308896,0.20069044237341999,-0.5780079252355844,0.03644837545945301,0.020424833829516056,-0.3837075857912094
1589996618.7746086,-1.0537461866992068,-3.7125808419768154,8.840073215375229,0.5311111111111111,0.22,-0.5844444444444444,0.026549982657320694,0.020560063778450592,-0.33876252438066723
1589996618.7846086,-1.1277989356927614,-3.858468615759441,8.923061165608772,0.5311111111111111,0.22,-0.5844444444444444,0.02441581005915514,0.021143317711665773,-0.29020270645923063
1589996618.7946086,-1.0336779508879914,-3.6097202987754056,8.015465954991345,0.5311111111111111,0.22,-0.5844444444444444,0.015615518558818762,0.012343026211329391,-0.25866832858302524
1589996618.8046086,-1.1535549563327563,-3.9574423471646476,9.163989213989616,0.5311111111111111,0.22,-0.5844444444444444,0.0226647127665334,0.0113323563832667,-0.19826331295346258
1589996618.8146086,-1.129873774509804,-3.88468443627451,8.884558210784313,0.5347678036492375,0.22140642020697168,-0.5844444444444444,0.015547780916830537,0.007083515553714885,-0.15939975355612115
1589996618.8246086,-1.0935024967634548,-3.800253745145182,8.698781209543185,0.5455555555555556,0.2255555555555556,-0.5844444444444444,0.015299310256477757,0.0022646994695750353,-0.11203431316453882
1589996618.8346086,-1.0948682726806767,-3.8115950794464375,8.604341363403382,0.5455555555555556,0.2255555555555556,-0.5844444444444444,0.013495438628023299,-0.004363323129985824,-0.07192673159899056
1589996618.8446085,-1.1470478755093771,-3.9154610013583397,8.882508876867718,0.5455555555555556,0.2255555555555556,-0.5844444444444444,0.012916868272767473,-0.006718085812168735,-0.021224786075659006
1589996618.8546085,-1.0883107630033073,-3.8640443947147585,8.784266368288549,0.5455555555555556,0.2255555555555556,-0.5844444444444444,0.009817477042468105,-0.010791960678499156,0.015058429565608192
1589996618.8646085,-0.9916885788096688,-3.8502412255442384,8.70144735326543,0.5455555555555556,0.2255555555555556,-0.5844444444444444,0.009817477042468105,-0.013050498952580515,0.047430811494107696
1589996618.8746085,-1.0937885547081114,-3.8974096992373,8.802061687532978,0.5666666666666667,0.25222222222222224,-0.6222222222222222,0.003272492347489368,-0.016362461737446838,0.1407171709420428
1589996618.8846085,-1.026878787878788,-3.84,8.662545454545453,0.5666666666666667,0.25222222222222224,-0.6222222222222222,0.003612963773541292,-0.016362461737446838,0.15433602798411977
1589996618.8946085,-1.029464421003555,-3.849464421003555,8.613125473512442,0.5666666666666667,0.25222222222222224,-0.6222222222222222,0.004105221085756229,-0.01765297195859481,0.20061083102836552
1589996618.9046085,-1.0661836033382426,-3.88,8.741642611683849,0.5666666666666667,0.25222222222222224,-0.6222222222222222,0.00023712315684311803,-0.022828405380144533,0.2652142183017628
1589996618.9146085,-1.0838883458862762,-3.876111654113724,8.800368922363402,0.5786197299467005,0.2510701197373997,-0.6258225424872926,-0.007110521679744524,-0.02480633950503559,0.2963014086024107
1589996618.9246085,-1.1080032196860807,-3.8519967803139195,8.864675252496214,0.6527506382942477,0.24392497194486495,-0.6481511293389636,-0.010617887900657066,-0.023052656394579322,0.3208529721487985
1589996618.9346085,-1.1329514109139678,-3.846475705456984,8.736519201841347,0.6588888888888889,0.2433333333333333,-0.65,-0.01765025768814766,-0.03073548235860608,0.36362160202973237
1589996618.9446084,-1.102545263424978,-3.8312726317124888,8.592090001268645,0.6588888888888889,0.2433333333333333,-0.65,-0.004383073024900628,-0.031564681400059025,0.3934727675220382
1589996618.9546084,-1.1583432398493092,-3.889570950188363,8.660858099623274,0.6588888888888889,0.2433333333333333,-0.65,-0.014997302309440182,-0.03926990816987242,0.4391159177283159
1589996618.9646084,-1.191321533734477,-3.847356932531046,8.754536871079248,0.7042615471059331,0.2481789570264157,-0.6577823653252536,-0.011259046720143136,-0.03955822210540743,0.4799893551611234
1589996618.9746084,-1.1830881178859007,-3.806323365040261,8.765440589429502,1.002222222222222,0.28,-0.7088888888888889,-0.017774104611430936,-0.04218948979886576,0.5321972015288331
1589996618.9846084,-1.169219260873873,-3.7920321014564546,8.612812840582581,1.002222222222222,0.28,-0.7088888888888889,-0.01619213088307109,-0.04258498323095572,0.5772373234234329
1589996618.9946084,-1.21,-3.8632114703277236,8.64,1.002222222222222,0.28,-0.7088888888888889,-0.023687839721196507,-0.041762007228590844,0.6166212304953088
1589996619.0046084,-1.2193681130548466,-3.8793681130548467,8.691524621801657,1.002222222222222,0.28,-0.7088888888888889,-0.021236736172139337,-0.04625691599647472,0.6461936093295464
1589996619.0146084,-1.2339422259983008,-3.877884451996602,8.83537807986406,1.0465892570565465,0.2300424808836024,-0.7443349381667139,-0.022323569293111415,-0.05138582220519627,0.666924857885055
1589996619.0246084,-1.1003090484282074,-3.6106180968564145,8.630473874256586,1.415812777305768,-0.18570518266779945,-1.0393178042103277,-0.017464529837902316,-0.052357630096238075,0.6795583604685986
1589996619.0346084,-1.2294354187793621,-3.7451611167449657,8.716612512676173,1.4166666666666667,-0.18666666666666668,-1.04,-0.019199493190390084,-0.05239067068856445,0.6854156060448513
1589996619.0446084,-1.2071225803352705,-3.6595686632403095,8.560720735866276,1.4166666666666667,-0.18666666666666668,-1.04,-0.015514931437131193,-0.05427471287188734,0.6853320834314645
1589996619.0546083,-1.262175716596839,-3.7112971336126437,8.801297133612644,1.4166666666666667,-0.18666666666666668,-1.04,-0.01797361703846185,-0.05368804220610838,0.6814360666600892
1589996619.0646083,-1.2732212664155553,-3.684295021887407,8.78288506566222,1.3422196206182768,-0.16077722917868495,-1.0025378646487269,-0.012350524263931992,-0.0544244105726658,0.6751437996262327
1589996619.0746083,-1.2924660726525017,-3.710582590815627,8.857980808773133,0.7233333333333334,0.054444444444444434,-0.6911111111111111,-0.014449806968576083,-0.05386162033551348,0.6633522173569024
1589996619.0846083,-1.2641056869987688,-3.659735782503078,8.717947156500616,0.7233333333333334,0.054444444444444434,-0.6911111111111111,-0.011356168801119804,-0.05496057844308638,0.6520352341290198
1589996619.0946083,-1.2780629596352866,-3.6248426009117836,8.710968520182357,0.7233333333333334,0.054444444444444434,-0.6911111111111111,-0.012878671064280726,-0.052676825048345,0.6436614716816347
1589996619.1046083,-1.3093031556745356,-3.6883740299072496,8.758838592790893,0.7233333333333334,0.054444444444444434,-0.6911111111111111,-0.022679404660178204,-0.05022889194422527,0.626516938773378
1589996619.1146083,-1.3544207377507074,-3.660386174832862,8.722982718541077,0.7233333333333334,0.054444444444444434,-0.6911111111111111,-0.021292262828436444,-0.049370624192842404,0.6180609511330201
1589996619.1246083,-1.4251407821551052,-3.6842839851292544,8.855434450560534,0.6111111111111112,0.16,-0.6844444444444444,-0.020165012525342925,-0.04899392315532556,0.5983987893054795
1589996619.1346083,-1.4729665664654994,-3.708899699396498,8.688277610775831,0.6111111111111112,0.16,-0.6844444444444444,-0.015203771613264066,-0.04927526873085673,0.5905987742158442
1589996619.1446083,-1.4421449625601874,-3.6321449625601874,8.65,0.6111111111111112,0.16,-0.6844444444444444,-0.01751590130599859,-0.05190837534766459,0.5815841774033511
1589996619.1546082,-1.4037503890445067,-3.5937503890445064,8.65,0.6111111111111112,0.16,-0.6844444444444444,-0.01249006338539126,-0.0443696184667536,0.5824218170567859
1589996619.1646082,-1.4824420478492624,-3.712930457419115,8.765604313871327,0.6101342919714062,0.16130242551960663,-0.6866151536437888,-0.02123056623734208,-0.0446175076437025,0.5665394030469179
1589996619.1746082,-1.5257698029007065,-3.764923763480848,8.687614354778727,0.5928031899508285,0.18441056154704352,-0.725128713689517,-0.01083265146909413,-0.04272697768583924,0.5542509583208066
1589996619.1846082,-1.6180637764520704,-3.837612755290414,8.787931637550766,0.5911111111111111,0.18666666666666668,-0.7288888888888889,-0.01738967962516333,-0.042852007295487805,0.525766023045181
1589996619.1946082,-1.58,-3.8187757585591435,8.59598626210179,0.5911111111111111,0.18666666666666668,-0.7288888888888889,-0.0044152421677161975,-0.040197488978050755,0.5056335200670995
1589996619.2046082,-1.5641372094454589,-3.692690232443633,8.684276511499087,0.5911111111111111,0.18666666666666668,-0.7288888888888889,-0.01594858026746162,-0.037486932578048464,0.467311678953341
1589996619.2146082,-1.4763903950426027,-3.7513369481022463,8.762165762974439,0.5906699371718737,0.18474154402272142,-0.7291295292193821,-0.0022210362469947207,-0.033855128939391944,0.4389237754384868
1589996619.2246082,-1.38,-3.52,8.82,0.5788888888888889,0.13333333333333333,-0.7355555555555555,-0.003272492347489368,-0.03490658503988659,0.3916082509162277
1589996619.2346082,-1.1562801156440732,-3.324245101188564,8.813008753613877,0.5788888888888889,0.13333333333333333,-0.7355555555555555,0.0074042811249102935,-0.025755064920686882,0.348901157026629
1589996619.2446082,-1.092749638755799,-3.2269001444976806,8.672451517225644,0.5788888888888889,0.13333333333333333,-0.7355555555555555,0.009855679763233151,-0.01038483514738051,0.26621796176959023
1589996619.2546082,-1.213637263441286,-3.2765294164225196,8.750745110460052,0.5788888888888889,0.13333333333333333,-0.7355555555555555,0.0005047759199389729,-0.016696128640034835,0.12443490845881627
1589996619.2646081,-5.714984788325684,-9.792857216521426,4.299806115608725,0.5788888888888889,0.13333333333333333,-0.7355555555555555,-0.6003846453872365,1.75182181291324,-0.5865606306349536
1589996619.2746081,2.8330931001890356,-3.9602528355387534,-6.25335775047259,0.5162920079815164,0.14500393824826716,-0.6167275782398656,-0.7941016114602496,-1.6827869124232189,-8.160676234999555
1589996619.2846081,-1.1141732924309773,-2.7241670318662745,-1.02390283603581,0.5133333333333333,0.14555555555555555,-0.6111111111111112,-0.5809649470398334,-0.950191806085557,-9.584200902573004
1589996619.294608,-0.04877927237245609,-2.7885450933928073,0.1358603986618344,0.5133333333333333,0.14555555555555555,-0.6111111111111112,-0.6513060712561384,-0.3846136824581953,-9.417625674966887
1589996619.304608,-0.12916904795093392,-2.2258166643434625,-0.3099374477279063,0.5133333333333333,0.14555555555555555,-0.6111111111111112,-0.6329705461527141,-0.20524441514208872,-9.111502125414065
1589996619.314608,-0.27132217287324906,-2.405876323881107,0.715148616330714,0.5095410545495956,0.16246706905060168,-0.6125460274076605,-0.7034960391247745,-0.03743483786819406,-8.645976584417017
1589996619.324608,-1.0594550734540484,-5.908689215351327,7.577477508256462,0.47681275228080827,0.3084176061951942,-0.6249297093472017,-0.3543977656722436,0.5244223335840137,-8.203959118776874
1589996619.334608,-0.31378028057696106,-1.5474232365145228,0.1295739972337484,0.4722222222222222,0.3288888888888889,-0.6266666666666667,1.6095834545123457,3.0994970604646688,-7.02641002562843
1589996619.344608,-1.0430796285319106,-3.4618340248962656,6.9750428769017985,0.4722222222222222,0.3288888888888889,-0.6266666666666667,1.9612492583749581,3.2622215969563673,-6.657567742913914
1589996619.354608,1.4086015164279697,-0.009278292614434136,-0.8741757933164841,0.4722222222222222,0.3288888888888889,-0.6266666666666667,2.6050552341860786,0.362295504943785,-5.463258566376511
1589996619.364608,-0.8058119314314005,-0.7028352620830497,-0.8075276935453927,0.45593893323981816,0.3440173346810515,-0.624472464605208,0.6106875959426692,-0.8922003461412462,-4.633461476614789
1589996619.374608,-0.1317019805092738,-0.7297409619616473,1.0252134548883998,0.31555555555555553,0.4744444444444445,-0.6055555555555555,-0.43500994215184774,-0.30414954696578267,-4.043164123862758
1589996619.384608,0.6298691961593768,-2.0781845169070925,8.088714689920682,0.31555555555555553,0.4744444444444445,-0.6055555555555555,-0.9042733693587938,0.7420331492680531,-3.5197174386182906
1589996619.394608,4.113863870745961,-1.582653039638258,17.31872993627205,0.31555555555555553,0.4744444444444445,-0.6055555555555555,-0.10110888225786556,2.2271459808692375,-2.9215278048244033
1589996619.404608,-1.0729078706167583,-0.05948302879782391,1.8036187984152328,0.31555555555555553,0.4744444444444445,-0.6055555555555555,-0.02997754381693231,1.1791984933094164,-2.637903716789316
1589996619.414608,-0.8372869729761694,-0.01607917923245225,2.1074457453728344,0.31555555555555553,0.4744444444444445,-0.6055555555555555,0.16143660214428265,0.3689011545760754,-2.5039814521238726
1589996619.424608,0.26825792735098136,-1.3163338432419818,5.94781067696855,0.22666666666666666,0.5311111111111111,-0.5988888888888889,-0.014260217653779605,-1.0461538109078359,-2.2177775413857073
1589996619.434608,0.5978174128895836,-1.9642576077962672,8.253398915142043,0.22666666666666666,0.5311111111111111,-0.5988888888888889,0.16689510396525556,-0.30235739292318065,-1.861312534450915
1589996619.444608,1.104535032305671,-1.8487117326278277,7.863296078325504,0.22666666666666666,0.5311111111111111,-0.5988888888888889,0.3550177033406855,0.5951508198221477,-1.4959067483362878
1589996619.454608,0.636513867141803,-1.2825570973489553,5.092912729694221,0.22666666666666666,0.5311111111111111,-0.5988888888888889,-0.13575166555783186,0.8224198564261591,-1.2208782765038972
1589996619.464608,1.2279605843334227,-3.0673185460680186,12.368216709481999,0.22645265391153202,0.5312537862812009,-0.5988343366179723,-0.5254490598276943,-0.008565976559769962,-0.9776018278879682
1589996619.474608,0.7937513899006939,-2.4964138644990603,9.859452474981786,0.18088749153278888,0.5616305612003629,-0.587219687384175,0.009598608230505179,0.025641989102967375,-0.7916508350546267
1589996619.484608,0.7572816817737578,-2.1109717724163044,7.70815936224441,0.17,0.5688888888888889,-0.5844444444444444,0.27406770656080254,0.10094899623840298,-0.4831740496573471
1589996619.494608,0.8055077324032731,-2.448554126822912,9.219242281969223,0.17,0.5688888888888889,-0.5844444444444444,-0.05647622052970236,-0.0901878104080959,-0.316586924598472
1589996619.504608,4.768606170670562,-5.843097968771591,7.558190055074123,0.17,0.5688888888888889,-0.5844444444444444,-0.18914491995566254,-0.001511151295620114,0.05063903972953776
1589996619.514608,23.15189278008299,-20.980318340248964,1.9098569294605807,0.16985541724296913,0.5689286491470724,-0.5845673397879206,-0.23843276044878728,-0.4577528982329709,0.4345474060521393
1589996619.524608,-1.0561048598385607,0.08126289167209338,5.736659296391089,0.12555555555555556,0.5811111111111111,-0.6222222222222222,-0.2307861655054826,0.02380281281458737,1.6001361247004042
1589996619.534608,-2.0279633808362743,-0.9350597446653844,8.576010661658918,0.12555555555555556,0.5811111111111111,-0.6222222222222222,0.4773550901392046,0.11526528418943931,1.7456446018876686
1589996619.5446079,-0.7532630381726417,-0.7541335923986447,3.1481186171599176,0.12555555555555556,0.5811111111111111,-0.6222222222222222,0.3213692218223462,0.03215752501181376,1.8791729199074951
1589996619.5546079,-0.47167194374768706,-2.275850569513549,10.237015091081048,0.12555555555555556,0.5811111111111111,-0.6222222222222222,-0.5235890869002019,-0.390794310565918,1.8538196600219627
1589996619.5646079,0.23545540523870223,-2.6897787737982646,9.848957399564126,0.12555555555555556,0.5811111111111111,-0.6222222222222222,-0.3363940873825507,-0.12740436149585593,1.94694682058602
1589996619.5746078,-0.11577442185828324,-2.34064151098675,7.597433133075468,0.14288348466975742,0.5893190775336278,-0.639550151336424,0.11326308507168498,-0.12170003411043068,2.0240196396127255
1589996619.5846078,0.13829566948730712,-2.5844937779990045,8.612745644599304,0.14666666666666667,0.5911111111111111,-0.6433333333333333,-0.1107069989586005,-0.16691220434403511,2.1769716984918004
1589996619.5946078,1.1007204885427755,-4.284990195529161,10.041115468653707,0.14666666666666667,0.5911111111111111,-0.6433333333333333,-0.20711319090850397,-0.1801187806266376,2.308838047904126
1589996619.6046078,4.531544624348703,-12.39207462602947,6.437966832875792,0.14666666666666667,0.5911111111111111,-0.6433333333333333,0.007351327982796446,-0.2142963931989564,2.4395674159932454
1589996619.6146078,0.5838247382706481,-4.531889104303993,9.770071345482744,0.14666666666666667,0.5911111111111111,-0.6433333333333333,-0.22112379253251516,-0.21397100487730092,3.0710565490495925
1589996619.6246078,-0.5323700095555504,-2.681614888013611,9.31812081944671,0.2288888888888889,0.5733333333333334,-0.65,-0.011293570128969763,-0.24567486125394128,3.5507932870395065
1589996619.6346078,-0.11337482617559304,-3.09409618058837,9.168495051911055,0.2288888888888889,0.5733333333333334,-0.65,-0.08142380450812746,-0.2349880929101251,3.6419090570774375
1589996619.6446078,0.033855189080452014,-3.116746952166223,9.049578501127327,0.2288888888888889,0.5733333333333334,-0.65,-0.16975547251992165,-0.2918168583442864,3.6820598152646165
1589996619.6546078,-0.02611251049538202,-3.1543520850825635,8.864327595857823,0.2288888888888889,0.5733333333333334,-0.65,-0.13709793606412513,-0.2918625681514024,3.7560237757899246
1589996619.6646078,-0.14431411295103347,-3.1943141129510333,8.619801209342766,0.2288888888888889,0.5733333333333334,-0.65,-0.09550136632637012,-0.27715667977314185,3.8262499881801095
1589996619.6746078,-0.055915903057292105,-3.3235462875738633,9.200739916074335,0.30248370490898535,0.5565116611001685,-0.65,-0.16762314696110844,-0.2969168150995562,3.8867584330485885
1589996619.6846077,-0.14387502403383967,-3.2361249759661606,8.590697750432609,0.30666666666666664,0.5555555555555556,-0.65,-0.11067272134708367,-0.2841432348317049,3.9178255732782494
1589996619.6946077,0.11393447136563875,-4.329570484581497,8.741975667676211,0.30666666666666664,0.5555555555555556,-0.65,-0.14909418521284218,-0.30406615231688666,3.9347499591139625
1589996619.7046077,3.462907488986784,-12.182334801762114,6.901484030837004,0.30666666666666664,0.5555555555555556,-0.65,-0.23569933915914199,-0.35760388384732655,3.879637588420863
1589996619.7146077,-1.4467986225297054,0.5150131852449356,4.417236993143673,0.30666666666666664,0.5555555555555556,-0.65,-0.556504415617682,-0.30845342812414345,0.2354280383870937
1589996619.7246077,-2.37,-1.04,15.16,0.3922222222222223,0.4977777777777778,-0.6577777777777778,0.23889194136672384,0.3043417883165112,-1.5097098029750948
1589996619.7346077,-2.0327402192175374,0.19965757260580852,7.430370429634371,0.3922222222222223,0.4977777777777778,-0.6577777777777778,1.0184281220456568,0.4654194174874132,-1.1825830128687569
1589996619.7446077,-1.6050255013831258,-2.3160254581604423,8.6033540802213,0.3922222222222223,0.4977777777777778,-0.6577777777777778,0.22022638675894513,0.01742394249564766,-0.5972774499622336
1589996619.7546077,-0.6299039955932404,-2.406976648108438,10.04701245303063,0.3922222222222223,0.4977777777777778,-0.6577777777777778,-0.4783878301417575,0.021915395805578847,0.45336421791558457
1589996619.7646077,-0.4236174775235585,-2.786543841356653,8.784538962444179,0.3922222222222223,0.4977777777777778,-0.6577777777777778,-0.1822566620972203,-0.23461160386826044,0.6729873334258188
1589996619.7746077,-0.24312003029155638,-5.798475844711228,8.36,0.3855555555555555,0.4755555555555556,-0.6644444444444444,-0.01209520616017035,-0.018489335155914822,1.076570703511536
1589996619.7846076,6.255333333333333,-13.832,8.524666666666667,0.3855555555555555,0.4755555555555556,-0.6644444444444444,-0.10879219004097987,-0.15758868704465465,1.2442015905154578
1589996619.7946076,-2.51796399801094,-2.4113742416708104,10.606970064644456,0.3855555555555555,0.4755555555555556,-0.6644444444444444,-0.06407773262150704,-0.0012111422034600128,0.0010557028851943887
1589996619.8046076,-2.860015315763302,-2.795139134758826,7.8789022376926905,0.3855555555555555,0.4755555555555556,-0.6644444444444444,0.2462489901829656,0.130745968666477,-0.37297445275304086
1589996619.8146076,0.9961394932675733,-5.248816533182026,8.788658097461973,0.3855555555555555,0.4755555555555556,-0.6644444444444444,0.02858153761657245,-0.0001989647923554827,0.10000739851449852
1589996619.8246076,-0.47797520942586663,-6.116804467751822,9.431270687189265,0.4188888888888889,0.44222222222222224,-0.65,-0.1670454896021145,-0.09276719765369744,0.17144562446353986
1589996619.8346076,-0.39227814479329837,-4.288600422257032,8.63857283933801,0.4188888888888889,0.44222222222222224,-0.65,0.011347411232983717,-0.002402234785263413,-0.005389259770378407
1589996619.8446076,-0.15882929916152508,-4.805083056478405,8.482224331593104,0.4188888888888889,0.44222222222222224,-0.65,0.015246090224716327,0.007495341461187878,-0.0010652900522623988
1589996619.8546076,-0.08510151347360649,-4.495426356589147,8.622307124400148,0.4188888888888889,0.44222222222222224,-0.65,0.013637599461642662,-0.001351357735717278,0.0005432007108112659
1589996619.8646076,-0.06,-4.619876156011259,8.744153598713309,0.4188888888888889,0.44222222222222224,-0.65,0.005001066579020745,-0.0011277620056111331,0.0002819405014027833
1589996619.8746076,-0.15607197739552867,-4.475832052743766,8.713958013185941,0.4091037800800851,0.4582342184548103,-0.65,0.00916821291688267,0.006113232432903539,-0.0026199567569586595
1589996619.8846076,-0.09870983213429256,-4.591612576605383,8.627742073008259,0.4066666666666667,0.4622222222222222,-0.65,-0.0078117202975036635,0.0007389630113026884,-0.001301963071440081
1589996619.8946075,-0.10745495136341891,-4.522725243182905,8.63745495136342,0.4066666666666667,0.4622222222222222,-0.65,0.0006547419973396036,-0.0019040398254195833,-0.0001388108697866643
1589996619.9046075,-0.08333292584533386,-4.652224395491553,8.675556098872889,0.4066666666666667,0.4622222222222222,-0.65,-0.0007272649717096373,-0.003151303743893762,0.0019392843578016992
1589996619.9146075,-0.14790435035224053,-4.547772169365967,8.693580870070447,0.4066666666666667,0.4622222222222222,-0.65,0.0048349416678753875,-0.0003096061223034465,0.0014409400086964315
1589996619.9246075,-0.13200870195794054,-4.561986947063089,8.715997099347353,0.42266376601401984,0.4622222222222222,-0.6615534606397551,-0.007196793661459576,0.00021832436255911662,0.00021832436255911662
1589996619.9346075,-0.11242700614351764,-4.587572993856482,8.666989043004623,0.4266666666666667,0.4622222222222222,-0.6644444444444444,-0.005951794936380055,0.0016521709628615016,-0.0008260854814307508
1589996619.9446075,-0.08186391079349434,-4.599378696402169,8.537455643173976,0.4266666666666667,0.4622222222222222,-0.6644444444444444,-0.006409437277020667,0.00013554741795806765,-0.001090830782496456
1589996619.9546075,-0.10230793585756058,-4.607435978619187,8.611795764811056,0.4266666666666667,0.4622222222222222,-0.6644444444444444,0.004810967431133587,-0.0016222788751589035,-0.00271310965765536
1589996619.9646075,-0.12046831751221415,-4.557658412438929,8.718512381341606,0.4266666666666667,0.4622222222222222,-0.6644444444444444,0.008726646259971648,-0.00046878711750242426,-0.0009886597508353846
1589996619.9746075,-0.13,-4.571659600242278,8.753004239854633,0.41776027996500437,0.45742647553671173,-0.6733508311461067,0.00939924815977867,0.00041822888268943465,0.0017634326823034773
1589996619.9846075,-0.12416174257716446,-4.569132198040151,8.700808712885822,0.4122222222222222,0.4544444444444444,-0.6788888888888889,0.0028120710382039246,0.0019105652738902312,0.0015448064736961684
1589996619.9946074,-0.12,-4.629725197950629,8.545412203074056,0.4122222222222222,0.4544444444444444,-0.6788888888888889,-0.002181661564992912,0.003272492347489368,0.0019064558482475712
1589996620.0046074,-0.10811694298694115,-4.582760129415117,8.601005984611,0.4122222222222222,0.4544444444444444,-0.6788888888888889,-0.0028297817839931616,0.0013281316904886194,0.0015335413459926623
1589996620.0146074,-0.11730386416861827,-4.564607728337236,8.693071818891491,0.4122222222222222,0.4544444444444444,-0.6788888888888889,0.0036485564726415906,-0.0006291862563755417,0.0004616445261209143
1589996620.0246074,-0.12341856232939036,-4.5768371246587805,8.71,0.4041782428470327,0.44640046506925485,-0.6737699929228591,0.003701181897043708,-0.0003729073020781788,0.0
1589996620.0346074,-0.1280854962749339,-4.642769466474405,8.621059540975727,0.4,0.44222222222222224,-0.6711111111111111,-0.0024371325088868787,0.0,-0.0017639816456916672
1589996620.0446074,-0.11334698845946768,-4.585061448067605,8.583346988459468,0.4,0.44222222222222224,-0.6711111111111111,-0.005089054108457506,0.0027248426414522068,-0.003089942445476981
1589996620.0546074,-0.10174206104333793,-4.578257938956662,8.604773816869987,0.4,0.44222222222222224,-0.6711111111111111,0.0017522572986406497,0.0023716909460990017,-0.0023716909460990017
1589996620.0646074,-0.10650885014013506,-4.534438049019054,8.707632752102025,0.4,0.44222222222222224,-0.6711111111111111,0.006112513984095644,0.0014716561558413429,-0.0007616507466897738
1589996620.0746074,-0.11781204062541761,-4.5568722437525055,8.72875183749833,0.40520802708361175,0.44656224479189865,-0.6711111111111111,0.007635815477475192,0.0019429922213282957,0.0
1589996620.0846074,-0.12832427855782122,-4.586648557115643,8.736648557115643,0.4066666666666667,0.4477777777777778,-0.6711111111111111,0.002187587901707244,0.003997737423582228,0.0009080379292946579
1589996620.0946074,-0.13,-4.564082822618663,8.644970349601767,0.4066666666666667,0.4477777777777778,-0.6711111111111111,0.00014845561973036894,0.0005938224789214758,0.00014845561973036894
1589996620.1046073,-0.11265391569131221,-4.5860191264630314,8.638673042154345,0.4066666666666667,0.4477777777777778,-0.6711111111111111,-0.00378432854393908,0.0,-0.00189216427196954
1589996620.1146073,-0.10044836100021012,-4.57089672200042,8.635224180500106,0.4066666666666667,0.4477777777777778,-0.6711111111111111,-0.0033214009455593786,-0.001041922184426445,-0.000618778288353244
1589996620.1246073,-0.09263805924661708,-4.553517412328823,8.63615547157544,0.407155196156781,0.4501227193303263,-0.6705248757229739,-0.0015102037774657343,-0.0018938939417669786,0.001090830782496456
1589996620.1346073,-0.12422803365426316,-4.581543932691473,8.67463179807442,0.4122222222222222,0.4744444444444445,-0.6644444444444444,0.004070533134631909,-0.00029278999535391485,-0.0007539969213040383
1589996620.1446073,-0.11787339268051435,-4.576063303659743,8.5975568743818,0.4122222222222222,0.4744444444444445,-0.6644444444444444,-0.000463953745275446,-0.000858853909858733,-0.0012882808647880994
1589996620.1546073,-0.10477067669172932,-4.58,8.596146616541352,0.4122222222222222,0.4744444444444445,-0.6644444444444444,-0.0016112308813641262,-0.0011408613672575718,0.0
1589996620.1646073,-0.1038245435193236,-4.58,8.635298174077294,0.4122222222222222,0.4744444444444445,-0.6644444444444444,0.0009951341174412995,-0.0009300826250302585,0.0008343859599751022
1589996620.1746073,-0.11,-4.562404121586811,8.681994848016487,0.4151548686244204,0.4720005724426127,-0.6673770908466425,0.006282735711802978,0.002050537073405033,0.0017018084195386234
1589996620.1846073,-0.11542933843268488,-4.545429338432685,8.737146692163424,0.4188888888888889,0.4688888888888889,-0.6711111111111111,0.007542148361778901,0.002680243398392995,0.0022753286806892026
1589996620.1946073,-0.12,-4.561378014225409,8.668975886196726,0.4188888888888889,0.4688888888888889,-0.6711111111111111,0.003442112654789025,0.00031993834087908524,0.0014107691233755414
1589996620.2046072,-0.12,-4.556109968073785,8.613890031926214,0.4188888888888889,0.4688888888888889,-0.6711111111111111,-0.0034546715359956934,0.0011819203767496186,-0.0007575837197486916
1589996620.2146072,-0.12,-4.5727220669438955,8.637041550207922,0.4188888888888889,0.4688888888888889,-0.6711111111111111,-0.002975560906047664,-0.0002969314414417038,0.0001484657207208519
1589996620.2246072,-0.11412439378385075,-4.5606219689192535,8.691129243513044,0.40779052159171814,0.4564848313214627,-0.6671940403003449,0.002113815280705104,0.001022984498208649,0.0004499015698561439
1589996620.2346072,-0.11,-4.571466976918122,8.72,0.4,0.4477777777777778,-0.6644444444444444,0.0029903172478100756,0.0012129835242257457,0.0
1589996620.2446072,-0.11770943287592361,-4.566871701372229,8.619777372612994,0.4,0.4477777777777778,-0.6644444444444444,-0.00034124444400138653,-0.000840968669664766,0.0
1589996620.2546072,-0.12,-4.589074646827719,8.61907464682772,0.4,0.4477777777777778,-0.6644444444444444,-0.0034694947637381015,-0.000297942788749241,0.0
1589996620.2646072,-0.09787975713930014,-4.583409817854475,8.646590182145525,0.4,0.4477777777777778,-0.6644444444444444,-0.0019503789471109374,0.0024129441828748864,0.0012064720914374432
