time,acc_x,acc_y,acc_z,mag_x,mag_y,mag_z,gyr_x,gyr_y,gyr_z
1589996645.3387105,-3.86,-0.84,8.9,0.3,-0.3211111111111111,-0.5822222222222222,-0.004363323129985824,0.01963495408493621,0.0
1589996645.3487105,-3.88,-0.84,8.908869087398827,0.3388888888888889,-0.3211111111111111,-0.6111111111111112,0.006180726431899612,0.007635815477475192,0.0
1589996645.3587105,-3.8756871473801984,-0.84,8.828625705239602,0.3388888888888889,-0.3211111111111111,-0.6111111111111112,0.0023315738678793847,0.006851716744466873,0.00015681974660166395
1589996645.3687105,-3.851039220801809,-0.84,8.882078441603618,0.3388888888888889,-0.3211111111111111,-0.6111111111111112,-0.0033858537515317425,0.0025217457771200356,0.001090830782496456
1589996645.3787105,-3.8583342899382553,-0.84,8.896668579876511,0.3388888888888889,-0.3211111111111111,-0.6111111111111112,-0.004181622348979327,0.004909051569462788,0.001090830782496456
1589996645.3887105,-3.86,-0.8590618406102906,8.927185521830872,0.32666666666666666,-0.3288888888888889,-0.5966666666666667,-0.003272492347489368,0.002181661564992912,0.0021304929079337532
1589996645.3987105,-3.86,-0.8420422820970621,8.876126846291186,0.32666666666666666,-0.3288888888888889,-0.5966666666666667,-0.003272492347489368,0.002181661564992912,0.0012022199913972972
1589996645.4087105,-3.867136918228049,-0.8614107546841464,8.827178490631708,0.32666666666666666,-0.3288888888888889,-0.5966666666666667,-0.0009369413188946587,0.0014031445554613423,0.00031231377296488637
1589996645.4187105,-3.879544175576815,-0.87,8.867265053460889,0.32666666666666666,-0.3288888888888889,-0.5966666666666667,0.0010411080512740514,4.972273122240455e-05,0.004164432205096206
1589996645.4287105,-3.887859960552268,-0.8542800788954635,8.893579881656805,0.32666666666666666,-0.3288888888888889,-0.5966666666666667,0.002805608166420865,0.001714777383924409,0.0017911570540992102
1589996645.4387105,-3.8508406124251646,-0.8491593875748356,8.938879183433114,0.32,-0.3022222222222222,-0.6111111111111112,0.00660611575561329,-0.0033336234081239226,0.001090830782496456
1589996645.4487104,-3.8794811068532216,-0.8210377862935567,8.894811068532217,0.32,-0.3022222222222222,-0.6111111111111112,0.00861344133650519,-0.005510756374215509,0.001034228320763227
1589996645.4587104,-3.870136351483825,-0.83972729703235,8.80136351483825,0.32,-0.3022222222222222,-0.6111111111111112,0.006574731974137805,-0.006530111055399201,1.4873639579534616e-05
1589996645.4687104,-3.8796094352858645,-0.8303905647141353,8.87156225885654,0.32,-0.3022222222222222,-0.6111111111111112,0.010780495821143815,-0.009024874268886717,0.0020538495611721677
1589996645.4787104,-3.872253595229744,-0.837746404770256,8.900985619081023,0.32,-0.3022222222222222,-0.6111111111111112,0.008373302791842754,-0.014641658003922527,-0.00035334346812889404
1589996645.4887104,-3.87,-0.84,8.922632104554731,0.32842140303648704,-0.3141525431905789,-0.6069004095928676,0.009702738751877263,-0.014295538463044767,-0.0017798052072971462
1589996645.4987104,-3.87,-0.8223886982276338,8.953481735696489,0.3333333333333333,-0.3211111111111111,-0.6044444444444445,0.009627577818755801,-0.01565142940237499,-0.0002605665556797748
1589996645.5087104,-3.8506741899677572,-0.8228838733548285,8.847603203129129,0.3333333333333333,-0.3211111111111111,-0.6044444444444445,0.008023939977310008,-0.017453292519943295,0.001090830782496456
1589996645.5187104,-3.84,-0.8205788951372808,8.845947734039033,0.3333333333333333,-0.3211111111111111,-0.6044444444444445,0.007635815477475192,-0.014370243163128963,6.314766355834602e-05
1589996645.5287104,-3.847521848975391,-0.8350436979507813,8.86504369795078,0.3333333333333333,-0.3211111111111111,-0.6044444444444445,0.0035332832756524114,-0.005975735768808365,-0.000820506440364556
1589996645.5387104,-3.8691689991313583,-0.8497229997104526,8.919445999420905,0.3333333333333333,-0.3288888888888889,-0.5911111111111111,-6.043208851973417e-05,0.002272309697772513,0.001090830782496456
1589996645.5487103,-3.841532891552809,-0.8396934216894382,8.897240795204944,0.3333333333333333,-0.3288888888888889,-0.5911111111111111,-0.002482644117558806,0.0055879239358449,0.001057388276655801
1589996645.5587103,-3.8805699713339044,-0.8318860057332191,8.826974051598972,0.3333333333333333,-0.3288888888888889,-0.5911111111111111,-0.010147556808676777,0.008994551798564,0.0002057313109760264
1589996645.5687103,-3.881612129202373,-0.8467757415952538,8.843551483190508,0.3333333333333333,-0.3288888888888889,-0.5911111111111111,-0.011999138607461015,0.010732451809033556,-0.0009149747665654518
1589996645.5787103,-3.88,-0.8361981162965388,8.912108476665574,0.3333333333333333,-0.3288888888888889,-0.5911111111111111,-0.010493586647443855,0.010155531844955979,0.0004147211775207063
1589996645.5887103,-3.8614314443726205,-0.8485685556273791,8.949284277813689,0.3209542962484139,-0.3216677839226859,-0.5962690432298275,-0.004753689026257359,0.008804719439225955,-0.0019474420272299908
1589996645.5987103,-3.8696052125408733,-0.8596052125408732,8.940394787459127,0.32,-0.3211111111111111,-0.5966666666666667,-0.0033155569787852706,0.0034878155039688805,-0.0032294277161934656
1589996645.6087103,-3.8620295472974306,-0.8520295472974309,8.85232502027174,0.32,-0.3211111111111111,-0.5966666666666667,-0.004141933863328809,0.0024030508316499263,0.001074715231707839
1589996645.6187103,-3.866987890685312,-0.8430121093146877,8.823012109314687,0.32,-0.3211111111111111,-0.5966666666666667,-0.005125583756411706,0.004468443444270559,-0.00010512031428473474
1589996645.6287103,-3.863252146946565,-0.8332521469465648,8.87398282442748,0.32,-0.3211111111111111,-0.5966666666666667,-0.00545415391248228,0.0076623836604171975,0.001117398965438462
1589996645.6387103,-3.866293628562536,-0.8425872571250722,8.912587257125072,0.32839150475004814,-0.31341889842356696,-0.5966666666666667,-0.004767625535520947,0.008040117883010315,0.0008086048110702464
1589996645.6487103,-3.8600366661409873,-0.8201099984229616,8.88014666456395,0.3333333333333333,-0.3088888888888889,-0.5966666666666667,-0.0011028297490757216,0.0054621532235351235,0.002173662253940068
1589996645.6587102,-3.86,-0.83,8.811539147787299,0.3333333333333333,-0.3088888888888889,-0.5966666666666667,0.0011328045271263819,0.0008809620593468267,-0.001090830782496456
1589996645.6687102,-3.860172664135892,-0.8298273358641078,8.850690656543568,0.3333333333333333,-0.3088888888888889,-0.5966666666666667,0.0021439920941000615,-0.004325653659092973,-0.0010343265761571805
1589996645.6787102,-3.867510102688802,-0.8224898973111977,8.880040410755209,0.3333333333333333,-0.3088888888888889,-0.5966666666666667,0.0005432113264619443,-0.0027248728914548563,0.0013668445752999957
1589996645.6887102,-3.86,-0.8498343670871373,8.919503101261412,0.30666666666666664,-0.31555555555555553,-0.5966666666666667,-0.00545415391248228,0.003272492347489368,0.001090830782496456
1589996645.6987102,-3.86,-0.840090830952215,8.890272492856646,0.30666666666666664,-0.31555555555555553,-0.5966666666666667,-0.00545415391248228,0.003272492347489368,0.001090830782496456
1589996645.7087102,-3.86,-0.849946618791143,8.790533812088569,0.30666666666666664,-0.31555555555555553,-0.5966666666666667,-0.002199130524741329,-0.003237554427992534,0.001090830782496456
1589996645.7187102,-3.86,-0.85,8.863413545080615,0.30666666666666664,-0.31555555555555553,-0.5966666666666667,-0.0031826835003194885,-0.001270448476836215,-0.0019122350234832732
1589996645.7287102,-3.86,-0.8446835901075808,8.885949229677257,0.30666666666666664,-0.31555555555555553,-0.5966666666666667,-0.002112631634885451,-0.0016707611387984144,-0.0010218008523889951
1589996645.7387102,-3.8634631130420254,-0.8330737739159495,8.896536886957975,0.31128415072270027,-0.31747950724556956,-0.5916643922726302,-0.0007130637515458494,-0.002181661564992912,0.0007555340619012131
1589996645.7487102,-3.87,-0.8290807058742272,8.944484235245364,0.32,-0.3211111111111111,-0.5822222222222222,0.00297165404832106,-0.0041627642638736185,0.00020055886611220538
1589996645.7587101,-3.8618726723495818,-0.8381273276504179,8.852472068194984,0.32,-0.3211111111111111,-0.5822222222222222,-0.00027372332471482666,-0.0025902152938837263,-0.0008865539180510487
1589996645.7687101,-3.8526340305459756,-0.84,8.859463877816097,0.32,-0.3211111111111111,-0.5822222222222222,0.0005161744621792026,-0.0013781589426550827,0.0005161744621792026
1589996645.7787101,-3.8628989657235664,-0.846449482861783,8.889348448585348,0.32,-0.3211111111111111,-0.5822222222222222,0.0017943602261780854,0.001019757548548433,-0.001019757548548433
1589996645.78871,-3.87,-0.839308343358872,8.894654171679436,0.31584213352845025,-0.3181412064885756,-0.5899439742408146,0.002764800973994162,0.0015985221559916617,-0.0004322433379891611
1589996645.79871,-3.862531631312183,-0.8524051060634503,8.875063262624366,0.31222222222222223,-0.31555555555555553,-0.5966666666666667,-0.0016155435283325588,0.005978866658318383,0.001090830782496456
1589996645.80871,-3.86,-0.86,8.831752295405566,0.31222222222222223,-0.31555555555555553,-0.5966666666666667,-0.0018817665631080769,0.0062450896930939005,0.001090830782496456
1589996645.81871,-3.8521786593414435,-0.8443573186828868,8.817821340658558,0.31222222222222223,-0.31555555555555553,-0.5966666666666667,-0.003650358527719848,0.004600977997407816,0.0019440066975709202
1589996645.82871,-3.870215870628056,-0.8467386235426851,8.873908988341482,0.31222222222222223,-0.31555555555555553,-0.5966666666666667,-0.002158113732380916,0.003628253330784188,0.00071152196658964
1589996645.83871,-3.8527605935331466,-0.8409201978443821,8.918159604311235,0.31222222222222223,-0.32766195842971274,-0.590613465229588,0.0008900747555686793,0.0022820395784568003,0.0009904527690325676
1589996645.84871,-3.8784093977855796,-0.8542046988927896,8.912897650553605,0.31222222222222223,-0.3288888888888889,-0.59,0.001090830782496456,-0.001692069137094152,0.00031608464207904326
1589996645.85871,-3.8736632536973836,-0.86,8.86098976109215,0.31222222222222223,-0.3288888888888889,-0.59,0.0028728933577693923,-0.0023814610598529,0.000891031287636468
1589996645.86871,-3.854360749361831,-0.844360749361831,8.865639250638168,0.31222222222222223,-0.3288888888888889,-0.59,0.004125481148053972,-0.0030346503655575164,0.00023784198193185172
1589996645.87871,-3.8637018031705987,-0.84,8.87,0.31222222222222223,-0.3288888888888889,-0.59,0.0028686882625661462,-0.003770703969962594,-0.0004982116224732259
1589996645.88871,-3.876998440169353,-0.84,8.871500779915323,0.315390535376794,-0.3268878490017909,-0.591000519943549,0.0005997017036802732,-0.004035903744108369,-0.0009271210895577284
1589996645.89871,-3.8777813024818064,-0.8340728991727312,8.868145798345463,0.3333333333333333,-0.31555555555555553,-0.5966666666666667,-0.005414393581665403,0.0023441632583485763,0.0012930928066689966
1589996645.90871,-3.872049159925327,-0.8479508400746733,8.818114706492429,0.3333333333333333,-0.31555555555555553,-0.5966666666666667,-0.006983104513304371,0.002190599091628176,0.0015289506008220911
1589996645.91871,-3.8659703860391326,-0.8719407720782655,8.831792702273928,0.3333333333333333,-0.31555555555555553,-0.5966666666666667,-0.0045911804325168126,-0.0019538042624619232,0.0017420988699837635
1589996645.92871,-3.87,-0.8625978624494939,8.894804275101013,0.3333333333333333,-0.31555555555555553,-0.5966666666666667,-0.0007414540379787572,-0.0051707710796223254,0.0028144211423705647
1589996645.93871,-3.8793013307007262,-0.85,8.929301330700726,0.32351526203812253,-0.31245511198864684,-0.593566223099758,0.0021054485671495836,-0.0055303669103256075,0.002765183455162804
1589996645.94871,-3.8776379999224178,-0.8561810000387913,8.927637999922418,0.31222222222222223,-0.3088888888888889,-0.59,0.003272492347489368,-0.0016663530864157042,0.001507419054100382
1589996645.95871,-3.861364773613839,-0.86,8.85091818891071,0.31222222222222223,-0.3088888888888889,-0.59,0.003272492347489368,-0.004709785377925162,0.0001488737069114235
1589996645.96871,-3.867634488756367,-0.8447310224872655,8.870537955025469,0.31222222222222223,-0.3088888888888889,-0.59,0.003272492347489368,-0.002122979774854886,-0.0008327935344068484
1589996645.97871,-3.87,-0.84,8.88,0.31222222222222223,-0.3088888888888889,-0.59,0.002711328173009649,-0.001090830782496456,0.0005926617409427017
1589996645.98871,-3.8754330024813894,-0.84,8.88543300248139,0.31222222222222223,-0.31975489385166805,-0.5936220016542597,0.0004037156605690975,-0.001683479417304394,0.0004037156605690975
1589996645.99871,-3.8741302737306005,-0.8341302737306004,8.89,0.31222222222222223,-0.3288888888888889,-0.5966666666666667,-0.0004505429725475456,-0.002181661564992912,-0.001090830782496456
1589996646.00871,-3.8623594825629777,-0.8376405174370224,8.790673273318708,0.31222222222222223,-0.3288888888888889,-0.5966666666666667,0.0008334511614505035,-0.004682015049344422,-0.0002573796210459525
1589996646.01871,-3.8477262336501608,-0.8277262336501606,8.790684415874598,0.31222222222222223,-0.3288888888888889,-0.5966666666666667,0.00042140067491776257,-0.004784723804903586,0.0006694301075786934
1589996646.02871,-3.8638923390363042,-0.8391138712290434,8.853006210265349,0.31222222222222223,-0.3288888888888889,-0.5966666666666667,-0.001563749933198545,-0.0012358232635887338,0.002133330737962153
1589996646.0387099,-3.8698704839809137,-0.8549676209952284,8.925161895023859,0.31949121411800346,-0.32497481632962205,-0.5966666666666667,-0.003272492347489368,0.002730608957752291,0.002723544954729989
1589996646.0487099,-3.85,-0.8420635271574913,8.926190581472474,0.32666666666666666,-0.3211111111111111,-0.5966666666666667,-0.005003962123700486,0.003272492347489368,0.0004501917887817933
1589996646.0587099,-3.85,-0.84,8.83425099686195,0.32666666666666666,-0.3211111111111111,-0.5966666666666667,-0.008260283478223406,0.006078621913230492,0.0
1589996646.0687099,-3.865792992719995,-0.8478964963599973,8.85158598543999,0.32666666666666666,-0.3211111111111111,-0.5966666666666667,-0.007865272129636015,0.005683610564643102,0.0008613741303356338
1589996646.0787098,-3.87,-0.8618083185937528,8.889520796484382,0.32666666666666666,-0.3211111111111111,-0.5966666666666667,-0.008279859348054735,0.00545415391248228,0.001090830782496456
1589996646.0887098,-3.87,-0.8618710619653661,8.905935530982683,0.31853772863203283,-0.3211111111111111,-0.5966666666666667,-0.007839916676253163,0.005010789120623038,0.001090830782496456
1589996646.0987098,-3.87,-0.85,8.90490673066434,0.30666666666666664,-0.3211111111111111,-0.5966666666666667,-0.004939260839954499,0.0022223579899535084,-0.0005148930725277806
1589996646.1087098,-3.879564339147851,-0.8595643391478508,8.84783179553897,0.30666666666666664,-0.3211111111111111,-0.5966666666666667,-0.003272492347489368,0.0,-0.0016600077871573335
1589996646.1187098,-3.8811178271145725,-0.8522356542291448,8.806646518656283,0.30666666666666664,-0.3211111111111111,-0.5966666666666667,-0.0013347028277134174,0.0,0.00036251135733550714
1589996646.1287098,-3.865373059253546,-0.8346269407464538,8.86313470373227,0.30666666666666664,-0.3211111111111111,-0.5966666666666667,0.001090830782496456,-0.002018883758007592,0.001676940625491014
1589996646.1387098,-3.8638820899035067,-0.84,8.905528359614028,0.31184278653800895,-0.3211111111111111,-0.5966666666666667,0.00024389014906369333,-0.003516382496553061,0.0006673604657800746
1589996646.1487098,-3.864810714989167,-0.8503785700216663,8.893675004924168,0.32,-0.3211111111111111,-0.5966666666666667,-0.0022229571482893116,-0.0010495351992000567,0.0
1589996646.1587098,-3.86,-0.8665853475171973,8.813902567379618,0.32,-0.3211111111111111,-0.5966666666666667,-0.004709192304528455,0.0014366999570390867,0.00215504993555863
1589996646.1687098,-3.871171021095038,-0.8644144894524809,8.834684084380152,0.32,-0.3211111111111111,-0.5966666666666667,-0.004844869228363035,0.002181661564992912,0.0014446382951316338
1589996646.1787097,-3.88,-0.8555993608287186,8.878801278342562,0.32,-0.3211111111111111,-0.5966666666666667,-0.004363323129985824,0.004101802633270278,-0.0019201410682773664
1589996646.1887097,-3.8755660609540996,-0.8544339390459001,8.898867878091801,0.31113212190819967,-0.32455973036903346,-0.5902620880448108,-0.0029123199702915654,0.0031593106556921328,-0.0029123199702915654
1589996646.1987097,-3.87,-0.8548041555524357,8.91,0.3,-0.3288888888888889,-0.5822222222222222,0.00060950533684345,-0.002224388195389727,-0.0005240520760498206
1589996646.2087097,-3.862751782874147,-0.85,8.83751782874147,0.3,-0.3288888888888889,-0.5822222222222222,0.003762977236812591,-0.005644465855218887,0.0007906578359098395
1589996646.2187097,-3.867599571525952,-0.85,8.832798714577855,0.3,-0.3288888888888889,-0.5822222222222222,0.003534338474556635,-0.0032290460732619796,0.0002618461270672669
1589996646.2287097,-3.86447083153813,-0.85,8.87317501077122,0.3,-0.3288888888888889,-0.5822222222222222,0.0038756310634709933,-0.0009753841330296617,0.0
1589996646.2387097,-3.8546743218505575,-0.8446743218505575,8.905325678149442,0.30650916218265195,-0.31823753259000387,-0.5946488045709214,0.0020395576647535664,-0.0011618827326161287,0.0017428240989241929
1589996646.2487097,-3.8681807715700756,-0.8460602571900252,8.916060257190026,0.31222222222222223,-0.3088888888888889,-0.6055555555555555,0.0,-0.001520590055720416,0.00128927781967188
1589996646.2587097,-3.873735428015052,-0.85,8.86361885213547,0.31222222222222223,-0.3088888888888889,-0.6055555555555555,0.0013667175920691894,-0.001090830782496456,-0.0013667175920691894
1589996646.2687097,-3.8759431557754502,-0.8381136884490993,8.847829467326351,0.31222222222222223,-0.3088888888888889,-0.6055555555555555,0.0008850661119863511,-0.001090830782496456,0.0004115293410202098
1589996646.2787097,-3.8696649642798304,-0.8368900238134463,8.863445011906723,0.31222222222222223,-0.3088888888888889,-0.6055555555555555,0.002630547523744318,-0.0014666232858885015,0.0003026990480326846
1589996646.2887096,-3.8508195420030256,-0.8494536386646497,8.869726819332325,0.31222222222222223,-0.3088888888888889,-0.6055555555555555,0.007427219760437124,-0.0021518621768446167,-0.0031234954067478914
1589996646.2987096,-3.8664741986815185,-0.8364741986815185,8.885896794726074,0.32,-0.3211111111111111,-0.6055555555555555,0.004363323129985824,-0.0029508720872261484,0.0007062255213798378
1589996646.3087096,-3.8652065124912984,-0.8404130249825972,8.828760925052208,0.32,-0.3211111111111111,-0.6055555555555555,0.005499207948977995,-0.0037953807204897383,0.0
1589996646.3187096,-3.8750297036444414,-0.85,8.815089110933325,0.32,-0.3211111111111111,-0.6055555555555555,0.0032530513576639504,-0.0016265256788319754,0.0
1589996646.3287096,-3.88,-0.8430375874125874,8.850887237762239,0.32,-0.3211111111111111,-0.6055555555555555,0.0003797406985395224,-0.0011392220956185672,0.0
1589996646.3387096,-3.8722416049780066,-0.8338791975109966,8.897758395021993,0.32,-0.32585235251344036,-0.6077106652838871,0.0019371403937722175,-0.0024261827362136064,0.0004231548056378806
1589996646.3487096,-3.86,-0.8352652009739916,8.91,0.32,-0.3333333333333333,-0.6111111111111112,0.003272492347489368,-0.0005743443298460361,0.001090830782496456
1589996646.3587096,-3.86,-0.8426794134897361,8.852942639296188,0.32,-0.3333333333333333,-0.6111111111111112,0.003964047074419614,-0.0027662189077209834,0.0003992760555662101
1589996646.3687096,-3.853229927007299,-0.8567700729927007,8.847080291970803,0.32,-0.3333333333333333,-0.6111111111111112,0.004363323129985824,-0.003624822727967238,0.0
1589996646.3787096,-3.85,-0.8451054624121146,8.86,0.32,-0.3333333333333333,-0.6111111111111112,0.0038217424602552956,-0.00273091167775884,0.0
1589996646.3887095,-3.85,-0.83,8.872257641480884,0.32,-0.328339479396677,-0.6052092837314265,0.0019353910826740309,-0.0012902607217826871,0.0
1589996646.3987095,-3.869106081703897,-0.8347765204259742,8.875670438722077,0.32,-0.3211111111111111,-0.5966666666666667,-0.0010420751027751549,0.0005210375513875774,0.0005210375513875774
1589996646.4087095,-3.869640933572711,-0.8450897666068222,8.829461400359067,0.32,-0.3211111111111111,-0.5966666666666667,-0.001626454155948486,0.001090830782496456,0.00053562337345203
1589996646.4187095,-3.8619912627142954,-0.85,8.841969419500034,0.32,-0.3211111111111111,-0.5966666666666667,-0.0004368088580086972,0.001090830782496456,-0.0006540219244877588
1589996646.4287095,-3.8663897613303595,-0.8427795226607189,8.888051193348202,0.32,-0.3211111111111111,-0.5966666666666667,0.001575263789201188,-0.0008782489540050287,-0.0006970148351961589
1589996646.4387095,-3.860025793921738,-0.8300515878434763,8.91987103039131,0.32,-0.3211111111111111,-0.5966666666666667,0.004352068408452488,-0.004349254728069154,-2.813680383334039e-06
1589996646.4487095,-3.88,-0.8394562812900221,8.95,0.32666666666666666,-0.3411111111111111,-0.6111111111111112,0.005797994003118994,-0.008726646259971648,-0.0032131818369030545
1589996646.4587095,-3.8776201888682214,-0.855240377736443,8.923822077550437,0.32666666666666666,-0.3411111111111111,-0.6111111111111112,0.0070641789427930805,-0.008467049136064475,-0.005713751036389453
1589996646.4687095,-3.8588105822400522,-0.8362701940800173,8.84,0.32666666666666666,-0.3411111111111111,-0.6111111111111112,0.007912928837920729,-0.007228956766449733,-0.00451069113985144
1589996646.4787095,-3.8484905660377358,-0.8384905660377359,8.85061320754717,0.32666666666666666,-0.3411111111111111,-0.6111111111111112,0.005618807615500612,-0.0049241748058920206,-0.0008592865126269252
1589996646.4887094,-3.8710927054369044,-0.8670309018123016,8.904845490938493,0.3223779692844356,-0.33748221332614636,-0.6111111111111112,0.002829418304872091,0.000443074042617277,0.0
1589996646.4987094,-3.85,-0.86,8.93560293603635,0.31222222222222223,-0.3288888888888889,-0.6111111111111112,0.005082791038608967,0.00010828239854211589,0.0004796452724154287
1589996646.5087094,-3.8442521968365555,-0.8542521968365553,8.851026362038665,0.31222222222222223,-0.3288888888888889,-0.6111111111111112,0.009516779664199969,0.005617299254469008,0.003435637689476096
1589996646.5187094,-3.846383929610577,-0.8180803519471148,8.819151788831732,0.31222222222222223,-0.3288888888888889,-0.6111111111111112,0.00603365697220893,0.007937742081480344,0.0022741870502334107
1589996646.5287094,-3.8548572689817537,-0.8145718069452619,8.864000882872277,0.31222222222222223,-0.3288888888888889,-0.6111111111111112,0.001682954790240633,0.009786337964804138,0.0005609849300802109
1589996646.5387094,-3.874874476987448,-0.83,8.909916317991632,0.3226894467689447,-0.322278010227801,-0.6111111111111112,-0.0032451074742886198,0.01090830782496456,0.00216340498285908
1589996646.5487094,-3.89,-0.83,8.92,0.3333333333333333,-0.31555555555555553,-0.6111111111111112,-0.006544984694978735,0.01090830782496456,0.004363323129985824
1589996646.5587094,-3.8277787050113408,-0.8356564813626054,8.863435186373946,0.3333333333333333,-0.31555555555555553,-0.6111111111111112,-0.004076879098599755,0.0028869646367328753,0.021023035905543937
1589996646.5687094,-3.7541167560241564,-0.8270583780120783,8.828627747991948,0.3333333333333333,-0.31555555555555553,-0.6111111111111112,-0.0012405202556690408,-0.0023313510381654965,0.04840344455191014
1589996646.5787094,-3.7179712950499844,-0.8201435247500795,8.842028704950016,0.3333333333333333,-0.31555555555555553,-0.6111111111111112,0.0006638921424240768,0.0011221430255838004,0.07803248541275748
1589996646.5887094,-3.7116279245625443,-0.8518603771872779,8.848372075437455,0.3333333333333333,-0.31555555555555553,-0.6111111111111112,0.0027397552801677067,0.008041686818062568,0.11055434123740765
1589996646.5987093,-3.542146250388964,-0.77,8.872975624935172,0.32666666666666666,-0.31555555555555553,-0.6111111111111112,0.006256306584983771,-8.114758191126005e-05,0.15397875864243393
1589996646.6087093,-3.333323099263562,-0.77,8.907779483456073,0.32666666666666666,-0.31555555555555553,-0.6111111111111112,-0.009878869510322328,-0.001030275587517501,0.18150347080501492
1589996646.6187093,-2.7640556157457565,-0.8218815456843627,8.837623690863127,0.32666666666666666,-0.31555555555555553,-0.6111111111111112,-0.017409958686041303,0.014278104326761121,0.2024300656337004
1589996646.6287093,-2.3554208874304465,-0.8547667284919389,8.821495933799401,0.32666666666666666,-0.31555555555555553,-0.6111111111111112,-0.0016312659219199037,0.024375531290649153,0.1952282838408736
1589996646.6387093,-2.1061358487894664,-0.9192910236443438,8.861577587427439,0.32295223936948414,-0.3229844101499206,-0.603063185300549,0.0072300937635267,0.012965256681920391,0.14052929105433123
1589996646.6487093,-1.96,-1.03,8.99,0.32,-0.3288888888888889,-0.5966666666666667,-0.004363323129985824,0.011999138607461015,0.12217304763960307
1589996646.6587093,-1.9672129538763494,-0.8321962708537782,8.78390186457311,0.32,-0.3288888888888889,-0.5966666666666667,0.003694480075124405,0.003576511917880922,0.08798519055591678
1589996646.6687093,-1.893740657855846,-0.672281805514504,8.861670818730735,0.32,-0.3288888888888889,-0.5966666666666667,-0.008749768206212125,0.007930965739445267,0.03581244025245922
1589996646.6787093,-1.8879964720267806,-0.6405851223765711,9.012703910838495,0.32,-0.3288888888888889,-0.5966666666666667,-0.008624138297810295,0.002322850539326498,-0.05054956683131015
1589996646.6887093,-2.1227434818595667,-0.8289971030486963,9.025014484756518,0.3105014484756518,-0.3309996781165218,-0.5966666666666667,0.015023902968237074,0.004717290119657129,-0.12598621525285456
1589996646.6987092,-2.1874873187812938,-0.8456281703046765,8.92,0.3,-0.3333333333333333,-0.5966666666666667,0.022096239877415283,0.018741391715702688,-0.1884887908311757
1589996646.7087092,-2.226267423480385,-0.8454224744934616,8.901021339272884,0.3,-0.3333333333333333,-0.5966666666666667,0.010408977251945095,0.027789341330796788,-0.24334339779279512
1589996646.7187092,-2.303168415409359,-0.8821122769395726,8.855528069234893,0.3,-0.3333333333333333,-0.5966666666666667,0.012602157416380324,0.025292537035894316,-0.32539347736427005
1589996646.7287092,-2.33,-0.9,8.86,0.3,-0.3333333333333333,-0.5966666666666667,0.01308996938995747,0.031634092692397225,-0.35124751196385884
1589996646.7387092,-2.403871930319771,-0.8780640348401145,8.87387193031977,0.30645321719961827,-0.3333333333333333,-0.5966666666666667,0.023329808510474326,0.036842139978480536,-0.4293682212551087
1589996646.7487092,-2.4221242703616825,-0.8715932027712618,8.891062135180842,0.3333333333333333,-0.3333333333333333,-0.5966666666666667,0.02491531653485338,0.04030280846484717,-0.4856809656022574
1589996646.7587092,-2.4744743341565982,-0.9024123890260998,8.893113276817301,0.3333333333333333,-0.3333333333333333,-0.5966666666666667,0.021553464829026495,0.041375114737093405,-0.5660558377752903
1589996646.7687092,-2.5105396132252027,-0.9163069245165315,8.852613849033062,0.3333333333333333,-0.3333333333333333,-0.5966666666666667,0.02106977423770837,0.04937251191094689,-0.6416660668273015
1589996646.7787092,-2.4900625197015867,-0.9299374802984134,8.88,0.3333333333333333,-0.3333333333333333,-0.5966666666666667,0.021843895015930394,0.05237351724283052,-0.687666682670288
1589996646.7887092,-2.5095267140210007,-0.9247633570105004,8.883175571340335,0.33121628577311096,-0.3313927064031295,-0.5966666666666667,0.02687274097392481,0.055061140770330204,-0.7686926272936875
1589996646.7987092,-2.551369962742495,-0.958630037257505,8.887054944113743,0.32,-0.3211111111111111,-0.5966666666666667,0.03242604396881632,0.061579595590143275,-0.8514977159068674
1589996646.8087091,-2.534498570407434,-0.9810028591851322,8.845243566833451,0.32,-0.3211111111111111,-0.5966666666666667,0.03460652860252119,0.06744084704438003,-0.9045487559741775
1589996646.8187091,-2.5205426937487676,-1.011085387497535,8.784884243738906,0.32,-0.3211111111111111,-0.5966666666666667,0.03393415166671493,0.06999076619376038,-0.9544603710933416
1589996646.8287091,-2.53325741640676,-1.04302966562704,8.85697033437296,0.32,-0.3211111111111111,-0.5966666666666667,0.038129389875124715,0.07592829449758479,-1.0325198759016316
1589996646.838709,-2.5415205444437343,-1.0760821777749379,8.834561633331203,0.32506848147911477,-0.31823897160627945,-0.600214603702047,0.04237653484882383,0.08280750269846188,-1.086436056767741
1589996646.848709,-2.5686083595071274,-1.120633348289787,8.862658337072446,0.3533333333333333,-0.3022222222222222,-0.62,0.04116159014397768,0.08777733420043765,-1.1584077739445515
1589996646.858709,-2.619276395264557,-1.1495865115797466,8.869896627894937,0.3533333333333333,-0.3022222222222222,-0.62,0.04037201509979432,0.08619818411207093,-1.2057822765955533
1589996646.868709,-2.6538400777434465,-1.200720621947573,8.836880544204128,0.3533333333333333,-0.3022222222222222,-0.62,0.04212351301638867,0.09196144917054805,-1.300567490577294
1589996646.878709,-2.6689176174120166,-1.2589176174120165,8.88,0.3533333333333333,-0.3022222222222222,-0.62,0.04274858461213919,0.09729012373696198,-1.3586711703454375
1589996646.888709,-2.69076742006041,-1.2812790334340174,8.88,0.3538449467069402,-0.30202326146581954,-0.6201705377912023,0.04587070122651788,0.10052385707467412,-1.4053502344762738
1589996646.898709,-2.716979064680763,-1.3249651078012707,8.88,0.3713193764538416,-0.2952276498975801,-0.6259953477068362,0.047776865813967055,0.10624235083702166,-1.4549105137499523
1589996646.908709,-2.714002556727389,-1.3960038350910833,8.789993608181529,0.37333333333333335,-0.29444444444444445,-0.6266666666666667,0.05541406430297304,0.10864716428018778,-1.5300059490261813
1589996646.918709,-2.734757837837838,-1.4190484324324324,8.754757837837838,0.37333333333333335,-0.29444444444444445,-0.6266666666666667,0.054230139366524405,0.11136853973407129,-1.5767657537907347
1589996646.928709,-2.7799292381812704,-1.410188698183278,8.80009434909164,0.37333333333333335,-0.29444444444444445,-0.6266666666666667,0.0512844846113525,0.11237100843115404,-1.6232565502758503
1589996646.938709,-2.750772139373807,-1.496949254364266,8.840772139373808,0.37685085714734456,-0.2919564397955097,-0.6266666666666667,0.05781403147231216,0.11898478263184634,-1.6690676984613944
1589996646.948709,-2.7524247499641095,-1.5989381250897259,8.846212374982054,0.4188888888888889,-0.26222222222222225,-0.6266666666666667,0.05657453408367368,0.1208177176670358,-1.7233794732431826
1589996646.958709,-2.722026276124272,-1.6407842343254369,8.818431531349125,0.4188888888888889,-0.26222222222222225,-0.6266666666666667,0.05571791660160696,0.12413367676757667,-1.7570074800678834
1589996646.968709,-2.6925839679281838,-1.675503807569102,8.774832064143633,0.4188888888888889,-0.26222222222222225,-0.6266666666666667,0.06006896887794925,0.12819093590349462,-1.7840466619996647
1589996646.978709,-2.698272945800362,-1.72402979313249,8.761727054199639,0.4188888888888889,-0.26222222222222225,-0.6266666666666667,0.06647788026948362,0.13012285043107918,-1.8093905304806333
1589996646.988709,-2.6761949713122664,-1.775545066938045,8.783805028687732,0.4188888888888889,-0.26222222222222225,-0.6266666666666667,0.06567510246325745,0.13413673946221008,-1.8334738646674185
1589996646.998709,-2.67,-1.829701325614289,8.82970132561429,0.44535643929841484,-0.23796030101349003,-0.6200497790642852,0.06869790405623596,0.13634570273171007,-1.8662159869231103
1589996647.008709,-2.67,-1.8913973633859675,8.847542103824562,0.4455555555555555,-0.23777777777777775,-0.62,0.06202492590272331,0.13348352778581982,-1.8893740290613334
1589996647.018709,-2.678214779005525,-1.9989261049723757,8.727140883977901,0.4455555555555555,-0.23777777777777775,-0.62,0.06693015253515029,0.13861310300315288,-1.9161211097449522
1589996647.028709,-2.670168623388582,-2.0391568830570903,8.759325506445672,0.4455555555555555,-0.23777777777777775,-0.62,0.06868555138069392,0.1438792995397837,-1.9336750982003879
1589996647.038709,-2.6826475390208326,-2.072940984391667,8.811470492195834,0.4532347925782412,-0.2328761371249997,-0.6231043724134261,0.06654067773228381,0.13962634015954636,-1.9574956610931298
1589996647.048709,-2.6280538986927096,-2.095119757703124,8.814880242296876,0.4977777777777778,-0.20444444444444448,-0.6411111111111111,0.06626143826720923,0.13962634015954636,-1.9751744819699193
1589996647.058709,-2.5247322225257216,-2.1679870709277975,8.746509696804152,0.4977777777777778,-0.20444444444444448,-0.6411111111111111,0.06375870665116916,0.139381079526359,-1.999298931950203
1589996647.068709,-2.60874806519166,-2.2290895019575707,8.700682873531822,0.4977777777777778,-0.20444444444444448,-0.6411111111111111,0.06542501696748523,0.138547924368201,-2.0134625696388895
1589996647.078709,-2.594083791454145,-2.2936648341834203,8.769581042729275,0.4977777777777778,-0.20444444444444448,-0.6411111111111111,0.06564973264678836,0.14706226994002053,-2.03160378067653
1589996647.0887089,-2.5648170404189607,-2.356506982677588,8.835662011548274,0.5093457469823792,-0.18998448293869272,-0.6427981066201155,0.06801253759668827,0.14517266612384624,-2.045728661851353
1589996647.0987089,-2.5226350082577316,-2.4010583470962197,8.803153322323023,0.5511111111111111,-0.13777777777777778,-0.6488888888888888,0.06912522186835554,0.15128150466129855,-2.059259991006712
1589996647.1087089,-2.5215559815086257,-2.4447552147930995,8.746800766715525,0.5511111111111111,-0.13777777777777778,-0.6488888888888888,0.0721645628974265,0.1521975960821343,-2.0709784622027887
1589996647.1187088,-2.4762512622220036,-2.5112462133339903,8.693437184444498,0.5511111111111111,-0.13777777777777778,-0.6488888888888888,0.0702220939361478,0.14981875586173224,-2.08430464228098
1589996647.1287088,-2.4356229341270463,-2.597188532936477,8.71198088822746,0.5511111111111111,-0.13777777777777778,-0.6488888888888888,0.07360842729446913,0.1510574128517175,-2.091861456298432
1589996647.1387088,-2.3961997336884155,-2.6169001331557924,8.744833555259653,0.5511111111111111,-0.13777777777777778,-0.6488888888888888,0.07504189531390201,0.1524908808711504,-2.0968785943664474
1589996647.1487088,-2.4038460588089943,-2.6552748067351475,8.782637403367573,0.5377777777777778,-0.10111111111111112,-0.6766666666666666,0.07279796634934162,0.15560520712643194,-2.1081563626316355
1589996647.1587088,-2.352026192241166,-2.6996918352218575,8.80484591761093,0.5377777777777778,-0.10111111111111112,-0.6766666666666666,0.07037539325232536,0.15237510966374362,-2.1138090331913397
1589996647.1687088,-2.26,-2.763718278579747,8.681758524496926,0.5377777777777778,-0.10111111111111112,-0.6766666666666666,0.07026267283837036,0.15838423946995256,-2.1333853823271083
1589996647.1787088,-2.24527866752082,-2.8420819987187698,8.73736066623959,0.5377777777777778,-0.10111111111111112,-0.6766666666666666,0.06789914989190785,0.15872601149022741,-2.1488758456960597
1589996647.1887088,-2.1981604764482947,-2.9164383324309693,8.76,0.5390041268122481,-0.0950815616916321,-0.6773820369367743,0.06892300018880948,0.15768161535408792,-2.160359405692748
1589996647.1987088,-2.1799721613897036,-2.9800389740544153,8.759988864555881,0.5511111111111111,-0.03555555555555556,-0.6844444444444444,0.07090703758357499,0.1636246173744684,-2.176216521244346
1589996647.2087088,-2.1066413757345317,-3.0318321811268576,8.719236778430695,0.5511111111111111,-0.03555555555555556,-0.6844444444444444,0.076075040259357,0.16277527382828366,-2.1982321631257746
1589996647.2187088,-2.0413999308676116,-2.9810888351192535,8.661244382993432,0.5511111111111111,-0.03555555555555556,-0.6844444444444444,0.0752842916331861,0.1604030279497709,-2.214047135649192
1589996647.2287087,-1.983884958597958,-3.0363067770721117,8.682230082804084,0.5511111111111111,-0.03555555555555556,-0.6844444444444444,0.07264096406742337,0.16689710972195776,-2.2345288862638855
1589996647.2387087,-1.9585535059934165,-3.102892988013167,8.732169741009876,0.5530397697865557,-0.03041246575436999,-0.6854087737821667,0.07074621284336186,0.1675282617975889,-2.250397589640046
1589996647.2487087,-1.9197186682349552,-3.1457946662185843,8.757102666890708,0.5777777777777777,0.03555555555555556,-0.6977777777777778,0.06872233929727672,0.17562375598192942,-2.2658289045197475
1589996647.2587087,-1.8557007268855041,-3.1742992731144963,8.71568174452521,0.5777777777777777,0.03555555555555556,-0.6977777777777778,0.06809841580605207,0.1743759089994801,-2.2689280275926285
1589996647.2687087,-1.8174739980427412,-3.2302080156580715,8.642630009786295,0.5777777777777777,0.03555555555555556,-0.6977777777777778,0.06709176587060868,0.17181152099026845,-2.267274763177654
1589996647.2787087,-1.8065155313977301,-3.291742234301135,8.68696893720454,0.5777777777777777,0.03555555555555556,-0.6977777777777778,0.06853229101667681,0.17325204613633657,-2.2602925118110506
1589996647.2887087,-1.7904604872820533,-3.299769756358973,8.719079025435894,0.5777777777777777,0.03555555555555556,-0.6977777777777778,0.06765662419989087,0.17237637931955066,-2.250660176826405
1589996647.2987087,-1.74716330749354,-3.3415472868217053,8.688968475452196,0.5844444444444444,0.07555555555555556,-0.7422222222222222,0.06860981742431223,0.1723793941026812,-2.23558423381643
1589996647.3087087,-1.6676847545219637,-3.3848992248062015,8.660067183462532,0.5844444444444444,0.07555555555555556,-0.7422222222222222,0.06545717552868785,0.17316755457658725,-2.218244703390496
1589996647.3187087,-1.6393500046829632,-3.4210833255283943,8.590649995317037,0.5844444444444444,0.07555555555555556,-0.7422222222222222,0.06101562032977133,0.17130770184529706,-2.1830869226642493
1589996647.3287086,-1.5954427450980393,-3.478318431372549,8.63455725490196,0.5844444444444444,0.07555555555555556,-0.7422222222222222,0.05645293132182306,0.17253469431661042,-2.140770040615083
1589996647.3387086,-1.537898236092266,-3.5090992440395423,8.691201007947276,0.5848114190950012,0.0758891688742435,-0.7420220542310094,0.05120354195538782,0.16891500923208666,-2.108454894142152
1589996647.3487086,-1.4809877883310718,-3.4847090521418878,8.723721263810816,0.5947481639421938,0.08492257328078223,-0.7366020115870862,0.049429837147857335,0.16448074721326045,-2.075641355202838
1589996647.3587086,-1.4575861169556068,-3.5036208245665894,8.669137526300231,0.5966666666666667,0.08666666666666667,-0.7355555555555555,0.04393412070330363,0.160088811233962,-2.014594938243999
1589996647.3687086,-1.4429995305082681,-3.525500704237597,8.603497887287206,0.5966666666666667,0.08666666666666667,-0.7355555555555555,0.03916067145081284,0.15849766148313174,-1.9740206195978272
1589996647.3787086,-1.3725149735418967,-3.5225149735418966,8.671247504409683,0.5966666666666667,0.08666666666666667,-0.7355555555555555,0.032318856424868585,0.1574878775429046,-1.8935614014864384
1589996647.3887086,-1.3237355352677793,-3.4737355352677795,8.679377410788703,0.5966666666666667,0.08666666666666667,-0.7355555555555555,0.022563669074114827,0.16014838318401925,-1.8430117943052597
1589996647.3987086,-1.3250456791972443,-3.51,8.65,0.6222222222222222,0.10111111111111112,-0.7355555555555555,0.024918929464379624,0.14781255385571718,-1.7534449437064088
1589996647.4087086,-1.2962148075552389,-3.532711154668567,8.65,0.6222222222222222,0.10111111111111112,-0.7355555555555555,0.016686071306051396,0.141157939857431,-1.675864717225008
1589996647.4187086,-1.2786986526454158,-3.6286986526454155,8.646095957936247,0.6222222222222222,0.10111111111111112,-0.7355555555555555,0.00915251118590191,0.12293515945149507,-1.605964596511491
1589996647.4287086,-1.264406092034877,-3.6192008702906966,8.623995648546515,0.6222222222222222,0.10111111111111112,-0.7355555555555555,0.012870853893576473,0.11318488679379676,-1.5279123602122013
1589996647.4387085,-1.2163763516497899,-3.6123394788071126,8.658302605964435,0.6222222222222222,0.10111111111111112,-0.7355555555555555,0.020355470934628816,0.11093950168148106,-1.4687838855878879
1589996647.4487085,-1.1996753121534975,-3.6593506243069953,8.699025936460492,0.6,0.05111111111111112,-0.8066666666666666,0.021852033599695852,0.09574518321132099,-1.3628512857544575
1589996647.4587085,-1.1874083651438656,-3.639629766449124,8.665557197389484,0.6,0.05111111111111112,-0.8066666666666666,0.02310937750943001,0.08819574852060938,-1.274131949071279
1589996647.4687085,-1.1271528547387433,-3.6310218363912488,8.562262036694989,0.6,0.05111111111111112,-0.8066666666666666,0.027804275049783084,0.08443983048832691,-1.1990135884256297
1589996647.4787085,-1.0691589224076306,-3.611682155184739,8.607569698331325,0.6,0.05111111111111112,-0.8066666666666666,0.0216331209842842,0.08198566614150607,-1.092034147464986
1589996647.4887085,-1.0605923081636406,-3.628815383672719,8.684669226527236,0.6,0.05111111111111112,-0.8066666666666666,0.0197641756804608,0.07264093962238902,-1.0154073900082263
1589996647.4987085,-1.06,-3.677040892551628,8.671183642979349,0.5456416352736746,0.07619958713864591,-0.6644986358439695,0.021687500230193158,0.06891601242688067,-0.9290337318540687
1589996647.5087085,-1.0385504560308247,-3.6528990879383505,8.709128420231186,0.5422222222222223,0.07777777777777778,-0.6555555555555556,0.019714014444044133,0.06045404094693815,-0.8283188405993709
1589996647.5187085,-1.0249124518363166,-3.6801750963273667,8.606843388772376,0.5422222222222223,0.07777777777777778,-0.6555555555555556,0.020457852183403392,0.05450333903206406,-0.7702994969293484
1589996647.5287085,-1.0015007583069075,-3.69,8.64399696677237,0.5422222222222223,0.07777777777777778,-0.6555555555555556,0.02072578486743266,0.04428806064316301,-0.664646669950063
1589996647.5387084,-0.9934650211171551,-3.69,8.682674894414225,0.5422222222222223,0.07777777777777778,-0.6555555555555556,0.01930007364175834,0.03864324200999811,-0.6043067908825758
1589996647.5487084,-0.9813756460616084,-3.6813756460616087,8.708624353938392,0.5153908988583373,0.15252217857717135,-0.6124337858635976,0.01572181007589713,0.03317510259584043,-0.5063415935700775
1589996647.5587084,-0.7820284530268723,-3.4077891229119497,8.742995257828854,0.5111111111111111,0.16444444444444445,-0.6055555555555555,0.016171437027853428,0.024626668818766274,-0.42955133193146866
1589996647.5687084,-0.6973300499326847,-3.102055420167351,6.906035719763459,0.5111111111111111,0.16444444444444445,-0.6055555555555555,0.14384968210730006,-0.03128709551476845,-0.33320877092173273
1589996647.5787084,-0.9260619642461527,-3.595258610405767,8.771630395882685,0.5111111111111111,0.16444444444444445,-0.6055555555555555,0.07991330500747892,0.01783475518387463,-0.2723912414853175
1589996647.5887084,-0.940514255880732,-3.5523998607767497,8.894114047045857,0.5111111111111111,0.16444444444444445,-0.6055555555555555,-0.2582965924303475,0.07658883746858205,-0.2049576976444601
1589996647.5987084,-0.8662420230686908,-3.4598513615283997,7.947536961433271,0.5001840034175838,0.20997405983414147,-0.5982708170932041,0.003316551032628068,-0.007478345672494724,-0.1378314351584058
1589996647.6087084,-0.9001368805278674,-3.6184149936824372,9.068825635266041,0.4977777777777778,0.22,-0.5966666666666667,0.06480542522681318,0.03142505380174614,-0.025345314637754947
1589996647.6187084,-0.9440205396598118,-3.536683783049843,9.073470264398745,0.4977777777777778,0.22,-0.5966666666666667,-0.06750305509111255,-0.053023338146601685,0.011110790276234484
1589996647.6287084,-0.8522342966324337,-3.469031128094897,8.486030570814426,0.4977777777777778,0.22,-0.5966666666666667,0.01913725874105537,-0.008970370214360335,0.10047397354401746
1589996647.6387084,-0.9273650585144495,-3.585901202133588,9.137163840458562,0.4977777777777778,0.22,-0.5966666666666667,0.02277970086431378,-0.017165864991691752,0.1614848791085958
1589996647.6487083,-0.88,-3.54,8.65,0.5311111111111111,0.2733333333333333,-0.5822222222222222,0.016362461737446838,-0.0272707695624114,0.3065234498815041
1589996647.6587083,-0.8855899300963537,-3.538882013980729,8.63323020971094,0.5311111111111111,0.2733333333333333,-0.5822222222222222,0.01392339460900445,-0.028490303126632595,0.31384065126683125
1589996647.6687083,-0.9186075949367088,-3.532278481012658,8.534177215189873,0.5311111111111111,0.2733333333333333,-0.5822222222222222,-0.0004832794605996969,-0.03569364016143467,0.35706067347564374
1589996647.6787083,-0.9501639099317166,-3.6191804503414167,8.738360900682833,0.5311111111111111,0.2733333333333333,-0.5822222222222222,0.015057073356062291,-0.03937718696931647,0.433667570859794
1589996647.6887083,-0.9564308873847625,-3.5878455630761876,8.675691126152376,0.5311111111111111,0.2733333333333333,-0.5822222222222222,0.006853619053269902,-0.043478914120712656,0.4986115840902337
1589996647.6987083,-0.9447859791034715,-3.5471789686552073,8.632392989551736,0.5311111111111111,0.2784046736321762,-0.5932101262030484,0.011309418840705587,-0.04913407732874667,0.5621513899169239
1589996647.7087083,-0.94,-3.54,8.694709136331193,0.5311111111111111,0.28,-0.5966666666666667,-0.00934810576715408,-0.05017821599483697,0.5924648114559472
1589996647.7187083,-1.0065309056061331,-3.644548565952495,8.74851324525977,0.5311111111111111,0.28,-0.5966666666666667,-0.007139643901755501,-0.04810467428562165,0.6259302616661311
1589996647.7287083,-1.000367507136061,-3.5536750713606087,8.5284526641294,0.5311111111111111,0.28,-0.5966666666666667,-0.014950920477508515,-0.0543010062667414,0.6440395715005217
1589996647.7387083,-1.0252240514496223,-3.625672154348867,8.64612025724811,0.5311111111111111,0.28,-0.5966666666666667,-0.009768596598845923,-0.052707194339454644,0.6602729231310348
1589996647.7487082,-1.0212199712947931,-3.6009759770358345,8.760243994258959,0.5255555555555556,0.2577777777777778,-0.5966666666666667,-0.01090830782496456,-0.0567232006898157,0.6743729643863917
1589996647.7587082,-1.0702266704523946,-3.6397733295476056,8.768639977285632,0.5255555555555556,0.2577777777777778,-0.5966666666666667,-0.010957759646355416,-0.056760289555858844,0.6840868931341028
1589996647.7687082,-1.0899618449649844,-3.6199236899299687,8.65,0.5255555555555556,0.2577777777777778,-0.5966666666666667,-0.015250820611599209,-0.06000401717464555,0.6960083081941222
1589996647.7787082,-1.08,-3.600404582536399,8.6504045825364,0.5255555555555556,0.2577777777777778,-0.5966666666666667,-0.009832188078626914,-0.062177354602297986,0.7114570467662301
1589996647.7887082,-1.08,-3.624962332643741,8.67496233264374,0.5255555555555556,0.2577777777777778,-0.5966666666666667,-0.010725133070825064,-0.062177354602297986,0.7257441666414006
1589996647.7987082,-1.0895560493379286,-3.5713318519862143,8.668668148013786,0.5666666666666667,0.27111111111111114,-0.6111111111111112,-0.018398840788010577,-0.06331661288960418,0.7510484946628736
1589996647.8087082,-1.0705360058044622,-3.6283919825866136,8.611608017413387,0.5666666666666667,0.27111111111111114,-0.6111111111111112,-0.012174546096792253,-0.06539137778667695,0.7749082909792104
1589996647.8187082,-1.1005952847184148,-3.660148821179604,8.562976423592074,0.5666666666666667,0.27111111111111114,-0.6111111111111112,-0.021930252756588497,-0.06113522543694127,0.7867000345208837
1589996647.8287082,-1.1334479517506069,-3.6683619879376517,8.727239758753035,0.5666666666666667,0.27111111111111114,-0.6111111111111112,-0.028201675341607335,-0.06382297797337791,0.7983469621787757
1589996647.8387082,-1.1688972271467666,-3.6468822182825864,8.731102772853234,0.5666666666666667,0.27111111111111114,-0.6111111111111112,-0.02503935324133636,-0.06309813677127148,0.8069741913324957
1589996647.8487082,-1.1832417859498041,-3.650274642150588,8.696483571899607,0.6289924184629176,0.25834559568296334,-0.615616587144575,-0.02476544281819061,-0.06291456139436337,0.8130525157614941
1589996647.8587081,-1.1990240448610836,-3.6695120224305415,8.670975955138916,0.6588888888888889,0.25222222222222224,-0.6177777777777778,-0.025142338092811765,-0.06223058469769127,0.8096093609939434
1589996647.8687081,-1.2663272247531487,-3.67,8.678290903094144,0.6588888888888889,0.25222222222222224,-0.6177777777777778,-0.028706696921333267,-0.06398614906425537,0.8030656599955194
1589996647.8787081,-1.2545287338921793,-3.606321834730448,8.69273563305391,0.6588888888888889,0.25222222222222224,-0.6177777777777778,-0.023895462899490412,-0.06366439513880166,0.7962036569069811
1589996647.888708,-1.2825156527427344,-3.6054297106189455,8.721257826371367,0.6588888888888889,0.25222222222222224,-0.6177777777777778,-0.023817610384079625,-0.06172227262647097,0.7822125895666591
1589996647.898708,-1.306118778046903,-3.6016436658592914,8.711643665859292,0.8567293790720817,0.22366792467000882,-0.6626488167883988,-0.027758928575348566,-0.06175397896428405,0.7744250721975604
1589996647.908708,-1.3168923954249425,-3.521076045750575,8.755139163399539,0.9822222222222222,0.20555555555555555,-0.6911111111111111,-0.026445056289538308,-0.062177354602297986,0.7738118814264238
1589996647.918708,-1.369929228123553,-3.4828672531252067,8.665876050003307,0.9822222222222222,0.20555555555555555,-0.6911111111111111,-0.026645231968374473,-0.060621230631342005,0.7822704754272637
1589996647.928708,-1.4078999783502921,-3.5426499242260228,8.66474994587573,0.9822222222222222,0.20555555555555555,-0.6911111111111111,-0.032152231410041136,-0.05999569303730508,0.7951610870927077
1589996647.938708,-1.4022515025427646,-3.503509015256588,8.662251502542764,0.9822222222222222,0.20555555555555555,-0.6911111111111111,-0.03103446356600412,-0.06253138290063942,0.8064492306757501
1589996647.948708,-1.4794458184683403,-3.4591687277025103,8.710554181531661,1.4966666666666666,-0.22333333333333333,-1.0322222222222222,-0.0293617533863305,-0.06005614486468762,0.8157298439115103
1589996647.958708,-1.4610856004727615,-3.431628400709142,8.72891439952724,1.4966666666666666,-0.22333333333333333,-1.0322222222222222,-0.026357569741892083,-0.06205893396097989,0.8087200820744871
1589996647.968708,-1.4411416419764884,-3.4017124629647326,8.645137388894199,1.4966666666666666,-0.22333333333333333,-1.0322222222222222,-0.01795142780416083,-0.062177354602297986,0.801105662726089
1589996647.978708,-1.4307771585795228,-3.3815543171590456,8.593885792897614,1.4966666666666666,-0.22333333333333333,-1.0322222222222222,-0.025501739978775074,-0.061171298669944016,0.789603179096505
1589996647.988708,-1.4828007220611563,-3.4644811552978503,8.653360866473388,1.4966666666666666,-0.22333333333333333,-1.0322222222222222,-0.02502800572066796,-0.06223845687904852,0.7806071243302088
1589996647.998708,-1.5066291781360597,-3.5137078254030674,8.715842705465986,1.2801619696771092,-0.1554930309782846,-0.9387389347664613,-0.02144891602477931,-0.06199350478972309,0.7679816322609341
1589996648.008708,-1.482851262349067,-3.4335743688254667,8.7053615532382,0.7555555555555555,0.008888888888888889,-0.7122222222222222,-0.020646906187084743,-0.05980074146016435,0.7405208342018559
1589996648.018708,-1.5050526574601484,-3.4149473425398518,8.632263041429331,0.7555555555555555,0.008888888888888889,-0.7122222222222222,-0.02181661564992912,-0.0583537028257146,0.7218027019574946
1589996648.028708,-1.551662598507567,-3.4863814305972056,8.630831299253783,0.7555555555555555,0.008888888888888889,-0.7122222222222222,-0.02105916823441504,-0.056299136641284005,0.6992545335433477
1589996648.038708,-1.5506573821145493,-3.5006573821145492,8.704475392951503,0.7555555555555555,0.008888888888888889,-0.7122222222222222,-0.02213241973433374,-0.054225735040418166,0.6761137325668412
1589996648.048708,-1.556500253100481,-3.517500421834135,8.728999831266346,0.6822210973311961,0.09261239536169934,-0.6993886920329593,-0.02050758189896062,-0.05345070834232633,0.6495894548868439
1589996648.058708,-1.5089159891598916,-3.496368563685637,8.676368563685637,0.6222222222222222,0.16111111111111112,-0.6888888888888889,-0.014736562197140465,-0.04773936668437742,0.599643575188919
1589996648.068708,-1.5360398025300834,-3.5140265350200557,8.621946929959888,0.6222222222222222,0.16111111111111112,-0.6888888888888889,-0.01745691067202964,-0.04887138994709303,0.5584655609652357
1589996648.078708,-1.5535450416046952,-3.5041801664187804,8.648094625557745,0.6222222222222222,0.16111111111111112,-0.6888888888888889,-0.011889560035870446,-0.04454520214097096,0.4887388458606021
1589996648.088708,-1.5950098029700088,-3.457850140735708,8.744299718528584,0.6222222222222222,0.16111111111111112,-0.6888888888888889,-0.007635815477475192,-0.03584036075271837,0.4116993994761343
1589996648.098708,-1.62,-3.4235760111576012,8.738940027894003,0.6158351154501782,0.17753509995351,-0.714437315977065,-0.007635815477475192,-0.026454396064660213,0.31211422388362126
1589996648.108708,-1.6830164537732417,-3.42,8.74575411344331,0.6144444444444445,0.1811111111111111,-0.72,-0.01021357626171083,-0.025089107997418484,0.2314026996383998
1589996648.118708,-1.5825944833032493,-3.5193431295126354,8.731937612815885,0.6144444444444445,0.1811111111111111,-0.72,0.008794700120838132,-0.016222754421807276,0.14878290714815648
1589996648.128708,-1.6225168769178315,-3.4512246846232526,8.826280941016025,0.6144444444444445,0.1811111111111111,-0.72,-0.0005490973635450952,-0.009542928360695556,0.06638008423351738
1589996648.1387079,-1.5400022787694645,-3.322310672236992,8.715387770603874,0.6144444444444445,0.1811111111111111,-0.72,0.008390738322847405,-0.004195617736611511,0.011832427514837936
1589996648.1487079,-1.5,-3.362269913725115,8.703059293071721,0.5980409042266461,0.14693706899069803,-0.732986136005757,0.009734940650302538,0.0005023614267310353,-0.04521213736161045
1589996648.1587079,-1.4650032167405953,-3.42,8.782495174889107,0.5877777777777777,0.12555555555555556,-0.7411111111111112,0.016225318382711143,0.008862386046843099,-0.13552958411577856
1589996648.1687078,-1.3416657827278353,-3.403095111818262,8.612498674091754,0.5877777777777777,0.12555555555555556,-0.7411111111111112,0.02482944148126336,0.0208817004844482,-0.21146583472390923
1589996648.1787078,-1.2567283702213279,-3.463271629778672,8.565939637826963,0.5877777777777777,0.12555555555555556,-0.7411111111111112,0.02617993877991494,0.02444119401956546,-0.29570644700734816
1589996648.1887078,-8.99048,-11.435253333333334,4.168080000000001,0.5877777777777777,0.12555555555555556,-0.7411111111111112,-0.7157028030421846,2.1011204377775474,-1.0540872384188456
1589996648.1987078,-1.0244005102040816,-1.535885204081632,0.4994783163265306,0.5429253117913833,0.14305895691609977,-0.6109295634920635,-0.43241770533716173,-2.828538550080988,-6.361710375041914
1589996648.2087078,-2.164329699917488,-1.7981174273678726,-0.2951919485820992,0.5422222222222223,0.14333333333333334,-0.6088888888888889,-0.17970782226287646,-0.4238163242042785,-6.852702435686554
1589996648.2187078,-1.1101993544997375,-1.5864923815957366,-0.06042693087142531,0.5422222222222223,0.14333333333333334,-0.6088888888888889,-0.16250157666704257,-0.17478321940509922,-6.765089604031123
1589996648.2287078,-0.11059517300632665,-1.2116863235179254,-0.032768101226275104,0.5422222222222223,0.14333333333333334,-0.6088888888888889,-0.1350692695329272,-0.12776889112416157,-6.501311248719154
1589996648.2387078,-0.13211807439205603,-0.957881925607944,-0.2120977899379673,0.5422222222222223,0.14333333333333334,-0.6088888888888889,-0.12091335768250641,0.013847507204638773,-6.14174844572529
1589996648.2487078,-0.1424333976833977,-0.8740556628056628,-0.07973359073359074,0.5105716788216789,0.30056506506506514,-0.6323715501215501,-0.19104069065115056,0.06595037261867998,-5.788222664692626
1589996648.2587078,-0.2881739443064453,-2.4226052425153615,2.9772293763890714,0.5077777777777778,0.3144444444444445,-0.6344444444444445,-0.10147817368498334,0.16320562654704332,-5.560540182939441
1589996648.2687078,-1.8739512922465207,4.501983866034562,16.113167533261965,0.5077777777777778,0.3144444444444445,-0.6344444444444445,1.87246683917929,2.6019423672524526,-5.002555431857716
1589996648.2787077,0.7331542076483637,2.4501460491605664,7.366487482748381,0.5077777777777778,0.3144444444444445,-0.6344444444444445,1.9489664785412073,1.079670238752532,-4.455963326765626
1589996648.2887077,0.5744465790778384,-1.2568319286068417,4.623303173029251,0.5077777777777778,0.3144444444444445,-0.6344444444444445,0.5255649210171216,-0.8091782879763318,-3.687505665400116
1589996648.2987077,0.32798880237949435,-0.7224276091330593,2.5558533811565045,0.41637690879576983,0.4097765335977216,-0.6079087082883776,0.06253721138480121,0.09830044833042395,-2.933333198766128
1589996648.3087077,1.1475549266988956,-0.33588256101874775,6.501878316236294,0.4044444444444445,0.4222222222222222,-0.6044444444444445,0.04706118300423682,0.9787055712828197,-2.6785900574470536
1589996648.3187077,-0.8475922769708222,-0.036789957009488436,9.600704891760575,0.4044444444444445,0.4222222222222222,-0.6044444444444445,-0.1497330700848397,1.5577992324431986,-2.2729982962621853
1589996648.3287077,1.532305451104415,-2.5087897502303456,12.35333565754414,0.4044444444444445,0.4222222222222222,-0.6044444444444445,-0.11211750398414597,-0.2905457954968187,-1.894217507994969
1589996648.3387077,1.6310260723296888,-2.4767262405382677,10.573433557611438,0.4044444444444445,0.4222222222222222,-0.6044444444444445,0.14304929192531107,-0.20523788511220586,-1.6211919749978512
1589996648.3487077,0.30259661016949146,-1.5577664783427494,6.489023728813559,0.38254848294622307,0.46601414521866497,-0.6203687800795146,-0.04444295231912154,0.44243135127875066,-1.3011779625529851
1589996648.3587077,0.6717698883109553,-3.4644667553727673,13.41234405870731,0.38,0.4711111111111111,-0.6222222222222222,-0.1823812681693892,0.2002553712821124,-1.1806428907803763
1589996648.3687077,0.305816225604902,-2.1653214483873304,7.425456782380044,0.38,0.4711111111111111,-0.6222222222222222,0.06921866427710122,0.06298356362657473,-1.0407409055587882
1589996648.3787076,0.34293507746096813,-2.7411792955171093,8.840150903208954,0.38,0.4711111111111111,-0.6222222222222222,0.04132689584472046,0.07800828648109273,-0.8938131360132144
1589996648.3887076,0.3180840090257631,-2.5825078727466586,8.05388256589551,0.38,0.4711111111111111,-0.6222222222222222,-0.012442135620918502,0.06634208913338255,-0.7525058921070544
1589996648.3987076,0.3835716747610841,-3.4644759517468273,11.0670380698731,0.35575184082719724,0.49984967013072923,-0.6033625428655979,0.06331750604339205,0.03964307722778551,-0.5801946585796766
1589996648.4087076,0.25861986118526425,-2.5747063534436734,8.01825413774693,0.35,0.5066666666666667,-0.5988888888888889,0.04246698002278981,0.02774717083314397,-0.47111310014790875
1589996648.4187076,0.20559808239466812,-2.667368359512024,7.790059632848735,0.35,0.5066666666666667,-0.5988888888888889,-0.01211265609544735,0.026790594839820492,-0.3151117918761501
1589996648.4287076,0.19480606560759234,-2.6124788528987004,7.532242624303693,0.35,0.5066666666666667,-0.5988888888888889,-0.017410982598938685,0.012176648980824763,-0.18478696710943
1589996648.4387076,0.21129329987597706,-2.9506927980156323,8.852424793054714,0.35,0.5066666666666667,-0.5988888888888889,-0.014251338738239657,-0.005067450294251946,-0.04214940443117551
1589996648.4487076,0.23316596807277268,-3.530720592169803,10.688930705431195,0.3350364160646868,0.5185128372821229,-0.6119820248322879,-0.007793024301564576,-0.014102195760409237,0.13284301287854103
1589996648.4587076,0.19001145166722802,-3.1176460087571574,8.690664196699224,0.3233333333333333,0.5277777777777778,-0.6222222222222222,0.007087277128446156,-0.022360157266508862,0.355009831054098
1589996648.4687076,0.21169218760761266,-2.9662308592942903,8.046615624784774,0.3233333333333333,0.5277777777777778,-0.6222222222222222,-0.010925011241753857,-0.043876495153968076,0.5652259440715849
1589996648.4787076,0.26238720068721144,-3.4403882744550627,9.40758402233437,0.3233333333333333,0.5277777777777778,-0.6222222222222222,-0.02175680912168444,-0.0552523536514692,0.7663406831580897
1589996648.4887075,0.21626670874377296,-3.5380267339900366,9.584853594211392,0.3233333333333333,0.5277777777777778,-0.6222222222222222,-0.025388721934364124,-0.07102325630701205,0.9727388037084473
1589996648.4987075,0.1494071707490238,-3.2658501952431664,8.656364927227546,0.32843213820849604,0.5549714037786455,-0.6545146530982526,-0.03869428873139851,-0.09021987629446283,1.212001094491304
1589996648.5087075,0.11538879235447437,-3.3804821894005213,8.83377932232841,0.33,0.5633333333333334,-0.6644444444444444,-0.03359351288597796,-0.10365522368921742,1.410446808010013
1589996648.5187075,-0.8200129757785467,-8.312676959530615,8.434775838724237,0.33,0.5633333333333334,-0.6644444444444444,-0.03772521415842429,-0.10833104995706397,1.4736247325729466
1589996648.5287075,-4.629714532871972,-28.35501993380472,6.447105461110276,0.33,0.5633333333333334,-0.6644444444444444,-0.0626768605740482,-0.11865586916352902,1.5983829646510659
1589996648.5387075,0.831500364396844,-3.327336734370544,8.044443423429133,0.33,0.5633333333333334,-0.6644444444444444,-0.47832578979666196,-0.5052175216721739,4.899631178176387
1589996648.5487075,8.42726364181491,-14.433258045172897,6.535114931041376,0.35455260177227,0.5359257778666133,-0.6644444444444444,0.0345446463832918,-0.44039147683582736,5.701768357437604
1589996648.5587075,8.846957537586347,-14.992433969930921,5.4244443315725315,0.37777777777777777,0.51,-0.6644444444444444,0.08545978796767442,-0.30156163253613194,2.732706192705059
1589996648.5687075,-1.9195906221821462,0.5052209197475203,11.131341749323715,0.37777777777777777,0.51,-0.6644444444444444,0.07017443277571123,0.08088774845070101,-0.7136460883235749
1589996648.5787075,-1.9685848954382923,0.6497504243868965,7.723789504099398,0.37777777777777777,0.51,-0.6644444444444444,0.5040201222027905,0.41576061630214495,-0.8666078301354259
1589996648.5887074,-1.5822242854098811,-0.5416118230799672,6.587563240084015,0.37777777777777777,0.51,-0.6644444444444444,0.2010253932577521,0.050762265875611695,-0.7909502732567317
1589996648.5987074,-1.437105329628694,-2.377175773904746,10.120676096657405,0.420169702412693,0.48951056975979096,-0.6602052519809529,-0.2915482606336884,-0.0026835582237520472,-0.6978934269356407
1589996648.6087074,-0.8579574910594263,-2.4793900119207652,8.496497324168717,0.4444444444444444,0.4777777777777778,-0.6577777777777778,0.020237764876754827,0.07635815477475191,-0.4666608782064218
1589996648.6187074,-0.7653173749327595,-2.49,8.234146718665949,0.4444444444444444,0.4777777777777778,-0.6577777777777778,0.04455587522219705,0.0294011609070597,-0.30533007865831846
1589996648.6287074,-1.1311985559566788,-3.4484187725631767,8.658064981949458,0.4444444444444444,0.4777777777777778,-0.6577777777777778,-0.067735472170585,-0.0339464964305991,-0.17134076840415635
1589996648.6387074,-0.31488361843823454,-14.312376273178375,7.797033820840951,0.4444444444444444,0.4777777777777778,-0.6577777777777778,-0.056235795332019,-0.014927701609907598,0.015183066833898251
1589996648.6487074,1.240391168464563,-17.09230164331082,8.229287226534932,0.42743466523283036,0.47683279004379925,-0.6695901244525098,-0.10856026248797726,-0.0699173153314139,0.4394132308705089
1589996648.6587074,-0.039641362821278836,-3.0422773460848775,10.646407650926479,0.4044444444444445,0.4755555555555556,-0.6855555555555556,0.0549320995783287,-0.01917136730289498,0.4733683979402224
1589996648.6687074,-0.9331942278796813,-1.4008873642729567,8.481488674056644,0.4044444444444445,0.4755555555555556,-0.6855555555555556,0.30809940703502153,0.17194682156902202,0.17158227323845568
1589996648.6787074,-0.03194138673863128,-4.818436900788296,8.66784035224771,0.4044444444444445,0.4755555555555556,-0.6855555555555556,-0.03350988368430885,-0.04287184726884935,0.054816344919565774
1589996648.6887074,-0.04494581527175728,-5.2401733911303765,9.445874874958319,0.4044444444444445,0.4755555555555556,-0.6855555555555556,-0.2297953801665058,-0.14863101368839787,-0.2522667125248356
1589996648.6987073,0.305396601100309,-4.203381942874369,9.122636408169418,0.4076596871572002,0.47647419633062865,-0.6768284681923614,-0.10320289691817222,-0.04616650061650819,-0.3868022941559264
1589996648.7087073,0.6720797720797721,-3.6514645025756134,8.725352672019339,0.4122222222222222,0.4777777777777778,-0.6644444444444444,0.07299494036442866,0.05263408420995238,-0.17202588848521053
1589996648.7187073,-0.16554105589321894,-4.665993326182815,8.56,0.4122222222222222,0.4777777777777778,-0.6644444444444444,0.003253122333594486,-0.007903680669625584,0.06070243854428184
1589996648.7287073,-0.09855383402714485,-4.54508682907604,8.605487843929355,0.4122222222222222,0.4777777777777778,-0.6644444444444444,0.0025598531373661818,-0.004363323129985824,-0.011510727366890575
1589996648.7387073,-0.03601037129226302,-4.490777224642191,8.67025907488073,0.4122222222222222,0.4777777777777778,-0.6644444444444444,0.00040694029502590275,-0.00310858489699353,-0.0015260317630095607
1589996648.7487073,-0.0816138110185085,-4.562579283472237,8.64773785041671,0.4077057401594689,0.4777777777777778,-0.6560566920421883,-0.006544984694978735,-0.0015482264369386326,0.0009147913088843533
1589996648.7587073,-0.06627752612459076,-4.567791855406557,8.580346907655738,0.4044444444444445,0.4777777777777778,-0.65,-0.010426565406018395,-0.001737760901003066,0.0
1589996648.7687073,-0.06143214028344944,-4.557135719433101,8.531419649291376,0.4044444444444445,0.4777777777777778,-0.65,-0.0012429653855032877,-0.0003110819853422513,-0.0006235265265502202
1589996648.7787073,-0.06394641691357406,-4.485517752222167,8.606857329382816,0.4044444444444445,0.4777777777777778,-0.65,0.009616845909997191,0.0004304873049891226,0.00022985617251821073
1589996648.7887073,-0.06,-4.508341582781825,8.684585395695455,0.4044444444444445,0.4777777777777778,-0.65,0.012499327684914064,0.0005303399533165018,0.0016211707358129578
1589996648.7987072,-0.06493564167505117,-4.5305148665995905,8.66051486659959,0.4110253000111794,0.4777777777777778,-0.6686457574390823,0.008796850301935735,-0.0010627491657108207,0.0016432665779410928
1589996648.8087072,-0.07,-4.5640266122482975,8.585833871270017,0.4177777777777778,0.4777777777777778,-0.6877777777777778,-0.000454454146250892,-0.0020301768495759476,-0.00015148471541696408
1589996648.8187072,-0.07,-4.563335997868371,8.531667998934186,0.4177777777777778,0.4777777777777778,-0.6877777777777778,-0.002036275591796875,-0.00047272240465020946,-0.001090830782496456
1589996648.8287072,-0.07520713778769138,-4.546035688938457,8.577692791239988,0.4177777777777778,0.4777777777777778,-0.6877777777777778,0.0023172329300120897,-0.0011360212375028488,4.519045500639288e-05
1589996648.8387072,-0.08,-4.529329527025526,8.652201141892343,0.4177777777777778,0.4777777777777778,-0.6877777777777778,0.004566861835297351,-0.002181661564992912,0.0006471847439039911
1589996648.8487072,-0.07361854504334715,-4.508288729739917,8.673190727478326,0.4177777777777778,0.4756506261255602,-0.6757239184152113,0.0011841660963399143,-0.0032258246905676386,0.0
1589996648.8587072,-0.06,-4.592311087137743,8.663822390035797,0.4177777777777778,0.4711111111111111,-0.65,-0.0047850953420186075,-0.0046978524152176595,0.0002521004990882066
1589996648.8687072,-0.06,-4.592377739898686,8.58713321969606,0.4177777777777778,0.4711111111111111,-0.65,-0.007877404653969798,-0.002181661564992912,0.001090830782496456
1589996648.8787072,-0.06676202618240618,-4.553094934543985,8.560572157094438,0.4177777777777778,0.4711111111111111,-0.65,-0.0007064163026297829,-0.0018128502494021296,-0.0003844144798666731
1589996648.8887072,-0.07208195181785078,-4.5041639036357015,8.655836096364299,0.4177777777777778,0.4711111111111111,-0.65,0.007364011981619999,-0.001090830782496456,-0.0006813171391758244
1589996648.8987072,-0.06326483946750196,-4.509383555207518,8.68,0.4134246584877752,0.47546423040111374,-0.6547158792308362,0.013490937259420148,-0.0007346920433904086,0.0018479373910651787
1589996648.9087071,-0.07427689668159183,-4.540061723228857,8.688553793363184,0.4044444444444445,0.4844444444444445,-0.6644444444444444,0.005618643544014522,0.0,-0.00015775667172899328
1589996648.9187071,-0.0771275003937628,-4.525852496456134,8.642550007875256,0.4044444444444445,0.4844444444444445,-0.6644444444444444,-0.0018800465959154936,-0.00031334109931924897,0.001404171881815705
1589996648.9287071,-0.07191526271893245,-4.580423686405338,8.51532210175146,0.4044444444444445,0.4844444444444445,-0.6644444444444444,-0.005500370929789051,-0.0006729852764205825,0.0019727388119549754
1589996648.938707,-0.07626951191253607,-4.547460976174928,8.59865244043732,0.4044444444444445,0.4844444444444445,-0.6644444444444444,0.00012996858936613863,-0.0005369017133203364,0.0002769645345880598
1589996648.948707,-0.07,-4.536374333279457,8.657563277840634,0.4044444444444445,0.4875070308711816,-0.6618193703643841,0.001322608081133896,-0.002413438863630352,-0.0019498842663554722
1589996648.958707,-0.06604789092458457,-4.5316168726033235,8.668383127396677,0.4044444444444445,0.4922222222222222,-0.6577777777777778,-0.00043110822352467515,-0.001521939006021131,-0.0019791676769153423
1589996648.968707,-0.06684536009611987,-4.575436426602587,8.597182133012932,0.4044444444444445,0.4922222222222222,-0.6577777777777778,-0.001837543733508501,-0.0029283745160049567,0.0
1589996648.978707,-0.07592559746079164,-4.55530853248693,8.524691467513069,0.4044444444444445,0.4922222222222222,-0.6577777777777778,-0.003339803694318173,-0.002895355323313152,0.0
1589996648.988707,-0.06374247002631836,-4.542515059947363,8.578652110342139,0.4044444444444445,0.4922222222222222,-0.6577777777777778,0.0014924997915576324,-0.0004082401507278383,0.0008164803014556766
1589996648.998707,-0.06799987810328716,-4.525999756206574,8.676000975173704,0.4071112736400616,0.4922222222222222,-0.6562221274136678,0.008508533290947022,-0.001090830782496456,0.0015271232048890391
1589996649.008707,-0.06069471518301928,-4.512084145549058,8.736526424084904,0.4177777777777778,0.4922222222222222,-0.65,0.011544448583437963,-0.0009392674411554387,-0.0010150491118259474
1589996649.018707,-0.07188317501367683,-4.549415875068384,8.663635549808523,0.4177777777777778,0.4922222222222222,-0.65,0.004016196220859471,0.0012962533098711429,0.00020542252737468694
1589996649.028707,-0.08,-4.5869604287161385,8.553039571283861,0.4177777777777778,0.4922222222222222,-0.65,-0.0028447931493984953,0.0015185299805873286,0.001090830782496456
1589996649.038707,-0.07190414558575518,-4.551664509550143,8.580239636035612,0.4177777777777778,0.4922222222222222,-0.65,-0.00215552132856881,-0.0008831207205668057,0.0015323911427798588
1589996649.048707,-0.06353826429378186,-4.531229585762691,8.624153057175127,0.42013662064029905,0.48947023888261415,-0.6602216524042587,0.002634689825802591,-0.0014097320433398442,0.002181661564992912
1589996649.058707,-0.07,-4.552470203565025,8.65,0.4244444444444445,0.4844444444444445,-0.6788888888888889,0.0044980518343739,-0.0004780510390541899,0.001703610525938722
1589996649.068707,-0.07,-4.55394259548805,8.6021148090239,0.4244444444444445,0.4844444444444445,-0.6788888888888889,0.0006607603303667945,-0.0014639353563711092,0.0014639353563711092
1589996649.078707,-0.06632494481236204,-4.58162472406181,8.524700220750551,0.4244444444444445,0.4844444444444445,-0.6788888888888889,-0.0035615504647760667,-0.0025825478975977905,0.0013798888997831548
1589996649.088707,-0.06721061815874359,-4.553605309079371,8.578842472634975,0.4244444444444445,0.4844444444444445,-0.6788888888888889,-0.0006085487153158274,-0.0020926577102315545,0.00039327821241927114
1589996649.098707,-0.07791511760591895,-4.551660470423675,8.648763941546731,0.4244444444444445,0.4844444444444445,-0.6802788104849429,0.003546213901002024,0.0,0.001090830782496456
1589996649.108707,-0.0733480205074446,-4.516651979492555,8.709955938477666,0.4244444444444445,0.4844444444444445,-0.6855555555555556,0.008726646259971648,0.000365212382994997,0.000725618399501459
1589996649.118707,-0.08048703791729131,-4.512435189586457,8.684642582909795,0.4244444444444445,0.4844444444444445,-0.6855555555555556,0.008461008283759487,0.0010377031872540238,0.0
1589996649.128707,-0.08174026916992973,-4.572389596245105,8.57174026916993,0.4244444444444445,0.4844444444444445,-0.6855555555555556,0.00011900332188788734,0.00045049843222878295,-0.00045049843222878295
1589996649.138707,-0.07,-4.575565337669863,8.581651993495205,0.4244444444444445,0.4844444444444445,-0.6855555555555556,-0.0047569674801022106,-0.001271035318201865,-0.001090830782496456
1589996649.148707,-0.07171191270349672,-4.55,8.62513573811049,0.42330316930878004,0.48330316930878003,-0.684414280419891,-0.004520450375521804,-0.005267413205090185,-0.0005306086603201708
1589996649.158707,-0.0785285505124451,-4.55,8.65294289897511,0.4177777777777778,0.4777777777777778,-0.6788888888888889,0.00048153071877405783,-0.0038817924112117663,0.001700130846218854
1589996649.168707,-0.06407704596616078,-4.552961477016919,8.628539321763125,0.4177777777777778,0.4777777777777778,-0.6788888888888889,0.0035955393766605374,-0.001090830782496456,-0.001090830782496456
1589996649.178707,-0.05120530455599043,-4.56120530455599,8.53361591366797,0.4177777777777778,0.4777777777777778,-0.6788888888888889,0.0035744531428112767,-0.0013537874448879717,-0.0009593524513006981
1589996649.1887069,-0.06,-4.562980058256778,8.574039883486444,0.4177777777777778,0.4777777777777778,-0.6788888888888889,-0.0006501478560252236,-0.002506735493005524,-0.0003828784272419221
1589996649.1987069,-0.06,-4.552129898618604,8.61490929033023,0.414937912952972,0.4777777777777778,-0.6772323010744188,0.0028786692580240114,-0.0006261589871423897,-0.0013231666801734891
1589996649.2087069,-0.06563222596224205,-4.540287209132153,8.67,0.4044444444444445,0.4777777777777778,-0.6711111111111111,0.006068534457841216,-0.00013793030822141636,-0.002181661564992912
