time,acc_x,acc_y,acc_z,mag_x,mag_y,mag_z,gyr_x,gyr_y,gyr_z
1589550528.1978545,0.07,-4.08,8.84,0.46,0.2977777777777777,-0.6233333333333333,-0.001090830782496456,0.01090830782496456,-0.02836160034490785
1589550528.2078545,0.16004488274896544,-4.1440089765497925,8.958130159972,0.4533333333333333,0.3111111111111111,-0.6166666666666667,-0.011999138607461015,-0.017453292519943295,-0.025089107997418484
1589550528.2178545,0.2292746683921061,-4.15396700097056,9.159164671627305,0.4533333333333333,0.3111111111111111,-0.6166666666666667,-0.01097543044380339,-0.015552120216007706,-0.024723497938969333
1589550528.2278545,0.08453445486897446,-4.072550630863798,8.743036557748303,0.4533333333333333,0.3111111111111111,-0.6166666666666667,0.0028396890891090217,0.010104530345115343,-0.019789526677214904
1589550528.2378545,0.14884256306175703,-4.126527689185271,8.917685126123514,0.4533333333333333,0.3111111111111111,-0.6166666666666667,-0.001802891212682748,-0.003479525641262108,-0.01963495408493621
1589550528.2478545,0.1407352855900261,-4.102205856770078,8.901470571180052,0.4533333333333333,0.3111111111111111,-0.6166666666666667,0.000850209135838496,0.002711041838620795,-0.01963495408493621
1589550528.2578545,0.14454822335025383,-4.12,8.89,0.46,0.3033333333333333,-0.6233333333333333,0.001256208850367323,0.0026109800760058996,-0.02257669029668384
1589550528.2678545,0.16482523567802757,-4.12,8.89,0.46,0.3033333333333333,-0.6233333333333333,0.0019935018245071804,-0.0003381918205535299,-0.021102104348404125
1589550528.2778544,0.14740590676104467,-4.108702953380522,8.82,0.46,0.3033333333333333,-0.6233333333333333,0.006262013019206894,0.004787780643643586,-0.02181661564992912
1589550528.2878544,0.13754123268227345,-4.1,8.837596209591972,0.46,0.3033333333333333,-0.6233333333333333,0.0036778057343364746,0.0070874015609557126,-0.02195371912905899
1589550528.2978544,0.18785170228504028,-4.1,8.95498730533176,0.46,0.3033333333333333,-0.6233333333333333,-0.0008955450093760513,0.003428720965985692,-0.022868389277801496
1589550528.3078544,0.16419316136772646,-4.108602279544091,8.977204559088182,0.46477904419116184,0.29281943611277744,-0.6233333333333333,-0.001090830782496456,0.004210855480122792,-0.02666089896295927
1589550528.3178544,0.13616923718215923,-4.107694872863694,8.919253855773238,0.4655555555555556,0.2911111111111111,-0.6233333333333333,-0.0052027035486971445,0.006042083967408464,-0.026767868834841127
1589550528.3278544,0.03092474395131364,-4.0918494879026275,8.753526792340804,0.4655555555555556,0.2911111111111111,-0.6233333333333333,-0.004180357598707659,0.0001641832289522643,-0.022604824682019478
1589550528.3378544,0.06200050200803213,-4.11616014056225,8.740161144578313,0.4655555555555556,0.2911111111111111,-0.6233333333333333,-0.012513997594259793,-0.019346968187087372,-0.01886699169067264
1589550528.3478544,0.23746485943775097,-4.16529016064257,9.140219879518073,0.4655555555555556,0.2911111111111111,-0.6233333333333333,-0.00792035145869264,-0.01705014511930379,-0.0127421301765831
1589550528.3578544,0.12147953935824778,-4.110211362765464,8.781479539358248,0.4388888888888889,0.3111111111111111,-0.6044444444444445,0.006452760290642064,0.025534367949558247,-0.00870359015888748
1589550528.3678544,0.18069358449468567,-4.118670512070669,8.840693584494685,0.4388888888888889,0.3111111111111111,-0.6044444444444445,0.0027617601083014362,-0.0003026333268261565,-0.007780840113302323
1589550528.3778543,0.18352794147996973,-4.11,8.8,0.4388888888888889,0.3111111111111111,-0.6044444444444445,0.00047066137731783153,-0.004748161846505532,-0.012352134640449389
1589550528.3878543,0.12780570603105815,-4.107805706031058,8.796489129649693,0.4388888888888889,0.3111111111111111,-0.6044444444444445,0.003836730380408842,0.00042062182848938835,-0.015271630954950384
1589550528.3978543,0.09751101480678946,-4.077511014806789,8.748017623690863,0.4388888888888889,0.3111111111111111,-0.6044444444444445,-0.003433473600995814,-0.008832365056934719,-0.015271630954950384
1589550528.4078543,0.15867970660146702,-4.0141035044824775,8.870802770986145,0.44835959431313954,0.30601150049805304,-0.6219288236892149,-0.0011988470335749565,-0.0005916445686645396,-0.018847724534894958
1589550528.4178543,0.1374139748873766,-3.971224192466213,8.818569347263491,0.4533333333333333,0.3033333333333333,-0.6311111111111111,0.0008162463100539951,0.0038141541851009026,-0.02687015351465779
1589550528.4278543,0.21274576533374584,-3.986018253538557,8.97416428184701,0.4533333333333333,0.3033333333333333,-0.6311111111111111,-0.012298655142217176,-0.013901195159444935,-0.03527351388767659
1589550528.4378543,0.16137373701373914,-3.99,8.927648484416487,0.4533333333333333,0.3033333333333333,-0.6311111111111111,-0.011935010967860612,-0.00887649772213579,-0.04048899423156967
1589550528.4478543,0.1550853805188112,-4.040170761037622,8.965256141556434,0.4533333333333333,0.3033333333333333,-0.6311111111111111,-0.013644698351020175,-0.014575455666001002,-0.0452787910434174
1589550528.4578543,0.13620089199974392,-4.113464288000682,8.908602675999232,0.4471631942221558,0.3033333333333333,-0.61965228133321,-0.018507600106226763,-0.014631741763937703,-0.04668025285160572
1589550528.4678543,0.15222799953985966,-4.181459335097205,8.859628666743356,0.4455555555555555,0.3033333333333333,-0.6166666666666667,-0.019959003482465123,-0.018141897489692235,-0.04238037581859732
1589550528.4778543,0.21002250819591917,-3.9602250819591918,8.850135049175515,0.4455555555555555,0.3033333333333333,-0.6166666666666667,-0.02833950297523747,-0.03597286318941595,-0.03820117475704634
1589550528.4878542,0.2195392765729479,-4.061382170281156,8.907926744578265,0.4455555555555555,0.3033333333333333,-0.6166666666666667,-0.018192323394927747,-0.024586536700972765,-0.04814732581877777
1589550528.4978542,0.2028948987083077,-4.1113153038750765,8.833027044187386,0.4455555555555555,0.3033333333333333,-0.6166666666666667,-0.0054829835837512594,-0.006430336970720641,-0.05359418573785342
1589550528.5078542,0.17920788389474337,-4.186039419473717,8.880792116105257,0.46,0.3033333333333333,-0.6311111111111111,0.0007452049301264064,0.0028836632635730625,-0.06230696429693675
1589550528.5178542,0.16184054160369352,-4.099202708018468,8.898159458396307,0.46,0.3033333333333333,-0.6311111111111111,-0.0068327277023654855,-0.005641510947980314,-0.06514868903412122
1589550528.5278542,0.2,-3.989909978601471,8.880030007132843,0.46,0.3033333333333333,-0.6311111111111111,-0.009824023583308038,-0.014164433820354094,-0.07419613283227881
1589550528.5378542,0.19907324217143046,-3.959304931628573,8.89185351565714,0.46,0.3033333333333333,-0.6311111111111111,-0.011999138607461015,-0.008827739856703971,-0.08115112569085012
1589550528.5478542,0.1714659952938079,-3.938599496470356,8.947068009412385,0.46,0.3033333333333333,-0.6311111111111111,-0.011999138607461015,-0.011839223328112956,-0.09394993044433829
1589550528.5578542,0.2092884994171323,-3.9398576998834263,8.979857699883427,0.465476499935237,0.3033333333333333,-0.6311111111111111,-0.007697905616479693,-0.008788736398976149,-0.11862114966659341
1589550528.5678542,0.2032872245984989,-3.9802766524090063,8.953148898393996,0.4655555555555556,0.3033333333333333,-0.6311111111111111,-0.006903565273080952,-0.0028686446248177315,-0.13354555937999849
1589550528.5778542,0.23356198475657178,-4.058733473324001,8.780580572406285,0.4655555555555556,0.3033333333333333,-0.6311111111111111,-0.007460245847332369,0.0,-0.15536134937970095
1589550528.5878541,0.24642914236152447,-4.031425145830853,8.775716569446097,0.4655555555555556,0.3033333333333333,-0.6311111111111111,-0.010441058034676329,-0.0035065531965014214,-0.15746915282268584
1589550528.5978541,0.1833715049145911,-3.956697203931673,8.71670865540605,0.4655555555555556,0.3033333333333333,-0.6311111111111111,-0.01708676754760147,-0.011995391121234288,-0.15417241614226657
1589550528.6078541,-0.11732963600433485,-3.6426206412953404,8.740149168100976,0.4521890737553388,0.3085314095889732,-0.6311111111111111,-0.049525122177714084,-0.043703742067592755,-0.11845197051631944
1589550528.617854,-0.2987919662046987,-2.7876372934113984,9.394537167420143,0.4455555555555555,0.3111111111111111,-0.6311111111111111,-0.10693803910698065,-0.10465095670597085,0.1029320473383403
1589550528.627854,-0.19920244115082825,-2.805999128160418,9.165205928509154,0.4455555555555555,0.3111111111111111,-0.6311111111111111,-0.057727982327412206,-0.061043974762078,0.27213648831410264
1589550528.637854,-0.08764700049578582,-2.8,8.693697570649478,0.4455555555555555,0.3111111111111111,-0.6311111111111111,0.003519970863141514,-0.007938349309764987,0.5086113988125504
1589550528.647854,-0.029421715418939016,-2.8,8.78519444719881,0.4455555555555555,0.3111111111111111,-0.6311111111111111,-0.01734889292933689,-0.0424173416625554,0.596623563502568
1589550528.657854,0.0004676222631057558,-2.757661888684471,9.01766188868447,0.4388888888888889,0.3244444444444444,-0.6444444444444445,-0.032469875095305474,-0.06534782759795207,0.7040880783806303
1589550528.667854,0.008947293936882114,-2.7152635303155894,8.97526353031559,0.4388888888888889,0.3244444444444444,-0.6444444444444445,-0.02784493165169622,-0.06349785022050838,0.7725372413460472
1589550528.677854,-0.03927874124267831,-2.761262202825313,8.887836223728035,0.4388888888888889,0.3244444444444444,-0.6444444444444445,-0.005159114691995413,-0.05115103108913868,0.8598410062389503
1589550528.687854,-0.007164350522568051,-2.8174623865855057,8.791493051567704,0.4388888888888889,0.3244444444444444,-0.6444444444444445,0.007977647542485134,-0.04589632619534646,0.920270112517561
1589550528.697854,0.007405404176987932,-2.9040540417698795,8.910702679362771,0.4388888888888889,0.3244444444444444,-0.6444444444444445,0.005253677841804171,-0.0511864963488237,0.9757569725490148
1589550528.707854,0.0249747363257297,-3.0198484179543783,9.027386313465785,0.45885520398986185,0.31446128689395797,-0.6286377783228408,0.007356218183457827,-0.05181721800793895,1.0190604313585612
1589550528.717854,0.028891536816376413,-3.0266507791017414,8.991686526122823,0.4655555555555556,0.3111111111111111,-0.6233333333333333,0.015939260720760618,-0.03745099033346769,1.0465903787188855
1589550528.727854,0.01180507179957226,-3.1291695692025665,8.863538038496792,0.4655555555555556,0.3111111111111111,-0.6233333333333333,0.009415806019228042,-0.04304252293478133,1.0540457555206368
1589550528.737854,-0.008526274199920981,-3.102947451600158,8.924105096799684,0.4655555555555556,0.3111111111111111,-0.6233333333333333,0.0036743887144107213,-0.04969594035453134,1.0598856242196337
1589550528.747854,-0.09333800050561034,-3.130304727456586,8.922423818135853,0.4655555555555556,0.3111111111111111,-0.6233333333333333,0.007404658543090503,-0.04687248303835607,1.0735104524124788
1589550528.757854,-0.12,-3.0237986159775754,8.965189427119832,0.4698593105193491,0.29030962878610916,-0.6326581357548859,0.00943084651919583,-0.04933589416097206,1.0932332188094305
1589550528.767854,-0.11117544280379595,-2.977649114392408,8.92822809962657,0.4722222222222222,0.2788888888888889,-0.6377777777777778,0.005967037589860106,-0.05415687636678943,1.1238791171739166
1589550528.777854,-0.03535148173673329,-2.938528600964852,8.795585802894555,0.4722222222222222,0.2788888888888889,-0.6377777777777778,0.0018350916196236034,-0.06268442928375481,1.1394949163438444
1589550528.787854,-0.05260235249023788,-2.897397647509762,8.835204704980475,0.4722222222222222,0.2788888888888889,-0.6377777777777778,-0.0042437166692262645,-0.07413901982878256,1.142988920515743
1589550528.797854,-0.1661397704951928,-3.0173677245942314,8.913683862297114,0.4722222222222222,0.2788888888888889,-0.6377777777777778,-0.00931350487592446,-0.07018319323324443,1.140103179285532
1589550528.807854,-0.22822239701111002,-3.152000786549995,8.958222397011111,0.4722222222222222,0.2657282688253094,-0.6317036454407411,0.003999855867978106,-0.05172946724230809,1.146778357562536
1589550528.817854,-0.24772791974513658,-3.168863959872568,8.906816240764591,0.4722222222222222,0.2644444444444444,-0.6311111111111111,0.018023958281436395,-0.041476043739407206,1.1523885233281772
1589550528.827854,-0.26755349500713266,-3.222660485021398,8.908776747503566,0.4722222222222222,0.2644444444444444,-0.6311111111111111,0.00910361310313822,-0.04993468529945795,1.1491785585599184
1589550528.837854,-0.3045852365645971,-3.2853363785033554,8.930751141938758,0.4722222222222222,0.2644444444444444,-0.6311111111111111,0.008390348290766882,-0.045232784270999915,1.1418540186491428
1589550528.847854,-0.3075553606665205,-3.235332163999123,8.93377768033326,0.4722222222222222,0.2644444444444444,-0.6311111111111111,0.014156644524781895,-0.03371865333704513,1.1415423360587051
1589550528.857854,-0.3228652155110278,-3.182378261496324,8.869026091970593,0.4874656992295741,0.24411980843464193,-0.6412734291160124,0.014127681729564018,-0.03418141922807158,1.1398650492659066
1589550528.8678539,-0.42837664233576644,-3.1963961070559614,8.915584428223845,0.4922222222222222,0.23777777777777775,-0.6444444444444445,0.005935818074057601,-0.05567133194110769,1.1289903788669378
1589550528.8778539,-0.5050365378924124,-3.247174175336353,8.945724725112116,0.4922222222222222,0.23777777777777775,-0.6444444444444445,0.004363323129985824,-0.0659992480068127,1.129401150448628
1589550528.8878539,-0.5047651807651807,-3.2447651807651807,8.919530361530361,0.4922222222222222,0.23777777777777775,-0.6444444444444445,0.012672628023540786,-0.060153134110580805,1.1450574394747273
1589550528.8978539,-0.5662529464527837,-3.2466252946452783,8.837121758901938,0.4922222222222222,0.23777777777777775,-0.6444444444444445,0.005153725475900359,-0.05853673900653003,1.1620216728329682
1589550528.9078538,-0.6,-3.161069990412272,8.864227229146692,0.5010054330457016,0.23173932033663577,-0.6515808032385214,0.004850379597299918,-0.059982724387541944,1.1866034243101709
1589550528.9178538,-0.6114082493125573,-3.0928164986251145,8.935704124656278,0.51,0.2255555555555556,-0.6588888888888889,0.011061923994921256,-0.05486428905753577,1.2308791771838734
1589550528.9278538,-0.6356624924432162,-3.1465458157008377,8.89301252267035,0.51,0.2255555555555556,-0.6588888888888889,0.008012608533669408,-0.054734250364884524,1.2728722485911763
1589550528.9378538,-0.7363455576559547,-3.277138752362949,8.893172778827976,0.51,0.2255555555555556,-0.6588888888888889,0.01025009764391944,-0.05713882990062854,1.3096195992284176
1589550528.9478538,-0.8431681576517781,-3.4168596988316193,8.925261691764032,0.51,0.2255555555555556,-0.6588888888888889,0.016822238699175592,-0.05098054667464363,1.338683816610453
1589550528.9578538,-0.912961246059707,-3.50472093454478,8.95708140181717,0.5177825164307641,0.21502626861981583,-0.662093454478027,0.015398048392195012,-0.0503092855937722,1.3716330371943184
1589550528.9678538,-0.9135580643241206,-3.4471161286482412,8.99838951608103,0.5288888888888889,0.2,-0.6666666666666666,0.016607590791286146,-0.0503906640605695,1.423844662187928
1589550528.9778538,-0.8422170959421659,-3.145745994841428,8.959773676753732,0.5288888888888889,0.2,-0.6666666666666666,0.01990148977146475,-0.06394938497614527,1.4733768200707131
1589550528.9878538,-0.9390039618670298,-3.208071685031571,9.000868515537947,0.5288888888888889,0.2,-0.6666666666666666,0.006951767202949434,-0.0840817553220083,1.5038419112760366
1589550528.9978538,-0.9861140227534194,-3.217201840726064,9.050570113767098,0.5288888888888889,0.2,-0.6666666666666666,0.004182470832286999,-0.0767763321385135,1.5399027942822054
1589550529.0078537,-0.9298977291936665,-3.156609849552037,8.923083338028963,0.5288888888888889,0.1821919197610864,-0.6614726432636502,0.020751815567629155,-0.05196775748449681,1.591215521030499
1589550529.0178537,-0.9070994325539781,-3.054806809352264,8.771906241906242,0.5288888888888889,0.17333333333333334,-0.6588888888888889,0.019068464863143883,-0.0575729345225042,1.6225987045792358
1589550529.0278537,-0.9421706268189913,-3.0714730029103863,8.881550758003563,0.5288888888888889,0.17333333333333334,-0.6588888888888889,-0.0036784324592849943,-0.09555347860904731,1.6293122124677362
1589550529.0378537,-0.9877611615639784,-3.044477676872043,9.05022377508293,0.5288888888888889,0.17333333333333334,-0.6588888888888889,-0.005853049534696505,-0.10511865074187399,1.6380289396874625
1589550529.0478537,-1.1014940180916253,-3.067761890866647,8.940744091041728,0.5288888888888889,0.17333333333333334,-0.6588888888888889,0.00954087011221149,-0.08060720645714035,1.6573303698934385
1589550529.0578537,-1.218386582076511,-3.140322151730426,8.952902024845192,0.5405375104999008,0.13032303815421242,-0.6705375104999008,0.010415749428096692,-0.0797360710294962,1.6872335099396594
1589550529.0678537,-1.2723920296357654,-3.2008704355629183,9.09021927705299,0.5433333333333333,0.12,-0.6733333333333333,-0.005146112997786832,-0.09770074934467302,1.7131501078472327
1589550529.0778537,-1.2854002535925613,-3.1910991124260355,9.088398985629754,0.5433333333333333,0.12,-0.6733333333333333,-0.0011559763402169765,-0.09476020728022366,1.7260983340701035
1589550529.0878537,-1.2866353621094455,-3.089214376015893,8.997924869062668,0.5433333333333333,0.12,-0.6733333333333333,0.020152886923510017,-0.0752570795998607,1.7569064004381445
1589550529.0978537,-1.261371615590598,-2.980324308241595,8.96685807795299,0.5433333333333333,0.12,-0.6733333333333333,0.021033138854646034,-0.07071089038455902,1.7745178195614335
1589550529.1078537,-1.265917211328976,-2.9962013071895424,9.000852287581699,0.5408297264584846,0.11061147421931736,-0.6849125151295086,0.006990347851056809,-0.08136694553115613,1.7755652751165154
1589550529.1178536,-1.28050407525584,-2.939460710565907,8.929964785821745,0.5344444444444445,0.08666666666666667,-0.7144444444444444,0.011367402824386126,-0.08203993555146404,1.7734043981234693
1589550529.1278536,-1.333084013050571,-2.9264327079934747,8.94696207177814,0.5344444444444445,0.08666666666666667,-0.7144444444444444,0.009846349358040705,-0.08589696281144686,1.7693564015248242
1589550529.1378536,-1.3885387827407314,-2.8577454131342526,8.876284195874986,0.5344444444444445,0.08666666666666667,-0.7144444444444444,0.0030197089114443205,-0.0863487182149488,1.7652169895153107
1589550529.1478536,-1.5043873196504776,-2.9598260516155253,9.121407031091241,0.5344444444444445,0.08666666666666667,-0.7144444444444444,0.01167403955734736,-0.08341967145294,1.7749541412295944
1589550529.1578536,-1.5265289620994764,-2.9591460845488653,9.122644810497382,0.5374869863945124,0.07145395691632725,-0.7200948794945705,0.021341816127538354,-0.0684879598335871,1.7858312226844133
1589550529.1678536,-1.549290930334453,-2.875764933547539,9.062816927121366,0.5422222222222223,0.04777777777777778,-0.7288888888888889,0.014296821425170891,-0.07117260619296761,1.784214533580787
1589550529.1778536,-1.6519114043355325,-2.8535664467483506,9.10948727615457,0.5422222222222223,0.04777777777777778,-0.7288888888888889,0.001090830782496456,-0.08604341613519453,1.7682087336790797
1589550529.1878536,-1.6818157275973178,-2.78682922581207,9.015907863798658,0.5422222222222223,0.04777777777777778,-0.7288888888888889,0.012046446256131505,-0.06867503164860624,1.7608492006071605
1589550529.1978536,-1.6953914962825278,-2.744608503717472,9.12243842936803,0.5422222222222223,0.04777777777777778,-0.7288888888888889,0.01728247004145756,-0.0710845810045858,1.7524526000363474
1589550529.2078536,-1.7121796636342275,-2.6851915136459765,9.051664372755043,0.5374856863644671,0.028154986367078083,-0.7458050883808715,0.011285845351150013,-0.06568039750893997,1.737784213968592
1589550529.2178535,-1.72,-2.6285673859214715,8.892846362457256,0.5344444444444445,0.015555555555555557,-0.7566666666666667,0.011064581778594224,-0.05438526517119312,1.7205496050112592
1589550529.2278535,-1.7980866378746236,-2.6330144396457706,8.948086637874624,0.5344444444444445,0.015555555555555557,-0.7566666666666667,0.014365230504552493,-0.06433473106894713,1.7092517635550692
1589550529.2378535,-1.8785882397031817,-2.6353498482179663,9.099585129108421,0.5344444444444445,0.015555555555555557,-0.7566666666666667,0.013273689119243499,-0.08235063120508876,1.6987612472351956
1589550529.2478535,-1.7485128608118987,-2.4989929850116916,9.244918158469735,0.5344444444444445,0.015555555555555557,-0.7566666666666667,-0.0016847935168074549,-0.08332977904016081,1.68767999296417
1589550529.2578535,-1.8971756649546954,-2.527109273873648,9.122190905674557,0.5314618100500601,-0.006068543803731076,-0.7637504233533295,0.027973849605779193,-0.034942795757331356,1.6878377919697456
1589550529.2678535,-1.8995194508009152,-2.4844393592677347,9.171807780320366,0.5255555555555556,-0.048888888888888885,-0.7777777777777778,0.0015750897568770315,-0.06770140156262902,1.657733293597612
1589550529.2778535,-1.8047514382067051,-2.33801150565364,8.73652013489387,0.5255555555555556,-0.048888888888888885,-0.7777777777777778,0.010793576922191376,-0.04636972129697194,1.649444598676833
1589550529.2878535,-1.8630599369085175,-2.3630599369085172,8.899718341595314,0.5255555555555556,-0.048888888888888885,-0.7777777777777778,0.013729523625211144,-0.03394258361380477,1.644639032667425
1589550529.2978535,-1.913023883416543,-2.3995358251248144,9.310384563486709,0.5255555555555556,-0.048888888888888885,-0.7777777777777778,-0.009868110666699487,-0.061627597083390384,1.628889579154322
1589550529.3078535,-1.9744837740384615,-2.3779951923076923,9.410510216346154,0.5189455795940171,-0.07688408119658119,-0.7828324652777778,-0.008782302229583396,-0.07412083724014727,1.6118674824053132
1589550529.3178535,-2.1235661998726925,-2.392237428389561,9.077200827498409,0.5066666666666667,-0.1288888888888889,-0.7922222222222223,0.006567898390600876,-0.05651697742921645,1.5973881913302004
1589550529.3278534,-2.040904661226917,-2.299592514287602,8.82728601631925,0.5066666666666667,-0.1288888888888889,-0.7922222222222223,0.006312952076020172,-0.02090358405083716,1.5956978519692075
1589550529.3378534,-2.0148449431757074,-2.254478901516509,8.988281647725236,0.5066666666666667,-0.1288888888888889,-0.7922222222222223,-0.0013919599914457518,-0.0426960155216154,1.5877948751016369
1589550529.3478534,-2.0528650739192815,-2.2264325369596407,9.055224876801198,0.5066666666666667,-0.1288888888888889,-0.7922222222222223,-0.007608257217422101,-0.0545415391248228,1.5662797661299983
1589550529.3578534,-2.1184724150991037,-2.2247708622648656,9.070611033960358,0.511043218448849,-0.16773078595575755,-0.7676041184474464,0.000320459945823668,-0.03950319529846085,1.5523021935914403
1589550529.3678534,-2.3169864041256445,-2.1733218471636193,8.72691748710736,0.5155555555555555,-0.20777777777777776,-0.7422222222222222,0.011965513607953683,-0.016724819051529286,1.5423674764509743
1589550529.3778534,-2.4648443786828644,-2.247476832022428,9.30665238948161,0.5155555555555555,-0.20777777777777776,-0.7422222222222222,-0.0044211168020019,-0.03691667783528352,1.5387833330122265
1589550529.3878534,-2.4574963235294116,-2.152488970588235,9.030889246323529,0.5155555555555555,-0.20777777777777776,-0.7422222222222222,-0.006987783789730169,-0.03943959852827087,1.5327190636225596
1589550529.3978534,-2.43,-2.0386798428147435,8.428387358856593,0.5155555555555555,-0.20777777777777776,-0.7422222222222222,0.0024696751840752275,-0.026494684635181863,1.5171429743563507
1589550529.4078534,-2.5377702340539576,-2.0538851170269785,8.301919182895599,0.5058619366194853,-0.2194671417889213,-0.7513456282797001,-0.002527016602795973,-0.042924428414239296,1.4928372019535345
1589550529.4178534,-2.840183573761961,-2.1805507212858837,8.63802896707236,0.4777777777777778,-0.2533333333333333,-0.7777777777777778,-0.009862792986917453,-0.06050157917568812,1.4832094675385306
1589550529.4278533,-2.834623014364977,-2.1823611005548376,8.946170479592613,0.4777777777777778,-0.2533333333333333,-0.7777777777777778,-0.0012986001783265207,-0.04555082840925708,1.5030003272660195
1589550529.4378533,-2.8937702204795777,-2.1689182905444016,9.266099540913839,0.4777777777777778,-0.2533333333333333,-0.7777777777777778,-0.022120654667311244,-0.08719497710757644,1.518250406414873
1589550529.4478533,-3.059895072523403,-2.038289613551418,8.679737681308508,0.4777777777777778,-0.2533333333333333,-0.7777777777777778,0.0028821751916634744,-0.055853281562547596,1.5623855999118397
1589550529.4578533,-3.1808617899017015,-2.0904308949508508,9.107325214164462,0.4468714223678497,-0.2738087937924107,-0.7638699178433102,0.01394903469649972,-0.04168008394856859,1.6192629147011508
1589550529.4678533,-3.0789486522746676,-2.019582469406838,9.208531121681506,0.3888888888888889,-0.31222222222222223,-0.7377777777777778,-0.009933802169210722,-0.07798342478804339,1.6583629374913704
1589550529.4778533,-2.809041944861515,-1.847425166916909,9.189819825575825,0.3888888888888889,-0.31222222222222223,-0.7377777777777778,-0.007563959966070288,-0.07779516046039886,1.7116441061058751
1589550529.4878533,-2.7715880734290774,-1.8173821101436165,9.559658486938822,0.3888888888888889,-0.31222222222222223,-0.7377777777777778,-0.014751935140559613,-0.09834327374356491,1.7643085316227203
1589550529.4978533,-2.640838217928073,-1.6798529253891572,8.820838217928072,0.3888888888888889,-0.31222222222222223,-0.7377777777777778,0.005886481242897784,-0.07242233425932126,1.910801876069004
1589550529.5078533,-2.5548508916073276,-1.5251917107905788,8.685063903596859,0.37395279248574853,-0.3227328085799877,-0.7023736974147783,0.03331448727283415,-0.049528238587738714,2.016820642416927
1589550529.5178533,-2.672972062180672,-1.48,9.123580606587673,0.3588888888888889,-0.3333333333333333,-0.6666666666666666,-0.002434927831462739,-0.09227818911253638,2.057862955368444
1589550529.5278533,-2.772262443438914,-1.399343891402715,9.140490196078431,0.3588888888888889,-0.3333333333333333,-0.6666666666666666,-0.0017917265793946334,-0.10572832113726208,2.0501144473936206
1589550529.5378532,-2.815804553994811,-1.33,8.897950031314306,0.3588888888888889,-0.3333333333333333,-0.6666666666666666,0.012339773137174556,-0.09897305711927079,2.0182501461372198
1589550529.5478532,-2.9563828251163673,-1.3023537570057946,9.0961301415408,0.3588888888888889,-0.3333333333333333,-0.6666666666666666,-0.003336302891410837,-0.10199701993313333,1.988548269449364
1589550529.5578532,-3.078167911775169,-1.216102612751492,9.128447764733783,0.35755866503287353,-0.3320031094773179,-0.6577985076265641,-0.002662767137193215,-0.09843058682187268,1.9423902754612645
1589550529.5678532,-2.97,-1.15,8.84,0.3555555555555556,-0.33,-0.6444444444444445,0.02617993877991494,-0.07417649320975901,1.9056813770213088
1589550529.5778532,-2.8007317269723586,-1.0668667902328954,9.041332097671045,0.3555555555555556,-0.33,-0.6444444444444445,0.006530655948299154,-0.07523049120171102,1.8443553961097572
1589550529.5878532,-2.973181280481478,-1.0567379890007265,9.103475978001452,0.3555555555555556,-0.33,-0.6444444444444445,-0.0020737670021750616,-0.10037977216891548,1.8099828841583703
1589550529.5978532,-3.3742674807573643,-1.0373742327303432,9.061597544737099,0.3555555555555556,-0.33,-0.6444444444444445,0.014469635980634683,-0.09415756845818422,1.782076195498999
1589550529.6078532,-2.845864012649986,-0.9686213375499954,8.91,0.3523883463037031,-0.3334311433561736,-0.6462919831746918,-0.0038867505148443616,-0.08616292862551986,1.7531281594074184
1589550529.6178532,-2.650316803449715,-0.8990015996661567,8.919318403115872,0.3422222222222222,-0.34444444444444444,-0.6522222222222223,-0.01625355315570573,-0.10508103876037811,1.74347431617456
1589550529.6278532,-2.8341130684145845,-0.8482712003277345,9.08377031271337,0.3422222222222222,-0.34444444444444444,-0.6522222222222223,-0.008349480680116256,-0.13172388708809757,1.7613926029559666
1589550529.6378531,-2.4904588283490376,-0.7838360303154445,8.768753925986617,0.3422222222222222,-0.34444444444444444,-0.6522222222222223,0.005708092704843451,-0.08564628543739633,1.7863838445292284
1589550529.6478531,-3.221747588536004,-0.8106990354144017,9.222796141657607,0.3422222222222222,-0.34444444444444444,-0.6522222222222223,0.0246008823072766,-0.07511481812263855,1.814536107788692
1589550529.6578531,-2.9753148909157727,-0.7133476997093314,9.02276101700578,0.3462947000322965,-0.3481775491036792,-0.6457741323562712,0.014970450720860288,-0.08969000862909177,1.8568311748877993
1589550529.667853,-2.953942913024876,-0.6946476376749587,9.33118228307153,0.3555555555555556,-0.3566666666666667,-0.6311111111111111,0.0020126686902684036,-0.10259336515901192,1.8904281699344732
1589550529.677853,-3.0150797720020726,-0.5430381541985982,9.03288324651594,0.3555555555555556,-0.3566666666666667,-0.6311111111111111,0.005996668711882433,-0.10728982824535505,1.9001929217508688
1589550529.687853,-2.7412458572395852,-0.31467196464844444,8.883671287552119,0.3555555555555556,-0.3566666666666667,-0.6311111111111111,0.0028308110335403033,-0.11555770181293556,1.8980807421096775
1589550529.697853,-2.814037738050103,-0.5786981247630435,10.13703782554172,0.3555555555555556,-0.3566666666666667,-0.6311111111111111,-0.026227276299363007,-0.15545367796242607,1.8465892325238986
1589550529.707853,-2.764658558277047,-0.2895416195947408,8.618063601182607,0.34839621608484433,-0.3648487689189081,-0.6420205807807663,0.003087798646748907,-0.09362368585361028,1.6791855188866212
1589550529.717853,-2.6486045909784943,-0.09087213063844103,8.642190160710127,0.3322222222222222,-0.38333333333333336,-0.6666666666666666,0.057357384937862674,-0.014865769974128158,1.6836444523334924
1589550529.727853,-2.5586891099837463,-0.14555410530463478,9.189189282372062,0.3322222222222222,-0.38333333333333336,-0.6666666666666666,-0.01878732113216788,-0.12181038656577894,1.6098112707979788
1589550529.737853,-2.6844480676051163,-0.0718506441316279,9.049626610329069,0.3322222222222222,-0.38333333333333336,-0.6666666666666666,-0.02787283440860752,-0.12604582631845268,1.503805835106168
1589550529.747853,-2.636324499191241,-0.03991787980589773,9.133798681099913,0.3322222222222222,-0.38333333333333336,-0.6666666666666666,0.010178101328780545,-0.06543193110266908,1.4296289523309498
1589550529.757853,-2.649064664060817,-0.021244960142808782,9.36,0.3177216938707813,-0.38872887876642764,-0.6599222348752988,0.009719845824115338,-0.05639213416843447,1.3643620988388059
1589550529.767853,-2.858541714476457,-0.029708342895291354,9.287475017211523,0.28444444444444444,-0.4011111111111111,-0.6444444444444445,0.010241083413556687,-0.062225076884460474,1.2900819382338882
1589550529.777853,-2.568930073562679,0.03,9.07507163563852,0.28444444444444444,-0.4011111111111111,-0.6444444444444445,0.00617463560765597,-0.07053365177494685,1.2583316630443038
1589550529.787853,-2.5970434170618497,0.03,8.744739849523267,0.28444444444444444,-0.4011111111111111,-0.6444444444444445,0.001574600534487193,-0.06593361670177808,1.2567983180199143
1589550529.797853,-3.036038161013725,0.03584896549705891,9.25496927218987,0.28444444444444444,-0.4011111111111111,-0.6444444444444445,-0.013282064272567649,-0.07500661125336434,1.1988985271630024
1589550529.807853,-2.77827485294548,0.09108396008311141,8.819226537122121,0.28444444444444444,-0.4011111111111111,-0.6444444444444445,-0.013951531298850883,-0.08170128151619668,1.1801534504270719
1589550529.817853,-2.640586720091586,0.1691785918717802,8.794198626216371,0.2822222222222222,-0.4355555555555555,-0.6444444444444445,-0.008726646259971648,-0.08944812416470939,1.1617347833587257
1589550529.827853,-2.6867570780678967,0.10454009070494474,9.911521289243097,0.2822222222222222,-0.4355555555555555,-0.6444444444444445,-0.008726646259971648,-0.08944812416470939,1.1617347833587257
1589550529.837853,-2.3130463148970675,0.23382959509021545,8.988089717834828,0.2822222222222222,-0.4355555555555555,-0.6444444444444445,-0.01613060063763793,-0.057698593473950704,1.0895615676388182
1589550529.847853,-1.9110787150518806,0.2106391566376085,9.544660240697397,0.2822222222222222,-0.4355555555555555,-0.6444444444444445,-0.043957129173700364,-0.13105944143266077,1.0355949668416062
1589550529.857853,-2.484103541733658,0.24262069915935505,9.373275759106987,0.27918390575793306,-0.4458390882039189,-0.6505210773730228,-0.006827100424017967,-0.03501943133150229,0.9823194521097478
1589550529.867853,-2.779594738604878,0.29230277380263675,8.954413725908108,0.2677777777777778,-0.4844444444444445,-0.6733333333333333,-0.029617568619429165,-0.05569052673526284,1.003457339232658
1589550529.877853,-2.3993564919004435,0.3111386171706143,9.27,0.2677777777777778,-0.4844444444444445,-0.6733333333333333,-0.018020303827995555,-0.08384276237553845,1.034296585575991
1589550529.887853,-2.394535135953186,0.35423674519497556,9.086493214952329,0.2677777777777778,-0.4844444444444445,-0.6733333333333333,-0.0041147592070409356,-0.06515662736523747,1.0155610372483648
1589550529.897853,-1.758818241903503,0.39205684071381364,8.927988103106411,0.2677777777777778,-0.4844444444444445,-0.6733333333333333,-0.026051028969002604,-0.06467883938944254,0.9614943002972176
1589550529.907853,-1.7033747521480502,0.3712655320555188,9.420049074686053,0.2677777777777778,-0.4844444444444445,-0.6733333333333333,-0.020003082437575134,-0.05409493295944444,0.8685071223765202
1589550529.9178529,-1.8138110372724647,0.5122637965905807,9.336188962727535,0.20560322963819067,-0.5624260810940961,-0.6796561687373592,0.009333048578816828,-0.025517277202278765,0.716972564112226
1589550529.9278529,-1.9318746288655084,0.6562811943298263,9.068813130928636,0.20222222222222225,-0.5666666666666667,-0.68,0.016004603734802555,0.013771819598003318,0.4976850628429075
1589550529.9378529,-2.0595997076602157,0.6754399561490324,8.851680496977634,0.20222222222222225,-0.5666666666666667,-0.68,-0.008377524603256581,-0.01409346993120712,0.38204411129668414
1589550529.9478528,-1.2142128247118131,0.598500786693639,9.316641620909996,0.20222222222222225,-0.5666666666666667,-0.68,-0.056816406248439574,-0.05027142155346083,0.1297801764006134
1589550529.9578528,-1.0391304627042994,0.6927759046976849,9.168495006903637,0.20222222222222225,-0.5666666666666667,-0.68,-0.021557594565365608,-0.01501260987038687,-0.03990285482418002
1589550529.9678528,-0.7502215968267334,0.7495568063465331,9.1603323952401,0.06666666666666668,-0.8544444444444445,-0.6522222222222223,-0.005792568408348399,0.0242400018548264,-0.46148165877626507
1589550529.9778528,-0.7688104682340949,0.7123790635318102,9.188215702351142,0.06666666666666668,-0.8544444444444445,-0.6522222222222223,-0.0341808068085737,0.04451731499784449,-0.8325564892934959
1589550529.9878528,-1.6335843933832772,0.5805832369651567,8.892555684046458,0.06666666666666668,-0.8544444444444445,-0.6522222222222223,0.0012473793602784317,0.08234056644211102,-1.225752145920786
1589550529.9978528,-0.9376625270249886,0.6438488611795465,8.808201518427271,0.06666666666666668,-0.8544444444444445,-0.6522222222222223,0.0050813843806623,0.07390575539726651,-1.3990491728421368
1589550530.0078528,-0.8430164341677814,0.5321572711637684,9.385009363653737,0.06981716457523834,-0.8951998216446908,-0.6504793935919486,-0.030317924994961217,0.0828552579809595,-1.8035040935185094
1589550530.0178528,-0.8830919166825912,0.42796101662526276,8.920133766481941,0.11167377964626196,-1.4366641187336773,-0.6273246703611695,-0.012831697014739983,0.12569651653250152,-2.098147034985237
1589550530.0278528,-1.9217651819989825,0.2023530363997965,9.33293603441099,0.11888888888888888,-1.53,-0.6233333333333333,-0.006865962699615083,0.1208900185376061,-2.568139288750939
1589550530.0378528,-1.98011634056055,0.16082672307421117,8.946821787414066,0.11888888888888888,-1.53,-0.6233333333333333,-0.026102448068590058,0.141667057080864,-2.84641034426574
1589550530.0478528,-1.952927751244792,-0.05063489482776141,9.076119906513565,0.11888888888888888,-1.53,-0.6233333333333333,-0.05137485991268259,0.1367039866471093,-3.104029167893675
1589550530.0578527,-1.5776733346280831,-0.20493882307244127,9.187550980772965,0.13770074016529638,-1.425981528236335,-0.6357823525603676,-0.04419421788211705,0.16551243891317993,-3.3859099368693064
1589550530.0678527,-1.28,-0.31,9.1,0.27,-0.6944444444444444,-0.7233333333333334,-0.017453292519943295,0.20180369476184434,-3.6695547523180783
1589550530.0778527,-1.149325651997227,-0.372723687041331,9.073865130399446,0.27,-0.6944444444444444,-0.7233333333333334,-0.025150646989283564,0.2060800028003667,-3.8779534973954015
1589550530.0878527,-0.817879649140001,-0.7421039349242907,9.116344636644289,0.27,-0.6944444444444444,-0.7233333333333334,-0.05339891165353137,0.21196811340247942,-4.581763424068691
1589550530.0978527,-0.92,-1.26,9.43,0.27,-0.6944444444444444,-0.7233333333333334,-0.07090400086226964,0.19525871006686565,-4.891285228714109
1589550530.1078527,-1.281677723090092,-1.4466723732077895,9.51750267494115,0.27,-0.6944444444444444,-0.7233333333333334,-0.04863219154106552,0.24234767834598286,-5.122275708245454
1589550530.1178527,-1.137149650877524,-1.680712587280619,8.634851103981884,0.3569399257721583,-0.49646243526032163,-0.716447002579103,-0.02342904428800012,0.30302274560620274,-5.5374004608803675
1589550530.1278527,-1.23185581429588,-2.6545238387357983,9.648789536966603,0.38222222222222224,-0.4388888888888889,-0.7144444444444444,-0.06790846545307906,0.24155711990605036,-5.973160481334144
1589550530.1378527,-1.5473102805190768,-3.120638899681405,9.084768824306472,0.38222222222222224,-0.4388888888888889,-0.7144444444444444,-0.0011686104332866301,0.37851019501942035,-6.387360604743714
1589550530.1478527,-1.2018321547905821,-3.0815281684668583,7.976631439894319,0.38222222222222224,-0.4388888888888889,-0.7144444444444444,0.025851409605402564,0.40126389610463237,-6.576500745014538
1589550530.1578526,-1.594911706434663,-3.7535911792574725,9.080176587130675,0.3871563250734584,-0.4327726572295441,-0.7155237794431524,-0.07483245752129383,0.2522030085972546,-6.9348681384314865
1589550530.1678526,-1.5154263071754672,-4.122114394004652,9.239147385649066,0.4642330758702539,-0.33722960155434956,-0.7323843186799514,-0.08507942628058808,0.27269694611584305,-7.078325701061606
1589550530.1778526,-1.5917107519217062,-4.482480590286475,8.940769838364767,0.4888888888888889,-0.30666666666666664,-0.7377777777777778,-0.028100340624870167,0.3504366023099742,-7.217319015872323
1589550530.1878526,-1.7533190128499048,-4.716812568632362,9.013493555782457,0.4888888888888889,-0.30666666666666664,-0.7377777777777778,-0.003420123423202425,0.3768796921689038,-7.253457905346193
1589550530.1978526,-1.5466748950876328,-5.01865979593516,8.565632354151239,0.4888888888888889,-0.30666666666666664,-0.7377777777777778,-0.04087772344998131,0.3524222890550305,-7.2612951136551
1589550530.2078526,-1.6505147591594997,-5.631435907129131,9.527832593012633,0.48909057815021334,-0.30622415440674583,-0.7377386440405058,-0.06427035588254021,0.2652048705737648,-7.2385077791920045
1589550530.2178526,-1.8294804663530375,-6.16,8.761558600940889,0.5633333333333334,-0.14333333333333334,-0.7233333333333334,-0.031634092692397225,0.31163475851266426,-7.119297039277849
1589550530.2278526,-3.370706161137441,-6.821118483412322,7.5533672985782,0.5633333333333334,-0.14333333333333334,-0.7233333333333334,-0.0023845767697937906,0.4433250035976568,-6.70551957293539
1589550530.2378526,-15.283288318703578,-10.25157470820874,-4.702690267193981,0.5633333333333334,-0.14333333333333334,-0.7233333333333334,0.0899714430512481,1.679669909135605,-3.5711168756551768
1589550530.2478526,5.71,5.79,2.35,0.5633333333333334,-0.14333333333333334,-0.7233333333333334,-0.8977537339945831,0.6119560689805118,-3.723005460660404
1589550530.2578526,-1.166602858315609,0.9255849098846971,7.419541027650286,0.5633333333333334,-0.14333333333333334,-0.7233333333333334,-0.6196548944975893,0.34025030625356373,-2.0746571667835862
1589550530.2678525,0.5782306513570814,-0.40432859631814266,10.14213270639602,0.5874271546888521,0.02725092186373909,-0.705022029103139,-0.051026581420045125,-1.0665257656530294,-1.5945786772632677
1589550530.2778525,4.494354763022055,0.4598592210229938,17.046452369779445,0.5911111111111111,0.05333333333333334,-0.7022222222222222,0.6921308517769876,-1.399533846395731,-1.4804790188344672
1589550530.2878525,-0.5860232717316913,1.928754277891855,1.4122861054072509,0.5911111111111111,0.05333333333333334,-0.7022222222222222,0.9153190214613947,1.1907676067518635,-1.2738364987429593
1589550530.2978525,-0.01745392348506014,0.5121333077352694,3.4827839639765434,0.5911111111111111,0.05333333333333334,-0.7022222222222222,-0.19672574191509307,0.03393727710164929,-0.9883483765995453
1589550530.3078525,2.033966346153846,-1.1309418706293706,10.217248688811189,0.5911111111111111,0.05333333333333334,-0.7022222222222222,-0.2327405234597481,-0.3844236903931375,-0.7333572394186894
1589550530.3178525,0.22762908367342793,-1.4530216645347303,5.28673468559014,0.5811111111111111,0.14555555555555555,-0.6944444444444444,0.2293463802146277,0.36128100233847626,-0.6808358833922745
1589550530.3278525,-0.4706970416844329,-3.743872002598932,10.25166311343932,0.5811111111111111,0.14555555555555555,-0.6944444444444444,-0.09021939785131217,-0.12364148647088591,-0.5665725383279995
1589550530.3378525,-0.9962425842070852,-3.3924086495387074,9.866454948301328,0.5811111111111111,0.14555555555555555,-0.6944444444444444,-0.01022526079480314,0.02901939531733949,-0.08414548259860583
1589550530.3478525,-0.513574439199962,-2.370396546008493,10.044110534042654,0.5811111111111111,0.14555555555555555,-0.6944444444444444,0.014195419891372572,-0.015329507133143046,0.1698445759274101
1589550530.3578525,-0.8247684973242615,-2.5160618498113565,9.216466762435475,0.5811111111111111,0.14555555555555555,-0.6944444444444444,-0.016861564132191302,-0.00016214284256534095,0.1597329997336916
1589550530.3678524,-0.9239065538445368,-2.0511078993009932,8.147449413990646,0.5777777777777777,0.14,-0.6944444444444444,0.0216051227841789,0.022276121022384528,0.27830345630764614
1589550530.3778524,-0.762251011720187,-2.080499816050875,8.610372102801282,0.5777777777777777,0.14,-0.6944444444444444,0.015994341463393662,-0.023411669732580957,0.36887749762889355
1589550530.3878524,-0.9105457962661321,-2.8096526751033704,9.448238566595665,0.5777777777777777,0.14,-0.6944444444444444,0.0011855489546891691,-0.03586751661480446,0.46053085149185474
1589550530.3978524,-1.1262901452462242,-2.6642291148274597,8.736702351329978,0.5777777777777777,0.14,-0.6944444444444444,0.037156566870889696,0.01456387339788707,0.5462679743029655
1589550530.4078524,-1.0534766506567907,-2.550963678799452,8.67197924502826,0.5777777777777777,0.14,-0.6944444444444444,-0.0043220826860745284,-0.020737104948465455,0.6486408115073878
1589550530.4178524,-10.556473317865432,-22.943422703445904,8.013819712984446,0.5981748827972081,0.13592057899611393,-0.6838379498343407,-0.011999138607461015,-0.048897565470606794,0.7460856981101699
1589550530.4278524,-0.13972877819793977,-2.2892071978093624,6.86113287260399,0.6055555555555555,0.13444444444444445,-0.68,-0.10359023533301166,-0.11886095595845257,0.09695034878667269
1589550530.4378524,1.16,1.51,12.29,0.6055555555555555,0.13444444444444445,-0.68,0.0818123086872342,0.07090400086226964,-0.543233729683235
1589550530.4478524,-0.12080055630405484,-0.09865052805423957,10.602665478725715,0.6055555555555555,0.13444444444444445,-0.68,0.11852886971973889,0.1157268156292234,-0.4554954539691979
1589550530.4578524,-1.3085176009909298,-2.2340947776401485,9.160680465097695,0.6055555555555555,0.13444444444444445,-0.68,-0.02996007911252979,0.014731511281929427,-0.11459289168621176
1589550530.4678524,-2.011344346518525,-5.599052879996658,9.382291466521865,0.5844444444444444,0.13444444444444445,-0.6877777777777778,-0.024075598122064445,-0.024379550845427457,0.2428020008642685
1589550530.4778523,-3.947229021344138,-8.796328474165657,8.120900547178481,0.5844444444444444,0.13444444444444445,-0.6877777777777778,0.03516729819879577,0.05206289602019863,0.15871530931207978
1589550530.4878523,-1.524168534587985,-3.6401247253600832,9.755234248429836,0.5844444444444444,0.13444444444444445,-0.6877777777777778,0.01252645781348729,-0.05353033155730296,-0.050330223950701414
1589550530.4978523,-1.8493489016425886,-3.927896479139305,8.648714535019701,0.5844444444444444,0.13444444444444445,-0.6877777777777778,0.01965134117637396,0.013969553882350983,-0.009289361317210748
1589550530.5078523,-1.6833366317039382,-3.739246172390839,8.784542755878597,0.5844444444444444,0.13444444444444445,-0.6877777777777778,-0.014097490947120688,0.010676984894692971,-0.0010579388480657127
1589550530.5178523,-1.67,-3.6801648607211153,8.867856810625506,0.5911111111111111,0.12,-0.7144444444444444,-0.005292302278007233,-0.006077413306495268,-0.0010368802376714405
1589550530.5278523,-1.67,-3.68739030818791,8.773925993557167,0.5911111111111111,0.12,-0.7144444444444444,0.001801264184674977,0.014415112030142233,0.0013276419165559634
1589550530.5378523,-1.59,-3.7725360757881083,8.97139948578973,0.5911111111111111,0.12,-0.7144444444444444,0.003148509611758469,-0.008116005388330244,-0.0019781146077791105
