time,acc_x,acc_y,acc_z,mag_x,mag_y,mag_z,gyr_x,gyr_y,gyr_z
1589550560.49949,0.77,-3.95,8.67,0.4577777777777778,0.3855555555555555,-0.6577777777777778,0.006544984694978735,0.006544984694978735,-0.001090830782496456
1589550560.50949,0.7902714589508958,-3.95,8.70378576491816,0.4577777777777778,0.3855555555555555,-0.6577777777777778,0.005070802599662043,0.0013853473613703133,0.00038335131282023617
1589550560.51949,0.8,-3.95,8.788448962942045,0.4577777777777778,0.3855555555555555,-0.6577777777777778,-0.00011665101844262216,-0.001090830782496456,0.0025841554986392717
1589550560.52949,0.8073461113158865,-3.9720383339476593,8.84203833394766,0.4528803702338534,0.3855555555555555,-0.6626751853217021,0.00022234774151144157,-0.0034948400890008093,-0.0015355262655193389
1589550560.53949,0.8098734938365828,-3.97,8.819114456856079,0.4511111111111111,0.3855555555555555,-0.6644444444444444,5.519872689244075e-05,-0.003175894575427597,-1.3799681723110188e-05
1589550560.54949,0.8001732232475313,-3.97,8.751212562732718,0.4511111111111111,0.3855555555555555,-0.6644444444444444,0.004287740229725425,0.0042310530545301255,-0.0010719350574313563
1589550560.55949,0.7908593871347106,-3.9425781614041315,8.768281225730579,0.4511111111111111,0.3855555555555555,-0.6644444444444444,0.004363323129985824,0.007354581695288086,0.0019004277828058057
1589550560.56949,0.79,-3.968599331405176,8.77,0.4511111111111111,0.3855555555555555,-0.6644444444444444,0.001243620024427466,0.0021763350427480652,0.000621810012213733
1589550560.57949,0.7985123231038321,-3.971487676896168,8.804049292415328,0.44638204272009324,0.3855555555555555,-0.6644444444444444,-0.004642752036107908,-0.008356953664994235,0.0
1589550560.58949,0.7917925733415558,-3.9782074266584444,8.826414853316889,0.4455555555555555,0.3855555555555555,-0.6644444444444444,-0.00545415391248228,-0.00713160294923422,0.0
1589550560.59949,0.8190678743407475,-3.970310708553084,8.684660628296262,0.4455555555555555,0.3855555555555555,-0.6644444444444444,-0.0033402784383071943,-0.010772735643328906,0.001056937737087543
1589550560.60949,0.82,-3.960613384180661,8.76447954237405,0.4455555555555555,0.3855555555555555,-0.6644444444444444,-0.003272492347489368,-0.006812624033283364,-0.001980932061264442
1589550560.61949,0.8138631143058052,-3.96,8.79454754277678,0.4455555555555555,0.3855555555555555,-0.6644444444444444,-0.0012642012003224027,-0.00453669354781177,-0.0015122311826039235
1589550560.62949,0.8031627426847183,-3.9463254853694365,8.81,0.4455555555555555,0.3855555555555555,-0.6598862729009233,-0.0007458290747358346,-0.0017808341980176984,-0.0018366598572322906
1589550560.63949,0.8122878015261654,-3.946143900763083,8.822287801526166,0.4455555555555555,0.3855555555555555,-0.6577777777777778,-0.002431221997891273,-0.0037716132132860902,-0.0028518571726903206
1589550560.6494899,0.8054480008469492,-3.964551999153051,8.73541200550517,0.4455555555555555,0.3855555555555555,-0.6577777777777778,-0.003272492347489368,-0.004660465481331772,-0.004066180778639876
1589550560.6594899,0.8063065951683344,-3.9573868096633316,8.7,0.4455555555555555,0.3855555555555555,-0.6577777777777778,-0.0018966067190168629,-0.0016115518730408143,-0.007803037201167087
1589550560.6694899,0.81,-3.9758544359837082,8.764636089959271,0.4455555555555555,0.3855555555555555,-0.6577777777777778,-0.0025009715142521017,-0.0014101407317556453,-0.009817477042468105
1589550560.6794899,0.8033216681898224,-3.9632866727592897,8.793321668189822,0.4455555555555555,0.3803612974809729,-0.6429370404218274,-0.00472947833034278,-0.002910154556419618,-0.01054597003389481
1589550560.6894898,0.7912215945981041,-3.9851136216075838,8.781221594598103,0.4455555555555555,0.37777777777777777,-0.6355555555555555,-0.007369304879206515,-0.004230067830851485,-0.008035581374878208
1589550560.6994898,0.7987764062248581,-3.972447187550284,8.73611796887571,0.4455555555555555,0.37777777777777777,-0.6355555555555555,-0.007635815477475192,-0.009150110164870166,-0.007635815477475192
1589550560.7094898,0.8089515754479455,-3.97,8.74790315089589,0.4455555555555555,0.37777777777777777,-0.6355555555555555,-0.00861228088252103,-0.01274687325760562,-0.004706419262337676
1589550560.7194898,0.8164794452187979,-3.9570411095624043,8.769438335656393,0.4455555555555555,0.37777777777777777,-0.6355555555555555,-0.008019848430155229,-0.015210362879406726,-0.006483716619435081
1589550560.7294898,0.8033579921763043,-3.9749630117355434,8.829926023471087,0.46219756337925133,0.37777777777777777,-0.6540466753596619,-0.0049127733149800686,-0.012731738854120008,-0.009451176919138608
1589550560.7394898,0.8171093216869114,-3.9714453391565443,8.771562713252354,0.4655555555555556,0.37777777777777777,-0.6577777777777778,-0.0034301543917999652,-0.005466957440160005,-0.009817477042468105
1589550560.7494898,0.8284326130224623,-3.9615673869775376,8.692539095820301,0.4655555555555556,0.37777777777777777,-0.6577777777777778,-0.005112203119845844,-0.005283178516164062,-0.010737332428646341
1589550560.7594898,0.8086115595737811,-3.9528705198579273,8.715647400710365,0.4655555555555556,0.37777777777777777,-0.6577777777777778,-0.0077872708331334015,-0.00623185955269932,-0.01246371910539864
1589550560.7694898,0.8086055789261266,-3.95,8.75581673677838,0.4655555555555556,0.37777777777777777,-0.6577777777777778,-0.006379838661516233,-0.006075623175287652,-0.012151246350575304
1589550560.7794898,0.8138285512422969,-3.915028457039683,8.785885700828198,0.463955550322077,0.3793777830112563,-0.6522920455487085,-0.004170093184489632,-0.005678554121732345,-0.011581508452714755
1589550560.7894897,0.8224386234575808,-3.793902267196106,8.797804534392212,0.4577777777777778,0.3855555555555555,-0.6311111111111111,-0.010668819678275827,-0.01008348959591281,-0.016708303673121126
1589550560.7994897,0.8419740464018876,-3.840043255996854,8.805965395202517,0.4577777777777778,0.3855555555555555,-0.6311111111111111,-0.012214473665586544,-0.014836242341409721,-0.02881114445031733
1589550560.8094897,0.8033602229646684,-3.945247286513061,8.763360222964668,0.4577777777777778,0.3855555555555555,-0.6311111111111111,-0.006839979388907097,-0.010040922965733647,-0.03955610325252369
1589550560.8194897,0.7945095248876096,-3.971634917041301,8.75934603318348,0.4577777777777778,0.3855555555555555,-0.6311111111111111,-0.005910398411956525,-0.0075644787640560054,-0.04890904342879255
1589550560.8294897,0.7990531372466395,-3.8981062744932786,8.769053137246638,0.44743907406627054,0.3788658060951685,-0.6335437472785246,-0.009920763746284611,-0.014593946987719958,-0.06230330278585706
1589550560.8394897,0.74782084321204,-3.71831323231282,8.73891042160602,0.4388888888888889,0.37333333333333335,-0.6355555555555555,-0.02011037234577478,-0.02621251040311494,-0.08252543607849205
1589550560.8494897,0.6627860760422783,-3.5888964327657074,8.784993210510864,0.4388888888888889,0.37333333333333335,-0.6355555555555555,-0.03599593458563347,-0.03811740589514035,-0.0930230490263785
1589550560.8594897,0.5413028484723085,-3.5428457134974827,8.834308573005035,0.4388888888888889,0.37333333333333335,-0.6355555555555555,-0.038170350139236794,-0.03738993854486231,-0.09989516683156056
1589550560.8694897,0.48100540028830224,-3.489259450504529,8.753016200864908,0.4388888888888889,0.37333333333333335,-0.6355555555555555,-0.018601904781957515,-0.015929663904876924,-0.08721457192091316
1589550560.8794897,0.35648280337443217,-3.347023036988968,8.786218364698247,0.4504508255822337,0.3901506957963804,-0.6691902804816497,-0.016126740354856756,-0.014918048881065259,-0.04363199252382361
1589550560.8894897,0.4474745895230649,-3.3924863174354964,8.849984362783424,0.4511111111111111,0.3911111111111111,-0.6711111111111111,-0.03190274921818798,-0.031629828303098954,0.00026183350291353324
1589550560.8994896,0.5406124401913877,-3.478188995215311,8.801811004784689,0.4511111111111111,0.3911111111111111,-0.6711111111111111,-0.03874119449395428,-0.03791472054941689,0.05385154951024848
1589550560.9094896,0.6249934002111933,-3.572214889123548,8.722228088701161,0.4511111111111111,0.3911111111111111,-0.6711111111111111,-0.02824151680839755,-0.031877139466533186,0.09411165613597096
1589550560.9194896,0.7267047101449275,-3.570498188405797,8.717701086956522,0.4511111111111111,0.3911111111111111,-0.6711111111111111,-0.022067388161339987,-0.02687791238929492,0.11887960817926141
1589550560.9294896,0.7753648843154526,-3.5453648843154526,8.757810694107285,0.460381342480206,0.3849309568650478,-0.6680210339880794,-0.024265073675828214,-0.029639622179641344,0.13124609576915006
1589550560.9394896,0.8053818087047172,-3.5621136304404484,8.847495439145165,0.4711111111111111,0.37777777777777777,-0.6644444444444444,-0.02932648949679552,-0.03924858622338108,0.13320729709517642
1589550560.9494896,0.7785560269875496,-3.5709482738633462,8.839030163919222,0.4711111111111111,0.37777777777777777,-0.6644444444444444,-0.03002370667666192,-0.03745028881701084,0.1278340828161604
1589550560.9594896,0.4173957481602616,-3.2598596347778686,8.783912510220768,0.4711111111111111,0.37777777777777777,-0.6644444444444444,-0.026164181344245193,-0.025753150121350307,0.1286072843197331
1589550560.9694896,-0.05744471928641032,-2.7241646053519224,8.810221122854358,0.4711111111111111,0.37777777777777777,-0.6644444444444444,-0.01585322748863581,-0.015168443154372428,0.18535815948605583
1589550560.9794896,0.04398172166254449,-2.7135865958858663,8.881580503106713,0.4609794025188849,0.38790948637000394,-0.6551570449015705,-0.0010046277104647037,-0.021727089482372477,0.48250521182785233
1589550560.9894896,0.20553637762955362,-2.8236909184197025,8.899077270395075,0.4577777777777778,0.3911111111111111,-0.6522222222222223,0.007177006117670527,-0.024658394946121424,0.7136747353766165
1589550560.9994895,0.28178090967328634,-2.8091778774289984,8.730273329062566,0.4577777777777778,0.3911111111111111,-0.6522222222222223,0.009025500817721585,-0.032710015687133734,0.9110235285743948
1589550561.0094895,0.3124249646059462,-2.8572748938178387,8.774649834827748,0.4577777777777778,0.3911111111111111,-0.6522222222222223,0.005465067368163698,-0.04333596832895093,1.0501644667850076
1589550561.0194895,0.331855196751793,-2.8325792129928278,8.869275983758966,0.4577777777777778,0.3911111111111111,-0.6522222222222223,-0.0021026836447180577,-0.05551390302690697,1.129508356264267
1589550561.0294895,0.40495290050429766,-2.7805141298487106,8.819065939293983,0.45344758441082456,0.38245072437720473,-0.6558307166946832,-0.00016824859955216678,-0.052257987342745546,1.2046286618779074
1589550561.0394895,0.39918842749570654,-2.7291884274957066,8.715584569994276,0.4511111111111111,0.37777777777777777,-0.6577777777777778,0.003272492347489368,-0.05506745223513865,1.2620574706381655
1589550561.0494895,0.39900113192727943,-2.779670817066691,8.867343897987942,0.4511111111111111,0.37777777777777777,-0.6577777777777778,-0.0070910174567869475,-0.07686827924888757,1.2950352927726885
1589550561.0594895,0.36524973777057307,-2.7653052350529226,8.696526175264614,0.4511111111111111,0.37777777777777777,-0.6577777777777778,-0.0033269766770280002,-0.07153719656221899,1.3165661625148974
1589550561.0694895,0.3100732717425932,-2.7372985027078687,8.526712328767124,0.4511111111111111,0.37777777777777777,-0.6577777777777778,0.00789853228906083,-0.05373740327560431,1.3343167929758282
1589550561.0794895,0.2833494743548901,-2.810788945524052,8.813993150684931,0.4511111111111111,0.37777777777777777,-0.6577777777777778,0.011542424891023945,-0.04863595363285596,1.3496211419040733
1589550561.0894895,0.2962469934970455,-2.7331234967485227,8.914673219110966,0.4777777777777778,0.3588888888888889,-0.6577777777777778,-0.003100820192985367,-0.0797653611770681,1.365891811840067
1589550561.0994895,0.27464993673555466,-2.733949810206664,8.766750316322227,0.4777777777777778,0.3588888888888889,-0.6577777777777778,0.00662135665191438,-0.06544984694978735,1.3817007416383316
1589550561.1094894,0.26307681408405803,-2.800769557747826,8.82461592957971,0.4777777777777778,0.3588888888888889,-0.6577777777777778,0.0021312941281786814,-0.06581905359248776,1.3879059619781922
1589550561.1194894,0.22682423320308448,-2.9158788339845776,8.970945399218508,0.4777777777777778,0.3588888888888889,-0.6577777777777778,-0.0019383662039118873,-0.06411572080620988,1.3905329094170464
1589550561.1294894,0.18401242877427207,-2.990254660790352,8.860254660790352,0.48174810115948624,0.3502263651469796,-0.6577777777777778,0.014806163690074247,-0.04382768558030584,1.4041702300573673
1589550561.1394894,0.12827088402270884,-2.945792376317924,8.84172911597729,0.49,0.3322222222222222,-0.6577777777777778,0.019135100563354296,-0.03477458832232903,1.4121008844307745
1589550561.1494894,0.13477309980913887,-2.841079824856854,8.776134500954306,0.49,0.3322222222222222,-0.6577777777777778,0.002702325984966577,-0.06504697314916982,1.4196420105053136
1589550561.1594894,0.16,-2.8153672154617038,8.65,0.49,0.3322222222222222,-0.6577777777777778,-0.0015783860728262964,-0.073014449995363,1.4295203881306244
1589550561.1694894,0.12688117929107806,-2.803118820708922,8.848712924253531,0.49,0.3322222222222222,-0.6577777777777778,-0.009930880563614086,-0.09746735463458589,1.4221382293580318
1589550561.1794894,0.06380414430158532,-2.7576082886031705,8.88331450505555,0.5107791023453863,0.32015693698941733,-0.6617995395220461,-0.003669656332615636,-0.09503854682086703,1.4055946957258227
1589550561.1894894,0.010364487402625935,-2.808785041991247,8.824696260497811,0.5244444444444445,0.31222222222222223,-0.6644444444444444,-0.006991001566572829,-0.07861933515546812,1.3919928504171548
1589550561.1994894,-0.04725083308088458,-2.9508762496213268,8.809123750378673,0.5244444444444445,0.31222222222222223,-0.6644444444444444,-0.0048675143042948114,-0.070508529266101,1.3837688288617809
1589550561.2094893,-0.08572566555740432,-2.9942743344425957,8.76,0.5244444444444445,0.31222222222222223,-0.6644444444444444,0.02012727995806793,-0.05685544804071362,1.3881700179977432
1589550561.2194893,-0.11278507977760263,-2.9398728244892744,8.737214920222398,0.5244444444444445,0.31222222222222223,-0.6644444444444444,0.01752219125394202,-0.04998492774208778,1.3879233318409903
1589550561.2294893,-0.14685872089374255,-2.9211523253624554,8.809451452959268,0.5286358849906204,0.2965995801864753,-0.6693979650899251,0.0006538959896832774,-0.059841581439275864,1.3790584950718108
1589550561.2394893,-0.20211490243104765,-3.0153145099749263,8.854512155238199,0.5366666666666666,0.26666666666666666,-0.6788888888888889,-0.00018693840511113408,-0.06832955459493445,1.37200957054302
1589550561.2494893,-0.32001252316786055,-3.1525281771276865,8.626251565395982,0.5366666666666666,0.26666666666666666,-0.6788888888888889,0.009954684681342451,-0.04799382229844473,1.3801753551357656
1589550561.2594893,-0.3624791451436325,-3.244958290287265,8.837985752393877,0.5366666666666666,0.26666666666666666,-0.6788888888888889,0.00655408434269481,-0.059147996095355496,1.3865330355983219
1589550561.2694893,-0.37026334689968876,-3.2296939589817253,9.071580081398134,0.5366666666666666,0.26666666666666666,-0.6788888888888889,0.0008563600528935348,-0.07939151918675985,1.3918426250845466
1589550561.2794893,-0.32,-2.952890280424721,8.906877756602233,0.5474394530659165,0.26349820007865205,-0.6947312218289621,0.014018942623730657,-0.05252173510855315,1.4059190210892085
1589550561.2894893,-0.36971778255002946,-2.9847460042950265,8.855874874094908,0.5555555555555556,0.2611111111111111,-0.7066666666666667,0.0011770291973964044,-0.061567290399874804,1.408804877079355
1589550561.2994893,-0.4533270560383094,-3.1008199940814074,8.76248823007183,0.5555555555555556,0.2611111111111111,-0.7066666666666667,-0.009182100612675232,-0.0735400896599697,1.4107166526835424
1589550561.3094893,-0.5427623492986818,-3.180994511422808,8.807237650701317,0.5555555555555556,0.2611111111111111,-0.7066666666666667,0.005074458626742086,-0.0705484331138915,1.4152173348299586
1589550561.3194892,-0.5823802476828414,-3.121901238414207,8.771429628475737,0.5555555555555556,0.2611111111111111,-0.7066666666666667,0.009765225236935326,-0.0628003405601339,1.4222359474366706
1589550561.3294892,-0.5813627546071775,-3.0940882638215323,8.869539282250242,0.5576597693716996,0.24806498545101843,-0.7041416100872939,0.004363323129985824,-0.06250746052289825,1.4343594234867911
1589550561.3394892,-0.6153321511389988,-3.134667848861001,8.942504433228754,0.5611111111111111,0.22666666666666666,-0.7,0.004781442690593523,-0.07074047296294297,1.4448416034852418
1589550561.3494892,-0.6434039087947883,-3.117780362959516,8.854862726849698,0.5611111111111111,0.22666666666666666,-0.7,0.0056132862765179425,-0.06845711869055061,1.4474794042514514
1589550561.3594892,-0.6931517110560544,-3.2497820532672654,8.875867528646639,0.5611111111111111,0.22666666666666666,-0.7,0.008726646259971648,-0.06290061274054544,1.4486470534557945
1589550561.3694892,-0.6731471242090863,-3.1902793136863705,8.699323376845467,0.5611111111111111,0.22666666666666666,-0.7,0.009682732112543358,-0.05787496826572529,1.4520305164327074
1589550561.3794892,-0.7451469571230982,-3.142003587482711,8.690587828492394,0.5635559541647457,0.2144424513984939,-0.7104778988012909,0.00794664284320859,-0.055572161102458946,1.441765510426295
1589550561.3894892,-0.8263930614504521,-3.1862295626499355,8.872295626499355,0.5688888888888889,0.18777777777777774,-0.7333333333333333,-0.001627328697519441,-0.08234880660225717,1.4198147179929923
1589550561.3994892,-0.9023350821364067,-3.1907783607121356,8.772275737507526,0.5688888888888889,0.18777777777777774,-0.7333333333333333,-8.490598246833165e-05,-0.07669130520982932,1.4023838563781008
1589550561.4094892,-0.9588373074488289,-3.2,8.831318140254625,0.5688888888888889,0.18777777777777774,-0.7333333333333333,-0.007906432356554112,-0.07941926365134182,1.395257124201327
1589550561.4194891,-0.9458514327432013,-3.1478244205146924,8.885851432743202,0.5688888888888889,0.18777777777777774,-0.7333333333333333,-0.005202102120067513,-0.07545307780135735,1.3978067708646573
1589550561.4294891,-0.9212799057515708,-3.1037744683421944,8.801236406476558,0.5726416075935772,0.18068930911336661,-0.7450084581923635,0.01227362569114261,-0.055764868414340106,1.4049900478554354
1589550561.4394891,-1.0096547341175384,-3.1550863164706153,8.956719974116615,0.5788888888888889,0.1688888888888889,-0.7644444444444445,0.007250466413639347,-0.05440971979636554,1.3969500519814875
1589550561.449489,-0.99839456398641,-3.0913041902604754,8.933277010192526,0.5788888888888889,0.1688888888888889,-0.7644444444444445,0.004713574934576305,-0.05331205053142328,1.382717383404072
1589550561.459489,-0.9776128686113981,-3.0340902948891184,8.8602189810031,0.5788888888888889,0.1688888888888889,-0.7644444444444445,0.013858475759932619,-0.043695160072324504,1.3678525530282795
1589550561.469489,-1.018585969940837,-3.0496968360709955,9.158484180354979,0.5788888888888889,0.1688888888888889,-0.7644444444444445,0.01058871080042319,-0.049748545794653994,1.3467902792494018
1589550561.479489,-1.0571181053173115,-3.003458273619226,8.92729136809613,0.5788888888888889,0.1688888888888889,-0.7644444444444445,-0.010427308891566324,-0.06740200233592518,1.3156865701052571
1589550561.489489,-1.1190817595622142,-3.039081759562214,8.519415073761552,0.5722222222222222,0.14888888888888888,-0.7622222222222222,0.018549612625589906,-0.022648801213882897,1.2838659827362906
1589550561.499489,-1.1550089999280004,-3.07,8.939407444740443,0.5722222222222222,0.14888888888888888,-0.7622222222222222,-0.00060710792344284,-0.058965573047152914,1.2559065684480855
1589550561.509489,-1.2784240428934248,-3.105468347286238,8.678670868215596,0.5722222222222222,0.14888888888888888,-0.7622222222222222,-0.0070393113225542155,-0.05354736553328784,1.2153304774874942
1589550561.519489,-1.3670896270660156,-3.194365559400977,8.906007051136916,0.5722222222222222,0.14888888888888888,-0.7622222222222222,0.0010705080302657103,-0.03960770336059665,1.187515958691224
1589550561.529489,-1.3697132128863736,-3.22,8.966205920766217,0.5775416606201326,0.12573368645092634,-0.774112731582257,-0.0014605948739293264,-0.04031663320185761,1.14972282262191
1589550561.539489,-1.4174044220956887,-3.2165392294609187,8.889517118982475,0.5911111111111111,0.06666666666666668,-0.8044444444444444,0.008066001128813918,-0.021197674246831038,1.1198332650839824
1589550561.549489,-1.374301099751816,-3.1329032992554477,8.793763746897698,0.5911111111111111,0.06666666666666668,-0.8044444444444444,-0.0006216535817095972,-0.022754970051502836,1.0467518701118483
1589550561.559489,-1.389824211799872,-3.081722297345385,8.634815315635898,0.5911111111111111,0.06666666666666668,-0.8044444444444444,-0.005642027408578033,-0.02416697519302784,0.9897803830763688
1589550561.569489,-1.4928738100871843,-3.1391763892175244,8.832470832347427,0.5911111111111111,0.06666666666666668,-0.8044444444444444,-0.01161046524152027,-0.034204427623330876,0.9363673686950132
1589550561.579489,-1.5879002052334532,-3.1961446040704633,8.702822815118864,0.5899407103357848,0.06110726298386638,-0.8020061094958478,-0.01617095535840928,-0.028877911990291636,0.8960095147893061
1589550561.589489,-1.7052385372645773,-3.2851703837604123,8.995374844272908,0.5777777777777777,0.0033333333333333327,-0.7766666666666666,-0.018024728290288863,-0.03059530266809545,0.8376390906528332
1589550561.599489,-1.6378797219159897,-3.13979953652665,8.855485184601886,0.5777777777777777,0.0033333333333333327,-0.7766666666666666,-0.016512046942732145,-0.02491765561938352,0.8112869816351
1589550561.609489,-1.5420433586118523,-2.9840867172237044,8.826635926307166,0.5777777777777777,0.0033333333333333327,-0.7766666666666666,-0.01090830782496456,-0.009594581195119344,0.7938782653558238
1589550561.619489,-1.5628876293529135,-3.0084494825883463,9.009146378118425,0.5777777777777777,0.0033333333333333327,-0.7766666666666666,-0.01090830782496456,-0.002910942997577815,0.7682660451089266
1589550561.629489,-1.5975084777498076,-3.005674579233154,8.876020346599539,0.5779815442796281,-0.006039925751786282,-0.7744252351463119,-0.012708733483511094,0.0021250855119676823,0.7275275558721108
1589550561.639489,-1.7382395119863014,-3.1286397688356167,9.153680436643835,0.5788888888888889,-0.04777777777777778,-0.7644444444444445,-0.019992766194134797,-0.02433869486921994,0.6972939651711056
1589550561.649489,-1.8511369366530097,-3.1445965962811218,8.797249448471478,0.5788888888888889,-0.04777777777777778,-0.7644444444444445,-0.009522767087127704,0.005412813729187229,0.6886916140771941
1589550561.659489,-1.7530066068435066,-3.0202251585971136,8.456688689478355,0.5788888888888889,-0.04777777777777778,-0.7644444444444445,-0.010547099880223103,-0.005798007812628254,0.6835983697028342
1589550561.669489,-1.8317837078651686,-3.030360486891386,8.664288389513109,0.5788888888888889,-0.04777777777777778,-0.7644444444444445,-0.019910215223403242,-0.015277759217773398,0.6846112209444576
1589550561.679489,-1.8477486151901559,-2.963977843042492,8.495911372169969,0.5701335035172724,-0.05703347088491518,-0.7734499836838213,0.0025357283913424625,0.03201074744937061,0.705196491766923
1589550561.689489,-1.8407447386532403,-2.841396384974825,8.013032926431702,0.54,-0.08888888888888889,-0.8044444444444444,-0.0004975851068199321,0.0023484057205380654,0.7146363297085557
1589550561.6994889,-1.8967726018675721,-2.94096438172043,9.263216433220148,0.54,-0.08888888888888889,-0.8044444444444444,-0.04303431998048566,-0.08079081233159632,0.7497539981844719
1589550561.7094889,-1.8300127334465195,-2.80002688172043,8.870074985851726,0.54,-0.08888888888888889,-0.8044444444444444,-0.013095679737856789,-0.03709658062613796,0.8072038213527598
1589550561.7194889,-2.1556872501835387,-3.0334835630965005,9.046967126193001,0.54,-0.08888888888888889,-0.8044444444444444,-0.019854695223477277,-0.05366012756466139,0.9031095627569996
1589550561.7294888,-2.1436908971840207,-2.9705363457760314,8.859463654223969,0.5339151568071019,-0.10942523466492032,-0.778583860874627,-0.0009445651618571957,-0.02643628758561164,0.989485137719577
1589550561.7394888,-2.033243299614141,-2.827657732818855,8.75162164980707,0.5222222222222223,-0.14888888888888888,-0.7288888888888889,0.0018612947228126512,-0.028489351202009065,1.0832892956126658
1589550561.7494888,-1.8906335571867354,-2.614126711437347,8.632859597063876,0.5222222222222223,-0.14888888888888888,-0.7288888888888889,-0.015738594436884287,-0.05926722319099009,1.1526252190933204
1589550561.7594888,-2.0715980867660533,-2.758603965043249,8.887527547439708,0.5222222222222223,-0.14888888888888888,-0.7288888888888889,-0.025380851166845915,-0.09042794820724236,1.2281516299396202
1589550561.7694888,-2.2134924854309377,-2.8608894796033124,9.213714855331766,0.5222222222222223,-0.14888888888888888,-0.7288888888888889,-0.01366142598228053,-0.07811746932274104,1.2979395215954632
1589550561.7794888,-2.070552090788263,-2.6607729271035683,9.020745322564155,0.5222222222222223,-0.14888888888888888,-0.7288888888888889,0.009727141398482613,-0.03289957238659898,1.3665459859123683
1589550561.7894888,-2.0885522456338634,-2.646970210704771,8.624746104787278,0.5311111111111111,-0.16111111111111112,-0.6711111111111111,0.03279496255476334,-0.02816293123654328,1.4512086781488391
1589550561.7994888,-2.132542591970218,-2.619915462371707,8.866779814379154,0.5311111111111111,-0.16111111111111112,-0.6711111111111111,-0.006313880063181252,-0.07968611787401013,1.5114570611540954
1589550561.8094888,-2.2865942918897675,-2.723731394606278,8.854599891929066,0.5311111111111111,-0.16111111111111112,-0.6711111111111111,-0.00045440119052757993,-0.07535022005849912,1.5951941876982343
1589550561.8194888,-2.364138944472236,-2.674433883608471,8.632216941804234,0.5311111111111111,-0.16111111111111112,-0.6711111111111111,0.005701168787024584,-0.07565446705823776,1.671206736445852
1589550561.8294888,-2.519174848992842,-2.759818259226737,8.891664937069264,0.529836826528772,-0.15499454511588304,-0.6667785435311578,-0.02004535445836207,-0.11476761251179059,1.7240741176955248
1589550561.8394887,-2.495392193761208,-2.8025180986960083,9.566532577652815,0.5255555555555556,-0.13444444444444445,-0.6522222222222223,0.002186708912367035,-0.08985509975298078,1.8131290376215639
1589550561.8494887,-2.3616715497301466,-2.6382698535080955,9.159560524286816,0.5255555555555556,-0.13444444444444445,-0.6522222222222223,0.0619726451092682,-0.004196965127844113,1.887876192751638
1589550561.8594887,-2.368857877152403,-2.544847597018761,8.512791056283731,0.5255555555555556,-0.13444444444444445,-0.6522222222222223,0.02826465629849633,-0.02693025990720189,1.9051221405152887
1589550561.8694887,-1.8650076081326081,-2.166579254079254,8.726317016317017,0.5255555555555556,-0.13444444444444445,-0.6522222222222223,-0.054509613748386095,-0.17260002729773663,1.9277013580254532
1589550561.8794887,-2.1026411551411552,-2.411002331002331,9.704009324009323,0.5255555555555556,-0.13444444444444445,-0.6522222222222223,-0.03080968341414685,-0.1548250795470572,1.9521419111826372
1589550561.8894887,-2.273449772065689,-2.2659301367605864,8.91110479485912,0.5333333333333333,-0.13444444444444445,-0.6433333333333333,0.013240020781991437,-0.09570777455960358,1.982874565246439
1589550561.8994887,-2.328161577184929,-2.2137604506242656,9.104790987514692,0.5333333333333333,-0.13444444444444445,-0.6433333333333333,-0.0032117253343025964,-0.11475601276215222,1.98374110492805
1589550561.9094887,-2.2991438304694154,-2.167182004909574,9.144804368518612,0.5333333333333333,-0.13444444444444445,-0.6433333333333333,0.024444424327206032,-0.076900373251979,1.9913718976288584
1589550561.9194887,-2.3364181245626314,-2.0822636459062283,8.644500524842547,0.5333333333333333,-0.13444444444444445,-0.6433333333333333,0.05199386909976165,-0.050131708741216544,1.9908097654861794
1589550561.9294887,-2.2923911826452064,-2.089601469559132,9.048080825752274,0.5333333333333333,-0.13444444444444445,-0.6433333333333333,-0.012841154628897483,-0.12777365073726515,1.955590740250858
1589550561.9394886,-2.5049336662260733,-2.1405306701914135,9.342653350957066,0.5433333333333333,-0.17333333333333334,-0.6644444444444444,0.0017389104014506346,-0.1156484088851996,1.9299487439857286
1589550561.9494886,-2.477790293317206,-1.9883427199879045,8.640807189295433,0.5433333333333333,-0.17333333333333334,-0.6644444444444444,0.03115200947842124,-0.06796528063393316,1.9245545926238123
1589550561.9594886,-2.32176069558344,-1.8707173204228833,8.276390672858414,0.5433333333333333,-0.17333333333333334,-0.6644444444444444,-0.0034289873871282232,-0.13862087030776202,1.9011900124952545
1589550561.9694886,-2.5631980388506173,-1.9385787873145908,9.167157574629181,0.5433333333333333,-0.17333333333333334,-0.6644444444444444,-0.013981494901947533,-0.1300968538170559,1.885935667697735
1589550561.9794886,-2.5174422454120187,-1.8074177761784815,8.84157106872976,0.5414683939066811,-0.1767762984286914,-0.6628664187757386,0.025017354176964962,-0.06932423923318175,1.8996997461726912
1589550561.9894886,-2.7817723456561065,-1.7860758847812979,8.482026995686256,0.5288888888888889,-0.2,-0.6522222222222223,0.006963779926052681,-0.11274223643691592,1.9042131397354198
1589550561.9994886,-2.8474663148439254,-1.7792183172393143,9.13326147166704,0.5288888888888889,-0.2,-0.6522222222222223,-0.008444384915006108,-0.12461345387425955,1.9126909181224039
1589550562.0094886,-2.7297282730743317,-1.9597499812860244,8.882086982558574,0.5288888888888889,-0.2,-0.6522222222222223,0.024948007945606688,-0.07580918738567163,1.947795741386125
1589550562.0194886,-1.88711008689082,-1.0713650170003777,8.43981231582924,0.5288888888888889,-0.2,-0.6522222222222223,-0.010125893271263097,-0.128403549982206,1.9465282465457456
1589550562.0294886,-2.0962704948998865,-1.4770094446543258,9.637731016244805,0.5288888888888889,-0.2,-0.6522222222222223,-0.030867585229063865,-0.14637968301230003,1.8276092126543546
1589550562.0394886,-2.46989006191459,-1.2737700428639467,8.491145221463725,0.5277777777777778,-0.2344444444444445,-0.6644444444444444,0.05757567741321413,-0.01323288224965825,1.802797495823373
1589550562.0494885,-2.6862970312748056,-1.423590252421019,9.265216304175265,0.5277777777777778,-0.2344444444444445,-0.6644444444444444,0.031245530766976296,-0.0622614311771356,1.8227720898308637
1589550562.0594885,-2.458023968343697,-1.2418148106274731,8.62391498021481,0.5277777777777778,-0.2344444444444445,-0.6644444444444444,-0.024416307742943507,-0.11095269684732675,1.750704032397302
1589550562.0694885,-2.3654781832858904,-1.3152181671410972,9.956090835705485,0.5277777777777778,-0.2344444444444445,-0.6644444444444444,-0.07894797994179462,-0.19305846401176008,1.650768631924894
1589550562.0794885,-2.3976979783087273,-1.0665009189505787,8.742596691777917,0.5247452408682792,-0.23755473871059682,-0.665455290080944,0.0149763247564049,-0.06731610986226035,1.5877494009294346
1589550562.0894885,-2.490880172883889,-1.0241453759618686,8.895076646537273,0.4880371036113973,-0.2752041102561168,-0.6776913358332379,0.05101445423552564,-0.02388554356690971,1.5156731419711933
1589550562.0994885,-2.2889673079776447,-1.003447252584203,8.957585439438153,0.4844444444444445,-0.2788888888888889,-0.6788888888888889,0.006394246220954546,-0.05743799454892325,1.3441648885801614
1589550562.1094885,-2.4685128990571004,-0.9352749724788206,8.82967453213995,0.4844444444444445,-0.2788888888888889,-0.6788888888888889,-0.004980971536482406,-0.0579162593319842,1.1927291948781393
1589550562.1194885,-2.679958146427427,-0.9179916292854855,8.678452018583787,0.4844444444444445,-0.2788888888888889,-0.6788888888888889,0.006074867559643381,-0.04826128885496971,1.0634413095042128
1589550562.1294885,-2.6289452176149517,-0.9094181693481553,9.118145629125825,0.48289289603952545,-0.2825738163505717,-0.6788888888888889,-0.026751149686623857,-0.09183206621287378,0.9437033558235687
1589550562.1394885,-2.5787469404811656,-0.917881519511273,9.266093367560146,0.4577777777777778,-0.3422222222222222,-0.6788888888888889,-0.028195131054100025,-0.06984175790817243,0.8282362753698466
1589550562.1494884,-3.1653156570261496,-0.9982741894306868,9.330754586235821,0.4577777777777778,-0.3422222222222222,-0.6788888888888889,0.007958541299263414,-0.03412666430389839,0.7740864482952484
1589550562.1594884,-2.8746715781027756,-0.8911947919326014,8.757114956781793,0.4577777777777778,-0.3422222222222222,-0.6788888888888889,0.02798234180704948,0.014264186923251265,0.7490566976605159
1589550562.1694884,-2.54,-0.7741006475821582,8.333560037523451,0.4577777777777778,-0.3422222222222222,-0.6788888888888889,-0.010394234920794356,-0.04604633872914558,0.669456312477928
1589550562.1794884,-2.54,-0.8121775706590812,8.923752345215759,0.4577777777777778,-0.3422222222222222,-0.6788888888888889,-0.03600778079441306,-0.07858246456860718,0.6057685767921733
1589550562.1894884,-2.4771963406052078,-0.7828972554539056,8.94093490499648,0.4202700367503323,-0.4189822503714129,-0.6954620767847368,-0.012886119907697134,-0.033866802988590704,0.5143013047289926
1589550562.1994884,-2.4891161713624084,-0.7336047857969896,9.001022771130838,0.41,-0.44,-0.7,0.0014916300510941505,-0.017453292519943295,0.4275450416391589
1589550562.2094884,-2.7394715319282796,-0.9095816294432212,10.107665932683233,0.41,-0.44,-0.7,0.03701378599468707,0.06635572718438648,0.29911341818977366
1589550562.2194884,-2.3632457718603814,-0.6085966174883052,8.217856543121027,0.41,-0.44,-0.7,0.05535380702667454,0.09119918430170712,0.17833493562018166
1589550562.2294884,-2.539589370167405,-1.0052777569251559,10.75175099467007,0.4078555997631142,-0.4463191368682698,-0.697399344393564,-0.10392928972341037,-0.1608856666502322,-0.08730863494811267
1589550562.2394884,-2.5238461827190153,-0.8242311012686736,8.901926469484273,0.32564117642152324,-0.68858929926849,-0.5976924905537623,-0.031802045093485734,-0.014055204367885654,-0.21438997072464652
1589550562.2494884,-2.4713091548231025,-0.9421705851224674,9.38996598125189,0.3055555555555556,-0.7477777777777778,-0.5733333333333334,-0.0067338473499237396,0.007923284188374999,-0.4209732085969633
1589550562.2594883,-2.5743593135772604,-0.8708281675234351,8.660687934684004,0.3055555555555556,-0.7477777777777778,-0.5733333333333334,0.011424737200182585,0.07018128836016813,-0.5792123025336041
1589550562.2694883,-2.205264017419706,-0.8521937942297224,8.669433859553621,0.3055555555555556,-0.7477777777777778,-0.5733333333333334,0.0002583077791975825,0.051020239973922424,-0.8911184900296321
1589550562.2794883,-2.509695155144257,-1.139712090969576,10.098568922760538,0.3055555555555556,-0.7477777777777778,-0.5733333333333334,-0.016345835029820326,0.04364062094769224,-1.118964227464489
1589550562.2894883,-2.62,-1.14,9.39,0.9066666666666666,-1.262222222222222,-0.12444444444444445,0.0,0.06654067773228381,-1.3711742935980449
1589550562.2994883,-2.6034533103518203,-1.1333813241407278,9.221223765588563,0.9066666666666666,-1.262222222222222,-0.12444444444444445,0.004452244142773733,0.07809244631893998,-1.4213522883963328
1589550562.3094883,-2.5207511530349738,-1.160884650149489,8.202570282986072,0.9066666666666666,-1.262222222222222,-0.12444444444444445,0.030326572206403953,0.15119209936001374,-1.8627273393843187
1589550562.3194883,-2.8037209365199525,-1.591524548502217,9.927002541364766,0.9066666666666666,-1.262222222222222,-0.12444444444444445,-0.02498622697695945,0.04588817918729366,-2.0736044952574613
1589550562.3294883,-2.9057775494755056,-1.6028641721639452,9.235285497999351,0.9066666666666666,-1.262222222222222,-0.12444444444444445,-0.04044824016713222,0.05454690657379042,-2.1948266786684156
1589550562.3394883,-2.700097798475868,-1.5968340389500424,8.707838272650296,0.7669611910810048,-0.7787388747765547,-0.5128402954181955,-0.017864085907339823,0.10595356693952325,-2.3687701711998352
1589550562.3494883,-2.6807532121267843,-1.809246787873216,9.370614383892248,0.6944444444444444,-0.5277777777777778,-0.7144444444444444,-0.00808411240420047,0.10394280740347615,-2.586472235618804
1589550562.3594882,-2.5807219857371884,-1.898032505942838,8.62427202535611,0.6944444444444444,-0.5277777777777778,-0.7144444444444444,-0.013109005208245273,0.1326927996382707,-2.7380601007624987
1589550562.3694882,-2.3024777489081765,-2.0139676046215933,9.118928446385464,0.6944444444444444,-0.5277777777777778,-0.7144444444444444,-0.02912797796691497,0.09559623114450928,-2.849349806243783
1589550562.3794882,-2.106456354528782,-2.0667087290942434,8.945106889661401,0.6944444444444444,-0.5277777777777778,-0.7144444444444444,-0.021071041931949856,0.12611273440952922,-2.984079829740883
1589550562.3894882,-1.949811529933481,-2.165918426887618,9.057566810596335,0.614922329845308,-0.36627410173623265,-0.730020941118502,-0.01963495408493621,0.1421676232627062,-3.0957949461789784
1589550562.3994882,-1.999286323468036,-2.469991471447495,9.027867498956612,0.5866666666666667,-0.3088888888888889,-0.7355555555555555,0.005609853978444593,0.148974856362607,-3.3227372496680627
1589550562.4094882,-1.9916754069208296,-2.5765443031083852,8.898481917654102,0.5866666666666667,-0.3088888888888889,-0.7355555555555555,0.00727029838898548,0.16723974487855675,-3.463044802358768
1589550562.4194882,-1.8916475014196479,-2.687183773424191,8.723313813174332,0.5866666666666667,-0.3088888888888889,-0.7355555555555555,-0.019340295045839794,0.1656641952877094,-3.6734081228974156
1589550562.4294882,-1.9065335746734808,-2.9328039821124365,9.385744072969903,0.5866666666666667,-0.3088888888888889,-0.7355555555555555,-0.036390391328406976,0.13481164010973068,-3.7870754314478634
1589550562.4394882,-2.2474793620427937,-3.2683913830030566,8.937238776486245,0.6133333333333333,-0.17,-0.7644444444444445,-0.0033484791874669752,0.1870702320950458,-3.9212589595279392
1589550562.4494882,-2.00327483312886,-3.250948202366347,9.015733089351437,0.6133333333333333,-0.17,-0.7644444444444445,0.01948459087233574,0.21656294758895767,-3.977390256758288
1589550562.4594882,-1.7289274584072494,-3.051159323009062,8.283329577599845,0.6133333333333333,-0.17,-0.7644444444444445,-0.012235876658809257,0.18244580238617963,-4.0295154693226
1589550562.4694881,-2.314104863746119,-3.778209727492239,9.248734046222834,0.6133333333333333,-0.17,-0.7644444444444445,-0.0373074078084304,0.13872598981264278,-4.052707904478543
1589550562.4794881,-2.2417644015177647,-3.6335288030355293,8.742350810624353,0.6133333333333333,-0.17,-0.7644444444444445,0.01354647858140582,0.20799249024017835,-4.015882676403144
1589550562.4894881,-2.45,-3.71,8.79,0.6411111111111111,-0.08666666666666667,-0.7555555555555555,0.0,0.2083486794568231,-3.9717148790695957
1589550562.499488,-2.0785006146647103,-3.9824328825792126,8.476289407939088,0.6411111111111111,-0.08666666666666667,-0.7555555555555555,-0.01620971860808986,0.18133248177667333,-3.88166088680243
1589550562.509488,-1.8508901355309537,-3.751099637591223,8.866648959936455,0.6411111111111111,-0.08666666666666667,-0.7555555555555555,-0.010485687389746255,0.12276132618749855,-3.7325088967105824
1589550562.519488,-2.266682599025129,-3.8784113387913495,9.298855473001751,0.6411111111111111,-0.08666666666666667,-0.7555555555555555,-0.02195935130435166,0.1087823267405441,-3.605634009462196
1589550562.529488,-2.428331903095914,-4.026887363302308,8.816672387616345,0.6411111111111111,-0.08666666666666667,-0.7555555555555555,-0.00890860740508806,0.16492085951165503,-3.415417438470583
1589550562.539488,-2.101461233897801,-3.9842379686599627,8.848371656412068,0.6469566250080033,-0.02163532456374065,-0.7562862447926672,-0.004392927251822448,0.1659246954268078,-3.2263130197739898
1589550562.549488,-2.8549018361020586,-4.9316469279071615,8.73236865114061,0.65,0.012222222222222223,-0.7566666666666667,-0.0063319514517871135,0.11759070864787444,-2.93981037486827
1589550562.559488,-25.587112150755736,-26.223221062618595,16.76359418962246,0.65,0.012222222222222223,-0.7566666666666667,0.058182721284978874,0.3569065312204137,-2.653751793539673
1589550562.569488,-5.704207407407409,-4.922768202348685,6.972376513098466,0.65,0.012222222222222223,-0.7566666666666667,-0.41441037847418777,0.9199385321319307,-2.609821259463366
1589550562.579488,-0.10488019716124342,0.723630140112272,4.287194559810141,0.65,0.012222222222222223,-0.7566666666666667,-0.9494540151399502,0.12140656364857971,-2.589605493521673
1589550562.589488,3.7639380110287126,-0.8885529568359003,19.134732838942767,0.62,0.11888888888888888,-0.7211111111111111,-0.12069869411193912,-1.0730147094025277,-1.862427520032381
1589550562.599488,3.2056550675033275,0.21351207453888565,12.16707168663244,0.62,0.11888888888888888,-0.7211111111111111,0.9857689889739939,-0.7147374682031513,-1.9873895600092055
1589550562.609488,0.37955840131249147,-0.3862753497698583,2.8481461058196236,0.62,0.11888888888888888,-0.7211111111111111,0.6626356803758072,1.297198139815596,-1.773486138254458
1589550562.619488,0.25849974935059017,-2.106582509228456,10.564042291391331,0.62,0.11888888888888888,-0.7211111111111111,-0.09702522975045924,0.1559692153624126,-1.4183290247370541
1589550562.629488,0.6406396101423895,-2.6120280971598264,13.19677073022158,0.62,0.11888888888888888,-0.7211111111111111,-0.405112774211267,-0.4001657448965561,-1.026410509365631
1589550562.639488,1.1702208851239015,-1.7330167841026047,9.055132610244636,0.6206703964672455,0.14402875641059476,-0.7274798775499433,-0.1140857779688336,-0.11574901207857145,-0.5592174967028253
1589550562.649488,-0.1085213537469783,-2.0337389202256246,8.743477034649477,0.6222222222222222,0.20222222222222225,-0.7422222222222222,-0.026821750444985717,-0.014814627647671608,-0.2272216927816513
1589550562.659488,-0.4982981981623643,-2.1072513026530366,8.810942683266378,0.6222222222222222,0.20222222222222225,-0.7422222222222222,0.05564942159569764,0.013292658861356076,-0.08337156193215584
1589550562.669488,-0.8439413295481429,-2.287411876035013,8.823058907026258,0.6222222222222222,0.20222222222222225,-0.7422222222222222,0.04486092130283824,0.03172819953539471,0.03093044189192242
1589550562.679488,-0.7504331876913012,-2.4098556041028996,8.877481950512863,0.6222222222222222,0.20222222222222225,-0.7422222222222222,-0.018975342863856087,-0.00074527402301406,0.18267774746578724
1589550562.689488,-0.7706420451605113,-2.569779544944886,8.992898863224717,0.6228195707048927,0.21357184339296087,-0.7350540404301767,-0.026696348018928118,-0.021464326851911165,0.31611457920730957
1589550562.699488,-0.9484064198154935,-2.7091305446733225,8.885940856817895,0.6233333333333333,0.22333333333333333,-0.7288888888888889,0.009580507736880916,-0.013153106063581051,0.47239341690658576
1589550562.709488,-0.9605066798614548,-2.835484413656606,8.682011875309252,0.6233333333333333,0.22333333333333333,-0.7288888888888889,0.03757758217509785,-0.007471624124662019,0.6088348140329509
1589550562.719488,-1.4034704901392112,-4.035075406032482,8.126529509860788,0.6233333333333333,0.22333333333333333,-0.7288888888888889,0.002860425324809089,-0.0839307760965416,0.5535536358546046
1589550562.729488,-0.08960597596865805,-1.8772907567435846,9.652504545710162,0.6233333333333333,0.22333333333333333,-0.7288888888888889,-0.08583239441839749,-0.12284222356679633,-0.15179321237731003
1589550562.739488,0.41207663339111733,-0.039497280172156146,9.074144300316814,0.6180700181321855,0.20637376212963518,-0.7212863224872311,0.06700579196335246,0.1132805825811444,-0.6675316444822147
1589550562.7494879,-0.8110904430279247,-1.7859152054079805,8.648671596760657,0.6133333333333333,0.19111111111111112,-0.7144444444444444,0.08848331931455089,0.1379907992163282,-0.46787955098402767
1589550562.7594879,-0.9987586282458639,-5.702048866001972,8.916364632409335,0.6133333333333333,0.19111111111111112,-0.7144444444444444,-0.10620714298951495,-0.08316105694848898,0.007999027348627452
1589550562.7694879,-2.5688671773227036,-7.411051534573497,8.385212860194883,0.6133333333333333,0.19111111111111112,-0.7144444444444444,0.0073511001739722664,-0.00914181107865511,0.13773627162848637
1589550562.7794878,-1.4798995885720865,-4.21078084990074,8.469733866559254,0.6133333333333333,0.19111111111111112,-0.7144444444444444,0.0188140927011518,-0.005318039371420419,0.012969672632777374
1589550562.7894878,-1.137021376098521,-3.3492624564001634,8.414899549874315,0.6087755455527625,0.1995755741321711,-0.7229089074655044,-0.005078902511749755,-0.010838460985562324,-0.07372489066869392
1589550562.7994878,-1.345871040723982,-3.905871040723982,8.592936495553129,0.6055555555555555,0.20555555555555555,-0.7288888888888889,-0.008556528399602605,0.022016816883805145,-0.016052096636513427
1589550562.8094878,-1.0473446997402205,-3.9619947539660525,9.295304042977124,0.6055555555555555,0.20555555555555555,-0.7288888888888889,-0.014907782255146718,-0.03992125924494627,-0.005235844692600079
1589550562.8194878,-1.1605672847438957,-3.843512942904351,9.066624747567468,0.6055555555555555,0.20555555555555555,-0.7288888888888889,0.0034218883019124166,-0.01490344802974022,-0.00278365116150188
1589550562.8294878,-1.3180911841839824,-3.751168045188622,8.75205124066976,0.6055555555555555,0.20555555555555555,-0.7288888888888889,0.027062550057388574,0.024880888492395656,0.0020853198832142257
1589550562.8394878,-1.2547735753665408,-3.8852264246334594,8.868018874738185,0.6151656220825876,0.20835849162593992,-0.7208805001163622,0.004038124931279762,0.008539348064609325,0.00012760543063173278
1589550562.8494878,-1.2544027291433522,-3.93,8.844496588570811,0.6322222222222222,0.21333333333333332,-0.7066666666666667,-0.017343465183299038,-0.00643003812069957,-0.0018214641292506979
1589550562.8594878,-1.2828774469722477,-3.8516519166947236,8.821367659083258,0.6322222222222222,0.21333333333333332,-0.7066666666666667,0.016449634809695305,0.0051247692916120595,-0.00046306923603067285
1589550562.8694878,-1.2553480531228156,-3.844651946877184,8.873140907035072,0.6322222222222222,0.21333333333333332,-0.7066666666666667,0.016095775341627427,0.0009130398519501806,-0.001090830782496456
1589550562.8794878,-1.2569678195269507,-3.8387902255913118,8.874548270709575,0.6322222222222222,0.21333333333333332,-0.7066666666666667,0.007041124064691764,0.002280213608063312,-0.00016537978990434257
1589550562.8894877,-1.309181477451336,-3.793324870027808,8.773299480111232,0.6294430338935235,0.21333333333333332,-0.7159306277623289,0.0019082614668046456,0.01072696429625792,0.0015455744093913636
1589550562.8994877,-1.2905439068962201,-3.8955184187746466,8.772487255939213,0.6255555555555555,0.21333333333333332,-0.7288888888888889,-0.015133191865068295,-0.005295937809759888,-0.0007008511712105728
1589550562.9094877,-1.2672622651356993,-3.8728528183716073,8.754639613778705,0.6255555555555555,0.21333333333333332,-0.7288888888888889,-0.00706364171108222,-0.004674517339647912,-0.0005972810928585762
1589550562.9194877,-1.2807775074529693,-3.813056231367577,8.773110029811876,0.6255555555555555,0.21333333333333332,-0.7288888888888889,0.008902140572544752,0.001848278439574487,0.0011756436888283772
1589550562.9294877,-1.278112476270829,-3.8137750474583423,8.84170006327779,0.6255555555555555,0.21333333333333332,-0.7288888888888889,0.012266381795368552,0.0034988380092233666,0.0017494190046116833
1589550562.9394877,-1.26,-3.8586308633582598,8.872738273283481,0.6231580935115946,0.21908724223883977,-0.7317658433416421,-0.0031685260145824998,-0.0006427818642202095,0.001090830782496456
1589550562.9494877,-1.3042989075346323,-3.87,8.736088523482374,0.62,0.22666666666666666,-0.7355555555555555,-0.008257708192983363,0.003230230179544916,-0.0002898152737818606
1589550562.9594877,-1.2876818540656367,-3.851863651742416,8.712318145934363,0.62,0.22666666666666666,-0.7355555555555555,-0.0021568727522407933,0.000381796924943922,0.00022808168160013873
1589550562.9694877,-1.2659458998208037,-3.8162164007167845,8.775675398924824,0.62,0.22666666666666666,-0.7355555555555555,0.0032429852770864856,-0.006309114296237716,-0.0021521544945900294
1589550562.9794877,-1.2599276126732386,-3.8,8.850361936633808,0.62,0.22666666666666666,-0.7355555555555555,0.00600351741994521,-0.004888997940160537,-0.0021658691001341
1589550562.9894876,-1.2632201401630223,-3.8308469937137186,8.864746292898607,0.6170621910748839,0.21834287471217118,-0.7419208082266403,0.0002959124981903793,-0.002181661564992912,-0.00048069786129141203
1589550562.9994876,-1.2741414268148854,-3.8875757195553438,8.761414268148854,0.6133333333333333,0.20777777777777776,-0.75,-0.010192100266207696,-0.001542590367809786,-0.001729901979679582
1589550563.0094876,-1.256856286651683,-3.9,8.746287426696634,0.6133333333333333,0.20777777777777776,-0.75,-0.0076978684724649145,-0.002524587494161823,-0.0014647832091602285
1589550563.0194876,-1.263951100839314,-3.844195596642744,8.794877752098285,0.6133333333333333,0.20777777777777776,-0.75,0.0036768202346592017,-0.0017506633229657875,0.0011919127542889144
1589550563.0294876,-1.2897601542726287,-3.7962878148728456,8.802095938290948,0.6133333333333333,0.20777777777777776,-0.75,0.01151571269601839,0.002789066436046742,0.0013194621830944235
1589550563.0394876,-1.3178446024667552,-3.7625864770398936,8.790862159013297,0.6133333333333333,0.20777777777777776,-0.75,0.017030081203942803,0.008303434943971155,9.404695911122054e-05
1589550563.0494876,-1.267142555438226,-3.876428722280887,8.847858500527984,0.6055555555555555,0.21333333333333332,-0.7144444444444444,-0.004908623333189439,0.000701264815611238,0.0
1589550563.0594876,-1.2848932019240473,-3.8602135961519055,8.731281576911433,0.6055555555555555,0.21333333333333332,-0.7144444444444444,-0.004479821758746504,0.00160129658511648,0.00053376552837216
1589550563.0694876,-1.2801479954349666,-3.830295990869933,8.758668041085299,0.6055555555555555,0.21333333333333332,-0.7144444444444444,0.005389578722030036,0.0021978053626059727,0.0016281742749381534
1589550563.0794876,-1.2663348543169595,-3.799004562950878,8.85,0.6055555555555555,0.21333333333333332,-0.7144444444444444,0.011016893162486512,0.001090830782496456,0.0005824400716350345
1589550563.0894876,-1.26,-3.795828857195777,8.871105142927703,0.613176857168337,0.2168508571546171,-0.7244107619380817,0.009061094964415518,0.001666384271859592,0.00012055239245963197
1589550563.0994875,-1.273525753306425,-3.8438143832660625,8.849422740080724,0.62,0.22,-0.7333333333333333,-0.001185284715913443,0.0014439461618378315,0.002181661564992912
1589550563.1094875,-1.28,-3.8651777289013447,8.77304498208521,0.62,0.22,-0.7333333333333333,-0.006057730950688263,0.0027852386031988956,0.002746464171893725
1589550563.1194875,-1.2698395648282035,-3.859839564828204,8.765721958273085,0.62,0.22,-0.7333333333333333,-0.00486498661523638,0.0010383284952992498,0.002164160802593843
1589550563.1294875,-1.2651335697180093,-3.8294657211279635,8.830534278872037,0.62,0.22,-0.7333333333333333,0.0017382375457543268,-0.003301632739492123,0.001090830782496456
1589550563.1394875,-1.264849536658044,-3.799699073316088,8.860300926683912,0.622861368523309,0.2137049892487202,-0.7270383225820536,0.004330497120977204,-0.003239666338480748,0.001652659178248994
1589550563.1494875,-1.26,-3.8264380679529078,8.839634943372577,0.6255555555555555,0.20777777777777776,-0.7211111111111111,-0.0033521353487988145,-0.00019427325610645724,0.00019427325610645724
1589550563.1594875,-1.2661900291767094,-3.868570087530128,8.727149562349359,0.6255555555555555,0.20777777777777776,-0.7211111111111111,-0.00831104291452577,-0.0002596240916046999,0.0002596240916046999
1589550563.1694875,-1.2869690985862237,-3.8573745352183684,8.715250929563263,0.6255555555555555,0.20777777777777776,-0.7211111111111111,-0.003790535569553048,-0.001707844618798781,-0.0013772245627128438
1589550563.1794875,-1.293858017560074,-3.827716035120148,8.783780903419593,0.6255555555555555,0.20777777777777776,-0.7211111111111111,0.0016749658777560096,-0.002181661564992912,-0.002602505996386964
1589550563.1894875,-1.281744165896488,-3.803488331792976,8.850407087569316,0.6255555555555555,0.20777777777777776,-0.7211111111111111,0.004978506450064874,-0.002181661564992912,-0.001281089767463418
1589550563.1994874,-1.2731582867783986,-3.8336834264432027,8.872895716945997,0.6133333333333333,0.22666666666666666,-0.7288888888888889,0.005339586210186564,0.0003731575693567951,0.001090830782496456
1589550563.2094874,-1.2695720382973814,-3.8743580574460723,8.787353789364403,0.6133333333333333,0.22666666666666666,-0.7288888888888889,-0.0053607871526931035,4.668337989458828e-05,0.001090830782496456
1589550563.2194874,-1.2731781551429227,-3.8865890775714615,8.753876456999771,0.6133333333333333,0.22666666666666666,-0.7288888888888889,-0.006147519804772168,2.5390972030812095e-05,0.001462904700672212
1589550563.2294874,-1.2613922856969033,-3.873038571515483,8.806961428484517,0.6133333333333333,0.22666666666666666,-0.7288888888888889,-0.0022093686801411914,0.0017260371361294078,0.0018779119457505758
1589550563.2394874,-1.2726488857830578,-3.8220533426508267,8.86059554313223,0.6150992571887051,0.22490074281129485,-0.7230024760376496,0.0032075286693952006,-0.0005129335522011443,0.0002889486151476558
1589550563.2494874,-1.2769289349670123,-3.8076776625824693,8.874644674835062,0.62,0.22,-0.7066666666666667,0.0,0.001090830782496456,0.001090830782496456
1589550563.2594874,-1.2703598384181993,-3.8655397576272987,8.743380727118103,0.62,0.22,-0.7066666666666667,-0.0016951245972391643,0.0016558723149095109,0.001090830782496456
1589550563.2694874,-1.2908524799416485,-3.8691475200583514,8.705426239970825,0.62,0.22,-0.7066666666666667,0.0008708843678820397,-0.0013698041910397236,0.0004989198231576834
1589550563.2794874,-1.2781072372107918,-3.8512428948843165,8.7625426306941,0.62,0.22,-0.7066666666666667,0.0048409491212730495,-0.004363323129985824,0.00047762599128722615
1589550563.2894874,-1.25,-3.821647074406437,8.862117619788735,0.6169411790677395,0.22,-0.7189019503957085,0.004453157103166018,-0.0023613295113533005,0.001090830782496456
1589550563.2994874,-1.2734007934331524,-3.8140404760598914,8.876599206566848,0.6133333333333333,0.22,-0.7333333333333333,-0.001832768814855332,0.0,0.001601356898730926
1589550563.3094873,-1.2872693032015066,-3.838487131198996,8.799077212806026,0.6133333333333333,0.22,-0.7333333333333333,-0.007172914279127669,-0.000462901198347523,0.0007929579699503427
1589550563.3194873,-1.2814614251992429,-3.85,8.764384275597727,0.6133333333333333,0.22,-0.7333333333333333,-0.002794242069394362,0.0007845405302957312,0.00015941675936500198
1589550563.3294873,-1.283037392109868,-3.85,8.80740651972533,0.6133333333333333,0.22,-0.7333333333333333,0.0015190054026017787,0.0010424075130415777,0.00033132808119556664
1589550563.3394873,-1.2707028481524505,-3.85,8.838242879618873,0.6133333333333333,0.22,-0.7333333333333333,0.00420998544996309,-0.000975827522479406,-0.0010141619424850889
1589550563.3494873,-1.2724861190389705,-3.8475138809610296,8.877458357116911,0.62,0.22,-0.7211111111111111,0.0046466300713170865,-0.001910468047326962,-0.0008256939766631622
1589550563.3594873,-1.28,-3.8488641329085116,8.849769913518434,0.62,0.22,-0.7211111111111111,-0.0027023756219538395,-0.0017354487182794096,0.0026278744117064143
1589550563.3694873,-1.28,-3.87,8.74009798334467,0.62,0.22,-0.7211111111111111,-0.0056637694090985536,-0.0030521885260193227,0.0008705269610264105
1589550563.3794873,-1.28,-3.87,8.778650660882032,0.62,0.22,-0.7211111111111111,-0.002299413616665233,-0.002211099577910992,2.943801291807992e-05
1589550563.3894873,-1.27,-3.85,8.800663860899483,0.6105210125337921,0.22236974686655198,-0.7187413642445591,0.004751072054299737,-0.0007754978486278258,-0.001090830782496456
1589550563.3994873,-1.2738835059377143,-3.8422329881245716,8.823883505937715,0.5933333333333334,0.22666666666666666,-0.7144444444444444,0.003759654784135709,-0.0017580367829062693,-0.0006672060004098133
1589550563.4094872,-1.2831142737547092,-3.839342821264127,8.792628714943492,0.5933333333333334,0.22666666666666666,-0.7144444444444444,7.168707946921026e-05,0.00026802748820653824,-0.00033971456767574855
1589550563.4194872,-1.280501593548801,-3.86,8.728996812902398,0.5933333333333334,0.22666666666666666,-0.7144444444444444,-0.003735834686237515,0.0012002615191632308,-0.0005727730754149216
1589550563.4294872,-1.2734588693802071,-3.8530822612395856,8.777670955041657,0.5933333333333334,0.22666666666666666,-0.7144444444444444,-0.0016811127199178343,4.108157527287783e-05,0.00037730411925644453
1589550563.4394872,-1.273838032965536,-3.830757049448304,8.836161967034464,0.6077112564137493,0.22084703113411736,-0.7188947539693351,0.00545415391248228,0.0008373289006085723,0.00041866445030428617
1589550563.4494872,-1.26,-3.8203359938823302,8.86033599388233,0.64,0.20777777777777776,-0.7288888888888889,0.004326671883028169,-0.0010541795355388012,-0.001090830782496456
1589550563.4594872,-1.26,-3.8396896698863414,8.876896698863417,0.64,0.20777777777777776,-0.7288888888888889,0.0020124027446358065,0.001090830782496456,-0.0009892754902821926
1589550563.4694872,-1.270641518902643,-3.840641518902643,8.78,0.64,0.20777777777777776,-0.7288888888888889,-0.0028855558011053376,0.0022516404216485477,0.0017947250186088814
1589550563.4794872,-1.2874373973964717,-3.86,8.785125205207056,0.64,0.20777777777777776,-0.7288888888888889,-0.0010635152436991738,0.0032451768086920857,0.00025222104152615216
1589550563.4894872,-1.2759875238544724,-3.857993761927236,8.804012476145529,0.6384395926100725,0.210229846533378,-0.7288888888888889,0.002838201439029059,0.00021884662467871563,-0.0017439683156354807
1589550563.4994872,-1.26,-3.8464734356552537,8.82,0.6322222222222222,0.22,-0.7288888888888889,0.005197694916235376,0.0007061422881261001,0.0002564589962469039
1589550563.5094872,-1.269411310930042,-3.8247056554650207,8.787060411744854,0.6322222222222222,0.22,-0.7288888888888889,0.0012192628142623473,-0.0011550467983794015,0.0026949689482996674
1589550563.5194871,-1.28,-3.834318908870828,8.754318908870829,0.6322222222222222,0.22,-0.7288888888888889,-0.0029753102797350594,0.0009422397486193017,0.002801372473179717
1589550563.5294871,-1.2769751405226866,-3.84,8.772099437909255,0.6322222222222222,0.22,-0.7288888888888889,-0.004134309980250374,0.0008618176327610061,0.0015217395988769591
1589550563.5394871,-1.2680144355168188,-3.8360288710336374,8.809927822415906,0.6297954211872229,0.22,-0.729771361992525,-0.00022446483894214152,-0.0013152956214385974,0.0
1589550563.549487,-1.26,-3.8235877490544703,8.85358774905447,0.62,0.22,-0.7333333333333333,0.0028811296366404913,0.002181661564992912,-0.0007827254216977533
1589550563.559487,-1.2626600840459608,-3.827339915954039,8.833399159540392,0.62,0.22,-0.7333333333333333,0.002181661564992912,0.001311151096584385,-0.0018914914088567364
1589550563.569487,-1.27,-3.823930954587581,8.76,0.62,0.22,-0.7333333333333333,-0.00039114219624455894,-0.0006620301556235442,-0.0006620301556235442
1589550563.579487,-1.2762283477022858,-3.8424566954045716,8.775570869255715,0.62,0.22,-0.7333333333333333,-0.003683915790211376,0.00033970366988722383,0.0010191110096616715
1589550563.589487,-1.2854743365644368,-3.8677371682822184,8.812262831717781,0.6212571287321009,0.22,-0.7305676501227113,-0.001194314967646684,0.000597157483823342,0.002778819048816254
1589550563.599487,-1.2671617044611465,-3.854323408922293,8.828514886616562,0.6255555555555555,0.22,-0.7211111111111111,0.002181661564992912,-0.0014004407968568416,0.00016200073941529888
1589550563.609487,-1.2603969226799137,-3.840793845359827,8.848809231960258,0.6255555555555555,0.22,-0.7211111111111111,0.002181661564992912,-0.002138364017240843,-0.002051768921736705
1589550563.619487,-1.2626436168185111,-3.8226436168185107,8.780574467274043,0.6255555555555555,0.22,-0.7211111111111111,0.00022570920166930066,6.266465860641792e-05,0.00022570920166930066
1589550563.629487,-1.2708458428102098,-3.8316916856204197,8.81,0.6255555555555555,0.22,-0.7211111111111111,-0.002089394427539901,0.0029956909351303357,-0.0019971272900868903
1589550563.639487,-1.28,-3.8512003441546176,8.813601032463854,0.624888697691879,0.22,-0.7211111111111111,-0.0009598935471517824,0.00013093723534467354,0.00013093723534467354
1589550563.649487,-1.279996093902582,-3.8599804695129096,8.839988281707745,0.62,0.22,-0.7211111111111111,2.556534781836153e-06,0.0010895525151055378,0.001090830782496456
1589550563.659487,-1.2737234720830677,-3.8248938883322707,8.787659167501594,0.62,0.22,-0.7211111111111111,0.004514145711990525,-0.0013693259717976278,0.001090830782496456
1589550563.669487,-1.2741034631235775,-3.847051731561789,8.761793073752845,0.62,0.22,-0.7211111111111111,0.0001260121922573871,0.0,0.0017340431759891686
1589550563.679487,-1.2617067106660942,-3.841706710666094,8.793413421332188,0.62,0.22,-0.7211111111111111,-0.002554008071271001,0.0003723465062780887,0.002527799334933191
1589550563.689487,-1.27,-3.851709588149113,8.813419176298225,0.6209497711939516,0.22113972543274188,-0.7224407907826433,-0.003803861716452805,0.0012492258757712139,-0.0009043436446521164
1589550563.699487,-1.2763996116504854,-3.8568001941747574,8.84279922330097,0.6255555555555555,0.22666666666666666,-0.7288888888888889,0.0010034372328152836,-0.003272492347489368,0.0
1589550563.709487,-1.2839049016730262,-3.8479683005576755,8.849683005576754,0.6255555555555555,0.22666666666666666,-0.7288888888888889,0.00545415391248228,-0.002829244288995651,0.00022162402924685845
1589550563.719487,-1.265587552164964,-3.837206223917518,8.78396888041241,0.6255555555555555,0.22666666666666666,-0.7288888888888889,0.0045398928274301585,-0.001090830782496456,0.0017003381725312038
1589550563.729487,-1.28,-3.8325819448238185,8.819139351725394,0.6255555555555555,0.22666666666666666,-0.7288888888888889,0.0018061329126557455,-0.0009030664563278727,0.0030847280213207847
1589550563.739487,-1.2788232590209148,-3.8588232590209146,8.811176740979086,0.6255555555555555,0.22627441967363823,-0.7284312673970225,-0.002181661564992912,0.0010266495183458946,0.001090830782496456
1589550563.749487,-1.2622142547443551,-3.842214254744355,8.821142981022579,0.6255555555555555,0.22,-0.7211111111111111,-0.0009739729472772109,0.0,0.001090830782496456
1589550563.759487,-1.2692087182736884,-3.8492087182736885,8.793165126905246,0.6255555555555555,0.22,-0.7211111111111111,0.0028409151151455665,0.0,0.001090830782496456
1589550563.769487,-1.2778847846889951,-3.83423043062201,8.776345645933015,0.6255555555555555,0.22,-0.7211111111111111,0.0008600965852112725,-0.001720193170422545,0.001090830782496456
1589550563.779487,-1.27,-3.849809155416656,8.800763378333377,0.6255555555555555,0.22,-0.7211111111111111,-6.245374385530597e-05,4.163582923687065e-05,0.001090830782496456
