time,acc_x,acc_y,acc_z,mag_x,mag_y,mag_z,gyr_x,gyr_y,gyr_z
1589550681.497482,-0.05,-4.13,8.79,0.4722222222222222,0.29444444444444445,-0.64,-0.004363323129985824,-0.00545415391248228,0.0
1589550681.507482,-0.05,-4.138373527650229,8.840241165901377,0.4722222222222222,0.29444444444444445,-0.64,-0.005276733301881388,-0.00545415391248228,-0.0018268203437911302
1589550681.517482,-0.057328952789885715,-4.147328952789886,8.857328952789885,0.4673362536956318,0.289558475917854,-0.618827469718108,-0.003855224451148156,-0.003055759720481094,0.00021673262700827372
1589550681.527482,-0.03824283643661501,-4.15,8.807071394061026,0.4655555555555556,0.2877777777777778,-0.6111111111111112,-0.0019899847545107605,-0.004171646319503673,-0.001090830782496456
1589550681.537482,-0.014860631062548778,-4.15,8.768101051770914,0.4655555555555556,0.2877777777777778,-0.6111111111111112,0.0005606181839577892,-0.0016210433810351227,-0.001090830782496456
1589550681.547482,-0.04926838637236652,-4.140182903406908,8.76981709659309,0.4655555555555556,0.2877777777777778,-0.6111111111111112,0.003232589014193543,-0.003232589014193543,0.0010509274492006306
1589550681.557482,-0.041488537826203375,-4.148511462173797,8.787022924347593,0.4655555555555556,0.2877777777777778,-0.6111111111111112,-0.0004413336298032559,-0.004200948841812524,0.001090830782496456
1589550681.567482,-0.05984621980848935,-4.15,8.879307989138203,0.47217096215838533,0.2800598034078097,-0.6265470598510473,-0.002173274156661011,-0.008693096626644045,0.002173274156661011
1589550681.577482,-0.06,-4.141747886180472,8.838739430902358,0.4722222222222222,0.28,-0.6266666666666667,-0.003981993519994093,-0.006926314304970467,-0.0005188363675088588
1589550681.587482,-0.052094155844155846,-4.1479058441558445,8.758847402597402,0.4722222222222222,0.28,-0.6266666666666667,-0.006950504580030178,-0.009132166145023091,-0.001090830782496456
1589550681.597482,0.10755993294216261,-4.2148776194467725,9.138533948030176,0.4722222222222222,0.28,-0.6266666666666667,-0.026844952382689184,-0.035092657180907566,-0.003112845193571613
1589550681.607482,0.038868208143596095,-4.179434104071798,9.01932667226668,0.4722222222222222,0.28,-0.6266666666666667,-0.025200848345048543,-0.03329534420504833,-0.0051689435474049535
1589550681.617482,-0.040961313012895656,-4.123798358733881,8.810433763188746,0.4722222222222222,0.2840758108636186,-0.6109456819069949,-0.013761348242021527,-0.010536172118391914,-0.0059733535580784826
1589550681.627482,-0.02289712344563219,-4.1,8.90551438277184,0.4722222222222222,0.2877777777777778,-0.5966666666666667,-0.01456056988203313,-0.01057701646162651,-0.009501449898949327
1589550681.637482,-0.004357936711609452,-4.146926189865171,8.849610715202243,0.4722222222222222,0.2877777777777778,-0.5966666666666667,-0.02039048419597063,-0.01797113405531797,-0.01067061924930481
1589550681.647482,0.0,-4.150790571547768,8.912884856070088,0.4722222222222222,0.2877777777777778,-0.5966666666666667,-0.0308579508903331,-0.02968088212982952,-0.016935864651900546
1589550681.657482,-0.11221363144902997,-4.013740590383321,8.67152695893429,0.4722222222222222,0.2877777777777778,-0.5966666666666667,-0.02551378852238151,-0.01830265356986934,-0.015704634185653092
1589550681.667482,-0.13334407735697018,-3.800290088638195,8.669903303787267,0.4722222222222222,0.29221505953979765,-0.6203321693974394,-0.05231416990415719,-0.04286147511369233,-0.022532116259882475
1589550681.677482,-0.17629736142066288,-3.1359127183837803,8.931486807103314,0.4722222222222222,0.29444444444444445,-0.6322222222222222,-0.10492264384166125,-0.086014701141709,-0.05345133575236731
1589550681.6874819,-0.32245316102217747,-2.856894827418255,8.820497126343474,0.4722222222222222,0.29444444444444445,-0.6322222222222222,-0.10728591886211772,-0.07634970709667856,-0.08459184271360805
1589550681.6974819,-0.2719268507121505,-2.5948116757517146,9.198256022507474,0.4722222222222222,0.29444444444444445,-0.6322222222222222,-0.09060236775830015,-0.05739484708826649,-0.12596922315965647
1589550681.7074819,-0.25229326186830014,-2.685319678407351,8.40312882848392,0.4722222222222222,0.29444444444444445,-0.6322222222222222,0.017282171573110253,0.05155825057399451,-0.024509760752771392
1589550681.7174819,-0.19668712986904663,-2.8042594044540827,8.779465343231294,0.4722222222222222,0.29444444444444445,-0.6266666666666667,0.03601750552434112,0.017938011171262973,0.20166026448029234
1589550681.7274818,-0.14770873300525483,-2.867231628993244,8.919403619984987,0.4722222222222222,0.29444444444444445,-0.6266666666666667,-0.01206692315437568,-0.023277213410494272,0.2963026320384015
1589550681.7374818,-0.1687637521713955,-2.967527504342791,8.834326867400115,0.4722222222222222,0.29444444444444445,-0.6266666666666667,0.003318206810652761,-0.017036730330564943,0.43306211032195957
1589550681.7474818,-0.2905309474919331,-3.0342831719956975,8.805893810501614,0.4722222222222222,0.29444444444444445,-0.6266666666666667,0.014005106766281233,-0.014609410167211309,0.5187257367996523
1589550681.7574818,-0.28249794248359866,-3.132504526536083,8.890004938039363,0.4722222222222222,0.29444444444444445,-0.6266666666666667,0.004089942113693887,-0.028907823720957466,0.6190508680951019
1589550681.7674818,-0.19475775688583186,-3.0565419157180185,9.070484486228336,0.4722222222222222,0.29444444444444445,-0.6068110747337612,0.00923361242996437,-0.03176384038406472,0.7370819906008829
1589550681.7774818,-0.22548324084350724,-3.103224861265261,8.97355027746948,0.4722222222222222,0.29444444444444445,-0.6055555555555555,0.014655753464322251,-0.025828160986172244,0.8047857010798196
1589550681.7874818,-0.20104962394203013,-3.1244751880289847,8.873148871826091,0.4722222222222222,0.29444444444444445,-0.6055555555555555,0.004218644475841703,-0.03772109254497126,0.8537228827394063
1589550681.7974818,-0.23885995442822447,-3.067180058592283,8.833020006510253,0.4722222222222222,0.29444444444444445,-0.6055555555555555,0.001522798352048036,-0.04178100134133776,0.9082234916269003
1589550681.8074818,-0.3171236193712829,-3.08442948173322,8.817305862361938,0.4722222222222222,0.29444444444444445,-0.6055555555555555,0.006335808392846663,-0.044221000953434494,0.9672583296401744
1589550681.8174818,-0.37683897698431634,-3.185149135556086,8.81,0.47639717419756034,0.29444444444444445,-0.6168875680600446,0.005798968033451028,-0.05167024931789238,1.0331382121058712
1589550681.8274817,-0.408206712372449,-3.274620137117347,8.89206712372449,0.48,0.29444444444444445,-0.6266666666666667,0.004167705795385555,-0.06209448137719283,1.1343647485429484
1589550681.8374817,-0.38613321647677473,-3.297900087642419,8.766799298860649,0.48,0.29444444444444445,-0.6266666666666667,0.009570247559248485,-0.059362992062847446,1.1961579993857898
1589550681.8474817,-0.3895816490718575,-3.3165272163572856,8.754853812644717,0.48,0.29444444444444445,-0.6266666666666667,0.009529925126686592,-0.061707262658394935,1.267435947986989
1589550681.8574817,-0.4053883226415709,-3.32,8.773058386792146,0.48,0.29444444444444445,-0.6266666666666667,0.011162464399544067,-0.057893493143497954,1.3170721203252103
1589550681.8674817,-0.4365954538353382,-3.3519145446024057,8.893615450710826,0.4865011109375271,0.2767141418875523,-0.6231206061552883,0.016501691349897957,-0.05700165991471794,1.367831888216886
1589550681.8774817,-0.4676961413964959,-3.3569115758105124,8.94303858603504,0.4922222222222222,0.2611111111111111,-0.62,0.013507010537393945,-0.05772844864310432,1.4285875934208248
1589550681.8874817,-0.55738676881565,-3.3579442517105136,8.89616724486846,0.4922222222222222,0.2611111111111111,-0.62,0.013732305469406693,-0.06365586813759842,1.4754265535652082
1589550681.8974817,-0.7100506033476061,-3.451800425892428,8.897650035491036,0.4922222222222222,0.2611111111111111,-0.62,0.010008353072047888,-0.07045678347027459,1.5280141448218991
1589550681.9074817,-0.7432204840677096,-3.4054253247448054,8.764409681354191,0.4922222222222222,0.2611111111111111,-0.62,0.010945237660781919,-0.06903670977701906,1.5938505588200016
1589550681.9174817,-0.7646051096726973,-3.37,8.792269161272614,0.5086256286706871,0.24880855627476245,-0.6241008516121163,0.01065713805557704,-0.07903851320579408,1.6691179019203897
1589550681.9274817,-0.7262463692787476,-3.2701718286605317,8.842320909896964,0.5188888888888888,0.2411111111111111,-0.6266666666666667,0.008142159469276983,-0.09120158453679339,1.7558906698272818
1589550681.9374816,-0.6935711040436164,-3.1989277601090413,8.815356656065426,0.5188888888888888,0.2411111111111111,-0.6266666666666667,0.011220044563806118,-0.09092850196903328,1.8138186560495464
1589550681.9474816,-0.7305666815710823,-3.1656599910573506,8.81,0.5188888888888888,0.2411111111111111,-0.6266666666666667,0.01288416630749038,-0.08699884414708839,1.8537542070526054
1589550681.9574816,-0.760331608701732,-3.248103637707505,8.816777202900578,0.5188888888888888,0.2411111111111111,-0.6266666666666667,0.02048275093313148,-0.07804357211972862,1.8809178251055239
1589550681.9674816,-0.7749692908989392,-3.260184254606365,8.745460636515913,0.5222017494881817,0.21847323034927726,-0.622249519200943,0.033213391530483936,-0.06062485451040327,1.8942042049021777
1589550681.9774816,-0.7994969794106769,-3.301488924505815,8.877967780380553,0.5255555555555556,0.1955555555555556,-0.6177777777777778,0.028363796979451163,-0.0695914893080046,1.8902473295979825
1589550681.9874816,-0.7999179536679537,-3.2442205598455596,8.944630791505793,0.5255555555555556,0.1955555555555556,-0.6177777777777778,0.014676991298179268,-0.08566154095857727,1.87284905514891
1589550681.9974816,-0.8459099321406539,-3.123689443698516,8.837512428783976,0.5255555555555556,0.1955555555555556,-0.6177777777777778,0.014825473762602973,-0.0869368422518612,1.8534089020948472
1589550682.0074816,-1.02997482141858,-3.1137342633866125,8.810588805789209,0.5255555555555556,0.1955555555555556,-0.6177777777777778,0.01295876533683403,-0.09517017929777308,1.8345067283812904
1589550682.0174816,-1.1012447736232231,-3.1559335802174173,8.996265679130332,0.534933168743944,0.1804471787520408,-0.6344490901126906,-0.009545909565377837,-0.11695879570664247,1.8302103774212355
1589550682.0274816,-1.1080182968636747,-3.14,8.953530471918036,0.5455555555555556,0.16333333333333333,-0.6533333333333333,0.0017120745873965854,-0.10628017287975255,1.8416329827564677
1589550682.0374815,-1.1969148680643722,-3.173457434032186,8.863308513193562,0.5455555555555556,0.16333333333333333,-0.6533333333333333,0.012720944214627801,-0.09454137527360827,1.8515169854435616
1589550682.0474815,-1.1837715123975812,-3.1322143904969764,8.842664317149092,0.5455555555555556,0.16333333333333333,-0.6533333333333333,0.015781197905334072,-0.08670781626513338,1.854582185894103
1589550682.0574815,-1.1639903406202339,-3.0806731062531774,8.778702084392476,0.5455555555555556,0.16333333333333333,-0.6533333333333333,0.023122451564288243,-0.07919536848412158,1.8514335359048286
1589550682.0674815,-1.165653335159567,-3.0508711135460893,8.815644432269552,0.5482123453408209,0.1410162991371045,-0.6501451855910149,0.01897173016444562,-0.08579553682877035,1.8274751149511053
1589550682.0774815,-1.2794185455161893,-3.0688255636548565,8.932941854551618,0.5511111111111111,0.11666666666666667,-0.6466666666666666,0.008726646259971648,-0.08784359141344276,1.773945817160886
1589550682.0874815,-1.3930106842464196,-3.118673789497613,8.839641736758354,0.5511111111111111,0.11666666666666667,-0.6466666666666666,0.022019903459770125,-0.07461049458178112,1.7319969143373084
1589550682.0974815,-1.4173467709786725,-3.0712258321706196,8.807346770978674,0.5511111111111111,0.11666666666666667,-0.6466666666666666,0.023263727594667605,-0.07250681764936716,1.7015851873296362
1589550682.1074815,-1.4597426182664832,-3.0168811514445975,8.975594242777014,0.5511111111111111,0.11666666666666667,-0.6466666666666666,0.01459120375291481,-0.08031107432427685,1.6774417578538632
1589550682.1174815,-1.6230324094187156,-3.1053923016769485,8.954607698323052,0.5603120263368765,0.08739102731195876,-0.6667413907956092,0.008444768534092383,-0.08317279048860306,1.6509051424198484
1589550682.1274815,-1.6551301909467218,-3.035911336627053,8.808476432100413,0.5633333333333334,0.07777777777777778,-0.6733333333333333,0.006013770932959164,-0.07884802810844058,1.6319964636485274
1589550682.1374815,-1.6648829357798165,-2.9851170642201836,8.933712293577981,0.5633333333333334,0.07777777777777778,-0.6733333333333333,0.00545415391248228,-0.09206027359153594,1.6072260718815352
1589550682.1474814,-1.6199090888429284,-2.8798181776858565,8.811103888724745,0.5633333333333334,0.07777777777777778,-0.6733333333333333,0.010918224693825182,-0.07991114575796403,1.580734219417505
1589550682.1574814,-1.6282734247402588,-2.8763515460946185,8.820781213543597,0.5633333333333334,0.07777777777777778,-0.6733333333333333,0.012649376218053596,-0.07088269656774318,1.5597601932027731
1589550682.1674814,-1.6685694678909155,-2.9281607444311772,8.935912765402616,0.5633333333333334,0.07777777777777778,-0.6733333333333333,0.01202143101403157,-0.06774297054763306,1.5409218370821123
1589550682.1774814,-1.661434933358781,-2.745739733435124,8.8685917867481,0.5688888888888889,0.04444444444444445,-0.6877777777777778,0.018075514029366156,-0.05812708536803003,1.459849498728492
1589550682.1874814,-1.6963212275765036,-2.7100633134013368,8.906384540977841,0.5688888888888889,0.04444444444444445,-0.6877777777777778,0.014307657691786636,-0.06573809409201403,1.4033089099470608
1589550682.1974814,-1.73,-2.7216534766444584,8.901200537416718,0.5688888888888889,0.04444444444444445,-0.6877777777777778,0.010818124663868854,-0.06858274813095917,1.3590677061307925
1589550682.2074814,-1.804118089911809,-2.7437970531297053,8.914332114433211,0.5688888888888889,0.04444444444444445,-0.6877777777777778,0.011631637271026282,-0.06473819073053338,1.3116918119242624
1589550682.2174814,-1.9613586170632311,-2.8224275886245125,9.031848297620613,0.5503785499710306,0.029299621693469474,-0.6982950157992882,0.008430241997132135,-0.06432742074433705,1.2491930889690706
1589550682.2274814,-2.0195055264688775,-2.8198763816172194,8.93975276323444,0.52,0.004444444444444445,-0.7155555555555555,0.006518015347534815,-0.05567282392848514,1.1876727119061365
1589550682.2374814,-2.0956919040097826,-2.858553523207826,8.938584857594131,0.52,0.004444444444444445,-0.7155555555555555,0.0024972338472069476,-0.053138554111425464,1.128563845871016
1589550682.2474813,-2.124101935435937,-2.8579126267691968,8.936043686615402,0.52,0.004444444444444445,-0.7155555555555555,0.000879018586645608,-0.052791444402342125,1.1042808366716306
1589550682.2574813,-2.174981838708094,-2.7798910322485644,8.96,0.52,0.004444444444444445,-0.7155555555555555,0.0021737372064885444,-0.05236780191833425,1.0361941510695807
1589550682.2674813,-2.09453606450207,-2.6603865765962085,8.941134016125519,0.5325773225829883,-0.0049885474927967854,-0.7223682719546742,0.004630409089282625,-0.04630970074387591,0.9900441985381602
1589550682.2774813,-1.9959081619110814,-2.541210882548109,8.840146250829463,0.5466666666666666,-0.015555555555555557,-0.73,0.009305083350156498,-0.036063459220256285,0.9455339753049573
1589550682.2874813,-2.102771849593496,-2.609288617886179,8.828127540650407,0.5466666666666666,-0.015555555555555557,-0.73,0.006900419267781507,-0.03490658503988659,0.8938765178748868
1589550682.2974813,-2.252884656814167,-2.6958653970442503,8.995769313628333,0.5466666666666666,-0.015555555555555557,-0.73,-0.0014684314764762292,-0.0447135810075778,0.842089873862598
1589550682.3074813,-2.3214399499519356,-2.719188549979401,9.028743000137327,0.5466666666666666,-0.015555555555555557,-0.73,-0.003960659317328023,-0.044429870494692374,0.8031569158334753
1589550682.3174813,-2.366239223644659,-2.738388238704854,8.900745075300975,0.5466666666666666,-0.015555555555555557,-0.73,0.0037186648905657965,-0.02558062016622573,0.7787227024447222
1589550682.3274813,-2.2416077463340094,-2.609019365835023,8.991254224338064,0.5377777777777778,-0.03555555555555556,-0.7422222222222222,0.008688082992425046,-0.027309332829957997,0.7226473925608413
1589550682.3374813,-2.3401991161428075,-2.635099558071404,8.92652986742142,0.5377777777777778,-0.03555555555555556,-0.7422222222222222,-0.0043185556816649874,-0.03370449915896183,0.6787870716045072
1589550682.3474813,-2.402271036727104,-2.652271036727104,8.900387195324434,0.5377777777777778,-0.03555555555555556,-0.7422222222222222,-0.008294537592760377,-0.03186070614047114,0.6521957856294895
1589550682.3574812,-2.363535718817409,-2.6117678594087046,8.8788929069915,0.5377777777777778,-0.03555555555555556,-0.7422222222222222,-0.009178563847187855,-0.03189316673339935,0.6358881157006457
1589550682.3674812,-2.411053633150802,-2.62,9.04136782010952,0.5329472126209864,-0.04383652439576942,-0.7511932717991205,-0.012636293253029646,-0.032081710776511466,0.6328713904093989
1589550682.3774812,-2.4958899037274747,-2.62,8.970490178791833,0.5222222222222223,-0.06222222222222223,-0.7711111111111111,0.0003414015302978463,-0.014334632816922781,0.6420978811585604
1589550682.3874812,-2.710507085229623,-2.7028423665701284,8.921776479106331,0.5222222222222223,-0.06222222222222223,-0.7711111111111111,0.0061961738381223225,-0.008471906582770429,0.6629316193187711
1589550682.3974812,-2.8117547765753637,-2.719693470719205,8.927785429503444,0.5222222222222223,-0.06222222222222223,-0.7711111111111111,-0.004588176717989676,-0.022283041404698223,0.6895053660103286
1589550682.4074812,-2.849835274643196,-2.6961158326099683,8.910743888406646,0.5222222222222223,-0.06222222222222223,-0.7711111111111111,-0.0007662482334119779,-0.020906044890960852,0.7300364697922557
1589550682.4174812,-3.028919425945033,-2.7694597129725165,9.009189569458774,0.49909900051068795,-0.10120136739309422,-0.7638438128589146,0.002623887495201118,-0.020902695703464588,0.7887887327286166
1589550682.4274812,-3.019937994374427,-2.728944194936984,9.029472097468492,0.4833333333333333,-0.12777777777777774,-0.7588888888888888,0.0007080254439467508,-0.02301585313422459,0.8441065035421778
1589550682.4374812,-2.9520530543022625,-2.6531291798662444,8.998923874436018,0.4833333333333333,-0.12777777777777774,-0.7588888888888888,-0.003843196750350621,-0.02433961778712877,0.8969320243708672
1589550682.4474812,-3.106663380880591,-2.7199802852835444,8.979911283775948,0.4833333333333333,-0.12777777777777774,-0.7588888888888888,-0.00908523858956884,-0.02726431793653788,0.9741344694598925
1589550682.4574811,-3.1,-2.68,8.868442179738622,0.4833333333333333,-0.12777777777777774,-0.7588888888888888,0.0019867368202569854,-0.014330117845414013,1.0308269717602727
1589550682.4674811,-3.1,-2.68,9.252838315889804,0.4833333333333333,-0.12777777777777774,-0.7588888888888888,0.007018470476093874,-0.015168740121386831,1.0920463979062882
1589550682.4774811,-2.928465990190227,-2.4715340098097736,8.77704487063037,0.4577777777777778,-0.15555555555555556,-0.75,-0.011342114974965227,-0.036648126547384044,1.1872330696742142
1589550682.487481,-2.96,-2.459231440095934,8.82308644936226,0.4577777777777778,-0.15555555555555556,-0.75,-0.0014267491074060812,-0.02995659401691396,1.2460648622039592
1589550682.497481,-2.9431895601029283,-2.453577380223012,9.058274721235142,0.4577777777777778,-0.15555555555555556,-0.75,-0.01356955532888619,-0.0582042631191077,1.2773252867579656
1589550682.507481,-2.8936548848668626,-2.3578849616222874,8.561150383777125,0.4577777777777778,-0.15555555555555556,-0.75,-0.002770542733180375,-0.033461515927852056,1.310757690587621
1589550682.517481,-2.940581947743468,-2.390332541567696,8.982826603325416,0.46954143573502244,-0.17180060702032196,-0.7460787806809185,0.010736003200175929,-0.02052044439353042,1.3367723149593254
1589550682.527481,-3.0302909850890236,-2.3944907760942082,9.259127044732928,0.4811111111111111,-0.18777777777777774,-0.7422222222222222,-0.01811773872082449,-0.06274657615547281,1.3285842807568304
1589550682.537481,-3.060170441279477,-2.3244034555218303,9.088125145925753,0.4811111111111111,-0.18777777777777774,-0.7422222222222222,-0.008983881630114404,-0.04383468989172251,1.3297970929008847
1589550682.547481,-3.07,-2.29,8.98,0.4811111111111111,-0.18777777777777774,-0.7422222222222222,0.007635815477475192,-0.02399827721492203,1.3340860469931657
1589550682.557481,-3.143776866515837,-2.295851244343891,9.212723981900451,0.4811111111111111,-0.18777777777777774,-0.7422222222222222,-0.0013913953841328522,-0.04686515683515916,1.3369465471149693
1589550682.567481,-2.940737264624284,-2.13520040139307,8.889663538161855,0.4518527700712932,-0.20315080442581768,-0.7551157284431589,0.016183264401534697,-0.011574357858265034,1.3571473211063292
1589550682.577481,-2.8636500282235304,-2.0225222159503264,8.745133295701958,0.4155555555555556,-0.2222222222222222,-0.7711111111111111,0.025933888311017346,-0.006506210547012887,1.3537597752260677
1589550682.587481,-2.9542396574300174,-2.032090101567753,8.735165799624871,0.4155555555555556,-0.2222222222222222,-0.7711111111111111,0.00572754682757022,-0.035349603550695566,1.3255187962918495
1589550682.597481,-3.200532416426401,-2.1739840645211563,9.286193407620978,0.4155555555555556,-0.2222222222222222,-0.7711111111111111,-0.03135437233102417,-0.0919869429213453,1.265875738548072
1589550682.607481,-3.080196120370523,-2.0609444051399333,9.31070830385495,0.4155555555555556,-0.2222222222222222,-0.7711111111111111,-0.01635810049622624,-0.08340120039612067,1.2483355733787223
1589550682.617481,-2.7420518600174404,-1.8401155004195529,9.145086625314665,0.4155555555555556,-0.2222222222222222,-0.7711111111111111,0.014505542142188393,-0.0307071763793152,1.244571714520379
1589550682.627481,-2.500109896585251,-1.6733699655284169,8.687838896909343,0.34444444444444444,-0.2966666666666667,-0.7155555555555555,0.0021217222759514617,-0.04896352139466451,1.1866920249202528
1589550682.637481,-2.6528103121268174,-1.69,9.101125576603367,0.34444444444444444,-0.2966666666666667,-0.7155555555555555,-0.0219349271254372,-0.07701964669891175,1.1061507903802952
1589550682.647481,-2.87,-1.687242839511427,8.79485679022854,0.34444444444444444,-0.2966666666666667,-0.7155555555555555,-0.002338970162111235,-0.05936754961888706,1.0615669034915827
1589550682.657481,-2.8428817941952507,-1.6758279683377308,8.798107124010555,0.34444444444444444,-0.2966666666666667,-0.7155555555555555,0.02935860241102071,-0.0037275904037646704,1.0562385524382694
1589550682.667481,-2.706967759770552,-1.6249032447562113,9.238193614153909,0.34627956890163597,-0.29987813446675193,-0.7038566371409593,0.02005017390886204,-0.007931394093907893,1.0351069289059023
1589550682.677481,-2.59101904004976,-1.5017077300528698,8.810632710183489,0.35272116444167995,-0.3111509266618289,-0.6627914655731788,0.01767866579644028,-0.01662692383945434,1.0003248099237165
1589550682.687481,-2.64404666679673,-1.599704040423747,9.48789414128802,0.3533333333333333,-0.31222222222222223,-0.6588888888888889,-0.0026733728479314493,-0.04326382535096202,0.8768590796603634
1589550682.697481,-2.9109827171975513,-1.6363148105091838,9.213293807641634,0.3533333333333333,-0.31222222222222223,-0.6588888888888889,-0.053228365867090684,-0.12082512808631132,0.7792928757418995
1589550682.707481,-2.7614130992306176,-1.4337547839810614,8.619479384493983,0.3533333333333333,-0.31222222222222223,-0.6588888888888889,0.00504457051766565,-0.021471935503090574,0.6928073533812057
1589550682.717481,-2.4990990389253773,-1.34679728375821,8.831459423355227,0.35597997864278613,-0.31288388354958546,-0.654588090261028,0.007384732938463522,-0.031627697231948436,0.6106760863836026
1589550682.727481,-2.7690067658998645,-1.4209932341001352,9.20887144790257,0.3622222222222222,-0.3144444444444445,-0.6444444444444445,-0.016362461737446838,-0.06763150851478028,0.4996004983833768
1589550682.7374809,-2.7217038196876673,-1.4205463760352712,9.463005068193992,0.3622222222222222,-0.3144444444444445,-0.6444444444444445,-0.01626600441084758,-0.06464133139020328,0.49419888809381834
1589550682.7474809,-2.4047437787850656,-1.2560803160213352,8.811003950266688,0.3622222222222222,-0.3144444444444445,-0.6444444444444445,-0.018026657310029448,-0.0448358596777064,0.394827128075893
1589550682.7574809,-2.3324534294572863,-1.3010617327518843,9.455050540697234,0.3622222222222222,-0.3144444444444445,-0.6444444444444445,-0.018024541278642697,-0.051024929016576105,0.3069147312213979
1589550682.7674809,-2.1945539400466703,-1.2118153533177765,8.778983426075511,0.3658529288577754,-0.31242738520247054,-0.6436376207476548,0.008622543160702704,0.011505774765847259,0.23753292272535836
1589550682.7774808,-2.176591145292039,-1.222824776553731,9.089686135938475,0.38222222222222224,-0.3033333333333333,-0.64,0.02287320917444242,0.0046714584518342305,0.149018685687323
1589550682.7874808,-2.512474195961107,-1.3274308152580405,9.038166043380704,0.38222222222222224,-0.3033333333333333,-0.64,0.014210987710937375,0.01760333274500021,-0.004642680242870477
1589550682.7974808,-2.7677032851959185,-1.3985164259795924,9.040884494557144,0.38222222222222224,-0.3033333333333333,-0.64,0.006302235463542829,0.030300512678464862,-0.10668980141023614
1589550682.8074808,-2.699505022097228,-1.3962748091603054,8.962054640417838,0.38222222222222224,-0.3033333333333333,-0.64,0.013435581746356309,0.026823918993575165,-0.18162599867568535
1589550682.8174808,-2.315895507285483,-1.2460955207771183,8.702391055045872,0.38853034868381603,-0.3013412933980932,-0.630703813635546,-0.011595044082226308,-0.02379411437047813,-0.28116505591211144
1589550682.8274808,-2.124742351700073,-1.3058723525115636,9.394742351700073,0.4033333333333333,-0.2966666666666667,-0.6088888888888889,-0.04080652519116236,-0.054351221330262434,-0.419718853072077
1589550682.8374808,-2.6018928562260952,-1.442281746541058,9.531702389814411,0.4033333333333333,-0.2966666666666667,-0.6088888888888889,0.003944737782871324,0.019862209331252437,-0.4982023298010323
1589550682.8474808,-2.5693585764136575,-1.3841024504039021,8.817851896122926,0.4033333333333333,-0.2966666666666667,-0.6088888888888889,0.03772452425288564,0.08109901736390172,-0.561312973877786
1589550682.8574808,-2.3582825933231604,-1.322335032937586,8.443790241542297,0.4033333333333333,-0.2966666666666667,-0.6088888888888889,0.015757062629605564,0.051057713283780067,-0.6324123635530243
1589550682.8674808,-2.22559604004615,-1.2755044847221706,8.100366221295918,0.4033333333333333,-0.2966666666666667,-0.6088888888888889,-0.0012710052219143467,0.02977262846938018,-0.7107414756700158
1589550682.8774807,-2.659250536815128,-1.6411609060054029,9.50675971462215,0.4222222222222222,-0.27555555555555555,-0.6111111111111112,-0.0495450399916978,-0.05205772113542015,-0.8271887618585768
1589550682.8874807,-2.8626175798296045,-1.7137919927962872,9.804547170464778,0.4222222222222222,-0.27555555555555555,-0.6111111111111112,-0.009930927372863503,0.03509332662601529,-0.862049180963151
1589550682.8974807,-2.602310760945447,-1.5699182208038298,8.752904158771317,0.4222222222222222,-0.27555555555555555,-0.6111111111111112,6.244508518529757e-05,0.029343097833656535,-0.9031543635483352
1589550682.9074807,-2.448129784226389,-1.608129784226389,9.277376043528124,0.4222222222222222,-0.27555555555555555,-0.6111111111111112,-0.030492259686506634,-0.022519212736492128,-0.9304588733782572
1589550682.9174807,-2.399179477115632,-1.5077819934148842,9.025410261442184,0.4264302033439209,-0.2736018500347669,-0.6150185221526885,-0.02679667525228473,0.008963693415034984,-0.9649838845227551
1589550682.9274807,-2.259737821653989,-1.1144376112639587,9.114730538922156,0.4533333333333333,-0.2611111111111111,-0.64,-0.011592394130543743,0.018582785212355065,-1.066356910828055
1589550682.9374807,-1.3115484135948248,-1.1403376458910908,9.441770031146252,0.4533333333333333,-0.2611111111111111,-0.64,-0.009672746045844654,0.06483263542633046,-1.3915875804797333
1589550682.9474807,-1.096213163569155,-1.0470257042133004,8.314848889345244,0.4533333333333333,-0.2611111111111111,-0.64,0.06627641718950014,0.16583719271869618,-1.617086126992922
1589550682.9574807,-1.5419401275969247,-2.255475216751186,8.525000817929005,0.4533333333333333,-0.2611111111111111,-0.64,-0.03669798864294269,0.05775764303336747,-2.0955378605039607
1589550682.9674807,-1.997176157392377,-3.273579962340108,9.078688396857347,0.45720837030784434,-0.25586841402794913,-0.6409117734057673,-0.01146555158714175,0.12046969139726443,-2.333233532776465
1589550682.9774806,-1.87,-2.9,7.95,0.4722222222222222,-0.23555555555555555,-0.6444444444444445,0.07090400086226964,0.2279836335417593,-2.426007660272118
1589550682.9874806,-1.6714574043651726,-2.6117930063365407,8.135733395916452,0.4722222222222222,-0.23555555555555555,-0.6444444444444445,-0.011534748314232054,0.12877768114291827,-2.5622411864536248
1589550682.9974806,-1.5070936736465885,-2.496293035559235,9.139407548007997,0.4722222222222222,-0.23555555555555555,-0.6444444444444445,-0.07224199381608837,0.04639393209127659,-2.8334971544999052
1589550683.0074806,-1.7349054215342328,-2.2468870483561796,7.897595934753517,0.4722222222222222,-0.23555555555555555,-0.6444444444444445,0.04549575907340793,0.2611302681177454,-3.120933583426444
1589550683.0174806,-1.7602393017097648,-2.4297456602046488,8.016753735002778,0.47293525995183455,-0.23292280086160239,-0.6444444444444445,-0.021101080011274982,0.1433051526200098,-3.361426455671243
1589550683.0274806,-2.2252768508121274,-2.8303450948140885,9.755894921634061,0.4866666666666667,-0.18222222222222226,-0.6444444444444445,-0.09837394550864444,0.05127691371871821,-3.478234326269582
1589550683.0374806,-2.470716601559411,-2.8966801625836247,9.35125100823989,0.4866666666666667,-0.18222222222222226,-0.6444444444444445,-0.05278693516298536,0.13666210769947648,-3.480405136286042
1589550683.0474806,-2.0728682212483545,-2.745227506357193,9.21581399123519,0.4866666666666667,-0.18222222222222226,-0.6444444444444445,0.018359927940638558,0.22151181156712005,-3.4679352529180347
1589550683.0574806,-1.89889051200202,-2.5863782935670616,7.650014608018179,0.4866666666666667,-0.18222222222222226,-0.6444444444444445,0.038163083493416294,0.24296523008262927,-3.448132097365257
1589550683.0674806,-2.0759287202297165,-2.9895326839704968,9.013481222904115,0.4932048370649801,-0.1772475273539403,-0.646576456530851,-0.0883948807049362,0.060187498934142894,-3.48403705488716
1589550683.0774806,-2.049018694530119,-2.9443255491911624,8.624417448228112,0.5377777777777778,-0.14333333333333334,-0.6611111111111111,-0.050372254377875625,0.15817046346198613,-3.4393726350585143
1589550683.0874805,-2.287450857084897,-3.282352571254691,8.861288163099706,0.5377777777777778,-0.14333333333333334,-0.6611111111111111,-0.022164942404108583,0.15526774051049058,-3.350977417600167
1589550683.0974805,-2.3470108530276903,-3.4610325590830713,9.031459580079115,0.5377777777777778,-0.14333333333333334,-0.6611111111111111,-0.024949365703241282,0.13206421301771804,-3.228462792438328
1589550683.1074805,-2.395767027669964,-3.5476893702266183,8.914621259546763,0.5377777777777778,-0.14333333333333334,-0.6611111111111111,-0.03289434573427603,0.13954371181055295,-3.0362986655885758
1589550683.1174805,-2.4154598096907476,-3.573946412920997,8.862107174158007,0.5377777777777778,-0.14333333333333334,-0.6611111111111111,-0.01857335052010023,0.12808691563921232,-2.918866504832334
1589550683.1274805,-2.4581528364683445,-3.7056899517594704,9.012611345873378,0.5777777777777777,-0.18777777777777774,-0.6177777777777778,-0.02730554512211665,0.09491847267801629,-2.6877165296349204
1589550683.1374805,-2.4346254814704014,-3.650792790097603,8.918501925881605,0.5777777777777777,-0.18777777777777774,-0.6177777777777778,-0.05553634449084281,0.08123081237802784,-2.53373035126005
1589550683.1474805,-2.334400046440527,-3.5399200835929485,8.755360204338318,0.5777777777777777,-0.18777777777777774,-0.6177777777777778,-0.007033672832836626,0.10338458026823437,-2.24652695764721
1589550683.1574805,-2.2938197333539736,-3.4668755200371524,8.576806826757483,0.5777777777777777,-0.18777777777777774,-0.6177777777777778,-0.010574973207089135,0.10161393008110811,-2.0446728363148177
1589550683.1674805,-2.1571348642032873,-3.273988809884602,9.002883785989043,0.5777777777777777,-0.18777777777777774,-0.6177777777777778,-0.02926653596433055,0.0637645839597876,-1.7928131324860659
1589550683.1774805,-2.03,-3.25,9.67,0.7677777777777778,-0.5255555555555556,-0.3422222222222222,0.03381575425739013,0.1287180323345818,-1.4857115257601732
1589550683.1874804,-1.9039428571428572,-3.1869714285714283,8.43464,0.7677777777777778,-0.5255555555555556,-0.3422222222222222,0.03725342955194325,0.14246873351279427,-1.3227657167983553
1589550683.1974804,-1.7313779836683416,-3.2486220163316584,8.913188599246231,0.7677777777777778,-0.5255555555555556,-0.3422222222222222,-0.08444701276353483,-0.08183800350780182,-1.0529051416892783
1589550683.2074804,-1.7527905532521142,-3.4399212771009515,9.932784343093024,0.7677777777777778,-0.5255555555555556,-0.3422222222222222,-0.07291662539720356,-0.04945122128092931,-0.9095931003314122
1589550683.2174804,-1.231009256983698,-2.756632260178586,7.412924551486851,0.7773416891947244,-0.5161358237077087,-0.3402357481590708,0.07893863486864477,0.18559404048225522,-0.6862325572460268
1589550683.2274804,-1.3069637883008358,-3.2267130919220057,9.09699164345404,1.4311111111111108,0.12777777777777774,-0.20444444444444448,0.016137610824063172,0.03353620987858882,-0.6106008864484966
1589550683.2374804,-1.3458759215071763,-3.328968980376794,9.692153566722462,1.4311111111111108,0.12777777777777774,-0.20444444444444448,-0.07119563755460914,-0.03637863746377475,-0.5519932418872215
1589550683.2474804,-1.3160009259589018,-3.3215002314897255,8.766028704725953,1.4311111111111108,0.12777777777777774,-0.20444444444444448,-0.010092078608979593,0.055684058014307106,-0.4811131135102913
1589550683.2574804,-1.2088266362686424,-3.5577408568443047,9.431698869573479,1.4311111111111108,0.12777777777777774,-0.20444444444444448,-0.00629855040534892,-0.040114304662739055,-0.39958027894779125
1589550683.2674804,-1.2646072005319655,-3.7330512016718913,9.758413603115796,1.4311111111111108,0.12777777777777774,-0.20444444444444448,-0.02542194246814886,-0.059237696725538996,-0.3465563282282096
1589550683.2774804,-1.1313999695879164,-3.2835141162755335,8.03545643469005,0.83,0.12555555555555556,-0.6677777777777778,-0.004057897145774236,0.035180882343954965,-0.2697874052171438
1589550683.2874804,-1.1810056262354909,-3.5598884890263065,9.190559582340716,0.83,0.12555555555555556,-0.6677777777777778,0.006764378305650637,-0.015838416212762295,-0.23809359853797096
1589550683.2974803,-1.1176439283986455,-3.5491098209966134,8.219240445089502,0.83,0.12555555555555556,-0.6677777777777778,0.02544321900615342,0.04315351906894906,-0.19401509964647232
1589550683.3074803,-1.1784888214685592,-3.7201332755444794,8.829333622277602,0.83,0.12555555555555556,-0.6677777777777778,-0.0022713526213136827,0.0063801406889844,-0.205944021459247
1589550683.3174803,-1.072445913244483,-3.629239354209557,9.283803228952216,0.83,0.12555555555555556,-0.6677777777777778,-0.00309760168242989,-0.005187346166642499,-0.23403648953719805
1589550683.3274803,-0.9657978193146417,-3.516949221183801,8.73252492211838,0.6044444444444445,0.10111111111111112,-0.6966666666666667,0.004517602623834232,0.020300530773595882,-0.26336838306577387
1589550683.3374803,-1.0768618380062307,-3.706411370716511,8.961186137071651,0.6044444444444445,0.10111111111111112,-0.6966666666666667,-0.00973557977811245,-0.021033698192049494,-0.2897367705093752
1589550683.3474803,-1.058337770693076,-3.6676984517288744,9.23785293968017,0.6044444444444445,0.10111111111111112,-0.6966666666666667,-0.011748078637306494,-0.004910190643814153,-0.32417201126712314
1589550683.3574803,-0.9658724075361631,-3.5396694873577643,8.562144516610424,0.6044444444444445,0.10111111111111112,-0.6966666666666667,0.0022177149014084123,0.025349028690068144,-0.3350342951305681
1589550683.3674803,-1.0690427529428759,-3.7495464721600347,9.38453347295443,0.6044444444444445,0.10111111111111112,-0.6966666666666667,-0.02269860752115251,-0.024591746825663494,-0.3675605014884503
1589550683.3774803,-0.9787384900846573,-3.577897483474429,8.854533457033515,0.5611111111111111,0.13666666666666666,-0.7322222222222222,0.00932295359413978,0.026189983075882727,-0.3628338224168957
1589550683.3874803,-0.9485076711754709,-3.5273138081158475,8.73149232882453,0.5611111111111111,0.13666666666666666,-0.7322222222222222,0.022321410273440447,0.0504713864498259,-0.3537221916083443
1589550683.3974802,-0.850859078527693,-3.3515463413498474,8.829140921472307,0.5611111111111111,0.13666666666666666,-0.7322222222222222,-0.01602510238851468,-0.0017224780067241485,-0.3728954479393218
1589550683.4074802,-0.8939703113542224,-3.456634956497612,9.089246288919277,0.5611111111111111,0.13666666666666666,-0.7322222222222222,-0.029414230322904023,-0.03622787455241877,-0.40123928554895577
1589550683.4174802,-0.8274693303208672,-3.1989436549933608,9.08093366629011,0.5611111111111111,0.13666666666666666,-0.7322222222222222,-0.004931535775532615,-0.0026775153578727645,-0.41121371666084794
1589550683.4274802,-0.81,-3.27,8.7,0.5555555555555556,0.13444444444444445,-0.7111111111111111,0.025089107997418484,0.04254240051736178,-0.4145156973486533
1589550683.4374802,-0.7074813005908672,-3.2381838519075106,8.661113596775845,0.5555555555555556,0.13444444444444445,-0.7111111111111111,0.01120669450951711,0.025960628851257356,-0.4372674305649361
1589550683.4474802,-0.52,-3.18,8.59,0.5555555555555556,0.13444444444444445,-0.7111111111111111,-0.014180800172453925,-0.004363323129985824,-0.4788747135159442
1589550683.4574802,-0.5268730407523511,-3.2281112852664577,8.899286833855799,0.5555555555555556,0.13444444444444445,-0.7111111111111111,-0.020928392152269385,-0.02535583151163392,-0.5039907503297018
1589550683.4674802,-0.5148623109309216,-3.2948623109309216,8.811282395134882,0.5555555555555556,0.13444444444444445,-0.7111111111111111,-0.005480757052102183,0.007672726483213807,-0.5949198878350949
1589550683.4774802,-0.5334888775249297,-3.4700813943577944,8.758296258416431,0.5520757218481586,0.13183456916389671,-0.6998016515620709,0.011957115636891818,0.02523293440332678,-0.6570364430865533
1589550683.4874802,-0.6295387304749911,-3.639384973966655,8.982954455743313,0.5511111111111111,0.13111111111111112,-0.6966666666666667,0.000295318429358404,0.011203626254322965,-0.7338104441887403
1589550683.4974802,-0.7773630003196363,-3.7928025002663635,8.988955499520545,0.5511111111111111,0.13111111111111112,-0.6966666666666667,-0.001875956209142519,0.03523937036579647,-0.8454660696882454
1589550683.5074801,-0.8462836228944352,-3.7837163771055646,8.885574565658347,0.5511111111111111,0.13111111111111112,-0.6966666666666667,0.01890151252168081,0.07174413008208987,-0.9091741233307242
1589550683.5174801,-6.7709630217785834,-10.281339609800362,9.551616379310346,0.5511111111111111,0.13111111111111112,-0.6966666666666667,0.04021077446639046,0.09210021887796133,-0.9683930698110543
1589550683.5274801,-18.41786230645882,-9.330382219184564,1.2918451144817436,0.5142792717798632,0.1505501374248253,-0.6884818134819449,-0.12912917640964378,0.6743734918068591,-1.6194760089482867
1589550683.53748,2.5917513436771102,-4.006589088327755,1.4581416692019065,0.5111111111111111,0.15222222222222226,-0.6877777777777778,-1.6361794694589276,-1.3029563294100666,-9.775960814930546
1589550683.54748,-0.2234580676631479,-4.178172363332288,7.128397965227693,0.5111111111111111,0.15222222222222226,-0.6877777777777778,-1.5370003170269495,-0.6754846193796085,-9.081465529172073
1589550683.55748,-5.908724695219012,-4.025606472031312,14.946057791344407,0.5111111111111111,0.15222222222222226,-0.6877777777777778,-0.22834008041012352,2.0204599651207236,-7.34273180477629
1589550683.56748,-2.3976999569280326,-3.2008691173992023,6.125295417517181,0.5111111111111111,0.15222222222222226,-0.6877777777777778,1.18882112961163,0.9717263973658106,-6.612730988005714
1589550683.57748,-2.3166861111946355,-0.6713624199416661,1.917463090477193,0.4829495210699168,0.27216973536064254,-0.6742184936838694,1.8399249481391762,0.9636778694585149,-5.439987249125151
1589550683.58748,-0.74,-1.6,7.45,0.4811111111111111,0.28,-0.6733333333333333,-0.3621558197888234,0.29779680362153244,-3.808090261695128
1589550683.59748,0.25743595670095154,-1.9952971994298703,10.869780422974692,0.4811111111111111,0.28,-0.6733333333333333,-0.4278389689653691,-0.047666477161979026,-3.4024592106735594
1589550683.60748,1.114539510856405,-1.8572451368149165,10.81717975623537,0.4811111111111111,0.28,-0.6733333333333333,-0.04541665026018321,0.038420329816469534,-2.7480207487780746
1589550683.61748,1.0903928220088877,-3.4699572577088773,8.142109298144442,0.4811111111111111,0.28,-0.6733333333333333,0.13132960237784885,0.299764214016857,-2.0784481177080867
1589550683.62748,1.160296428355593,1.8871571886142506,6.439169033661691,0.4074022481416571,0.4021146834270059,-0.6678326719177025,-0.04054618084462502,0.05966792300947091,-0.04732308327048074
1589550683.63748,2.8591364208227503,-0.2924649274811879,11.774255465615877,0.4066666666666667,0.4033333333333333,-0.6677777777777778,0.0566099409314033,-0.2471464907096002,0.13003222358257105
1589550683.64748,0.5102585424537263,-6.554781030370824,8.53460416622697,0.4066666666666667,0.4033333333333333,-0.6677777777777778,-0.05569646464779475,-0.031501045456331145,0.1424830915503163
1589550683.65748,0.6850145638509888,-5.638252337881343,8.35429403648628,0.4066666666666667,0.4033333333333333,-0.6677777777777778,-0.023841082529110803,0.06119538950114527,0.2703932547181273
1589550683.66748,0.793856155365372,-2.231318095786702,8.156503456221198,0.4066666666666667,0.4033333333333333,-0.6677777777777778,0.040443570099879436,0.014298482788965845,0.6540953324797537
1589550683.67748,0.6,-4.84,10.15,0.38222222222222224,0.4133333333333333,-0.6822222222222222,0.01308996938995747,-0.1014472627721704,0.7428557628800865
1589550683.68748,0.6,-4.84,10.15,0.38222222222222224,0.4133333333333333,-0.6822222222222222,0.01308996938995747,-0.1014472627721704,0.7428557628800865
1589550683.69748,0.2552853427002512,-3.8901491740957295,8.768077188146105,0.38222222222222224,0.4133333333333333,-0.6822222222222222,-0.0001752614229363924,-0.01719278910148712,0.8801299574836003
1589550683.70748,0.31074148296593185,-3.897294589178357,8.846533066132265,0.38222222222222224,0.4133333333333333,-0.6822222222222222,0.0027544023766443576,-0.04925133773475982,1.0010766136232305
1589550683.71748,0.4,-3.5689198721481317,8.624035600132261,0.38222222222222224,0.4133333333333333,-0.6822222222222222,0.006511320788983033,-0.03932040402886597,1.1041589841354509
1589550683.72748,0.22677805829699335,-3.8965467064493917,8.769987147119577,0.39036513401167977,0.4125930686252008,-0.6777806339734271,0.037071422223749415,-0.03054466394166161,1.2104160300134883
1589550683.73748,0.05682047181127549,-3.9567281887245103,8.863179528188724,0.3944444444444444,0.4122222222222222,-0.6755555555555556,0.02537737344354706,-0.041550403103643295,1.2828655009687364
1589550683.74748,0.1050438865074505,-3.820708307817922,8.81495611349255,0.3944444444444444,0.4122222222222222,-0.6755555555555556,-0.002075450851939062,-0.06570078924247433,1.3746879310236002
1589550683.75748,-0.012217390092275099,-3.9510094505310698,8.642079395612056,0.3944444444444444,0.4122222222222222,-0.6755555555555556,0.004832029741193145,-0.058135919455159724,1.5054866995417469
1589550683.76748,-0.03288914938269271,-3.9586674481480784,8.566002344444234,0.3944444444444444,0.4122222222222222,-0.6755555555555556,0.020507107232545632,-0.05330534948439143,1.593361618934879
1589550683.77748,0.16271003401360543,-4.154045918367347,8.806393282312925,0.40515055744520023,0.40214588057445194,-0.6793341836734693,0.01566923692001595,-0.07276300469963382,1.6780370975967063
1589550683.7874799,0.32554010232759245,-4.317770051163796,8.88567918137926,0.4133333333333333,0.3944444444444444,-0.6822222222222222,0.010178558774787587,-0.09090003667952533,1.7666138547642458
1589550683.7974799,1.6761224892077824,-3.5729372572982987,8.004268593167886,0.4133333333333333,0.3944444444444444,-0.6822222222222222,-0.0021611484159025796,-0.11084957431921279,1.7248828458964258
1589550683.8074799,-0.0992479732500553,-1.8139194347181478,9.819120847922779,0.4133333333333333,0.3944444444444444,-0.6822222222222222,-0.10970476336201945,-0.13560274676413003,0.9166930215097037
1589550683.8174798,-0.6510209251760387,-3.5417151064211767,8.789790748239612,0.4133333333333333,0.3944444444444444,-0.6822222222222222,0.06425544044518916,0.03958339880607406,0.4792895603944883
1589550683.8274798,0.22179937076476275,-4.493371248789932,9.169125121006775,0.4201614768204797,0.35542648166075075,-0.6880749166397763,0.019812887276466365,0.021005092458885044,0.10135935215973785
1589550683.8374798,0.09815509736540662,-4.12183757159221,9.003417869415808,0.4211111111111111,0.35,-0.6888888888888889,-0.02784524878413027,-0.06407277617226882,-0.009674756891292005
