time,acc_x,acc_y,acc_z,mag_x,mag_y,mag_z,gyr_x,gyr_y,gyr_z
1589550806.7315578,0.08,-4.13,8.93,0.5244444444444445,0.32,-0.6311111111111111,0.001090830782496456,0.002181661564992912,0.002181661564992912
1589550806.7415578,0.07272397002800414,-4.162723970028004,8.779085955042005,0.5244444444444445,0.32,-0.6311111111111111,-0.0011905376201729872,0.0025785074383839076,0.0017848156916019163
1589550806.7515578,0.06611006593727739,-4.153055032968639,8.772220131874555,0.5244444444444445,0.32,-0.6311111111111111,-0.003272492347489368,0.003272492347489368,0.00175733558324298
1589550806.7615578,0.08,-4.158787203762143,8.8,0.5244444444444445,0.32323412330095086,-0.6316501316612696,-0.003272492347489368,0.0027433101598294328,0.0030079012536594002
1589550806.7715578,0.07751066254871682,-4.152489337451284,8.795021325097434,0.5244444444444445,0.3466666666666667,-0.6355555555555555,-0.0019147693875488842,-0.0013623753744845526,0.001090830782496456
1589550806.7815578,0.07081278948154789,-4.16,8.780406394740773,0.5244444444444445,0.3466666666666667,-0.6355555555555555,0.002004338407760558,-0.002092999986376735,0.0011351615718045445
1589550806.7915578,0.08747769969438886,-4.16,8.800089201222445,0.5244444444444445,0.3466666666666667,-0.6355555555555555,-0.00108110043856857,0.0,0.0019065212833868264
1589550806.8015578,0.08097097469787934,-4.16,8.826116101208482,0.5244444444444445,0.3466666666666667,-0.6355555555555555,0.0017579939292041206,0.0,0.0011967476914436538
1589550806.8115578,0.06162221745919961,-4.141622217459199,8.8832444349184,0.5212000095260453,0.3445037100544005,-0.6369975266303997,0.0020047050909531,0.0020047050909531,0.005660202324779675
1589550806.8215578,0.06647973348139923,-4.157040533037201,8.889439200444198,0.5044444444444445,0.3333333333333333,-0.6444444444444445,0.0007068292743883199,-6.117374182795245e-05,0.00032282776628018376
1589550806.8315578,0.06334618452539219,-4.166653815474608,8.836538154746078,0.5044444444444445,0.3333333333333333,-0.6444444444444445,-0.00036501210842110874,-0.002181661564992912,4.205542766870258e-06
1589550806.8415577,0.06406294385886223,-4.154062943858862,8.787811168423413,0.5044444444444445,0.3333333333333333,-0.6444444444444445,-0.002709911681537133,-0.003153110104417318,0.002181661564992912
1589550806.8515577,0.05529800046321316,-4.145298000463213,8.832649000231607,0.5044444444444445,0.3333333333333333,-0.6444444444444445,-0.006256023595431066,-0.006321037211125289,0.002181661564992912
1589550806.8615577,0.07232583388624164,-4.15883708305688,8.841162916943121,0.5058657873749255,0.33423782428909393,-0.6412141196024422,-0.005834717592195139,-0.00898035537978022,0.0019279524451843387
1589550806.8715577,0.08363462409990433,-4.153182687950048,8.853182687950047,0.5166666666666667,0.3411111111111111,-0.6166666666666667,-0.008032291462573104,-0.009172420831468197,0.0010415321960978172
1589550806.8815577,0.06681240216995091,-4.163187597830049,8.831311619529558,0.5166666666666667,0.3411111111111111,-0.6166666666666667,-0.005501845744407796,-0.0051064409289586325,0.004315631298060308
1589550806.8915577,0.06424399198931909,-4.161512016021362,8.778487983978637,0.5166666666666667,0.3411111111111111,-0.6166666666666667,-0.0028095446372276046,-0.0041318492748549426,0.00585056312958609
1589550806.9015577,0.07909629565555869,-4.132711113033324,8.815422226066648,0.5166666666666667,0.3411111111111111,-0.6166666666666667,-0.0011894096342156932,-0.003272492347489368,0.0034696500509278426
1589550806.9115577,0.07002616612244016,-4.15992150163268,8.869843003265359,0.5166666666666667,0.3411111111111111,-0.6166666666666667,-0.002178807283811283,-0.003272492347489368,0.005448445350119022
1589550806.9215577,0.0437973811164714,-4.151265793705491,8.87873420629451,0.510843862470327,0.3411111111111111,-0.6399578834520254,-0.0031344156736654426,0.0024440323045458153,0.00640690802115481
1589550806.9315577,0.05701899589726563,-4.15,8.837452510256837,0.51,0.3411111111111111,-0.6433333333333333,-0.002344250116893456,0.006985461269873016,0.005616742464382823
1589550806.9415576,0.08847634256362978,-4.14152365743637,8.77304731487274,0.51,0.3411111111111111,-0.6433333333333333,0.00168304583492123,0.0019218569992825924,0.00687739518169319
1589550806.9515576,0.0815712357182839,-4.148428764281716,8.78685752856343,0.51,0.3411111111111111,-0.6433333333333333,-0.0005766450960778572,0.0056880085509477376,0.00838385580235925
1589550806.9615576,0.08987112302723782,-4.179613369081713,8.859097861190664,0.51,0.3411111111111111,-0.6433333333333333,-0.0032443757536805813,8.434978142636031e-05,0.008726646259971648
1589550806.9715576,0.0763588152891735,-4.15546177706624,8.855461777066239,0.5311111111111111,0.3411111111111111,-0.6355555555555555,-0.002875300710756868,0.003073896529123118,0.009123837896704148
1589550806.9815576,0.06163996948893974,-4.1750800915331805,8.865240274599543,0.5311111111111111,0.3411111111111111,-0.6355555555555555,-0.001269723702585501,0.002718340325260047,0.010729414904875514
1589550806.9915576,0.06908023344508897,-4.152759299664734,8.798277898994199,0.5311111111111111,0.3411111111111111,-0.6355555555555555,-0.002081330597912144,0.005153161011239976,0.009917808009548872
1589550807.0015576,0.05800781763854697,-4.128007817638547,8.797968729445811,0.5311111111111111,0.3411111111111111,-0.6355555555555555,0.00022157724480867825,0.005671467296904224,0.00937858641323748
1589550807.0115576,0.050125721158363556,-4.120125721158364,8.829497115366546,0.5311111111111111,0.3411111111111111,-0.6355555555555555,-0.003217636143667736,0.006531270644023327,0.011957996454594791
1589550807.0215576,0.052256386721737796,-4.151935903319566,8.862897353526083,0.5244444444444445,0.3533333333333333,-0.6311111111111111,-0.005665328205774197,0.0022166208810297803,0.011119482118256478
1589550807.0315576,0.026688860546055904,-4.16,8.756688860546056,0.5244444444444445,0.3533333333333333,-0.6311111111111111,-0.006788198527760863,-0.0012088062338644011,0.012485566273025269
1589550807.0415576,0.05141262364578427,-4.157174752708432,8.784237870937352,0.5244444444444445,0.3533333333333333,-0.6311111111111111,-0.008252188820236732,0.0009489148794698328,0.013872613501073156
1589550807.0515575,0.061096814215960936,-4.1410968142159605,8.814387256863844,0.5244444444444445,0.3533333333333333,-0.6311111111111111,-0.011640206994626043,-0.006664628565923726,0.012238426349350996
1589550807.0615575,0.0694901144640999,-4.1494901144641005,8.847960457856399,0.5244444444444445,0.3533333333333333,-0.6311111111111111,-0.008893505911404509,-0.007580195593664238,0.014069560404832017
1589550807.0715575,0.061839630458198694,-4.092877413207391,8.874481108625405,0.5180974903563768,0.3370125942497307,-0.6347379420185784,-0.009616804489245985,-0.0058554990189265185,0.015070958401728264
1589550807.0815575,0.041832568618292716,-4.0436651372365855,8.88,0.5166666666666667,0.3333333333333333,-0.6355555555555555,-0.011799236381473946,-0.006445033581985201,0.017253390293956228
1589550807.0915575,0.020836373563646295,-4.001672747127293,8.774600054600054,0.5166666666666667,0.3333333333333333,-0.6355555555555555,-0.011999138607461015,-0.005499771013926861,0.02372457460625454
1589550807.1015575,-0.07652649184636522,-3.525264918463652,8.77095036138821,0.5166666666666667,0.3333333333333333,-0.6355555555555555,-0.022245363427769553,-0.016129126510631246,0.023427938415615447
1589550807.1115575,-0.1,-3.754053359874145,9.14706295951456,0.5173274044584284,0.3333333333333333,-0.6345172533113587,-0.03042940533065089,-0.03194120076481869,0.019862667243435966
1589550807.1215575,-0.10608675964499185,-3.6656529614200326,8.875652961420032,0.5244444444444445,0.3333333333333333,-0.6233333333333333,-0.019113198716546872,-0.003983774871848585,0.052454517651265464
1589550807.1315575,-0.11513207383404699,-3.5726792327276935,8.811886789723411,0.5244444444444445,0.3333333333333333,-0.6233333333333333,-0.023261452013008343,-0.01255896101908332,0.07117156432060795
1589550807.1415575,-0.09692975350075222,-3.433128110172434,8.78154958916792,0.5244444444444445,0.3333333333333333,-0.6233333333333333,-0.024585162101836276,-0.010573395885841415,0.08440866520888732
1589550807.1515574,-0.07080475908956549,-3.3608047590895653,8.885171445462607,0.5244444444444445,0.3333333333333333,-0.6233333333333333,-0.01985441808178417,-0.011911353008721832,0.1061991318947392
1589550807.1615574,-0.08996386685856018,-3.35003613314144,8.8401806657072,0.5244163408899913,0.3333614368877865,-0.6232811410179202,-0.014180800172453925,-0.005489627541138042,0.13425101653296578
1589550807.1715574,-0.07817234811676449,-3.3398958292844094,8.875378784934117,0.5166666666666667,0.3411111111111111,-0.6088888888888889,-0.012386507131925103,-0.01307860612763738,0.16196977869875592
1589550807.1815574,-0.07002079527344814,-3.2502287480079293,8.810166362187585,0.5166666666666667,0.3411111111111111,-0.6088888888888889,-0.004383738841952709,-0.0032974448843377836,0.18864567299866392
1589550807.1915574,-0.028181956691488753,-2.8663623897766013,8.769996952787247,0.5166666666666667,0.3411111111111111,-0.6088888888888889,-0.0005951194811242972,-0.006346666934495158,0.2794496684821878
1589550807.2015574,-0.020193878911383245,-2.9382550897975506,8.945734663949567,0.5166666666666667,0.3411111111111111,-0.6088888888888889,0.006375793427287741,-0.005475302820943655,0.3570010745882717
1589550807.2115574,-0.13500632288885767,-3.0358386024073813,8.767906655425975,0.5166666666666667,0.3411111111111111,-0.6088888888888889,0.006544984694978735,-0.004408716935908174,0.4383365376609661
1589550807.2215574,-0.11287730434195421,-3.0942453913160914,9.085472347896548,0.5056166795467221,0.3411111111111111,-0.6329979516960407,-0.0023308967034450572,-0.029018549236718587,0.5108211000099163
1589550807.2315574,-0.0866109027978079,-3.0998327083934236,8.962719930775886,0.5044444444444445,0.3411111111111111,-0.6355555555555555,0.013274815967608659,-0.008190355210428754,0.6068327511129661
1589550807.2415574,-0.0722575135035317,-3.054515027007063,8.789406306264715,0.5044444444444445,0.3411111111111111,-0.6355555555555555,0.013647244374450604,-0.011934376667278639,0.653031858312857
1589550807.2515574,-0.12994835072123795,-3.1697417536061896,9.02876041730971,0.5044444444444445,0.3411111111111111,-0.6355555555555555,3.3804373900439585e-05,-0.038150907075792266,0.699487332509115
1589550807.2615573,-0.12131757104348005,-3.1265878552174002,8.82162170504352,0.5044444444444445,0.3411111111111111,-0.6355555555555555,0.005682636463566326,-0.03344354700107069,0.7437365172114978
1589550807.2715573,-0.21527794492015737,-3.154166165239528,8.917014348530433,0.5044444444444445,0.32,-0.6355555555555555,-0.003272492347489368,-0.046648175495460804,0.7997302308239804
1589550807.2815573,-0.17881597232945246,-3.2611840276705473,8.826512152188013,0.5044444444444445,0.32,-0.6355555555555555,-0.0028204415068630766,-0.04433658993324644,0.8518882763848346
1589550807.2915573,-0.16586300608381457,-3.2741369939161853,8.89775346653902,0.5044444444444445,0.32,-0.6355555555555555,0.0021248815000196935,-0.04009774164163264,0.8752019419887105
1589550807.3015573,-0.17802394504416094,-3.2259281648675175,8.713712659470069,0.5044444444444445,0.32,-0.6355555555555555,0.011244699056654144,-0.02834854034927836,0.9113139916861761
1589550807.3115573,-0.19950752078110567,-3.2590150415622112,8.82655264546774,0.5044444444444445,0.32,-0.6355555555555555,0.005615317359995198,-0.03861978511346174,0.926174524755021
1589550807.3215573,-0.24617917738910455,-3.424716709556418,9.035671915209143,0.5285638960371808,0.3149751142515133,-0.6355555555555555,0.010074733641279912,-0.03683099000606768,0.9454865611584361
1589550807.3315573,-0.22725453921269453,-3.386927258162954,8.79979993133964,0.5311111111111111,0.3144444444444445,-0.6355555555555555,0.013389452703850445,-0.027726932892763415,0.9584197953083914
1589550807.3415573,-0.2287886046511628,-3.4433802325581393,8.784056279069766,0.5311111111111111,0.3144444444444445,-0.6355555555555555,-0.0023138042986213785,-0.052049548886288495,0.963056090475314
1589550807.3515573,-0.35,-3.492555198200509,8.836349716856416,0.5311111111111111,0.3144444444444445,-0.6355555555555555,0.010948126237143058,-0.03264528665053669,0.9612608298524488
1589550807.3615572,-0.35,-3.5504863755648075,8.753590892050276,0.5311111111111111,0.3144444444444445,-0.6355555555555555,0.011850884973360749,-0.0308397691781013,0.9666773822697549
1589550807.3715572,-0.3030261747364659,-3.4347364659639092,8.927895301054136,0.5502485954777361,0.29791661703690464,-0.625986813372243,-0.0042270180060786505,-0.058725533922890705,0.9718369452884459
1589550807.3815572,-0.34834397021672653,-3.4030341709879006,9.073312059566547,0.5555555555555556,0.2933333333333333,-0.6233333333333333,0.0063794963393307555,-0.04589763704267514,0.9724266922712863
1589550807.3915572,-0.45017288990274945,-3.439769480129667,8.869769480129667,0.5555555555555556,0.2933333333333333,-0.6233333333333333,0.0043570366757224276,-0.04690572364734761,0.9785443628962184
1589550807.4015572,-0.48054257936988176,-3.399782968252047,8.830434063495906,0.5555555555555556,0.2933333333333333,-0.6233333333333333,0.003331678575350828,-0.04684653741948615,0.9907347699093724
1589550807.4115572,-0.5228425914720239,-3.38286296341119,8.864274073177619,0.5555555555555556,0.2933333333333333,-0.6233333333333333,0.007945894105449748,-0.04223232188938723,1.0110373182418075
1589550807.4215572,-0.504631086540506,-3.3718524346162027,8.842778651924304,0.5433333333333333,0.28,-0.65,0.003474561617680929,-0.04916786964387916,1.0355220666979812
1589550807.4315572,-0.5492228364873486,-3.3896891345949394,8.869533701892408,0.5433333333333333,0.28,-0.65,0.005420243757176946,-0.03943945894639909,1.0491418416744533
1589550807.4415572,-0.6018988351348515,-3.4851478644138942,8.826750970720957,0.5433333333333333,0.28,-0.65,0.007341248810509101,-0.042100550516912645,1.0644759719458052
1589550807.4515572,-0.5501096275474351,-3.270420238931834,8.839963457484188,0.5433333333333333,0.28,-0.65,0.005458140082594003,-0.04254240051736178,1.0766320445584994
1589550807.4615571,-0.6120851710462919,-3.3631277565694377,8.964170342092583,0.5433333333333333,0.28,-0.65,0.007993819501751761,-0.04762173169590074,1.0817293135025412
1589550807.4715571,-0.6471610087122485,-3.346593210454698,8.91,0.5555555555555556,0.2611111111111111,-0.6444444444444445,0.004673009038777694,-0.05017821599483697,1.0885871837497048
1589550807.4815571,-0.6101003764115432,-3.302120451693852,8.91,0.5555555555555556,0.2611111111111111,-0.6444444444444445,0.008715696892016855,-0.05017821599483697,1.087778646179057
1589550807.4915571,-0.7367243862625228,-3.4560224690330634,8.85140383445892,0.5555555555555556,0.2611111111111111,-0.6444444444444445,0.00662155198704463,-0.0469822909394135,1.0811664400381198
1589550807.501557,-0.6816811320754718,-3.3044830188679244,8.976357547169812,0.5555555555555556,0.2611111111111111,-0.6444444444444445,0.006544984694978735,-0.04266465589185289,1.0799530385151141
1589550807.511557,-0.7453255860548988,-3.259171508715688,8.677869164496093,0.5555555555555556,0.2611111111111111,-0.6444444444444445,0.01456164021222553,-0.03007204749053343,1.0727965586561607
1589550807.521557,-0.8088176114006168,-3.3127655003722216,8.895931723917897,0.5656290309239368,0.24096416037434865,-0.6599420988573387,0.0019084144284309476,-0.047810731527855026,1.068152871083306
1589550807.531557,-0.8801302748543987,-3.310202649773509,8.600463199482306,0.57,0.23222222222222225,-0.6666666666666666,0.010903570897585781,-0.03929201383097338,1.0744825315411453
1589550807.541557,-0.9444140185960969,-3.4101995844828177,8.82902762167501,0.57,0.23222222222222225,-0.6666666666666666,0.008566148014667173,-0.05019998728459356,1.0814948001899012
1589550807.551557,-0.9149172817510818,-3.3490150165436496,8.929180453041486,0.57,0.23222222222222225,-0.6666666666666666,0.0036300871675085675,-0.059548699512281075,1.096302982731377
1589550807.561557,-0.9808099910793934,-3.395074437506195,8.867057785707205,0.57,0.23222222222222225,-0.6666666666666666,0.009280181523532837,-0.05312976255039825,1.1025252150566147
1589550807.571557,-1.017647691263015,-3.3217615436849255,8.858823845631507,0.5876476912630149,0.20869196720486896,-0.6705883758362255,0.0032080498770883778,-0.053194111264302464,1.1058458163733824
1589550807.581557,-1.0421753164185528,-3.287824683581447,8.882175316418554,0.59,0.20555555555555555,-0.6711111111111111,0.00298797882369146,-0.05506334285972343,1.1125529515209946
1589550807.591557,-1.1027065614541436,-3.2624311461819517,8.97784426909024,0.59,0.20555555555555555,-0.6711111111111111,0.0023142600195940194,-0.0623399962025867,1.123453150662436
1589550807.601557,-1.2127074064059389,-3.2786740738919886,8.887292593594061,0.59,0.20555555555555555,-0.6711111111111111,0.007274225223991631,-0.05002751987139777,1.1531648932442389
1589550807.611557,-1.2581251214299591,-3.3486252185739267,8.948625218573927,0.59,0.20555555555555555,-0.6711111111111111,0.006804054356630895,-0.05407795193740629,1.18097439340992
1589550807.621557,-1.2416538962897021,-3.266064286395574,8.913307792579404,0.5816011544562081,0.20030627709068557,-0.6585128427954232,0.00551429127861107,-0.05357098307458391,1.2219877422449024
1589550807.631557,-1.24,-3.26,8.938026556537194,0.5811111111111111,0.2,-0.6577777777777778,0.006218459677436014,-0.05192209681241887,1.2445483936147745
1589550807.641557,-1.2313520969375285,-3.234056290812585,8.854873066312813,0.5811111111111111,0.2,-0.6577777777777778,0.008431664467896621,-0.056929086096087086,1.2722313668176066
1589550807.651557,-1.2657465787188094,-3.1674434872420836,8.902556512757917,0.5811111111111111,0.2,-0.6577777777777778,0.008726646259971648,-0.058788868183197424,1.2888288986907503
1589550807.661557,-1.2773285537991421,-3.2332855379914203,8.98328553799142,0.5811111111111111,0.2,-0.6577777777777778,0.01192433109008584,-0.05570717742469443,1.2984470277685929
1589550807.671557,-1.3091493597885415,-3.1434025608458342,8.747655761903127,0.5875887466196759,0.1622137928667056,-0.6988028026653545,0.009910267495216937,-0.05560143975640297,1.3109002292024936
1589550807.681557,-1.4206063798784998,-3.112348405030375,8.601742025151875,0.5877777777777777,0.16111111111111112,-0.7,0.006801155944668997,-0.060659571736984434,1.3131894812926062
1589550807.691557,-1.494085,-3.174085,8.820706,0.5877777777777777,0.16111111111111112,-0.7,-0.0011446632816126566,-0.07716487867994717,1.3182536744744728
1589550807.701557,-1.4294569380712199,-3.0243820395160985,8.980936326747317,0.5877777777777777,0.16111111111111112,-0.7,-0.008828783663816456,-0.09714317850905609,1.3404001986733796
1589550807.711557,-1.5442643991657308,-3.0565586394994386,8.896228140542275,0.5877777777777777,0.16111111111111112,-0.7,0.0027719667517987125,-0.07989858582399036,1.3696903927148771
1589550807.721557,-1.5460219399538107,-3.0540146266358734,9.012937836797535,0.5877777777777777,0.13712086220169362,-0.7129947181592678,0.00469176900358392,-0.06610673869698354,1.4013811320420202
1589550807.731557,-1.5944561361313212,-3.018882207924959,9.0688972400938,0.5877777777777777,0.13444444444444445,-0.7144444444444444,0.008606353814833143,-0.05866099785403164,1.4293574011820227
1589550807.741557,-1.5511249182472204,-2.875428384565075,8.69310660562459,0.5877777777777777,0.13444444444444445,-0.7144444444444444,0.01990962370642812,-0.04754852190439751,1.468735516296796
1589550807.7515569,-1.600333319410217,-2.8726249947788314,8.831166617935759,0.5877777777777777,0.13444444444444445,-0.7144444444444444,0.011944599346500811,-0.06473625744642209,1.4961925865926367
1589550807.7615569,-1.6460992171618876,-2.897399478107925,8.921749347634906,0.5877777777777777,0.13444444444444445,-0.7144444444444444,0.006354160470034428,-0.06995500654629475,1.514552750071815
1589550807.7715569,-1.6950265210608424,-2.9285865834633387,8.960733229329172,0.586108164326573,0.13027041081643267,-0.7159947997919917,0.003272492347489368,-0.06977607162258376,1.5326230354054309
1589550807.7815568,-1.8985625937031485,-2.9785738380809597,8.964295352323838,0.5722222222222222,0.09555555555555556,-0.7288888888888889,0.007167878509496484,-0.07464443017773771,1.587934799336383
1589550807.7915568,-1.9164644632010728,-2.9632322316005366,8.943535536798926,0.5722222222222222,0.09555555555555556,-0.7288888888888889,0.007988397250077483,-0.07308566242726255,1.6316408835751477
1589550807.8015568,-1.9340657374270107,-2.9840657374270108,8.91791235009732,0.5722222222222222,0.09555555555555556,-0.7288888888888889,0.010260980196361229,-0.06608522317689978,1.672531073852214
1589550807.8115568,-1.9760151166080595,-2.99,8.852375813427106,0.5722222222222222,0.09555555555555556,-0.7288888888888889,0.010122579868339148,-0.0643590161672909,1.6913602215680523
1589550807.8215568,-2.0007860295528688,-2.9144977931299176,9.029541546728074,0.5836074756391394,0.07997573509030044,-0.7438694854900958,0.003934610513875147,-0.078477895835914,1.710360746450612
1589550807.8315568,-2.071680250352488,-2.8931761752467415,8.99028714880154,0.5933333333333334,0.06666666666666668,-0.7566666666666667,0.006310267950727547,-0.07640958463832366,1.7513533733372342
1589550807.8415568,-2.11,-2.834525566013737,8.731788349020604,0.5933333333333334,0.06666666666666668,-0.7566666666666667,0.012462276886775842,-0.06607753945296899,1.7871981734200815
1589550807.8515568,-2.1335689177673625,-2.839281529612271,8.97853962505326,0.5933333333333334,0.06666666666666668,-0.7566666666666667,0.003663079019342994,-0.08344663765732409,1.812413427914207
1589550807.8615568,-2.2126198406669393,-2.810389177818033,8.908158514969127,0.5933333333333334,0.06666666666666668,-0.7566666666666667,0.009732571613713046,-0.07395439199685194,1.8418090159942095
1589550807.8715568,-2.301540079949506,-2.8243600532996704,9.07911038642261,0.5799710903834615,0.017035478567142784,-0.7748011392414927,0.00855864959832902,-0.07403687849778369,1.8797120078275376
1589550807.8815567,-2.369812532389987,-2.83,9.026008877672878,0.5777777777777777,0.008888888888888889,-0.7777777777777778,0.010432044827906498,-0.07060694174153662,1.90623459617483
1589550807.8915567,-2.3722527400550195,-2.6982965809353305,8.909285620715254,0.5777777777777777,0.008888888888888889,-0.7777777777777778,0.007527927973769917,-0.07319354993096783,1.9269465994072676
1589550807.9015567,-2.405908936073578,-2.674363574429431,9.023635744294312,0.5777777777777777,0.008888888888888889,-0.7777777777777778,0.0002776930412577549,-0.08592766506048584,1.9553636595026773
1589550807.9115567,-2.479214035087719,-2.6898690058479535,9.030654970760235,0.5777777777777777,0.008888888888888889,-0.7777777777777778,0.0032010461207995417,-0.08192662264993791,1.989884965399342
1589550807.9215567,-2.5270177920047643,-2.66970818134445,8.962690389339686,0.5720079075576731,-0.022364574803345,-0.7739311976310412,0.008726646259971648,-0.0711974768131326,2.033321002984153
1589550807.9315567,-2.525603470943991,-2.5051722324480674,8.916594793584013,0.5644444444444444,-0.06333333333333334,-0.7688888888888888,0.0027693850131483783,-0.07553063786507475,2.073236771425315
1589550807.9415567,-2.4413738190029117,-2.3677390219264365,8.916817398538237,0.5644444444444444,-0.06333333333333334,-0.7688888888888888,0.00034716796429086797,-0.08265462528468749,2.1055481649293553
1589550807.9515567,-2.356340167046317,-2.298170083523159,9.007319665907364,0.5644444444444444,-0.06333333333333334,-0.7688888888888888,0.0007937581624088359,-0.08429104287231473,2.159668804053377
1589550807.9615567,-2.372821561565228,-2.237485501495635,8.954663939930407,0.5644444444444444,-0.06333333333333334,-0.7688888888888888,0.001090830782496456,-0.07754947170893552,2.2016106298647986
1589550807.9715567,-2.487647685353562,-2.2490590741414245,9.11180521639736,0.5347884807444738,-0.11902867979425365,-0.778291999330343,0.00038071677567516724,-0.0805675192711506,2.244591993529975
1589550807.9815567,-2.5868089697879526,-2.27,9.106321073372115,0.5188888888888888,-0.14888888888888888,-0.7833333333333333,0.006564942661068699,-0.07305239915044595,2.291567218491096
1589550807.9915566,-2.585736563922759,-2.2214731278455178,8.86074519859752,0.5188888888888888,-0.14888888888888888,-0.7833333333333333,0.01087616916095569,-0.06339674004082993,2.316105987987149
1589550808.0015566,-2.690126695817917,-2.1978842919609822,8.887721717681355,0.5188888888888888,-0.14888888888888888,-0.7833333333333333,0.0018601239344084065,-0.07411338426438754,2.3302137848853173
1589550808.0115566,-2.8800562359007413,-2.2121972284885594,9.060986142442797,0.5188888888888888,-0.14888888888888888,-0.7833333333333333,-0.005448019527321287,-0.08531834709671246,2.3461496014730487
1589550808.0215566,-2.936551137107687,-2.176897725784626,8.95,0.517069128581198,-0.16854230021194969,-0.7771461482871845,0.0028584728069678835,-0.07459051275028049,2.366255855456383
1589550808.0315566,-2.8690937058285524,-2.039673235220753,9.097102353038995,0.5133333333333333,-0.2088888888888889,-0.7644444444444445,-0.0009011802323842018,-0.09038494890507738,2.3898205938996226
1589550808.0415566,-2.9134560623923096,-1.9412351500861522,9.025124693933074,0.5133333333333333,-0.2088888888888889,-0.7644444444444445,-0.0027607604496155884,-0.09977733310505127,2.426135271744814
1589550808.0515566,-3.0088495156685173,-1.9305922331797718,8.927038834101142,0.5133333333333333,-0.2088888888888889,-0.7644444444444445,0.007061805641307524,-0.0864912311802233,2.45649373329218
1589550808.0615566,-3.0879081980832566,-1.8952295047918584,8.893431148562444,0.5133333333333333,-0.2088888888888889,-0.7644444444444445,0.009899557179678768,-0.07906019664182412,2.46949479151702
1589550808.0715566,-3.3371186383778704,-1.926148449039882,9.082296898079765,0.4576414066812885,-0.27154230637243937,-0.7748866806917029,0.004126795802735099,-0.10046226322914671,2.4755292099049395
1589550808.0815566,-3.3641860115128486,-1.8855348207231273,9.058372023025697,0.44222222222222224,-0.2888888888888889,-0.7777777777777778,0.004623769803890881,-0.10003171498936875,2.4835764713100494
1589550808.0915565,-3.213088432193484,-1.615404756338597,8.913051027564661,0.44222222222222224,-0.2888888888888889,-0.7777777777777778,0.004447547052643457,-0.09414426277327297,2.5107535255101845
1589550808.1015565,-3.2060882640675388,-1.4678234718649226,9.130294213558463,0.44222222222222224,-0.2888888888888889,-0.7777777777777778,0.005240801814075965,-0.11062468351941956,2.5145622588924277
1589550808.1115565,-3.3051828305324964,-1.38867382061146,9.028308159546468,0.44222222222222224,-0.2888888888888889,-0.7777777777777778,0.01201243441898284,-0.09061713961960992,2.461070614656813
1589550808.1215565,-3.3149674976145036,-1.3489804985687024,9.01809100667939,0.3651507169741306,-0.3231428912213741,-0.7380742750742154,0.011450177755952409,-0.08323677053294828,2.383638044019923
1589550808.1315565,-3.2937279572217744,-1.2710075294395187,9.066272042778225,0.3322222222222222,-0.3377777777777778,-0.7211111111111111,0.0029757397108450614,-0.09643823781465459,2.34084591542613
1589550808.1415565,-3.399627718783681,-1.1812765694294751,9.045638284714737,0.3322222222222222,-0.3377777777777778,-0.7211111111111111,0.00023789466488248067,-0.10298100203712651,2.3034729233121563
1589550808.1515565,-3.5658254329193633,-1.0896109847822286,8.966309253104775,0.3322222222222222,-0.3377777777777778,-0.7211111111111111,0.006629854649859691,-0.09536799432241073,2.243689862920855
1589550808.1615565,-3.586908812846492,-1.02272796788377,8.915270502771936,0.3322222222222222,-0.3377777777777778,-0.7211111111111111,0.014815571516732119,-0.07903549685398573,2.1615713855976733
1589550808.1715565,-3.6006910766246363,-0.9889633850630456,9.028292919495636,0.33072488953551027,-0.33820010238172216,-0.720151282465783,0.009252091301055356,-0.08685409470691532,2.1153425449220564
1589550808.1815565,-3.680587281167851,-0.8691190782482242,9.073189216399127,0.2888888888888889,-0.35,-0.6933333333333334,0.0011655702930148384,-0.09149098378159673,2.0363461753163965
1589550808.1915565,-3.6290550780654023,-0.724527539032701,8.914654427096577,0.2888888888888889,-0.35,-0.6933333333333334,0.012088372260191806,-0.07341491435698418,1.9823272597039796
1589550808.2015564,-3.4609647567036017,-0.6475563243015435,9.014887351396913,0.2888888888888889,-0.35,-0.6933333333333334,0.005949890310378713,-0.08530809312090126,1.9249130185151433
1589550808.2115564,-3.4321344421344424,-0.5500051221790352,9.156423815119467,0.2888888888888889,-0.35,-0.6933333333333334,-0.000935237274878323,-0.09833092267535568,1.8458451886930174
1589550808.2215564,-3.571853403969321,-0.4314869138926228,9.134094251601171,0.28979406622563103,-0.35135776600511315,-0.684281559965912,0.004161148119772201,-0.0829454030170876,1.7533340109898035
1589550808.2315564,-3.5348348411529558,-0.35476877761413844,8.98503303176941,0.2911111111111111,-0.3533333333333333,-0.6711111111111111,0.007101209707488395,-0.06323215331392301,1.673074989439289
1589550808.2415564,-3.51,-0.29209222649196726,9.164423584425204,0.2911111111111111,-0.3533333333333333,-0.6711111111111111,0.0018770481169338637,-0.07912389236176304,1.565568530749313
1589550808.2515564,-3.3265145989694846,-0.19845093287532645,9.042923087782038,0.2911111111111111,-0.3533333333333333,-0.6711111111111111,-0.0003495288433009255,-0.07278995265910679,1.4751029827409763
1589550808.2615564,-3.352129849564529,-0.13757403008709423,9.151833729216152,0.2911111111111111,-0.3533333333333333,-0.6711111111111111,-0.0036694407462505483,-0.06850771423832948,1.3932347267696676
1589550808.2715564,-3.465953014621324,-0.08755873172334483,9.134817151306061,0.2853437745285946,-0.3634261723527371,-0.6494835989266743,0.0012403607980895305,-0.061703138006825316,1.2885488168873749
1589550808.2815564,-3.4059616611089853,-0.05860948632445927,9.04,0.2822222222222222,-0.3688888888888889,-0.6377777777777778,0.002969129323336943,-0.05548068839524304,1.2097249572663082
1589550808.2915564,-3.3967542932147157,-0.023283261020162614,9.04333959237248,0.2822222222222222,-0.3688888888888889,-0.6377777777777778,-0.0010949273140382625,-0.058548762301803114,1.1496864863727627
1589550808.3015563,-3.4921728474426454,0.03869138977058138,9.034790067901483,0.2822222222222222,-0.3688888888888889,-0.6377777777777778,-0.003795007699207908,-0.0615632390924607,1.0836285557100185
1589550808.3115563,-3.463438591299201,0.08329505770938148,9.036503995264871,0.2822222222222222,-0.3688888888888889,-0.6377777777777778,0.0007313957445468987,-0.04653376294075026,1.0127161609550617
1589550808.3215563,-3.3951679490973663,0.10812074578277597,9.142013169576797,0.2822222222222222,-0.3688888888888889,-0.6377777777777778,-0.001976666730164487,-0.05194988789017303,0.9727722394530687
1589550808.3315563,-2.2007158434194745,0.4838927052666012,9.118187765783448,0.2933333333333333,-0.37666666666666665,-0.6444444444444445,-0.00880473266371267,-0.05865350491633837,0.8031614226624778
1589550808.3415563,-2.8608887456793015,0.09775440857695238,9.4745427382975,0.2933333333333333,-0.37666666666666665,-0.6444444444444445,-0.020409636300966556,-0.04550155621205485,0.4520564064258554
1589550808.3515563,-3.2220213583938486,0.18861683041435287,8.752181546347716,0.2933333333333333,-0.37666666666666665,-0.6444444444444445,0.021477134758605843,0.027726183259665953,0.19405194647843788
1589550808.3615563,-2.9937063614351747,0.21947083425049524,8.93893946731235,0.2933333333333333,-0.37666666666666665,-0.6444444444444445,0.012807741236370337,0.019397674978781025,0.03381599436982301
1589550808.3715563,-3.023314563106796,0.1258766990291262,9.377301941747573,0.2796210355987055,-0.37666666666666665,-0.6522800431499461,-0.03329872164766705,-0.03727951266247063,-0.19019577255346506
1589550808.3815563,-3.2949161178078787,0.11790356654653908,9.018553498198086,0.27,-0.37666666666666665,-0.6577777777777778,-0.00960709188347288,0.004705199013353048,-0.3709590560068055
1589550808.3915563,-3.237263479402262,0.12154230613893377,9.055821132875606,0.27,-0.37666666666666665,-0.6577777777777778,-0.008102563069208268,0.015727474644475548,-0.4900544624216299
1589550808.4015563,-3.2357366420746705,0.13,9.102421193829645,0.27,-0.37666666666666665,-0.6577777777777778,-0.011034632516521271,0.006344035764780417,-0.5850181820512566
1589550808.4115562,-3.3185320384652006,0.0873398076739979,9.084128153860803,0.27,-0.37666666666666665,-0.6577777777777778,-0.0020365705811647154,0.017102955435727638,-0.6785613469933548
1589550808.4215562,-3.3167305966801255,0.012307462240167488,9.121153731120083,0.2832694033198744,-0.38207271987105995,-0.6489315088978616,-0.0061465060208433665,0.026914132984239884,-0.8064603163033897
1589550808.4315562,-3.3,-0.01,9.11,0.3,-0.3888888888888889,-0.6377777777777778,-0.015271630954950384,0.025089107997418484,-0.8770279491271507
1589550808.4415562,-3.2946092790539003,-0.07468865135319536,9.029139185808505,0.3,-0.3888888888888889,-0.6377777777777778,-0.014683594520164994,0.028617326606130814,-0.9528846492144656
1589550808.4515562,-3.2856273702896797,-0.14749051884128137,9.029962075365125,0.3,-0.3888888888888889,-0.6377777777777778,-0.013703820263606326,0.03258805251009242,-1.0387322360584879
1589550808.4615562,-3.2886403198523757,-0.19376087959403354,9.13728063970475,0.3,-0.3888888888888889,-0.6377777777777778,-0.013796853904876479,0.03570077963050749,-1.0817643901705352
1589550808.4715562,-3.3144394894664,-0.26470859603260033,9.188878978932799,0.3,-0.3888888888888889,-0.6377777777777778,-0.015907543533213348,0.04132928530607247,-1.1296066884128373
1589550808.4815562,-3.2892082501663342,-0.34471723220226214,9.152471723220227,0.31222222222222223,-0.38,-0.6444444444444445,-0.01746563059266614,0.04441742468674275,-1.220724197700135
1589550808.4915562,-3.5376515771825163,-0.4614167349007681,9.141174211408742,0.31222222222222223,-0.38,-0.6444444444444445,-0.01253794019644472,0.05345070834232633,-1.2905321813204818
1589550808.5015562,-3.631544513457557,-0.5397060041407867,9.141544513457557,0.31222222222222223,-0.38,-0.6444444444444445,-0.009288096637877693,0.05556822996068798,-1.3221189783590204
1589550808.5115561,-3.7385104714095223,-0.5785104714095223,9.225815880984129,0.31222222222222223,-0.38,-0.6444444444444445,-0.010420860733594075,0.05536946619845183,-1.3154104718362922
1589550808.5215561,-3.7548794311261307,-0.6025602844369345,9.169517724504523,0.3255925965039916,-0.37687076346596887,-0.6458668246871859,-0.016336157689641365,0.04097191446313078,-1.2908961060989517
1589550808.5315561,-3.74011440842046,-0.6099427957897701,9.110457633681838,0.3641457113465774,-0.3678476940347254,-0.6499682198832056,-0.01311492943532033,0.049024985098933375,-1.2449936034748768
1589550808.5415561,-3.8360597369761695,-0.638179210928508,9.177581841166814,0.3644444444444445,-0.36777777777777776,-0.65,-0.008065631497227894,0.04789724579146323,-1.1407809282276873
1589550808.551556,-3.773647142350018,-0.6817756478523253,9.055140930067447,0.3644444444444445,-0.36777777777777776,-0.65,-0.006932370962216739,0.050371909128455974,-1.0751619295973507
1589550808.561556,-3.551544120509128,-0.704616013389903,8.943654003347476,0.3644444444444445,-0.36777777777777776,-0.65,-0.008726646259971648,0.0492760971119476,-1.0045916522776468
1589550808.571556,-3.7467370603096457,-0.7662868432985683,9.058860529895705,0.3718362088200788,-0.36542585274916684,-0.6587357215348405,-0.01268492682694201,0.038228188444824625,-0.9738311431128697
1589550808.581556,-3.6789648960941963,-0.85,9.21586859101094,0.3888888888888889,-0.36,-0.6788888888888889,-0.02181661564992912,0.02023682563636109,-0.9360093962240325
1589550808.591556,-3.651644897307894,-0.85,9.076986938384735,0.3888888888888889,-0.36,-0.6788888888888889,-0.014285608847103965,0.028421128688232218,-0.897709299095034
1589550808.601556,-3.605320549072027,-0.8538301372680067,8.990208215515912,0.3888888888888889,-0.36,-0.6788888888888889,-0.0046884805448701205,0.040453384700797436,-0.8689970432757775
1589550808.611556,-3.5670088188521034,-0.8933482723724158,9.006339453520312,0.3888888888888889,-0.36,-0.6788888888888889,-0.011555993530286655,0.03345051440018877,-0.8583620792056437
1589550808.621556,-3.3644185077115463,-0.9332732388495206,9.17,0.3859683432911861,-0.35707945440229727,-0.677030359872169,-0.016101803652383857,0.026749453392285436,-0.8555201900045288
1589550808.631556,-3.0156486536675953,-0.8900798514391829,9.109520891364902,0.37666666666666665,-0.3477777777777778,-0.6711111111111111,-0.013952181487008152,0.02706828219933183,-0.8541292131355136
1589550808.641556,-3.266346292124059,-1.0133090455874598,9.0415186232683,0.37666666666666665,-0.3477777777777778,-0.6711111111111111,-0.010330341637392855,0.038113975794729006,-0.8868157774924855
1589550808.651556,-3.71,-1.1,9.22,0.37666666666666665,-0.3477777777777778,-0.6711111111111111,-0.011999138607461015,0.04145156973486533,-0.9162978572970232
1589550808.661556,-3.5962518587755445,-1.0593756638484089,8.89500531078727,0.37666666666666665,-0.3477777777777778,-0.6711111111111111,-0.009340282023902663,0.040565284207012546,-0.9340235678540786
1589550808.671556,-3.4884394885978995,-1.0662420456084023,9.127229260555888,0.3846426138329583,-0.35506016432091364,-0.6711111111111111,-0.004974746221337341,0.057921719917678055,-0.9212413350473508
1589550808.681556,-3.4803268795574556,-1.0986924817701786,8.956864470706561,0.4261070600396725,-0.39291900650965267,-0.6711111111111111,-0.01382422988901279,0.03579801074848943,-0.9185864899470484
1589550808.691556,-3.4906695746306675,-1.157126687468161,9.078506749872645,0.42777777777777776,-0.3944444444444444,-0.6711111111111111,-0.015552483066598932,0.035403133934988215,-0.9260827566753934
1589550808.701556,-3.103396586856852,-1.1237410850738667,8.944964340295465,0.42777777777777776,-0.3944444444444444,-0.6711111111111111,-0.016280843922276605,0.031032968800922163,-0.9231693132526826
1589550808.711556,-2.904721329288722,-1.1458885317154888,8.988021007832662,0.42777777777777776,-0.3944444444444444,-0.6711111111111111,-0.014579508775120377,0.02920880056417458,-0.9255672766950233
1589550808.721556,-3.181700944790796,-1.243664759946012,9.26070666495276,0.43369396776428076,-0.42271068549106977,-0.6734118516614178,-0.017344833414568783,0.0451865732123842,-0.9943948982780136
1589550808.731556,-3.294393093107937,-1.2702980574366072,9.154889855502283,0.4477777777777778,-0.49,-0.6788888888888889,0.001090830782496456,0.07744898555724837,-1.050470043544087
1589550808.741556,-3.0815583150718284,-1.2084416849281714,8.810392013635257,0.4477777777777778,-0.49,-0.6788888888888889,-0.0014022943562991125,0.07263272108457511,-1.0533598022276909
1589550808.751556,-3.071198458501025,-1.239966018680234,8.612159047763686,0.4477777777777778,-0.49,-0.6788888888888889,-0.04421225627345881,-0.005267323566220549,-1.1203393124276757
1589550808.761556,-3.038337159884715,-1.3595842899711787,9.121154804357383,0.4477777777777778,-0.49,-0.6788888888888889,-0.03320610182309079,0.023544807918891315,-1.1527360555211354
1589550808.771556,-3.1425340937967645,-1.3875074116949486,8.754919953694554,0.4588823007156011,-0.5574599768472768,-0.6669515267307288,-0.015267103408150063,0.05427675463609925,-1.1840939038341027
1589550808.781556,-2.843626989464246,-1.3614884555032505,9.175317940671,0.4922222222222222,-0.76,-0.6311111111111111,-0.03525495317590915,0.022953172806854362,-1.2163677752324058
1589550808.791556,-2.827334416715032,-1.4637026117237377,9.124269065583285,0.4922222222222222,-0.76,-0.6311111111111111,-0.02445623621366065,0.047088360248702554,-1.256377186671205
1589550808.8015559,-3.080299101768682,-1.5959401796462636,8.971388832299287,0.4922222222222222,-0.76,-0.6311111111111111,-0.013651698252024589,0.06476924692697926,-1.277006232821127
1589550808.8115559,-2.9654329868083265,-1.5968324733751875,8.886077319980684,0.4922222222222222,-0.76,-0.6311111111111111,-0.010480409813469052,0.06880471375409997,-1.2872224948533335
1589550808.8215559,-2.5975628727894238,-1.5167504970525654,8.951484530328926,0.5575564392045609,-0.8822464450567977,-0.598699214405029,-0.016362461737446838,0.05318485900411075,-1.3266548978374684
1589550808.8315558,-2.646871730074431,-1.6360792481885846,8.982158496377169,0.7766666666666666,-1.2922222222222222,-0.49,-0.016362461737446838,0.0615574346782262,-1.3795119312219735
1589550808.8415558,-2.6177287447435837,-1.6461694620329643,9.023898206776549,0.7766666666666666,-1.2922222222222222,-0.49,-0.016950399968179014,0.06008073871627298,-1.418760382677136
1589550808.8515558,-2.6756397839819854,-1.6783262589426275,9.078944819752495,0.7766666666666666,-1.2922222222222222,-0.49,-0.01676135264952133,0.06479627451586738,-1.449608267984063
1589550808.8615558,-2.531320675906588,-1.6479240554395291,8.803772166318588,0.7766666666666666,-1.2922222222222222,-0.49,-0.011844719881159637,0.06866066293368693,-1.4710571140757744
1589550808.8715558,-2.5472473894057335,-1.7434843364344028,9.090453009303209,0.7766666666666666,-1.2922222222222222,-0.49,-0.023137396957925063,0.05476198345459102,-1.5179651573177229
1589550808.8815558,-2.6432757218381453,-1.8128324522163481,8.978054087027246,0.7711111111111111,-0.8655555555555555,-0.7211111111111111,-0.01594735604215564,0.0663331248846382,-1.5708446800097369
1589550808.8915558,-2.8422732818218788,-1.8981171207808052,9.120195201301343,0.7711111111111111,-0.8655555555555555,-0.7211111111111111,-0.014396837013070344,0.06555786537009556,-1.5832488322424194
1589550808.9015558,-2.5460596520020764,-1.8900688292331653,8.724307437241471,0.7711111111111111,-0.8655555555555555,-0.7211111111111111,-0.012009149413630661,0.07546596907672394,-1.5655633422807644
1589550808.9115558,-2.637372933866997,-1.9954303083080736,9.194922043776062,0.7711111111111111,-0.8655555555555555,-0.7211111111111111,-0.02733335536886616,0.04558376746401473,-1.570160604067335
1589550808.9215558,-2.6972918237638694,-2.054559409673597,9.113645911881935,0.7432210611990855,-0.7879484601481801,-0.7211111111111111,-0.01665875925097316,0.07318619089159797,-1.5931094155737762
1589550808.9315557,-2.782102416155788,-2.1710746483952397,9.14214929679048,0.6177777777777778,-0.4388888888888889,-0.7211111111111111,-0.0053955409349878795,0.08350461089650205,-1.6051014404080117
1589550808.9415557,-2.4407038626609445,-2.0955643776824036,9.000424892703862,0.6177777777777778,-0.4388888888888889,-0.7211111111111111,-0.01673910266642469,0.06481969320161558,-1.626828511933225
1589550808.9515557,-2.4176657315812786,-2.1830662926325117,9.172403366307396,0.6177777777777778,-0.4388888888888889,-0.7211111111111111,-0.03424139246674811,0.04723266687611887,-1.65906246260692
1589550808.9615557,-2.50112607557052,-2.23774784885896,8.87327721661055,0.6177777777777778,-0.4388888888888889,-0.7211111111111111,-0.015267958124032886,0.07406100308201995,-1.6931966818590605
1589550808.9715557,-2.4656098274349225,-2.316097299405284,8.99,0.610786021470432,-0.40913327483669687,-0.7219241060305699,-0.023226708790722774,0.06313514167718959,-1.7300309272179493
1589550808.9815557,-2.4082750106255943,-2.4290349936246436,8.999517496812322,0.57,-0.23555555555555555,-0.7266666666666667,-0.023012712298380016,0.07149086689599468,-1.7748422198256866
1589550808.9915557,-2.356267525390141,-2.482200644042606,8.987464949219717,0.57,-0.23555555555555555,-0.7266666666666667,-0.018987751238704966,0.0781144274616462,-1.8151212377458026
1589550809.0015557,-2.3643865153397483,-2.5382390347644814,8.91355372596913,0.57,-0.23555555555555555,-0.7266666666666667,-0.020501100048953787,0.08162021717865325,-1.8764279741040986
1589550809.0115557,-2.1704671719351554,-2.5787716451150664,9.0871063308185,0.57,-0.23555555555555555,-0.7266666666666667,-0.01939574457231998,0.08636058510201014,-1.936804979061959
1589550809.0215557,-2.373219791792552,-2.665665625053951,8.761253906047683,0.57,-0.23555555555555555,-0.7266666666666667,-0.01702607886904586,0.09899880218613875,-1.9857780702629575
1589550809.0315557,-2.2758140886546805,-2.7027906075635464,9.180930525418475,0.6,-0.13777777777777778,-0.7333333333333333,-0.028412405467372236,0.07638345166809213,-2.0325221558541156
1589550809.0415556,-2.22705827650341,-2.7352944823310605,9.075292932424055,0.6,-0.13777777777777778,-0.7333333333333333,-0.0035930464646024007,0.1020892163495323,-2.0360677785687975
1589550809.0515556,-2.1269479897894064,-2.7798380663688573,8.615260051052967,0.6,-0.13777777777777778,-0.7333333333333333,-0.0002231956730299467,0.11778831860881206,-2.052500882994118
1589550809.0615556,-2.1102189693682196,-2.888576699106573,8.698905153158902,0.6,-0.13777777777777778,-0.7333333333333333,-0.019384152631294664,0.0758166986049941,-2.0680121338650945
1589550809.0715556,-2.363398404255319,-3.0848130319148934,9.456048936170212,0.5998428191489361,-0.13463416075650117,-0.7340144503546099,-0.040062762277714055,0.06402909787849968,-2.0789390165947577
1589550809.0815556,-2.214037166570966,-2.992770266743227,8.845025317116459,0.5966666666666667,-0.07111111111111111,-0.7477777777777778,-0.013043903612276225,0.09657169274969941,-2.0238135619746944
1589550809.0915556,-2.1403223642398133,-3.077203940399689,9.179786208601088,0.5966666666666667,-0.07111111111111111,-0.7477777777777778,-0.01816879154707544,0.07446965253823058,-1.9776177231585812
1589550809.1015556,-2.1847503707365297,-3.151250617894217,8.920622837370242,0.5966666666666667,-0.07111111111111111,-0.7477777777777778,-0.016553343644023083,0.08981640761722796,-1.944501041146008
1589550809.1115556,-2.2500884364136455,-3.174087175764985,8.792173090881308,0.5966666666666667,-0.07111111111111111,-0.7477777777777778,-0.01462664188624579,0.08383272298505096,-1.8855819749673035
1589550809.1215556,-2.0337800359093863,-3.1420414868013906,8.912344424494785,0.5966666666666667,-0.07111111111111111,-0.7477777777777778,-0.011130999489466262,0.08295881238585608,-1.8357690708131953
1589550809.1315556,-2.144540746858329,-3.33848641771389,9.002659762058881,0.64,-0.02666666666666667,-0.7422222222222222,-0.016342423038891125,0.08142198016166109,-1.7746614509303997
1589550809.1415555,-1.9916677859861205,-3.3587508394895904,8.84833221401388,0.64,-0.02666666666666667,-0.7422222222222222,-0.012196043290906946,0.07172979582446848,-1.7398676093547378
1589550809.1515555,-1.7848128223203354,-3.207219233480503,9.033529477238156,0.64,-0.02666666666666667,-0.7422222222222222,-0.020766620702387543,0.056338194448065655,-1.7195751552911196
1589550809.1615555,-1.815935888398323,-3.2539038325974845,8.862352613809223,0.64,-0.02666666666666667,-0.7422222222222222,-0.01397662099767952,0.07501069363601273,-1.6941126563984643
1589550809.1715555,-1.810431131753654,-3.3556886824634597,8.878275472985385,0.64,-0.02666666666666667,-0.7422222222222222,-0.0016081517495136564,0.07953658876460179,-1.6427728391003782
1589550809.1815555,-1.0116482101467938,-2.641483389132114,8.88,0.6258070792914986,0.009702692648868288,-0.7422222222222222,-0.01850816493515684,0.07092198004591109,-1.6684772315189265
1589550809.1915555,-1.788881331308195,-3.6975856831539327,9.061792247242952,0.6222222222222222,0.01888888888888889,-0.7422222222222222,-0.12282244600876412,0.06567149961555646,-2.632717032054288
1589550809.2015555,-2.1095037510226105,-3.9005914605489895,9.389271205026892,0.6222222222222222,0.01888888888888889,-0.7422222222222222,0.07704928705239497,0.19954832507866982,-3.520997824915204
1589550809.2115555,-2.3285234373640145,-4.375134114288699,8.681107552523018,0.6222222222222222,0.01888888888888889,-0.7422222222222222,0.09297684810798977,0.248127386298234,-3.2900481896090796
1589550809.2215555,-1.961499862049938,-4.023288729479928,8.245366602289971,0.6222222222222222,0.01888888888888889,-0.7422222222222222,-0.05595360745911043,0.12579698643384654,-2.9074845145797057
1589550809.2315555,-26.555504290968535,-27.60804413567634,13.256401716387414,0.5722222222222222,0.08666666666666667,-0.7288888888888889,0.04211587542839872,0.22849084533756006,-2.3880524996407893
1589550809.2415555,-16.982490192071925,-19.02061340416837,-3.155703923171229,0.5722222222222222,0.08666666666666667,-0.7288888888888889,0.1673889420073392,0.9259065742024077,-1.6504372046349385
1589550809.2515554,0.8544489159001323,2.541644218134035,-0.09278991458607067,0.5722222222222222,0.08666666666666667,-0.7288888888888889,-0.8044139706740867,-0.31702914654216674,-3.1652905402319726
1589550809.2615554,3.3173401490209673,-0.3059175186276209,15.147732147326673,0.5722222222222222,0.08666666666666667,-0.7288888888888889,-0.12218898827311381,-0.44079726554300636,-2.3710732338863134
1589550809.2715554,-0.7526789118003805,0.20283486397504757,5.271475577119313,0.5722222222222222,0.08666666666666667,-0.7288888888888889,1.1251558809487112,0.2780116421441471,-2.1904901136953
1589550809.2815554,-0.6936004091374021,-0.03810871365252547,4.3907612878086795,0.5933333333333334,0.1811111111111111,-0.7144444444444444,0.07804415804887203,0.5401677837614899,-1.5627680066948657
1589550809.2915554,0.6131058020477815,-1.4629865954394816,12.00208042736311,0.5933333333333334,0.1811111111111111,-0.7144444444444444,-0.4733589417198189,-0.3833089910453422,-0.8350506310050545
1589550809.3015554,-0.6314261277094317,-2.522869361452841,6.223357469244289,0.5933333333333334,0.1811111111111111,-0.7144444444444444,0.102183046347429,0.17880282158050198,-0.3154327831386053
1589550809.3115554,-0.5597906299684087,-2.8225750036133883,8.686643678635583,0.5933333333333334,0.1811111111111111,-0.7144444444444444,0.10670269272698163,0.04928374421301786,0.16354551519387894
1589550809.3215554,-0.46452664615638745,-2.7532921062955547,10.054980900662798,0.5933333333333334,0.1811111111111111,-0.7144444444444444,-0.11908035959383509,-0.13209845681458388,0.4885219587016654
1589550809.3315554,-0.34052753299573346,-2.3915825989872004,9.243868575302045,0.56943883993248,0.23067006038695498,-0.7126744819703071,-0.003828759937000409,-0.035588946909012334,0.6942372187301699
1589550809.3415554,-0.24270601956158722,-2.316823495109603,8.944294272006786,0.5633333333333334,0.2433333333333333,-0.7122222222222222,0.05313624189679843,-0.018820018744075212,0.8144269495855482
1589550809.3515553,-0.4112133358936201,-2.4494380970668717,8.757415870577505,0.5633333333333334,0.2433333333333333,-0.7122222222222222,-0.012783498881841646,-0.03766919215242958,0.8128797574392573
1589550809.3615553,-0.5595753653215012,-2.456713848297611,8.896076896279864,0.5633333333333334,0.2433333333333333,-0.7122222222222222,-0.021824335726239482,-0.04398397476683978,0.8032407997659249
1589550809.3715553,-5.110827431335291,-12.060370703057522,7.689907756089135,0.5633333333333334,0.2433333333333333,-0.7122222222222222,-0.012709676647647168,-0.08411407658160408,0.5537516448298136
1589550809.3815553,1.0589318361764917,1.1537860793205212,9.63660188584179,0.57,0.23555555555555555,-0.7055555555555556,-0.06167955951405012,-0.06776278822890494,-0.48458514553064114
1589550809.3915553,-0.3817561774805306,-1.0865480171465762,9.137237022241173,0.57,0.23555555555555555,-0.7055555555555556,0.16877737716788266,0.20450889732564076,-0.35732761379578964
1589550809.4015553,-1.6088969810299438,-2.193203995768029,7.750888713923677,0.57,0.23555555555555555,-0.7055555555555556,0.006359041834925702,0.049960951639737475,0.021942894685227837
1589550809.4115553,-1.9273807836387566,-7.75681279740812,9.79389085754784,0.57,0.23555555555555555,-0.7055555555555556,-0.1450408455703666,-0.14035547500069667,0.2091314888712541
1589550809.4215553,-2.054776754075124,-5.285330970942594,8.30760453579022,0.57,0.23555555555555555,-0.7055555555555556,-0.012558546937875226,-0.0023144785234854026,0.07201694203482945
1589550809.4315553,-0.87,-2.51,8.73,0.5722222222222222,0.21777777777777774,-0.7055555555555556,0.0818123086872342,0.02399827721492203,-0.07853981633974483
1589550809.4415553,-0.9595239902104005,-2.9408342028875523,8.819523990210401,0.5722222222222222,0.21777777777777774,-0.7055555555555556,0.04641218113087081,0.011791336678244998,-0.05717767040056003
1589550809.4515553,-1.19,-4.05,9.05,0.5722222222222222,0.21777777777777774,-0.7055555555555556,-0.04472406208235469,-0.01963495408493621,-0.002181661564992912
