time,acc_x,acc_y,acc_z,mag_x,mag_y,mag_z,gyr_x,gyr_y,gyr_z
1589552462.6449375,-0.05,-4.37,8.77,0.4544444444444444,0.3144444444444445,-0.6166666666666667,0.04363323129985824,0.011999138607461015,-0.05890486225480863
1589552462.6549375,-0.040933203631647215,-4.351866407263294,8.833467574578469,0.4544444444444444,0.3144444444444445,-0.6166666666666667,0.09704107041688025,-0.023606087470553653,0.1398909833474399
1589552462.6649375,-0.028110747428242572,-4.348110747428242,8.85,0.4688888888888889,0.3211111111111111,-0.5811111111111111,0.015051322529523521,-0.016220350051445752,-0.037329860012498134
1589552462.6749375,-0.020567585065822604,-4.3405675850658225,8.85,0.4688888888888889,0.3211111111111111,-0.5811111111111111,-0.029381571462876985,-0.08533818515073542,-0.020873232607905357
1589552462.6849375,-0.0278516790331217,-4.346444962900635,8.766444962900634,0.4688888888888889,0.3211111111111111,-0.5811111111111111,-0.011393687054046017,0.0643590161672909,0.0048153257574457264
1589552462.6949375,-0.02029083141636543,-4.3697091685836345,8.79,0.4688888888888889,0.3211111111111111,-0.5811111111111111,-0.03340817141161344,0.06391486916120706,-0.019102981399683253
1589552462.7049375,-0.03,-4.366902605597209,8.794601737064806,0.46403149976492714,0.3211111111111111,-0.5859685002350729,0.0758948897679475,0.03252232094963155,-0.04355622290596364
1589552462.7149374,-0.029834618029168022,-4.389834618029168,8.809834618029168,0.4477777777777778,0.3211111111111111,-0.6022222222222222,0.028125851731544527,-0.024242434142861112,0.05890486225480863
1589552462.7249374,-0.02604214402618658,-4.376978927986906,8.77281035188216,0.4477777777777778,0.3211111111111111,-0.6022222222222222,-0.08399147080362565,-0.06935594951774807,0.01870002640895612
1589552462.7349374,-0.037468886374656535,-4.36240665912397,8.727717795377405,0.4477777777777778,0.3211111111111111,-0.6022222222222222,-0.015325934475397918,0.0004300204102972143,-0.06755005323410897
1589552462.7449374,-0.03320985550708833,-4.343209855507088,8.789629566521265,0.4477777777777778,0.3211111111111111,-0.6022222222222222,-0.035364418733903294,0.020698536402207406,-0.03679204500745135
1589552462.7549374,-0.041636946660409825,-4.350818473330205,8.80836305333959,0.45005131480612476,0.3199288718563707,-0.6016765733354189,-0.04482132057539755,0.10904865386197649,-0.009518705776997856
1589552462.7649374,-0.06,-4.36,8.794167475454238,0.4755555555555556,0.30666666666666664,-0.5955555555555555,0.04072928981532315,-0.009084610118378505,0.056000920770273535
1589552462.7749374,-0.047912923808332286,-4.3640290253972225,8.775825847616666,0.4755555555555556,0.30666666666666664,-0.5955555555555555,0.04383526631679903,-0.00616277767765612,0.08196081889085145
1589552462.7849374,-0.0444755804643715,-4.359143314651721,8.743618895116093,0.4755555555555556,0.30666666666666664,-0.5955555555555555,-0.03120701803055513,-0.01717468962193179,0.043945895367219115
1589552462.7949374,-0.06691124787059348,-4.338455623935297,8.75463312819411,0.4755555555555556,0.30666666666666664,-0.5955555555555555,-0.055291605614163825,0.05611260397823337,0.027282990536815894
1589552462.8049374,-0.05403720130757071,-4.332018600653785,8.773944198038643,0.4755555555555556,0.30666666666666664,-0.5955555555555555,0.04160789776087784,0.030834472663005104,0.13190636736928846
1589552462.8149374,-0.0605709252071462,-4.368858149585708,8.831141850414292,0.46,0.3,-0.6166666666666667,0.012901212754430928,0.07608655061179653,0.036405107333764515
1589552462.8249373,-0.06252236483858421,-4.357477635161415,8.832552184623363,0.46,0.3,-0.6166666666666667,0.014275132356030375,-0.06933118494989532,-0.03157228884798507
1589552462.8349373,-0.046000319488817894,-4.370999520766773,8.786000319488817,0.46,0.3,-0.6166666666666667,-0.05257654513090913,-0.030980953405024502,-0.04144878166896757
1589552462.8449373,-0.059400638977635783,-4.350899041533546,8.799400638977636,0.46,0.3,-0.6166666666666667,0.010278623141956711,-0.08798912928041443,0.07549106628055029
1589552462.8549373,-0.04,-4.351730954161769,8.816923816647078,0.46115396944117965,0.30250026712255584,-0.6151280407450939,0.025568262324466552,-0.0020554333635351,0.06368684808067297
1589552462.8649373,-0.04,-4.359200235067849,8.846800940271397,0.46613349004523275,0.3132892284313377,-0.6084886799396897,-0.10886914301070208,0.012610465400301477,0.02783687332462801
1589552462.8749373,-0.04,-4.36,8.741646804163828,0.4666666666666667,0.3144444444444445,-0.6077777777777778,0.034786826061576716,-0.057579766567908926,-0.10143426279446287
1589552462.8849373,-0.04687298935135539,-4.366872989351355,8.700618968054066,0.4666666666666667,0.3144444444444445,-0.6077777777777778,0.03102291298242072,0.04329212735258466,-0.07533133368903629
1589552462.8949373,-0.06659393530144127,-4.37670303234928,8.763078773555044,0.4666666666666667,0.3144444444444445,-0.6077777777777778,-0.009184118900697022,0.0015668564547416178,-0.04715301299923011
1589552462.9049373,-0.07340675001619486,-4.366703375008098,8.806703375008098,0.4710621666558701,0.3118804027840758,-0.605946319448943,-0.02654032207917853,-0.017490885444493925,0.040996638817089065
1589552462.9149373,-0.06,-4.356400277853076,8.814398888587693,0.48,0.30666666666666664,-0.6022222222222222,0.07657344156970483,0.09586423987340546,-0.01736535925782758
1589552462.9249372,-0.05732708841267804,-4.3513364557936605,8.829308353650712,0.48,0.30666666666666664,-0.6022222222222222,0.13196497911325228,0.0557934819605277,-0.02281156306453002
1589552462.9349372,-0.04,-4.36,8.774283528568013,0.48,0.30666666666666664,-0.6022222222222222,0.02525042473709152,0.05797618269883769,0.05313725421835773
1589552462.9449372,-0.037147135762217086,-4.365705728475566,8.80855859271335,0.48,0.30666666666666664,-0.6022222222222222,-0.04487149400181483,-0.0381464066394451,0.06172852469433143
1589552462.9549372,-0.0308828307230923,-4.378234338553815,8.830882830723093,0.4788228923692103,0.30735331278462735,-0.6027126837350513,-0.042629842363451194,-0.07240091712121403,0.012727411732971032
1589552462.9649372,-0.03961804398533822,-4.360763912029324,8.839618043985338,0.4671759413528824,0.314147367544152,-0.6075655799918546,0.1184041654929312,0.12865337671131072,-0.163552419352418
1589552462.9749372,-0.04289294198789179,-4.346446470993945,8.75223235496973,0.4666666666666667,0.3144444444444445,-0.6077777777777778,0.0036427344760568275,0.003053807902167069,-0.09734483954809088
1589552462.9849372,-0.03395478754882235,-4.343954787548822,8.73581915019529,0.4666666666666667,0.3144444444444445,-0.6077777777777778,-0.06706433847956818,0.04902587831391689,-0.04832960059939405
1589552462.9949372,-0.04625393134208871,-4.3562539313420885,8.772507862684177,0.4666666666666667,0.3144444444444445,-0.6077777777777778,-0.10776563128625156,0.015964121266427884,0.027253615846543837
1589552463.0049372,-0.05693164636159822,-4.371022784546134,8.803068353638402,0.4659848103025774,0.3151263008085338,-0.6065277077769474,-0.029204440069759304,0.039839352967554774,-0.016770629879874564
1589552463.0149372,-0.03506317454248423,-4.378312275152505,8.824936825457517,0.46112514989832987,0.31998596121278133,-0.5976183303691602,-0.01966251917918098,-0.057170176086658205,0.09693726073285049
1589552463.0249372,-0.03209035070338815,-4.358954824648306,8.78477412324153,0.46,0.3211111111111111,-0.5955555555555555,-0.005799104562148289,-0.07347405610987522,-0.032620530515126325
1589552463.0349371,-0.04871131365167426,-4.350644343174163,8.743221715870815,0.46,0.3211111111111111,-0.5955555555555555,-0.06925640762768068,-0.024521279459321657,0.10698553622904494
1589552463.0449371,-0.06,-4.33,8.790288857233302,0.46,0.3211111111111111,-0.5955555555555555,0.0469942522139391,0.09671182614994407,-0.023488126494032285
1589552463.0549371,-0.056900317013032754,-4.336199365973934,8.826199365973935,0.4589667723376776,0.32007788344878874,-0.5965887832178779,0.004395598503613755,0.11284661735304566,0.07358862033296451
1589552463.064937,-0.04,-4.37,8.87141812284356,0.4533333333333333,0.3144444444444445,-0.6022222222222222,0.011547026512198657,0.040107200969150825,-0.03611022270724077
1589552463.074937,-0.04,-4.37,8.898093905522078,0.4533333333333333,0.3144444444444445,-0.6022222222222222,-0.027736306093233392,-0.10829649998470357,-0.14595806017798596
1589552463.084937,-0.0691515563791607,-4.34271211090521,8.74440899814689,0.4533333333333333,0.3144444444444445,-0.6022222222222222,0.049654537385501685,0.056736634251327536,-0.029541809089996325
1589552463.094937,-0.04911025469168901,-4.347722436327078,8.805444872654157,0.4533333333333333,0.3144444444444445,-0.6022222222222222,-0.09359042063187117,-0.05197585687048253,0.08220423460971543
1589552463.104937,-0.0724526898357534,-4.344528386098548,8.796037848131396,0.4533333333333333,0.313270418418895,-0.6012159142003226,0.02939082684196101,0.050774427332723124,0.12960259587050707
1589552463.114937,-0.03649093505676179,-4.366754532471619,8.817018129886476,0.4533333333333333,0.30666666666666664,-0.5955555555555555,0.04013252869281093,-0.07082138256976048,-0.017165752345630454
1589552463.124937,-0.05,-4.350580841403682,8.752323365614725,0.4533333333333333,0.30666666666666664,-0.5955555555555555,-0.015905230637834528,0.10047117281788358,-0.026940258399375923
1589552463.134937,-0.054107517084282464,-4.336161275626424,8.680268792710706,0.4533333333333333,0.30666666666666664,-0.5955555555555555,-0.015858045680848254,0.09820180513746819,-0.00044806060751653975
1589552463.144937,-0.0693942596810934,-4.35909138952164,8.718485649202734,0.4533333333333333,0.30666666666666664,-0.5955555555555555,-0.09923429262435414,0.0089892209079169,-0.0021155855463866574
1589552463.154937,-0.0578778421756576,-4.367877842175657,8.824244315648684,0.45557338881458365,0.30666666666666664,-0.596262941497003,-0.06587781444358891,-0.0906653998885563,-0.026642921795936622
1589552463.164937,-0.050890820952642635,-4.347277294761839,8.85727729476184,0.4744444444444445,0.30666666666666664,-0.6022222222222222,-0.054109000410133605,0.0007240591897398098,0.0015328534929591256
1589552463.174937,-0.07742241539236212,-4.345155169215276,8.835823284657991,0.4744444444444445,0.30666666666666664,-0.6022222222222222,-0.09580034232488605,-0.040438793787996585,0.06645981870441317
1589552463.184937,-0.06,-4.376503189254813,8.746993621490374,0.4744444444444445,0.30666666666666664,-0.6022222222222222,-0.008056840466252513,-0.0028305937347739623,-0.029356954793137678
1589552463.194937,-0.06,-4.3603380031988905,8.779323993602219,0.4744444444444445,0.30666666666666664,-0.6022222222222222,-0.08564416370641782,-0.0310441658221068,0.1778364652232129
1589552463.204937,-0.06,-4.359211170167891,8.810788829832111,0.47277913702110114,0.30728020098053,-0.6016963356674822,-0.024403392975029123,-0.04484057197610653,0.1157830413498993
1589552463.214937,-0.05846175736980431,-4.353076485260391,8.812308786849021,0.4533333333333333,0.3144444444444445,-0.5955555555555555,0.0003386967767672333,-0.027102042032902597,-0.024169488179930095
1589552463.224937,-0.05144048077405963,-4.3671190384518805,8.777202403870298,0.4533333333333333,0.3144444444444445,-0.5955555555555555,-0.09769681865440362,-0.05620633567653144,0.08458866175152506
1589552463.234937,-0.011878897971541024,-4.371878897971541,8.745636693914623,0.4533333333333333,0.3144444444444445,-0.5955555555555555,0.010985983695398466,0.018931643992776213,-0.03651901986049231
1589552463.244937,-0.02113668649560508,-4.3784844180058595,8.77075779099707,0.4533333333333333,0.3144444444444445,-0.5955555555555555,-0.10688364455923421,-0.16364817633636505,0.012676658516806123
1589552463.254937,-0.04906641214596467,-4.34124478380538,8.78937760809731,0.4533333333333333,0.3144444444444445,-0.5955555555555555,0.0007650246249613357,-0.057015060635039264,0.0025211236881084297
1589552463.264937,-0.05843637498699407,-4.331563625013006,8.815309124960983,0.44864645834055883,0.3022585694632308,-0.5833696805743419,-0.03612836999539776,0.010967894357147547,0.022427508127684702
1589552463.274937,-0.05805941330688018,-4.34194058669312,8.786415893148162,0.4477777777777778,0.3,-0.5811111111111111,0.040475209326412465,-0.05429323657477888,-0.09663237681790626
1589552463.284937,-0.05062956139729328,-4.349370438602707,8.734406929781054,0.4477777777777778,0.3,-0.5811111111111111,0.05344274720220042,0.05106800866599827,-0.20766691987934063
1589552463.294937,-0.03,-4.363975885167465,8.801927655502391,0.4477777777777778,0.3,-0.5811111111111111,-0.021908683855686235,-0.00707058767641665,0.025371888915101046
1589552463.304937,-0.029929482282423456,-4.379952988188283,8.849929482282423,0.44779344838168367,0.3000496235790353,-0.5811607346901465,0.03897760116110567,-0.09271036012592625,-0.16191583931905273
1589552463.3149369,-0.007486470657139511,-4.358128382335716,8.814385147007146,0.4544444444444444,0.3211111111111111,-0.6022222222222222,-0.058135441306011545,-0.06018296275674127,0.07054880683518944
1589552463.3249369,-0.03662765536657438,-4.33819679378301,8.781569138416435,0.4544444444444444,0.3211111111111111,-0.6022222222222222,0.048236755982359165,0.05187711406338127,-0.059272727988341364
1589552463.3349369,-0.024382379227621244,-4.255166517710147,8.745843172303495,0.4544444444444444,0.3211111111111111,-0.6022222222222222,-0.007550279238027353,0.006189960555362901,-0.045151743279593884
1589552463.3449368,-0.05,-4.111125736542495,8.781125736542494,0.4544444444444444,0.3211111111111111,-0.6022222222222222,-0.014391253273984604,0.0364886110517968,0.038909442685689424
1589552463.3549368,-0.05,-4.119503445520823,8.789503445520822,0.4544444444444444,0.3211111111111111,-0.6022222222222222,0.07333990999344553,0.040144076187939734,-0.02871666233295464
1589552463.3649368,-0.022306303983498775,-4.163837823900993,8.833081088049504,0.4488888888888889,0.3,-0.6233333333333333,-0.06347258432025385,0.11417364533885282,-0.09332403985726674
1589552463.3749368,-0.035824094366378754,-4.2449445661982725,8.792527716900864,0.4488888888888889,0.3,-0.6233333333333333,-0.115819541926733,-0.022223356875212513,0.06297955186912163
1589552463.3849368,-0.06,-4.2886707291379675,8.712658541724066,0.4488888888888889,0.3,-0.6233333333333333,0.031123265739733088,0.0007458480119725617,-0.056778181545423446
1589552463.3949368,-0.06,-4.268278041586308,8.753443916827383,0.4488888888888889,0.3,-0.6233333333333333,0.04002125426740575,0.02892281168293599,-0.024152223610623684
1589552463.4049368,-0.04294641023886113,-4.251473205119431,8.880848333447403,0.4488888888888889,0.3,-0.6233333333333333,0.002707553840121585,-0.02660855143629111,-0.15507830796721866
1589552463.4149368,-0.06751654382095013,-4.236274815731425,8.826274815731425,0.4755555555555556,0.30666666666666664,-0.6166666666666667,-0.08037287216696247,-0.04007539870033801,0.009287349832144196
1589552463.4249368,-0.025470140177942774,-4.167920373807847,8.77,0.4755555555555556,0.30666666666666664,-0.6166666666666667,0.05474667647609813,-0.05192188348067733,-0.18031649981420148
1589552463.4349368,-0.00674206608332245,-4.085954028993078,8.766628966958338,0.4755555555555556,0.30666666666666664,-0.6166666666666667,0.03456273899357165,0.035187947296048336,-0.17401755502328572
1589552463.4449368,-0.12690520059435365,-3.8223791976225856,8.72035780089153,0.4755555555555556,0.30666666666666664,-0.6166666666666667,-0.11454568218364262,-0.07982056729889465,-0.03834364749948513
1589552463.4549367,-0.1767631500742942,-3.622947399702823,8.795144725111442,0.4755555555555556,0.30666666666666664,-0.6166666666666667,-0.09097816156419793,-0.018182436448039338,-0.04740807850696385
1589552463.4649367,-0.27,-3.42,8.96,0.4688888888888889,0.30666666666666664,-0.6077777777777778,-0.02399827721492203,0.09926560120717748,-0.36979163526629855
1589552463.4749367,-0.3466931216931217,-3.2090939153439155,9.017519841269841,0.4688888888888889,0.30666666666666664,-0.6077777777777778,-0.06540959009948094,0.014351494989344571,-0.1970353502024316
1589552463.4849367,-0.23960852130325813,-2.5937190476190475,8.581761654135338,0.4688888888888889,0.30666666666666664,-0.6077777777777778,0.03199896055262775,0.06996829223165,0.23328266530236477
1589552463.4949367,-0.21510563441307476,-2.7814683096760775,8.684683096760775,0.4688888888888889,0.30666666666666664,-0.6077777777777778,-0.00404298765140526,-0.07976892224560875,0.3958866881692762
1589552463.5049367,-0.14241286677412085,-2.803276139967764,8.902761399677638,0.4688888888888889,0.30666666666666664,-0.6077777777777778,0.000714742864920727,0.015385688080910995,0.4918342535818502
1589552463.5149367,0.011326779473512181,-2.8845307117894046,8.853398033842053,0.4755555555555556,0.3211111111111111,-0.5955555555555555,-0.009136177480755521,-0.06456378177768284,0.7026078561968245
1589552463.5249367,0.10530245859316043,-2.92132561464829,8.862767009572229,0.4755555555555556,0.3211111111111111,-0.5955555555555555,0.015743326340780264,-0.04272489165037505,0.8359413616583118
1589552463.5349367,0.1386209635778687,-2.9296552408944674,8.754481868371927,0.4755555555555556,0.3211111111111111,-0.5955555555555555,-0.022418767066505186,-0.0027455556998855282,0.7559826897573327
1589552463.5449367,0.17774473176055747,-3.099097892704223,8.89315737553522,0.4755555555555556,0.3211111111111111,-0.5955555555555555,0.03753214357429939,-0.0585028639574559,0.6760136436634112
1589552463.5549366,0.13372764671312232,-3.081491058685249,8.954781294601629,0.4755555555555556,0.3211111111111111,-0.5955555555555555,-0.08154553091295727,-0.0719471175285978,0.43593768703587754
1589552463.5649366,0.13702552841065058,-3.072974471589349,8.763285204501784,0.47477494128770553,0.3164274255040108,-0.6103872266447068,-0.027255019439117595,-0.0010472334830368135,0.47461673056418563
1589552463.5749366,0.10123000301841231,-3.166924992453969,9.106469966797464,0.4744444444444445,0.3144444444444445,-0.6166666666666667,0.027489478994126838,-0.076276334234622,0.5757252094440358
1589552463.5849366,-0.003056561652885023,-3.207475113328322,8.72651131005262,0.4744444444444445,0.3144444444444445,-0.6166666666666667,-0.05952826512665697,-0.03261978884675312,0.5249976053682219
1589552463.5949366,-0.1095550729035246,-3.2688876822588115,8.859332609355286,0.4744444444444445,0.3144444444444445,-0.6166666666666667,0.04198544392494768,-0.08389453300505,0.5283284730705029
1589552463.6049366,-0.0961583914911286,-3.2353959787278215,8.839237587236692,0.4744444444444445,0.3144444444444445,-0.6166666666666667,0.058060307639681286,-0.015211024405733645,0.6050494135271861
1589552463.6149366,-0.18080171495130232,-3.260801714951302,8.770481028970782,0.4533333333333333,0.3,-0.6166666666666667,0.09857237988043077,0.10156502091666632,0.5421936408743885
1589552463.6249366,-0.23048441184742866,-3.311453235542286,8.796609117068,0.4533333333333333,0.3,-0.6166666666666667,-0.0157696922871112,-0.02551183708108341,0.7351372990522878
1589552463.6349366,-0.23955885852750913,-3.3386765755825274,8.733087990307437,0.4533333333333333,0.3,-0.6166666666666667,-0.10683760139645315,-0.03343078569928706,0.5292446349789929
1589552463.6449366,-0.24003857963939845,-3.3299614203606014,8.800462955672783,0.4533333333333333,0.3,-0.6166666666666667,0.03690307762865225,0.06620400686641607,0.8027252043426911
1589552463.6549366,-0.24829442563577672,-3.321705574364223,8.89953310762932,0.4533333333333333,0.3,-0.6166666666666667,-0.0027221385443055787,-0.005841840720779978,0.7757080114974926
1589552463.6649365,-0.25,-3.313055364260523,8.982501721655293,0.4811118762912415,0.2961418690336239,-0.6112652833137401,-0.019998814750380463,-0.043452052180972416,0.8875455802291199
1589552463.6749365,-0.24466986841591504,-3.3526410526726798,8.940708289406896,0.4933333333333334,0.29444444444444445,-0.6088888888888889,0.028330167245166245,-0.008099389810249831,0.76826571849316
1589552463.6849365,-0.24,-3.439418700301618,8.830581299698382,0.4933333333333334,0.29444444444444445,-0.6088888888888889,0.0633950053057647,-0.0519224385635587,0.7189036597814376
1589552463.6949365,-0.24,-3.431517310336208,8.805497527094827,0.4933333333333334,0.29444444444444445,-0.6088888888888889,0.007548852072117883,-0.12581734993295376,0.8464007426983047
1589552463.7049365,-0.22753093782615177,-3.393765468913076,8.791296406739228,0.4933333333333334,0.29444444444444445,-0.6088888888888889,-0.016402959257178704,-0.18071408277939086,0.7367157533824265
1589552463.7149365,-0.22792675944136026,-3.3741464811172794,8.803780278324082,0.4994985906766135,0.27771017451268387,-0.6080081378398489,-0.0739896596868041,-0.09999816241578673,0.7271975657624525
1589552463.7249365,-0.23948504514672686,-3.284634593679458,8.78154486455982,0.5011111111111111,0.2733333333333333,-0.6077777777777778,-0.017134415349890728,-0.027560713861822135,0.6666842866802737
1589552463.7349365,-0.22693947976690432,-3.2669394797669042,8.708167138717974,0.5011111111111111,0.2733333333333333,-0.6077777777777778,0.012554302120263929,-0.017965699244579206,0.6436134222179666
1589552463.7449365,-0.1781381661728295,-3.1679039655802246,8.921171002963023,0.5011111111111111,0.2733333333333333,-0.6077777777777778,0.009740835077760496,-0.02331363556253973,0.6977025323610415
1589552463.7549365,-0.25721688056519376,-3.229288073241085,8.930355963379457,0.5011111111111111,0.2733333333333333,-0.6077777777777778,0.034221743407365716,-0.057955258968378026,0.8182431781254544
1589552463.7649364,-0.3208081746400372,-3.360808174640037,8.754849047840223,0.4933333333333334,0.2733333333333333,-0.6288888888888889,0.009123358058715133,-0.018103332414946986,0.7921627835518846
1589552463.7749364,-0.35077923469934613,-3.390779234699346,8.934675408196076,0.4933333333333334,0.2733333333333333,-0.6288888888888889,0.02383536776225008,-0.0017566549665748235,0.5575879621677441
1589552463.7849364,-0.3690317865140582,-3.4,8.827427842746953,0.4933333333333334,0.2733333333333333,-0.6288888888888889,0.0007755782435888599,-0.018402239303546983,0.4716266871602634
1589552463.7949364,-0.3614443097939848,-3.365777239175939,8.698776027321802,0.4933333333333334,0.2733333333333333,-0.6288888888888889,0.05568176193680102,-0.08045577041767155,0.44774932267463297
1589552463.8049364,-0.4135683238544212,-3.2911264407586014,8.894273295417685,0.4933333333333334,0.2733333333333333,-0.6288888888888889,0.10051023292607246,-0.07551307524308365,0.5958964677066264
1589552463.8149364,-0.36381307217372794,-3.043073390309924,8.912723622981234,0.5006874364251414,0.25652395483777213,-0.6572547151001483,-0.00012759923323341082,0.03017423271820671,0.5280127602023219
1589552463.8249364,-0.35060156359720984,-3.0581953092083705,8.8160156359721,0.5011111111111111,0.25555555555555554,-0.6588888888888889,-0.04755339963697367,-0.029616048084808867,0.6495684107270401
1589552463.8349364,-0.44338393121849984,-3.2467678624369993,8.973421879632374,0.5011111111111111,0.25555555555555554,-0.6588888888888889,-0.004338485951184835,0.05277040249173056,0.696819620771437
1589552463.8449364,-0.47,-3.246313411224286,8.674871929298982,0.5011111111111111,0.25555555555555554,-0.6588888888888889,-0.043143424967374194,-0.01290533206457986,0.6560791066128541
1589552463.8549364,-0.47717574050437916,-3.222824259495621,8.950314246732098,0.5011111111111111,0.25555555555555554,-0.6588888888888889,0.07651121003352568,0.09662083706184214,0.48063628928599655
1589552463.8649364,-0.6133888311847009,-3.5223480173519888,9.01996670128918,0.506051438192026,0.2614839480526534,-0.6450559730623273,-0.10105850393094709,-0.06772231666173151,0.7272280640168153
1589552463.8749363,-0.5906008883770667,-3.4969614214033067,8.970600888377067,0.5066666666666667,0.26222222222222225,-0.6433333333333333,-0.06534221747511396,-0.1834364714254893,0.733959664129143
1589552463.8849363,-0.5912062491143545,-3.4856031245571772,9.027237494686128,0.5066666666666667,0.26222222222222225,-0.6433333333333333,-0.03455002079055632,-0.10274160993259011,0.630665528810616
1589552463.8949363,-0.6343761294727119,-3.5175009035781697,8.887493674952813,0.5066666666666667,0.26222222222222225,-0.6433333333333333,0.05549862803434381,-0.0964728360955067,0.6395704583436502
1589552463.9049363,-0.6939934322784199,-3.601489327452432,8.99797044525289,0.5066666666666667,0.26222222222222225,-0.6433333333333333,0.0496390693423504,-0.07151282358031988,0.704999815270559
1589552463.9149363,-0.7456182285267509,-3.6547939238244163,8.95696302915224,0.5101373841170558,0.24833935242066596,-0.6618438264020751,0.07603637614227418,-0.04221587013680884,0.6901030741460392
1589552463.9249363,-0.785550411673357,-3.692584019455595,8.804067215564476,0.5133333333333333,0.23555555555555555,-0.6788888888888889,0.0790352911204375,-0.1203832400812733,0.7642868849595128
1589552463.9349363,-0.8069829392397486,-3.666034121520503,8.86944028733912,0.5133333333333333,0.23555555555555555,-0.6788888888888889,0.060550413629780836,0.04046130042528384,0.7137458284575127
1589552463.9449363,-0.8529711024769305,-3.694376881981545,8.785463574550752,0.5133333333333333,0.23555555555555555,-0.6788888888888889,0.02328046923667801,0.020279863415452452,0.7014041931452212
1589552463.9549363,-0.8388824205136193,-3.650725647865112,8.840391931621268,0.5133333333333333,0.23555555555555555,-0.6788888888888889,-0.03322526014228823,-0.024857990601434638,0.7728148809874564
1589552463.9649363,-0.7900955223880597,-3.5661528358208954,8.838076417910449,0.49027741293532345,0.21870699834162521,-0.7028315754560531,0.020328396841474854,-0.026431448540034423,0.6696526163494434
1589552463.9749362,-0.7884778889022774,-3.51608844439089,8.821522111097723,0.4844444444444445,0.21444444444444444,-0.7088888888888889,0.06516414628840234,-0.03215538861761483,0.8468074280177489
1589552463.9849362,-0.79,-3.484840873781837,8.68581799350313,0.4844444444444445,0.21444444444444444,-0.7088888888888889,-0.0381346039888711,-0.04662311728248352,0.7181680452784117
1589552463.9949362,-0.8519929328621908,-3.5264946996466433,8.807233215547702,0.4844444444444445,0.21444444444444444,-0.7088888888888889,0.0002659622755910099,-0.08628047491716315,0.9025287204728752
1589552464.0049362,-0.9031022331574887,-3.566481786525991,8.96916803936696,0.4844444444444445,0.21444444444444444,-0.7088888888888889,-0.06487507904650151,-0.0624193621405236,0.833226540784281
1589552464.0149362,-1.0017555117860093,-3.66993106296461,9.258915433000826,0.4962535739246458,0.2089940769920438,-0.6970797594086875,0.02865435523564204,0.019486566721995432,0.7889503808251941
1589552464.0249362,-1.0582138710017945,-3.6823572257996413,8.736791934973082,0.4988888888888889,0.20777777777777776,-0.6944444444444444,-0.03446923939310926,0.0004678608117051758,0.7624443108840192
1589552464.0349362,-1.0324932975871315,-3.6487444146559427,8.69127345844504,0.4988888888888889,0.20777777777777776,-0.6944444444444444,-0.008716897995606168,0.033823552868882514,0.9517854388930916
1589552464.0449362,-1.0540977655379609,-3.6593985103586406,8.850845903486261,0.4988888888888889,0.20777777777777776,-0.6944444444444444,-0.017691162861447812,-0.06346918718886718,0.8884036680766673
1589552464.0549362,-1.0900535175829225,-3.663315494139026,9.147380234438964,0.4988888888888889,0.20777777777777776,-0.6944444444444444,-0.018141593957036635,-0.04090893168500673,0.8771738956942917
1589552464.0649362,-1.1149251973141714,-3.585374013429144,8.906870067145718,0.5080098428031047,0.19699846860643183,-0.7209781285585267,-0.10126710671644416,-0.05973458240589587,1.070363538273903
1589552464.0749362,-1.1150330859340072,-3.5351654296700348,8.675694804614146,0.5111111111111111,0.19333333333333333,-0.73,0.005628269350804349,-0.017850295228050296,0.9935438544917232
1589552464.0849361,-1.1260726929431202,-3.538930847297616,8.714654236488082,0.5111111111111111,0.19333333333333333,-0.73,0.1159763976268801,0.022204598182197742,0.9044192069610295
1589552464.0949361,-1.122488606671933,-3.487465820015799,8.637383788053716,0.5111111111111111,0.19333333333333333,-0.73,-0.032205855852743236,0.013645824463301048,1.022660321250772
1589552464.1049361,-1.1374101318810834,-3.5390829286135217,8.941709577127066,0.5111111111111111,0.19333333333333333,-0.73,-0.04613661601571485,0.0026642462912884607,1.053664111163193
1589552464.114936,-1.191432561539064,-3.510945730768227,8.919026338458327,0.5164819987180268,0.16110800769183917,-0.7484144717951395,-0.05132215177640299,-0.12288539496492384,1.1121065529172551
1589552464.124936,-1.2601598037581272,-3.5373254900092883,8.862994117506966,0.5188888888888888,0.14666666666666667,-0.7566666666666667,-0.014513824531234128,-0.06900948480297901,1.2435865540945583
1589552464.134936,-1.3317417513470955,-3.56,8.97609182393032,0.5188888888888888,0.14666666666666667,-0.7566666666666667,0.07958714057256663,0.06626085090507351,1.215418993849213
1589552464.144936,-1.2784184081306385,-3.4526276121959576,8.838204179513532,0.5188888888888888,0.14666666666666667,-0.7566666666666667,0.027256344736031002,0.00556551656174023,1.3353315149040612
1589552464.154936,-1.208313145994832,-3.380223675710594,8.92483688630491,0.5188888888888888,0.14666666666666667,-0.7566666666666667,0.0021328630949103023,0.01773692261681334,1.301394683476939
1589552464.164936,-1.2461620805369127,-3.374702684563758,8.963837919463087,0.536858836689038,0.0894895600298285,-0.7566666666666667,-0.1145429791565189,-0.0938761284353889,1.2776753070939337
1589552464.174936,-1.2326119992972593,-3.335134399156711,8.782970397048489,0.5433333333333333,0.06888888888888889,-0.7566666666666667,-0.04642235261060276,-0.15432812126703482,1.1381958739206208
1589552464.184936,-1.2312803703703703,-3.32,8.651037407407408,0.5433333333333333,0.06888888888888889,-0.7566666666666667,-0.016109631402748216,-0.003882690966875879,0.9751074334629235
1589552464.194936,-1.3822497100889062,-3.391124855044453,8.84486406390929,0.5433333333333333,0.06888888888888889,-0.7566666666666667,0.027320665829359766,0.05376217349037584,1.0713522637498676
1589552464.204936,-1.5013477988429536,-3.4570782390743626,8.977304402314093,0.5433333333333333,0.06888888888888889,-0.7566666666666667,0.0750586254896631,0.009204718273488703,1.082070134705747
1589552464.214936,-1.5319803402646504,-3.4780196597353497,8.904157277882797,0.5449836168872085,0.06426809493803823,-0.7580969124133585,0.09467553374289431,0.013446953558323798,0.9370458711924996
1589552464.224936,-1.6062872928176795,-3.466254143646409,8.91635359116022,0.56,0.022222222222222227,-0.7711111111111111,0.0234004296258411,0.027504605111366445,1.0466720238803895
1589552464.234936,-1.5794638476813456,-3.312606003971499,8.870766849667094,0.56,0.022222222222222227,-0.7711111111111111,-0.022677583246860384,-0.02876691896646155,1.0831405592694041
1589552464.244936,-1.5726011169402607,-3.2507513961753256,8.70257234726688,0.56,0.022222222222222227,-0.7711111111111111,-0.019149443007263896,-0.03542994013692119,1.10452920987577
1589552464.254936,-1.6229551376458593,-3.301134587062422,8.722981194063667,0.56,0.022222222222222227,-0.7711111111111111,0.03018049610475538,-0.02379968595317151,1.1148779969482498
1589552464.264936,-1.6123203447061505,-3.2269610341184514,8.933922068236901,0.5509637317386992,-0.011172682221715843,-0.7711111111111111,0.07412189856740177,-0.025354307799862467,1.0659222480864037
1589552464.274936,-1.6230748866872569,-3.2161497733745135,8.92952950142393,0.5344444444444445,-0.07222222222222223,-0.7711111111111111,-0.03705499357071732,-0.03475550250441026,1.0327630216226877
1589552464.284936,-1.7221740598774082,-3.339372013306091,8.903525607470323,0.5344444444444445,-0.07222222222222223,-0.7711111111111111,-0.021205303919132737,-0.11727249665797185,1.0477559984984623
1589552464.294936,-1.815170561480552,-3.35,8.651596220200753,0.5344444444444445,-0.07222222222222223,-0.7711111111111111,-0.028319941421517343,-0.16419753449850932,0.9659953703760633
1589552464.304936,-1.7930837084435114,-3.197896489776145,8.761729072889121,0.5344444444444445,-0.07222222222222223,-0.7711111111111111,0.01500432335721303,-0.05423039220030658,0.9472057276509874
1589552464.314936,-1.6339662647740096,-3.0298509235612046,8.986480964542377,0.49875637649884846,-0.09580183854341959,-0.7137552876271175,0.0873315094670697,-0.015111151781211371,0.9065411511326199
1589552464.324936,-1.6648325654954275,-3.075866052396342,9.05781177657063,0.4722222222222222,-0.11333333333333333,-0.6711111111111111,0.10587356700970187,-0.04590432653761444,0.8700950018097876
1589552464.334936,-1.72,-3.0650791743248975,8.674372731985486,0.4722222222222222,-0.11333333333333333,-0.6711111111111111,0.005240244355671511,-0.12626532098869853,0.8468327979031292
1589552464.344936,-1.84050284629981,-3.125133826026166,8.935669130130831,0.4722222222222222,-0.11333333333333333,-0.6711111111111111,-0.00435624193545249,-0.0544212132884833,0.9105614905470237
1589552464.354936,-1.9060604223502071,-3.1209063352531072,9.11151055875518,0.4722222222222222,-0.11333333333333333,-0.6711111111111111,-0.02320735050024136,-0.027140271063222164,1.0215824813426497
1589552464.3649359,-1.9000062067870493,-3.030093101805742,8.960155169676238,0.4722222222222222,-0.11333333333333333,-0.6711111111111111,-0.10245684690217934,-0.08393574348461105,1.1180027019650076
1589552464.3749359,-1.924111047727705,-3.0396767446282564,8.82281802624073,0.4777777777777778,-0.0811111111111111,-0.6144444444444445,0.07604079955565711,-0.07980695557729395,0.9947242139603987
1589552464.3849359,-1.9748853138570865,-2.993509080142124,8.893509080142124,0.4777777777777778,-0.0811111111111111,-0.6144444444444445,0.07256022909219585,-0.10052410469601622,0.8225062197994043
1589552464.3949358,-1.9338857382902752,-2.887319508888507,8.790602623589391,0.4777777777777778,-0.0811111111111111,-0.6144444444444445,0.03227160310388199,-0.08255183909399627,0.6710581393437903
1589552464.4049358,-1.8859689748920518,-2.819476731169039,8.790071005917161,0.4777777777777778,-0.0811111111111111,-0.6144444444444445,-0.03339927426216672,-0.021643945842074488,0.6699399092939693
1589552464.4149358,-2.019480950584685,-2.913030554507733,9.040519049415316,0.4777777777777778,-0.07782103189572069,-0.6170033949453037,-0.1001340687475536,-0.10937531062298733,0.7678599416155257
1589552464.4249358,-2.0978617006985494,-2.947170204191295,8.889436123052123,0.4777777777777778,-0.07111111111111111,-0.6222222222222222,-0.024615642890185002,-0.02069794259866932,0.759808883695522
1589552464.4349358,-2.1629598866275637,-2.9474239263079163,8.81239971656891,0.4777777777777778,-0.07111111111111111,-0.6222222222222222,-0.04366114296417437,-0.034499976502333586,0.7092267161864604
1589552464.4449358,-2.219227954628613,-2.939569053136561,8.929479204781071,0.4777777777777778,-0.07111111111111111,-0.6222222222222222,-0.03917589014902059,0.010506824267053414,0.7334475746651852
1589552464.4549358,-2.2483240890860996,-2.9014376653298064,8.892037375202662,0.4777777777777778,-0.07111111111111111,-0.6222222222222222,-0.04292796577610884,-0.08895210751876971,0.7418043617348855
1589552464.4649358,-2.41,-2.9738163347146105,8.937516374816202,0.48701451083485575,-0.06854535192858946,-0.6227353740587266,-0.09096370966842121,-0.18292653342876405,0.7981550947567652
1589552464.4749358,-2.3537194839903375,-2.843253841805006,8.712095389833992,0.4977777777777778,-0.06555555555555556,-0.6233333333333333,-0.026685408807924818,-0.07767447362874969,0.882661731030953
1589552464.4849358,-2.27115639374425,-2.724674333026679,8.672264029438823,0.4977777777777778,-0.06555555555555556,-0.6233333333333333,0.004978082041998087,0.02547285564344116,0.9615371286928401
1589552464.4949358,-2.300581202258386,-2.7356227167054135,8.918528727997343,0.4977777777777778,-0.06555555555555556,-0.6233333333333333,-0.0424790011859314,-0.0199881789314769,1.0055311482986569
1589552464.5049357,-2.5274229917455204,-2.8887114958727604,9.082001207972619,0.4977777777777778,-0.06555555555555556,-0.6233333333333333,-0.01391835950704558,-0.09986075953626253,1.1065495508528886
1589552464.5149357,-2.6945556910950548,-2.9230496387351037,8.919345031434737,0.4995281140199973,-0.058554210586677514,-0.6123937318194613,0.02597788379589993,-0.10582286887990791,1.2420102868129297
1589552464.5249357,-2.577798544049918,-2.729090179765265,8.864207992868815,0.5022222222222222,-0.04777777777777778,-0.5955555555555555,0.008235731892665417,-0.12439191834850642,1.3296757586632442
1589552464.5349357,-2.562487626425651,-2.664991750950434,8.899077301963034,0.5022222222222222,-0.04777777777777778,-0.5955555555555555,-0.01745689184682048,-0.1879931036161641,1.403972872863527
1589552464.5449357,-2.6060306564314537,-2.6839693435685463,9.266490502903258,0.5022222222222222,-0.04777777777777778,-0.5955555555555555,-0.0012822441557068858,-0.2317986695431254,1.4194199108578658
1589552464.5549357,-2.4619765679406824,-2.5055438122158047,9.218982425955511,0.5022222222222222,-0.04777777777777778,-0.5955555555555555,0.04254879062026199,-0.2397748033457408,1.4903236607289585
1589552464.5649357,-2.3529411051866216,-2.4245585918565196,9.29205828889966,0.516879039424786,-0.0586110774492379,-0.6146731432110735,0.0410025207566612,-0.10370946101363399,1.6020613784260924
1589552464.5749357,-2.603183406204891,-2.579102947637079,8.947803602435094,0.5277777777777778,-0.06666666666666668,-0.6288888888888889,0.05378815138286472,-0.07341819911399586,1.6913794647789002
1589552464.5849357,-2.7737048010235,-2.7166864184230017,8.813764056292506,0.5277777777777778,-0.06666666666666668,-0.6288888888888889,0.09947251456750963,-0.07647002167137452,1.837149130651451
1589552464.5949357,-2.665226582528101,-2.7098465785841057,8.941213172944193,0.5277777777777778,-0.06666666666666668,-0.6288888888888889,0.07128793199628652,-0.05557639787623948,1.9835645007535192
1589552464.6049356,-2.210068515858106,-2.337506906840535,8.841548237374296,0.5277777777777778,-0.06666666666666668,-0.6288888888888889,-0.0790164596057401,-0.12813374050092502,1.824662509400534
1589552464.6149356,-2.284498364904054,-2.3859542173135067,9.27582340963781,0.5228874354702701,-0.08745062147357452,-0.6258324249466966,0.04243296071651405,-0.043961550702401445,1.7838509176881725
1589552464.6249356,-2.3522979674796747,-2.2321930894308943,8.817806910569105,0.5188888888888888,-0.10444444444444444,-0.6233333333333333,-0.031346751900910366,-0.06753191477748405,1.7860116529993908
1589552464.6349356,-2.441349567296448,-2.230899711530965,8.782525793289846,0.5188888888888888,-0.10444444444444444,-0.6233333333333333,-0.14701319708997296,-0.13016001883585432,1.7529159958201377
1589552464.6449356,-2.318790921070884,-2.1560051671521707,8.823994832847829,0.5188888888888888,-0.10444444444444444,-0.6233333333333333,-0.12517455350108836,-0.11306075585278443,1.7237892593190505
1589552464.6549356,-2.062963181670554,-1.9875927839617349,8.89518556792347,0.5188888888888888,-0.10444444444444444,-0.6233333333333333,-0.014928236174975268,-0.03535094986630909,1.6195204774988374
1589552464.6649356,-1.870631084419044,-1.8491693708529084,8.764784230154502,0.5201734984366844,-0.1228571812961797,-0.6288999747071138,0.0027035401173007524,-0.07142587941457748,1.3864023906466278
1589552464.6749356,-1.8388291986435839,-1.8591218989826879,9.126633946100304,0.5222222222222223,-0.15222222222222226,-0.6377777777777778,-0.008343502412041428,-0.05607937106323785,1.312306713887382
1589552464.6849356,-1.9726790191800447,-1.8794776775538116,9.0803959751213,0.5222222222222223,-0.15222222222222226,-0.6377777777777778,-0.03048628536963165,0.018229828771079936,1.2219593061169869
1589552464.6949356,-2.0618325561060913,-1.7983069804721656,8.573367458466919,0.5222222222222223,-0.15222222222222226,-0.6377777777777778,-0.026149496620945536,0.05341621252772394,1.1200335958686556
1589552464.7049356,-2.1686959818043974,-1.7686959818043972,8.783730098559515,0.5222222222222223,-0.15222222222222226,-0.6377777777777778,0.01814467579072953,-0.04296913947397146,1.0364926886881565
1589552464.7149355,-2.25878339548817,-1.829505410527603,9.523382649630127,0.5160413142861024,-0.1740180554706446,-0.6394043324978093,0.034781343234572146,-0.009336249743666706,1.0306850393729117
1589552464.7249355,-2.166576791251836,-1.7232883956259182,9.060790598988085,0.5011111111111111,-0.22666666666666666,-0.6433333333333333,-0.0649049122575946,-0.010407490623860833,0.9069959032860216
1589552464.7349355,-2.2273935173461634,-1.7466518105849582,8.897685743226134,0.5011111111111111,-0.22666666666666666,-0.6433333333333333,0.011638769440875829,-0.02568720037783412,0.8932923493483185
1589552464.7449355,-2.7882195735170874,-1.975111276655182,9.315341279448738,0.5011111111111111,-0.22666666666666666,-0.6433333333333333,0.04125491749583813,-0.03788613056023006,0.9175327236554186
1589552464.7549355,-2.8459638019932956,-1.9369502277407813,9.08502262375419,0.5011111111111111,-0.22666666666666666,-0.6433333333333333,0.10479774305167658,-0.07653880932627188,0.9511896351244178
1589552464.7649355,-2.795523503149287,-1.8675948168302694,9.116547810531696,0.5011111111111111,-0.22666666666666666,-0.6433333333333333,0.061468051409001426,-0.02426807020177492,0.9305564486279057
1589552464.7749355,-2.276699819730217,-1.5144963842440065,8.763598557841735,0.5455555555555556,-0.3622222222222222,-0.6433333333333333,0.04170169164363443,-0.16577264606396444,0.7292818236446055
1589552464.7849355,-2.4167808094422787,-1.7948169465593238,10.252301555498889,0.5455555555555556,-0.3622222222222222,-0.6433333333333333,0.06899362638161258,0.037417629736864244,0.7113762485908044
1589552464.7949355,-2.0107575649697402,-1.3769191883232468,8.380946956212174,0.5455555555555556,-0.3622222222222222,-0.6433333333333333,-0.05143983616079441,-0.07027388978086033,0.6217370426076881
1589552464.8049355,-2.131033647824998,-1.417011215941666,8.456606551445827,0.5455555555555556,-0.3622222222222222,-0.6433333333333333,-0.01770921925441896,0.02080514340645038,0.6642840391859012
1589552464.8149354,-1.9827552918698779,-1.386377645934939,8.01927422193172,0.5804560030390892,-0.500630834464612,-0.6221544293048642,-0.029883300785370638,-0.1476979340060861,0.4198724723052141
1589552464.8249354,-2.2127153875608556,-1.6067458016519884,9.7755615119523,0.6755555555555556,-0.8777777777777778,-0.5644444444444444,0.027364750115030624,0.03185958634849122,0.24652542970670563
1589552464.8349354,-2.3090349902187444,-1.7137942379512716,10.419872399075228,0.6755555555555556,-0.8777777777777778,-0.5644444444444444,-0.05523599075093727,-0.09708056898864628,0.12509853241778945
1589552464.8449354,-2.545900358189515,-1.6709833930315858,9.449573428850538,0.6755555555555556,-0.8777777777777778,-0.5644444444444444,-0.08176577699315832,0.021154871023491187,-0.1069802719219416
1589552464.8549354,-2.3895708638108517,-1.6235717423273046,9.140433528771414,0.6755555555555556,-0.8777777777777778,-0.5644444444444444,-0.04911907203306925,-0.029638718800616876,-0.17249073981115198
1589552464.8649354,-2.4216797662933853,-1.5947200389511025,8.779921402239689,0.7259026377006484,-0.8895778751555339,-0.5864712928829225,0.012208624855668062,-0.06462047564259749,-0.28537467123147303
1589552464.8749354,-2.410370878795768,-1.6194553975053845,9.041610376085773,0.8888888888888888,-0.9277777777777778,-0.6577777777777778,0.02332329484817125,0.0511881335759336,-0.45869125880441597
1589552464.8849354,-2.495744179001125,-1.6683023889898727,8.975349259932486,0.8888888888888888,-0.9277777777777778,-0.6577777777777778,-0.01629655678754789,0.08966384957198964,-0.6249396273697012
1589552464.8949354,-2.3964679865606198,-1.6732339932803098,9.170933353580988,0.8888888888888888,-0.9277777777777778,-0.6577777777777778,-0.07357132966978745,0.08126448100718808,-0.7718861159400584
1589552464.9049354,-2.1727612087695043,-1.5857712818487064,8.933333991704524,0.8888888888888888,-0.9277777777777778,-0.6577777777777778,-0.10125184829069217,-0.10261393247140371,-0.8907856026164478
1589552464.9149354,-2.1976138652972548,-1.817729409441043,10.043419316610706,0.8888888888888888,-0.9277777777777778,-0.6577777777777778,-0.030765737095760096,0.13233977151170317,-1.1618860302892633
1589552464.9249353,-1.365259879041426,-1.4941798917739075,8.583149697603565,0.5733333333333334,-0.3566666666666667,-0.6911111111111111,-0.017084589632112086,0.09463610564397462,-1.675286913699599
1589552464.9349353,-1.7325928979447618,-1.7698686767563747,9.105722277839938,0.5733333333333334,-0.3566666666666667,-0.6911111111111111,-0.056027371290133604,0.09977642426720998,-1.9579528626633058
1589552464.9449353,-1.8894596203836826,-1.8926438083620152,8.888460186758449,0.5733333333333334,-0.3566666666666667,-0.6911111111111111,-0.08955207617671568,0.09014407353859856,-2.2069427196592657
1589552464.9549353,-1.7493633366734922,-2.014466663762181,9.278293324038978,0.5733333333333334,-0.3566666666666667,-0.6911111111111111,0.01875174217920822,0.15991033689670903,-2.4042815788722067
1589552464.9649353,-1.758657896828551,-2.168657896828551,9.07792107145696,0.571653021752378,-0.33692300559044064,-0.692651396726987,0.04059102641428053,0.17474886304728346,-2.594765234306564
1589552464.9749353,-1.6836465702249424,-2.093646570224942,8.402819132024481,0.5605402326259175,-0.20634773335452933,-0.7028381200929091,0.006042834907455628,0.017463675397791173,-2.8884248621145754
1589552464.9849353,-1.7725594164891,-2.472139813145386,9.14254548434683,0.56,-0.2,-0.7033333333333334,0.00886396113310019,0.08172228519944744,-3.035759181875449
1589552464.9949353,-1.9695298239144463,-2.811888386957991,9.018964076088627,0.56,-0.2,-0.7033333333333334,-0.026282515289378056,0.12596968583740786,-3.1162279298862288
1589552465.0049353,-2.211636262811687,-3.0028581535872725,8.955294860027536,0.56,-0.2,-0.7033333333333334,-0.003384337128270803,0.09797638256380592,-3.3774135775694094
1589552465.0149353,-2.38,-3.134448785933575,8.580131174993022,0.5636490216144138,-0.1817548919279313,-0.7067217105467175,-0.013520151889446023,0.17445133361425036,-3.4067980334009937
1589552465.0249352,-2.38,-3.41,9.07,0.5755555555555556,-0.12222222222222222,-0.7177777777777777,0.03490658503988659,0.12435470920459595,-3.3324880405266732
1589552465.0349352,-2.1253795302535385,-3.393572872919583,9.291766215585628,0.5755555555555556,-0.12222222222222222,-0.7177777777777777,-0.013475297855822993,0.20678310228617525,-3.4391073750561074
1589552465.0449352,-1.9119686154751832,-3.376258140476103,8.604810515471504,0.5755555555555556,-0.12222222222222222,-0.7177777777777777,-0.022499272877181124,0.17674300238656088,-3.596457791871562
1589552465.0549352,-1.7184482693966325,-3.444801064986688,8.700106123673454,0.5755555555555556,-0.12222222222222222,-0.7177777777777777,0.04957927556969305,0.11104049507958601,-3.7116125027769016
1589552465.0649352,-1.799370832620961,-3.6631150624038296,8.826245512053342,0.5755555555555556,-0.12222222222222222,-0.7177777777777777,0.02304526895734691,0.19273221244154853,-3.6276300354306747
1589552465.0749352,-1.821211640001588,-3.938489419984914,8.72908730001191,0.602694297775484,-0.04915637778395332,-0.6927266311132284,0.08045887129609673,0.2609737619756433,-3.7865431815881045
1589552465.0849352,-1.7315777930948055,-4.086366313678802,9.214648787518016,0.6044444444444445,-0.04444444444444445,-0.6911111111111111,-0.00676603530908949,0.13913488873237992,-3.8676221858960873
1589552465.0949352,-1.4904806386154388,-4.046271948213118,8.678675141290313,0.6044444444444445,-0.04444444444444445,-0.6911111111111111,0.2341549708716557,0.13926178472790085,-2.939667909887202
1589552465.1049352,-1.5819225544617552,-4.215087792852471,9.304700565161246,0.6044444444444445,-0.04444444444444445,-0.6911111111111111,1.4242212432625387,0.6126795088189227,-0.6976475050347455
1589552465.1149352,-29.035350048216007,-25.13094889103182,16.012779170684666,0.6010706096646309,-0.02230365370191793,-0.6871046823100825,-1.5439597857252667,-2.036720974965312,-3.2960698606608965
1589552465.1249352,-1.3325312275664034,-2.7053553481694186,-3.460110552763819,0.5866666666666667,0.07222222222222223,-0.67,-0.17479165491266832,-1.1492036200322207,-0.6853678060221544
1589552465.1349351,0.5619151002161885,-0.12001410721483273,6.521317284086329,0.5866666666666667,0.07222222222222223,-0.67,0.35305840857562765,-1.2661869369947891,-0.7852028882595682
1589552465.1449351,4.6269634678099,-0.7117130189439742,23.64216371697629,0.5866666666666667,0.07222222222222223,-0.67,1.4394150701358948,1.6391465421470988,-0.9134533274715442
1589552465.1549351,1.7435069424658574,1.3191420213877332,5.437253594696754,0.5866666666666667,0.07222222222222223,-0.67,-0.42373381522449693,-0.7640250946649295,-0.45337342824809806
1589552465.164935,1.1072113030705741,-0.34471847240679865,10.594701685668321,0.5887528075042938,0.08068949973965013,-0.6723315691714656,0.04326341547816416,-0.5955161648954233,-0.4158760885392465
1589552465.174935,2.5870832107205106,-0.3443145754578174,12.242231025194107,0.6055555555555555,0.14888888888888888,-0.6911111111111111,0.2977308135075315,0.12042390836905296,-0.4212190089326776
1589552465.184935,0.6739803517667569,-1.270009507209634,9.783205514181589,0.6055555555555555,0.14888888888888888,-0.6911111111111111,0.10354301990063969,0.15201178946244068,-0.11673254855707127
1589552465.194935,-0.7001696203814769,-1.9747463296784984,8.178476457569563,0.6055555555555555,0.14888888888888888,-0.6911111111111111,-0.019819649496437608,0.16277399014350946,0.109452966655577
1589552465.204935,-0.7355998378131811,-2.1306392863779964,8.695757632072443,0.6055555555555555,0.14888888888888888,-0.6911111111111111,0.03274213615842415,0.12180671603016134,0.14114463153571424
1589552465.214935,-0.8795264517768647,-2.2061241475708417,8.679733364394934,0.605328735275154,0.14904010240915658,-0.690657470550308,0.01096345232659146,-0.025744119331573296,0.21728497647182793
1589552465.224935,-1.0038862298276081,-2.286069719174891,8.937335761785759,0.6023677881787077,0.15101406714012078,-0.6847355763574154,-0.18767492031945482,-0.11973398346165372,0.3054610345732436
1589552465.234935,-0.9806754376877654,-2.2787429814565416,8.97371490728271,0.6022222222222222,0.1511111111111111,-0.6844444444444444,0.005478743654352289,-0.012969212964579275,0.29309168759972665
1589552465.244935,-0.8993815727192279,-2.1949474182461772,8.536184272807722,0.6022222222222222,0.1511111111111111,-0.6844444444444444,-0.14820796436080494,-0.05931972411936243,0.3588947990004675
1589552465.254935,-0.8907497273157581,-2.2640021814739355,8.62250272684242,0.6022222222222222,0.1511111111111111,-0.6844444444444444,-0.07005613815120533,-0.14123790339930423,0.3438293867190989
1589552465.264935,-0.8797019203210089,-2.3758211521926054,9.183506735454284,0.6016832266488328,0.15229690137256777,-0.6842288462150886,-0.033311452150148295,0.022174285588357302,0.23487034309923976
1589552465.274935,-0.9824432258449067,-2.4362216129224534,8.986448709542826,0.5966666666666667,0.16333333333333333,-0.6822222222222222,-0.12609944027794104,-0.05767137886834262,0.1983452685508705
1589552465.284935,-1.364770260675525,-2.8639075971193835,8.89173648443047,0.5966666666666667,0.16333333333333333,-0.6822222222222222,-0.15227904783407367,0.031082204677071908,0.17271422847691692
1589552465.294935,-8.267167694896242,-12.099388670779586,9.707094784071788,0.5966666666666667,0.16333333333333333,-0.6822222222222222,-0.18446970229943715,-0.24347122819060826,-0.3908496249093317
1589552465.304935,-11.301087391594397,-20.772855843289467,7.1551737521984355,0.5966666666666667,0.16333333333333333,-0.6822222222222222,-0.020066020455167685,0.3678581874860062,-0.5894649363399627
1589552465.314935,0.7113210293252408,0.6549639240702319,11.421630693958443,0.5966139204574779,0.16280587124144552,-0.6823804608497885,0.07229428399935785,0.06850395695408039,-0.3902708997407464
1589552465.324935,-1.6227648890070865,-0.8931733491857392,7.403885299500962,0.5955555555555555,0.15222222222222226,-0.6855555555555556,-0.14866421354920795,-0.1620816727870588,0.06393942779878467
1589552465.334935,-1.4456047119190274,-1.8052201867872286,8.768674811883047,0.5955555555555555,0.15222222222222226,-0.6855555555555556,-0.014819465955751204,-0.0253739359402661,0.18919520763223346
1589552465.344935,-2.9172831267874164,-5.31465204957102,8.325328884652048,0.5955555555555555,0.15222222222222226,-0.6855555555555556,0.07018544598075863,0.004301970397700514,0.1389369018289504
1589552465.354935,-4.574346642873076,-8.9838949364265,8.106110417131385,0.5955555555555555,0.15222222222222226,-0.6855555555555556,-0.06854617122087088,-0.0997395517309666,-0.13075637484294067
1589552465.364935,-1.3198062554125634,-2.8482562987130686,8.825693311582382,0.5954048653208824,0.1526097113970959,-0.6853833381445006,0.06024115358012894,0.05785629998429579,-0.21023446143793062
1589552465.374935,-1.3113590316798582,-2.772231285118724,9.509918433931484,0.5888348024176675,0.1695041588625058,-0.6778746948265406,0.02338318688305214,0.05969919831914964,-0.19733417309395374
1589552465.384935,-1.8818495430044526,-3.7751253808296226,8.774451370986641,0.5877777777777777,0.17222222222222222,-0.6766666666666666,-0.024750584884650317,0.07686253938545394,-0.017013892485034716
1589552465.394935,-1.806251241437266,-3.8410407700730858,9.007079884896484,0.5877777777777777,0.17222222222222222,-0.6766666666666666,0.042087195545685144,0.021883506085750033,0.04458703113555047
1589552465.404935,-1.9485326235326235,-3.73491458991459,8.63406048906049,0.5877777777777777,0.17222222222222222,-0.6766666666666666,-0.03827224533767693,-0.11653683334204634,-0.03855511004158158
1589552465.4149349,-1.8912803712803712,-3.759451269451269,8.903963963963964,0.5877777777777777,0.17222222222222222,-0.6766666666666666,-0.011506879998816014,-0.012151908520488752,-0.034986394663066786
1589552465.4249349,-1.8687735998416783,-3.7124528003166435,8.902075202849794,0.6022222222222222,0.16,-0.6844444444444444,0.05653802066899136,-0.029205639567825847,-0.03658376165423316
1589552465.4349349,-1.8604729863447458,-3.7290540273105086,9.051486245794578,0.6022222222222222,0.16,-0.6844444444444444,0.02575250063438892,0.07582731113846482,-0.16606403709388456
1589552465.4449348,-1.879631716093808,-3.7103682839061918,8.804787690780495,0.6022222222222222,0.16,-0.6844444444444444,-0.03596338742447765,-0.05738441279708649,0.007513643512680385
1589552465.4549348,-1.9132011765179902,-3.8179038236834684,8.750198235223015,0.6022222222222222,0.16,-0.6844444444444444,-0.026223186996602824,-0.020157141140290588,-0.0796338555773411
1589552465.4649348,-1.9040785003207488,-3.784274751122621,8.79572524887738,0.6022222222222222,0.16,-0.6844444444444444,0.06110326635788734,-0.0884168512034531,-0.1033850690107714
1589552465.4749348,-1.8793920238870447,-3.7587840477740895,8.913647856677732,0.6088888888888889,0.16444444444444445,-0.6622222222222223,0.009302839423643442,0.0738677106384642,0.04566846239340506
1589552465.4849348,-1.872730492511475,-3.74546098502295,8.95361704493115,0.6088888888888889,0.16444444444444445,-0.6622222222222223,-0.056096591923693824,0.03462805183006184,-0.0037444412912497685
1589552465.4949348,-1.880491623737476,-3.730737435606214,8.848893846590679,0.6088888888888889,0.16444444444444445,-0.6622222222222223,-0.07461525027945579,0.03904685710206871,0.08996732298034292
1589552465.5049348,-1.9145183142011113,-3.781777471301667,8.7723337930475,0.6088888888888889,0.16444444444444445,-0.6622222222222223,0.04601617421923304,-0.05189067828925055,-0.025096497310714103
1589552465.5149348,-1.8705351452671042,-3.814732427366448,8.834197282099344,0.6088888888888889,0.16444444444444445,-0.6622222222222223,0.03667236097946286,-0.014381484411070664,-0.17403121460289112
1589552465.5249348,-1.8682293781801678,-3.7541649745586585,8.915835025441341,0.6006595107087213,0.17633132403802,-0.6878247321160773,-0.017931776904649824,-0.0014771205395430495,-0.030345687102970975
1589552465.5349348,-1.8418943772990017,-3.7387370818006658,8.989896654405324,0.5988888888888889,0.17888888888888888,-0.6933333333333334,-0.036674957590596816,0.06433522768727325,0.04818189439464026
1589552465.5449347,-1.8694449553336838,-3.7203700297775444,8.842960238220353,0.5988888888888889,0.17888888888888888,-0.6933333333333334,-0.030664353871436435,0.12744656673845728,-0.07603724913467436
1589552465.5549347,-1.8619190396213452,-3.742686655469883,8.877697152454386,0.5988888888888889,0.17888888888888888,-0.6933333333333334,0.020890962580012384,-0.044477440556867004,0.03196673820432043
1589552465.5649347,-1.9019440415298878,-3.798721658141843,8.829667150164134,0.5988888888888889,0.17888888888888888,-0.6933333333333334,0.047087265070803005,0.0061687442586615335,0.06165588102721648
1589552465.5749347,-1.8880622069137236,-3.766770344856206,8.883875586172554,0.6044444444444445,0.16,-0.6622222222222223,-0.03222909953163586,0.08215680062626386,-0.023090104116260626
1589552465.5849347,-1.8619533551894427,-3.7232555919824044,8.936093289621114,0.6044444444444445,0.16,-0.6622222222222223,0.0038459967332406114,-0.0013855275660816235,-0.09903767520021108
1589552465.5949347,-1.8605374629497617,-3.730716617266349,8.83,0.6044444444444445,0.16,-0.6622222222222223,-0.04515044091745949,-0.07775454750607659,0.046120454813679365
1589552465.6049347,-1.8841424980302404,-3.762189997373654,8.83,0.6044444444444445,0.16,-0.6622222222222223,-0.015968128844738576,0.004642568934547162,-0.03627666162694437
1589552465.6149347,-1.8973235020901067,-3.7919705062703204,8.80802949372968,0.6044444444444445,0.16,-0.6622222222222223,0.10071856450327792,-0.07556853109870885,-0.10305766948009654
1589552465.6249347,-1.89977305847101,-3.7988652923550505,8.870113470764494,0.6177777777777778,0.16444444444444445,-0.6766666666666666,0.1325259467894983,0.12778970181339808,-0.10432366743062138
1589552465.6349347,-1.8860376925973834,-3.7301884629869173,8.876981153701308,0.6177777777777778,0.16444444444444445,-0.6766666666666666,0.03288926342920656,0.07160360217413582,-0.08035093158453616
