time,acc_x,acc_y,acc_z,mag_x,mag_y,mag_z,gyr_x,gyr_y,gyr_z
1589550913.6900384,0.26,-4.16,8.8,0.4633333333333333,0.31555555555555553,-0.65,-0.009817477042468105,-0.01308996938995747,0.0
1589550913.7000384,0.27,-4.176510337323177,8.64791730141458,0.4633333333333333,0.31555555555555553,-0.65,-0.005073490765641568,-0.01052764467812385,0.0003295044888150339
1589550913.7100384,0.2656053335287007,-4.165605333528701,8.7087893329426,0.4633333333333333,0.31555555555555553,-0.65,-0.0038839393834159868,-0.008858709549328431,-0.001090830782496456
1589550913.7200384,0.26,-4.156551294139116,8.744140941026187,0.470230745055101,0.31555555555555553,-0.6404202614975449,-0.0025201014449237596,-0.008012010928757996,-0.00033843987993084786
1589550913.7300384,0.26,-4.161983437096206,8.79,0.4833333333333333,0.31555555555555553,-0.6222222222222222,0.00021635942396866742,-0.007419456053506524,0.001090830782496456
1589550913.7400384,0.25779499823881646,-4.1777949982388165,8.767949982388163,0.4833333333333333,0.31555555555555553,-0.6222222222222222,0.0024221899446487,-0.0028083417362686144,0.0008503024028406682
1589550913.7500384,0.25,-4.17,8.69393440788001,0.4833333333333333,0.31555555555555553,-0.6222222222222222,0.0031008214184329525,0.006115807372337696,8.583546452820782e-05
1589550913.7600384,0.2566878610475711,-4.156624277904858,8.780127166285427,0.4833333333333333,0.31555555555555553,-0.6222222222222222,0.00036129831252150674,-0.0010977666274283916,-3.4679224659678147e-06
1589550913.7700384,0.2572549676641088,-4.114705961196931,8.86,0.4850326709781188,0.3144226637923652,-0.6202396616366391,-0.001090830782496456,-0.004619993496728112,-0.0016255546211568002
1589550913.7800384,0.22,-4.079698167680976,8.843836387198373,0.49,0.3111111111111111,-0.6144444444444445,-0.0014434661105038322,-6.584959694865477e-05,0.0007052706560147524
1589550913.7900383,0.22111705577172502,-4.101675583657587,8.806369568741895,0.49,0.3111111111111111,-0.6144444444444445,-0.002151198594453837,0.004211008277290449,0.002090272653375687
1589550913.8000383,0.2644204878288907,-4.1688409756577816,8.706522926973344,0.49,0.3111111111111111,-0.6144444444444445,-0.002055231621977435,-0.003019632461458414,-0.00012642994301547696
1589550913.8100383,0.27,-4.18,8.747647654002579,0.49,0.3111111111111111,-0.6144444444444445,-0.0024382627074998157,-0.004619924272492727,-0.0001605136774878726
1589550913.8200383,0.2723709486426034,-4.18,8.762370948642603,0.49,0.3111111111111111,-0.6212938516341876,-0.0013494611588034532,-0.0027552315948753737,-0.002440291941299909
1589550913.8300383,0.27766501273095257,-4.18,8.777004961807142,0.49,0.3111111111111111,-0.6433333333333333,-0.0019269539660114812,-0.0005814155845335944,-0.003527199946470799
1589550913.8400383,0.27,-4.171986283531557,8.755924559423562,0.49,0.3111111111111111,-0.6433333333333333,-0.0019649916430941458,0.0024020720733929904,-0.0034891622693881347
1589550913.8500383,0.2663022889731878,-4.1636977110268125,8.70848855513406,0.49,0.3111111111111111,-0.6433333333333333,-0.0012557038410776987,0.005170038532550492,-0.002585019266275246
1589550913.8600383,0.26,-4.162866332804039,8.754267334391923,0.49,0.3111111111111111,-0.6433333333333333,0.001792580376520936,0.006544984694978735,-0.002883411159017392
1589550913.8700383,0.25440307392574957,-4.158395389111376,8.788395389111376,0.48471401426320787,0.3089345287489026,-0.6392911089463746,0.0017013607074114008,0.006544984694978735,-0.002181661564992912
1589550913.8800383,0.24951166542566394,-4.176829444858112,8.81317055514189,0.4711111111111111,0.3033333333333333,-0.6288888888888889,0.0025807845182146028,0.0051615690364292055,-0.002527515479630295
1589550913.8900383,0.27,-4.171621926173643,8.794049181221716,0.4711111111111111,0.3033333333333333,-0.6288888888888889,0.001090830782496456,0.002358586264707537,-0.003272492347489368
1589550913.9000382,0.27,-4.179245015539521,8.67207975136766,0.4711111111111111,0.3033333333333333,-0.6288888888888889,0.001090830782496456,0.003190136318509701,-0.003272492347489368
1589550913.9100382,0.26,-4.1785136892653485,8.711890485877213,0.4711111111111111,0.3033333333333333,-0.6288888888888889,-0.0003242627003425954,-0.004363323129985824,-0.0014150934828390514
1589550913.9200382,0.26,-4.171520158735452,8.767838730116383,0.4711111111111111,0.3033333333333333,-0.6288888888888889,-0.00185001437641052,-0.004363323129985824,-0.002940845158906976
1589550913.9300382,0.2514619198188703,-4.17146191981887,8.788538080181128,0.4633333333333333,0.3111111111111111,-0.6433333333333333,-0.0007718893545033867,-0.0031130216334928334,-0.0009313600684999213
1589550913.9400382,0.2596484756216575,-4.179648475621657,8.780351524378341,0.4633333333333333,0.3111111111111111,-0.6433333333333333,0.0010141400599576686,-0.0022200069262623056,-3.83453612693937e-05
1589550913.9500382,0.2727702961974894,-4.165540592394978,8.673851480987446,0.4633333333333333,0.3111111111111111,-0.6433333333333333,-0.001090830782496456,-0.003036614417398863,-0.0018794691281074848
1589550913.9600382,0.27875177230478393,-4.18,8.714368796933257,0.4633333333333333,0.3111111111111111,-0.6433333333333333,-0.0007504294841198772,0.0032044120878140523,-0.0012269913018470874
1589550913.9700382,0.26,-4.178652020671611,8.782695958656777,0.46528041458545055,0.3100626827445864,-0.6404875991956235,0.0040692396608707285,0.0024757450341080073,-0.0029784088783742727
1589550913.9800382,0.2586392639334438,-4.171360736066556,8.797958895900166,0.4777777777777778,0.3033333333333333,-0.6222222222222222,0.0020332282861676458,0.004289106490573191,-0.0010166141430838229
1589550913.9900382,0.2427514861148079,-4.1872485138851925,8.756242569425961,0.4777777777777778,0.3033333333333333,-0.6222222222222222,-0.00030014057516440505,0.003272492347489368,0.0
1589550914.0000381,0.25,-4.179183673469388,8.721224489795919,0.4777777777777778,0.3033333333333333,-0.6222222222222222,-0.0010463070770884374,0.0030943975258572935,-8.904741081603721e-05
1589550914.0100381,0.2563145202069314,-4.166314520206932,8.762629040413863,0.4777777777777778,0.3033333333333333,-0.6222222222222222,0.00034440365092083445,-0.0007464271315756215,-0.0018372579140720775
1589550914.0200381,0.26582132921174656,-4.175821329211747,8.787910664605873,0.4763848875150266,0.30495837197320963,-0.6236151124849734,0.0004070973736346123,0.00045582227257456235,-0.0008629196462091748
1589550914.030038,0.2582028643808473,-4.16,8.784101432190424,0.4711111111111111,0.3111111111111111,-0.6288888888888889,-0.0035238521106837027,0.0008394710193021207,-0.000447396848563597
1589550914.040038,0.26150758169332167,-4.16,8.751784117619946,0.4711111111111111,0.3111111111111111,-0.6288888888888889,-0.004990964347144222,-0.0024803994785106307,-0.0006276412171583978
1589550914.050038,0.25,-4.163985303094333,8.715941212377329,0.4711111111111111,0.3111111111111111,-0.6288888888888889,-0.005232781388561085,-0.004363323129985824,0.0004347291292876307
1589550914.060038,0.25,-4.17,8.742263638128518,0.4711111111111111,0.3111111111111111,-0.6288888888888889,-0.006298060079876645,-0.004610247745087915,0.001090830782496456
1589550914.070038,0.25,-4.17,8.748079845799706,0.4711111111111111,0.3111111111111111,-0.6288888888888889,-0.005663610243364333,-0.005244697581600226,0.001090830782496456
1589550914.080038,0.2686090213730366,-4.174436085492146,8.794172935880889,0.4833333333333333,0.3033333333333333,-0.6355555555555555,-0.0040598586691685595,-0.007635815477475192,-0.0013942952433137206
1589550914.090038,0.26310647990463215,-4.143106479904632,8.77650928133515,0.4833333333333333,0.3033333333333333,-0.6355555555555555,-0.0018427971744749711,-0.00695808669643931,-0.0036113567380073085
1589550914.100038,0.268238047845479,-4.144714143536437,8.702905378008772,0.4833333333333333,0.3033333333333333,-0.6355555555555555,-0.001090830782496456,-0.005261954747738534,-0.004555522294729569
1589550914.110038,0.2605077592244462,-4.121523277673338,8.8033991300822,0.4833333333333333,0.3033333333333333,-0.6355555555555555,-0.001090830782496456,-0.0044187110691980645,-0.005398765973270039
1589550914.120038,0.25087575509212884,-4.15,8.814378775460645,0.48226296599850915,0.30401447618276684,-0.6362366984049891,-0.0002865901837266438,-0.0013774209662230997,-0.011194898008691202
1589550914.130038,0.2629327575570636,-4.147067242442937,8.84240345465762,0.4711111111111111,0.3111111111111111,-0.6433333333333333,-0.005511891902080179,-0.004363323129985824,-0.015140542838707131
1589550914.140038,0.2677241544488735,-4.14,8.779517390039862,0.4711111111111111,0.3111111111111111,-0.6433333333333333,-0.01090830782496456,-0.004363323129985824,-0.01819806123495623
1589550914.150038,0.2605486459206542,-4.14,8.71493781328589,0.4711111111111111,0.3111111111111111,-0.6433333333333333,-0.01090830782496456,-0.004363323129985824,-0.02054624090975045
1589550914.160038,0.25278431843664906,-4.070509770943456,8.741137273746597,0.4711111111111111,0.3111111111111111,-0.6433333333333333,-0.009997141747273803,-0.00824325952926903,-0.02648366080581186
1589550914.170038,0.26,-4.0180914673561725,8.771908532643826,0.4734437621202327,0.3096266968325792,-0.6405765639589169,-0.007635815477475192,-0.00856834534809676,-0.029144467103968417
1589550914.180038,0.25632586540342034,-4.00632586540342,8.77632586540342,0.4833333333333333,0.3033333333333333,-0.6288888888888889,-0.006834243654078331,-0.0020701346123940764,-0.039893747986768514
1589550914.190038,0.2615393089184146,-3.9971151727703966,8.755575863851982,0.4833333333333333,0.3033333333333333,-0.6288888888888889,-0.006083525581329407,-0.0003146858344235634,-0.04472406208235469
1589550914.200038,0.29,-4.011441366382004,8.736676618297114,0.4833333333333333,0.3033333333333333,-0.6288888888888889,-0.008155568865659067,-0.0013507074765883934,-0.044204308694170816
1589550914.210038,0.28865022052777156,-4.088098676833371,8.787300441055542,0.4833333333333333,0.3033333333333333,-0.6288888888888889,-0.009964715142256967,-0.0014454710660486041,-0.04195344811820633
1589550914.220038,0.2823793077670629,-4.1257241533976226,8.774758615534125,0.4833333333333333,0.3033333333333333,-0.6288888888888889,-0.01064876560963005,0.001974781270816826,-0.039217246248714
1589550914.230038,0.26907342549923197,-3.9868356374807985,8.82,0.4777777777777778,0.3033333333333333,-0.6288888888888889,-0.01389855818012873,-0.002687029558849949,-0.035108732237429406
1589550914.240038,0.2360249623246648,-3.724037443486997,8.784037443486998,0.4777777777777778,0.3033333333333333,-0.6288888888888889,-0.022339669832084477,-0.007112761295319833,-0.0370882466048795
1589550914.250038,0.14433154362416106,-3.59084966442953,8.672611409395973,0.4777777777777778,0.3033333333333333,-0.6288888888888889,-0.025042765991692292,-0.006308735638930678,-0.03585385077778737
1589550914.260038,-0.10021672076285708,-3.286015361974074,8.723767917263068,0.4777777777777778,0.3033333333333333,-0.6288888888888889,-0.040858686282330095,-0.02207740959887627,-0.011564482025882434
1589550914.270038,-0.286031143679665,-3.0214786705051035,8.769416383145773,0.47586684695687576,0.30436229608304977,-0.6288888888888889,-0.05163831911890871,-0.037168895570086326,0.032444721848874244
1589550914.2800379,-0.26250906643735744,-2.911708976707668,8.706690843832952,0.46454140235872765,0.31046061240512957,-0.6288888888888889,-0.04736188479821398,-0.03118188752111369,0.134223858681409
1589550914.2900379,-0.144722350681228,-2.751388780192807,8.836944612429297,0.4633333333333333,0.3111111111111111,-0.6288888888888889,-0.016756404112456765,-0.02333165624759584,0.3862751279599763
1589550914.3000379,-0.04773914126142792,-2.833451495855715,8.710120415495712,0.4633333333333333,0.3111111111111111,-0.6288888888888889,0.00684341001363652,-0.024959229635602268,0.5164809990004909
1589550914.3100379,0.04204168107921134,-3.0196333448633688,8.809266689726737,0.4633333333333333,0.3111111111111111,-0.6288888888888889,0.005534145654401771,-0.030725978895865452,0.675777876456492
1589550914.3200378,0.07831200276720858,-3.0486496022137666,8.867299204427534,0.4633333333333333,0.3111111111111111,-0.6288888888888889,-0.0007962196877288209,-0.03784763990576237,0.7398728255455642
1589550914.3300378,0.06550798965794939,-3.122076675285042,8.879661340228033,0.4777777777777778,0.3233333333333333,-0.6433333333333333,0.005153739679054114,-0.03302533770832185,0.8201249160154928
1589550914.3400378,0.006950459882842527,-3.1730495401171575,8.892056882338908,0.4777777777777778,0.3233333333333333,-0.6433333333333333,0.0074578799767599695,-0.03143293941347688,0.8697401979261802
1589550914.3500378,-0.06242380329094989,-3.24727140987285,8.80727140987285,0.4777777777777778,0.3233333333333333,-0.6433333333333333,0.006544984694978735,-0.03758379136667365,0.9295176534994449
1589550914.3600378,-0.07716811097069266,-3.2656991334175847,8.824265511223446,0.4777777777777778,0.3233333333333333,-0.6433333333333333,0.006701368616962378,-0.04238601659537814,0.9797532799749133
1589550914.3700378,-0.10871938376361556,-3.246768369741831,8.799024492989107,0.4777777777777778,0.3233333333333333,-0.6433333333333333,0.007389710608751643,-0.04169767460358888,1.0189887735069014
1589550914.3800378,-0.18,-3.2650039236201933,8.824996076379806,0.4833333333333333,0.2977777777777777,-0.6355555555555555,0.0029449863123992732,-0.05126990277847062,1.10065253954461
1589550914.3900378,-0.1830952087695529,-3.3069047912304472,8.756785934228352,0.4833333333333333,0.2977777777777777,-0.6355555555555555,0.00016881745020406414,-0.06091770636959747,1.1581765172614678
1589550914.4000378,-0.20083249776428824,-3.291248746646432,8.632289368851794,0.4833333333333333,0.2977777777777777,-0.6355555555555555,0.00113623649187871,-0.06006380160137846,1.2053896237559527
1589550914.4100378,-0.24471523931259764,-3.35,8.745894049140746,0.4833333333333333,0.2977777777777777,-0.6355555555555555,0.0031439041427638948,-0.06378253820369635,1.2646716552735897
1589550914.4200377,-0.2787550469697892,-3.35,8.788443808712236,0.4833333333333333,0.2977777777777777,-0.6355555555555555,0.0022156123921958167,-0.06749570520596866,1.3147994098042655
1589550914.4300377,-0.3550364421336057,-3.387518221066803,8.865036442133604,0.5083454807112019,0.2852717040888435,-0.6355555555555555,0.011390018414932413,-0.05944630242594516,1.3780218001394857
1589550914.4400377,-0.38971027231417293,-3.409710272314173,8.876812995455904,0.51,0.28444444444444444,-0.6355555555555555,0.010781890273667912,-0.05899967541828111,1.4509620038542814
1589550914.4500377,-0.3827543202096255,-3.4027543202096253,8.80029752230588,0.51,0.28444444444444444,-0.6355555555555555,0.007746783602783382,-0.061276005421444506,1.5071114772656453
1589550914.4600377,-0.43920084121976866,-3.4690676480897302,8.799600420609885,0.51,0.28444444444444444,-0.6355555555555555,0.008697588026719025,-0.07186406959512927,1.6003806670074607
1589550914.4700377,-0.44,-3.4632043386640965,8.840773968015421,0.51,0.28444444444444444,-0.6355555555555555,0.007985354602709204,-0.07273612330202853,1.6406280465397065
1589550914.4800377,-0.44768254077489505,-3.47536508154979,8.883047622324685,0.5210970033415151,0.25371428134486423,-0.6509206371053456,0.006797780280971222,-0.07895190880279034,1.692675028037268
1589550914.4900377,-0.5380019995909928,-3.48,8.817998363971007,0.5244444444444445,0.24444444444444444,-0.6555555555555556,0.006544984694978735,-0.08333953127042215,1.7315854384994962
1589550914.5000377,-0.5862593984962405,-3.418763157894737,8.71003007518797,0.5244444444444445,0.24444444444444444,-0.6555555555555556,0.008590087368779422,-0.07908605190451373,1.7776527005308533
1589550914.5100377,-0.6320039928548913,-3.4779960071451086,8.844489019649048,0.5244444444444445,0.24444444444444444,-0.6555555555555556,0.007909067614227482,-0.08252058647827745,1.815037476748427
1589550914.5200377,-0.6672613218451193,-3.4427386781548805,8.747531364925923,0.5244444444444445,0.24444444444444444,-0.6555555555555556,0.012716540085620658,-0.075790125018327,1.8515742675310154
1589550914.5300376,-0.6639461977285812,-3.38,9.062376615899932,0.5288888888888889,0.21777777777777774,-0.65,0.012573413315219002,-0.0813241266585993,1.9000540672097679
1589550914.5400376,-0.7147196436068479,-3.384719643606848,8.738426785464384,0.5288888888888889,0.21777777777777774,-0.65,0.008604317706483684,-0.08612634928641591,1.9406865271228029
1589550914.5500376,-0.7441285771770777,-3.4182571543541553,8.763028617416621,0.5288888888888889,0.21777777777777774,-0.65,0.01753328385102418,-0.0768786406533602,1.9651867164858066
1589550914.5600376,-0.77,-3.4599846508058327,8.948856485034536,0.5288888888888889,0.21777777777777774,-0.65,0.004363323129985824,-0.09393283675245576,1.968464004575061
1589550914.5700376,-0.77,-3.3837462131922282,8.787908672294703,0.5288888888888889,0.21777777777777774,-0.65,0.004363323129985824,-0.09485687269199303,1.964767860816912
1589550914.5800376,-0.7958600355807864,-3.3582799288384275,8.89879005337118,0.5433333333333333,0.17222222222222222,-0.6555555555555556,0.012422915692991199,-0.08357019316669692,1.9391982087129391
1589550914.5900376,-0.8293963259839686,-3.2912073480320627,8.949094488975952,0.5433333333333333,0.17222222222222222,-0.6555555555555556,0.0023627507697949798,-0.09363035808989315,1.906274032600661
1589550914.6000376,-0.8579596096733135,-3.213111073398388,8.85913126856173,0.5433333333333333,0.17222222222222222,-0.6555555555555556,0.0052315818548165196,-0.0892365668599598,1.8828069748476317
1589550914.6100376,-0.9265582771914794,-3.161147240936174,8.659751547957475,0.5433333333333333,0.17222222222222222,-0.6555555555555556,0.01271453567152203,-0.07801213613490153,1.8421086986636983
1589550914.6200376,-0.9554716535804761,-3.16,8.77735826790238,0.5433333333333333,0.17222222222222222,-0.6555555555555556,0.012395337794790734,-0.07744898555724837,1.820087213811686
1589550914.6300375,-1.0324503311258277,-3.1530610743193526,8.829183222958058,0.5471882920448041,0.15834437086092717,-0.6663494399476739,0.008214541742508264,-0.07971974367622002,1.7858898561894074
1589550914.6400375,-1.1165460699194854,-3.1994778111795497,8.954296916058778,0.5488888888888889,0.15222222222222226,-0.6711111111111111,0.009629094379847313,-0.07455325853500057,1.758909910637453
1589550914.6500375,-1.0894750897547,-3.13921263463205,8.768031586580124,0.5488888888888889,0.15222222222222226,-0.6711111111111111,0.01442415018024287,-0.06512060870395525,1.7196818704496304
1589550914.6600375,-1.0598035123711158,-3.0947052685566736,8.656763171391683,0.5488888888888889,0.15222222222222226,-0.6711111111111111,0.028179984919719563,-0.046509773468192676,1.6881243672237722
1589550914.6700375,-1.1146022024785072,-3.0557741740705597,8.943011012392535,0.5488888888888889,0.15222222222222226,-0.6711111111111111,0.023916164589815624,-0.05533562905700157,1.6274878178346044
1589550914.6800375,-1.0934111150324899,-2.9182800141169634,8.902915568103968,0.5529543205519456,0.10425012859815327,-0.6597279024545524,0.008246439763203241,-0.06928205557995194,1.5644326678919303
1589550914.6900375,-1.1425403282367792,-2.8708467760789267,8.868306447842146,0.5544444444444444,0.08666666666666667,-0.6555555555555556,0.007987694729751952,-0.0631010440150726,1.4778953587772548
1589550914.7000375,-1.1743213253509495,-2.8706371284062757,8.827673152353427,0.5544444444444444,0.08666666666666667,-0.6555555555555556,7.856391189996925e-05,-0.07214289548446293,1.4128252991321981
1589550914.7100375,-1.2345595381009546,-2.753419653575716,8.542279769050477,0.5544444444444444,0.08666666666666667,-0.6555555555555556,0.003453330926877679,-0.05713582444147518,1.3525850230088892
1589550914.7200375,-1.266528897273195,-2.7773966729548962,8.558264448636598,0.5544444444444444,0.08666666666666667,-0.6555555555555556,0.020018082440716133,-0.037083756819460204,1.3063780845755504
1589550914.7300375,-1.2278509694874493,-2.716776454231174,8.946366113031715,0.573177346894467,0.06793376421664413,-0.685215984434758,-0.002704696315656327,-0.0755200079828875,1.2546173725838747
1589550914.7400374,-1.4127843325812774,-2.7382819839479233,8.83962088989163,0.5811111111111111,0.06,-0.6977777777777778,-0.021516765282820576,-0.09482731548541452,1.1684594281296914
1589550914.7500374,-1.422781343137468,-2.702307960058303,8.588461940087454,0.5811111111111111,0.06,-0.6977777777777778,0.02077742295089933,-0.02934915496047098,1.1240849488654092
1589550914.7600374,-1.6691452563795766,-2.939547283921074,8.94432092588161,0.5811111111111111,0.06,-0.6977777777777778,0.021772761248161472,-0.027358478365946695,1.0922341233530206
1589550914.7700374,-1.6891478439425052,-2.995739219712526,9.060626283367556,0.5811111111111111,0.06,-0.6977777777777778,0.00984211593077911,-0.03724951932836974,1.060894533198581
1589550914.7800374,-1.5661552846136586,-2.7999431520682174,8.898522701772759,0.5789941074292934,0.02930344661364184,-0.706245792505049,0.028471099552785054,-0.005964443067522508,1.0404397692332554
1589550914.7900374,-1.6129962943356273,-2.7988327157226043,9.06665431445209,0.5788888888888889,0.027777777777777776,-0.7066666666666667,0.009218934900563618,-0.03712231702106124,0.9894597450621837
1589550914.8000374,-1.5798447304539,-2.71492236522695,8.678346997664086,0.5788888888888889,0.027777777777777776,-0.7066666666666667,-0.004265696447944965,-0.04472406208235469,0.9261980222406054
1589550914.8100374,-1.7207241331928733,-2.7853620665964365,8.940894975495809,0.5788888888888889,0.027777777777777776,-0.7066666666666667,-0.0028686456376959884,-0.04472406208235469,0.8961614298202525
1589550914.8200374,-1.7400310577204805,-2.7388004687957808,8.857631995312042,0.5788888888888889,0.027777777777777776,-0.7066666666666667,-0.002181661564992912,-0.04676809934762801,0.85277475054331
1589550914.8300374,-1.6402631120783462,-2.6836602829162133,8.907512078346029,0.574662410833031,0.027777777777777776,-0.7235725788900979,0.003350785272857667,-0.030707658061561005,0.8203621505881962
1589550914.8400373,-1.50914876690533,-2.616404136833731,8.964574383452666,0.5722222222222222,0.027777777777777776,-0.7333333333333333,0.007536017911853002,-0.02369888451805546,0.7798650392373867
1589550914.8500373,-1.6436268391563795,-2.6010233225527264,8.843303193185442,0.5722222222222222,0.027777777777777776,-0.7333333333333333,0.00959422269428077,-0.01420624113089415,0.72869054032574
1589550914.8600373,-1.5524356363256566,-2.531549950389054,9.338486082824168,0.5722222222222222,0.027777777777777776,-0.7333333333333333,-0.0339162982195347,-0.09309077779606016,0.663486871851927
1589550914.8700373,-1.7753782291312077,-2.662118272249329,9.21788172775067,0.5722222222222222,0.027777777777777776,-0.7333333333333333,-0.03575434197106196,-0.08981573649013938,0.6333105493153858
1589550914.8800373,-1.9703813493901499,-2.7838165817508105,9.105496371777058,0.5453181342528263,-0.0022306280342408204,-0.7467853773180313,0.003622124075830055,-0.02638826943885398,0.6128554107094806
1589550914.8900373,-1.8627132057642335,-2.6648940861485158,9.02962792345854,0.5433333333333333,-0.004444444444444445,-0.7477777777777778,0.006544984694978735,-0.02181661564992912,0.6119560689805118
1589550914.9000373,-1.9586038401331562,-2.7289260308716585,8.711503556779679,0.5433333333333333,-0.004444444444444445,-0.7477777777777778,-0.004351607944139368,-0.02070235449573975,0.6041796712728792
1589550914.9100373,-1.8505611587770228,-2.645816275982325,8.827857213624744,0.5433333333333333,-0.004444444444444445,-0.7477777777777778,-0.0034450211545491638,-0.01888918091655934,0.5933006297977966
1589550914.9200373,-1.9702027476434025,-2.6845232907502123,8.927890415357446,0.5433333333333333,-0.004444444444444445,-0.7477777777777778,-0.010069713366156304,-0.029589607457773528,0.5776358420757453
1589550914.9300373,-2.0369197274943227,-2.7,9.010569386862226,0.5433333333333333,-0.013417686942552045,-0.7619854117331147,-0.006860286811196903,-0.022447219882365456,0.5708405048524134
1589550914.9400373,-2.074007866333313,-2.7080026221111044,8.911958046222331,0.5433333333333333,-0.017777777777777778,-0.7688888888888888,0.004366183409493559,-0.003486082056776283,0.5851267802342129
1589550914.9500372,-1.995723300392904,-2.611677183791721,8.732515775687583,0.5433333333333333,-0.017777777777777778,-0.7688888888888888,-0.0034142739410392307,-0.018386323635725475,0.5928791066388623
1589550914.9600372,-1.9303671520964407,-2.546293721677152,8.60480773461217,0.5433333333333333,-0.017777777777777778,-0.7688888888888888,-0.0011709309442275726,-0.0100177274467959,0.5970887302738676
1589550914.9700372,-1.9446641018052677,-2.5369328203610535,8.691723586860018,0.5433333333333333,-0.017777777777777778,-0.7688888888888888,-0.011096321985285939,-0.03067181142679632,0.5943285792749411
1589550914.9800372,-1.9355500067746743,-2.527775003387337,9.116749898379885,0.5392583344624456,-0.03407777326132823,-0.7648138900180013,-0.015452982126792166,-0.03472251011659905,0.5956549655508274
1589550914.9900372,-2.066872270375596,-2.5714052946314587,8.850634280722973,0.5366666666666666,-0.04444444444444445,-0.7622222222222222,-0.0021648406508907175,-0.004329681301781435,0.601780588648579
1589550915.0000372,-2.1760237025889433,-2.630016930420674,8.838071107766831,0.5366666666666666,-0.04444444444444445,-0.7622222222222222,-0.016152052235040876,-0.022700730574825963,0.6032294227205401
1589550915.0100372,-2.1632198324171426,-2.64,9.013900837914287,0.5366666666666666,-0.04444444444444445,-0.7622222222222222,-0.011961995519494279,-0.01874113303547962,0.6227045101604032
1589550915.0200372,-2.2338409113036706,-2.64,8.874934086262291,0.5366666666666666,-0.04444444444444445,-0.7622222222222222,-0.0060754314815065005,-0.0005382253178400874,0.6395446674008434
1589550915.0300372,-2.3170446208230504,-2.6209851263923167,8.829507436803842,0.5292719935970119,-0.1014890652674952,-0.7685605134247834,-0.015771428331083207,-0.012176554125577308,0.6685343033304272
1589550915.0400372,-2.312932567197024,-2.5846628359851196,8.950146357650594,0.5288888888888889,-0.10444444444444444,-0.7688888888888888,-0.02252996034121603,-0.02311215462108241,0.6928982202169585
1589550915.0500371,-2.2342751768779165,-2.4639852476290836,8.818260424506999,0.5288888888888889,-0.10444444444444444,-0.7688888888888888,-0.022611018955598448,-0.021488561798164645,0.7471006266804784
1589550915.0600371,-2.113252980510673,-2.3655019870071152,9.179237084453751,0.5288888888888889,-0.10444444444444444,-0.7688888888888888,-0.005106966379086517,-0.005563670488437174,0.8159261101189601
1589550915.0700371,-1.9680553801749796,-2.22805538017498,8.616926129701453,0.5288888888888889,-0.10444444444444444,-0.7688888888888888,0.024681977323839494,0.03523047923452701,0.8855652963499143
1589550915.080037,-1.8926679614729083,-2.152667961472908,8.553106147687187,0.5261235527016969,-0.1334804744099603,-0.7605928803273129,0.004897583329118469,0.01229122736845649,0.9038866035203771
1589550915.090037,-2.0074896717494175,-2.3448276121084652,9.0180965973109,0.5244444444444445,-0.1511111111111111,-0.7555555555555555,-0.020435399207313423,-0.031223341192911404,0.8836767483343672
1589550915.100037,-2.0671493872787394,-2.3242759190818907,8.485609803540166,0.5244444444444445,-0.1511111111111111,-0.7555555555555555,0.004523786226516252,0.009669479674097883,0.8630778710169641
1589550915.110037,-2.0634639033625413,-2.339608289912376,8.858310184797359,0.5244444444444445,-0.1511111111111111,-0.7555555555555555,-0.007001588583093256,-0.0061604242157237855,0.8353761491570074
1589550915.120037,-1.9858222403069232,-2.2943666802301923,8.956370400511538,0.5244444444444445,-0.1511111111111111,-0.7555555555555555,-0.010809325853710885,-0.0035508593262232775,0.7930751949423899
1589550915.130037,-1.7945625788911543,-2.036250121371007,8.466062724536364,0.5064201486659978,-0.1685138794489217,-0.7673645769276413,-0.03984598629648647,-0.049332793011451534,0.746291895732378
1589550915.140037,-1.8200968940293363,-2.103326184366742,9.496727815863046,0.4922222222222222,-0.18222222222222226,-0.7766666666666666,-0.0490768157133565,-0.0763475852757679,0.7264381141538734
1589550915.150037,-1.9126306196840825,-2.010951397326853,8.16393560145808,0.4922222222222222,-0.18222222222222226,-0.7766666666666666,0.05681279991326257,0.06116392906609289,0.7508355280392844
1589550915.160037,-1.9638240263838276,-2.038432035178437,8.375888316605932,0.4922222222222222,-0.18222222222222226,-0.7766666666666666,-0.022229444058280118,-0.021176143131088287,0.7269688865753048
1589550915.170037,-1.8203035901088385,-1.919467159295778,8.633878563956465,0.4922222222222222,-0.18222222222222226,-0.7766666666666666,-0.04596831180839753,-0.04745316633433663,0.7187662452173329
1589550915.180037,-2.091659634317862,-2.0781661006483483,9.014017700936504,0.41871416646655923,-0.26455124466856483,-0.7149198998319097,0.03193423861213939,-0.009569756560147549,0.7266838438459594
1589550915.190037,-2.0442425146722374,-2.0270101793826054,8.970626347027421,0.4088888888888889,-0.27555555555555555,-0.7066666666666667,0.018471422951870507,-0.015899675177479925,0.7066930893951409
1589550915.200037,-1.7073746490172481,-1.810424789410349,8.483949458483755,0.4088888888888889,-0.27555555555555555,-0.7066666666666667,-0.022732948511824055,-0.04559948332043759,0.6516977078630233
1589550915.210037,-1.9219546446531928,-1.9374105702628333,8.829365214916027,0.4088888888888889,-0.27555555555555555,-0.7066666666666667,0.007070889544192559,-0.005134325929000538,0.6096908795246873
1589550915.220037,-1.9561958288190682,-1.929566630552546,8.58566630552546,0.4088888888888889,-0.27555555555555555,-0.7066666666666667,0.011169197202251768,0.0019207721877057046,0.5954517874230221
1589550915.230037,-2.028981125772507,-2.008344329380324,8.667549482211458,0.41547064936993117,-0.2536163539520814,-0.6918577055843216,-0.022490664168359986,-0.04788206456965512,0.5609231988194823
1589550915.240037,-1.9166734823380103,-1.9591461608968483,8.723674821969965,0.4222222222222222,-0.2311111111111111,-0.6766666666666666,-0.011414229342786006,-0.02416517440155512,0.5503062479280371
1589550915.250037,-1.8391974225253236,-1.8421605154949354,8.352963092969611,0.4222222222222222,-0.2311111111111111,-0.6766666666666666,0.029809267683898924,0.019251150344820552,0.5492467825787761
1589550915.260037,-1.9109828156971038,-1.9065267080332042,8.922108695290536,0.4222222222222222,-0.2311111111111111,-0.6766666666666666,-0.004283170757515865,-0.029835464018075797,0.5101028726398213
1589550915.270037,-1.914997030682943,-1.8999960409105905,8.974972616298253,0.4222222222222222,-0.2311111111111111,-0.6766666666666666,-0.033815682279113496,-0.06326782549341124,0.4641474542672307
1589550915.280037,-2.2236864804600396,-1.95789549348668,8.654316394789344,0.4492945207265709,-0.21102521222078785,-0.6443545684517988,0.016144609222001075,-0.0046576976616547125,0.4414725698240231
1589550915.290037,-2.403731271145481,-2.0318656355727405,8.477649428065089,0.4566666666666666,-0.20555555555555555,-0.6355555555555555,0.026407876193302714,0.014384309443620496,0.4289488630767161
1589550915.300037,-2.3617150632811055,-2.035766375142019,8.91664411974529,0.4566666666666666,-0.20555555555555555,-0.6355555555555555,-0.009845463321164014,-0.041861823793523975,0.42355685058404174
1589550915.310037,-2.287847315208321,-1.9336510061904484,8.708473152083211,0.4566666666666666,-0.20555555555555555,-0.6355555555555555,-0.01217447678004486,-0.048371024099409216,0.4436055554686912
1589550915.320037,-2.3347895675089134,-1.9697194233452178,8.965991900480546,0.4566666666666666,-0.20555555555555555,-0.6355555555555555,-0.01977340048133506,-0.05567098694033005,0.4634034238342177
1589550915.3300369,-2.245259507198451,-1.9247590434326731,9.197525507117797,0.46669395491390087,-0.20555555555555555,-0.6292225313994076,-0.023835512610524853,-0.052279507037604575,0.5008262918162221
1589550915.3400369,-2.203739852197022,-1.7726484400597038,8.63052968801194,0.4777777777777778,-0.20555555555555555,-0.6222222222222222,-0.008383460864713924,-0.048350223618708374,0.5639122183454198
1589550915.3500369,-2.3305084055395096,-1.8848815078130785,8.870034436791824,0.4777777777777778,-0.20555555555555555,-0.6222222222222222,0.0008689970175008825,-0.04651000161609093,0.6334991488954537
1589550915.3600368,-2.203781424328045,-1.7790578135188002,8.20261320002898,0.4777777777777778,-0.20555555555555555,-0.6222222222222222,0.039698835509726034,0.011148119895491655,0.6895763488738509
1589550915.3700368,-2.2560417471975263,-1.806506496981951,8.53891885462817,0.4777777777777778,-0.20555555555555555,-0.6222222222222222,0.0061918294049242775,-0.04815830915353084,0.6992356354319166
1589550915.3800368,-2.4540729256009324,-1.9513958347078357,9.354531239691232,0.49297222405489216,-0.19352661891950668,-0.6298194453607794,-0.0402209755836542,-0.10929783308602281,0.6976374192239253
1589550915.3900368,-2.549209880868956,-1.933860079420696,9.316139920579303,0.5044444444444445,-0.18444444444444444,-0.6355555555555555,0.001071083203509425,-0.05531723676780688,0.7445966075205948
1589550915.4000368,-2.372176457246541,-1.7426409616693126,8.57281333635745,0.5044444444444445,-0.18444444444444444,-0.6355555555555555,0.03932854434484444,-0.011095052908799516,0.8044569490255286
1589550915.4100368,-1.8894586779797595,-1.2165039224515914,8.709831488635556,0.5044444444444445,-0.18444444444444444,-0.6355555555555555,0.003228929437326389,-0.05776467740970022,0.8008246559736902
1589550915.4200368,-1.4828172952028709,-1.276399621337208,9.1306210510094,0.5044444444444445,-0.18444444444444444,-0.6355555555555555,-0.018970244461425666,-0.08261349523514268,0.642860659731604
1589550915.4300368,-1.2769000724987918,-1.5769598840019334,9.261929978250363,0.49307334461092317,-0.19500332286128563,-0.6355555555555555,-0.004988382612621616,-0.03896342505278688,0.26800431166536537
1589550915.4400368,-1.4258587650816181,-1.7698056146991563,8.801043293115685,0.4888888888888889,-0.1988888888888889,-0.6355555555555555,0.024867131115923962,0.024315006096015945,-0.061220200267715685
1589550915.4500368,-1.5465560938227003,-1.750414648164874,8.682780469113501,0.4888888888888889,-0.1988888888888889,-0.6355555555555555,0.003417231861777434,0.018313190929704987,-0.3748073012979334
1589550915.4600368,-1.7666577442065121,-1.884904297447932,8.88052068055148,0.4888888888888889,-0.1988888888888889,-0.6355555555555555,-0.02426576514605818,-0.0013777378374556478,-0.6372485678010821
1589550915.4700367,-2.243446377235297,-2.2187423865906544,9.002470399064464,0.4888888888888889,-0.1988888888888889,-0.6355555555555555,-0.008239352169734964,0.017855065646917457,-0.8435961622026432
1589550915.4800367,-2.971121465192016,-2.3831380388869183,8.996836810369844,0.5081915469140181,-0.20274942049391473,-0.6439200406997783,0.02428490475971175,0.06740604740763803,-0.9152015394735413
1589550915.4900367,-2.602316080837724,-2.2236583739078237,9.293110284799575,0.5222222222222223,-0.20555555555555555,-0.65,-0.01124758726513508,0.03080258250061063,-0.8898718031413
1589550915.5000367,-2.0878650335284314,-2.2378650335284314,9.659466258382109,0.5222222222222223,-0.20555555555555555,-0.65,-0.041108832639516035,-0.022907446432425576,-0.9328195949582523
1589550915.5100367,-2.178774397749253,-2.290787409882187,8.892776507824863,0.5222222222222223,-0.20555555555555555,-0.65,0.01394702057728834,0.0558235673970313,-1.0481094987739321
1589550915.5200367,-2.146209383093949,-2.1628908641393925,8.223937779609136,0.5222222222222223,-0.20555555555555555,-0.65,0.036053761714285606,0.10645097060864533,-1.1613533971194603
1589550915.5300367,-2.141634263545386,-2.1190719922408854,8.762548604681921,0.5212403807060598,-0.2050646347974744,-0.6617820981939485,-0.027320639135283098,0.03168545306252932,-1.3655615861833854
1589550915.5400367,-2.1096991880314557,-2.175639025637747,8.85561409117064,0.52,-0.20444444444444448,-0.6766666666666666,-0.021677201882637356,0.04390933890601535,-1.5627640294429574
1589550915.5500367,-2.236653899400092,-2.3607180433779416,8.934782187355792,0.52,-0.20444444444444448,-0.6766666666666666,-0.020439108295844416,0.0671056747190277,-1.6871810246030052
1589550915.5600367,-2.5226688569864057,-2.5247651358236314,8.724192557674451,0.52,-0.20444444444444448,-0.6766666666666666,-0.026509813612647603,0.06267216685139698,-1.717893545015552
1589550915.5700366,-2.767464955688938,-2.7357749261482303,8.846127344911283,0.52,-0.20444444444444448,-0.6766666666666666,-0.020287909090553828,0.05413438895204951,-1.697417157057401
1589550915.5800366,-2.696153045705595,-2.849038261426399,8.795492675898503,0.5349542855109973,-0.2382541334258296,-0.6643131264619297,-0.007425996669315503,0.07653509935017247,-1.6137849524554544
1589550915.5900366,-2.58,-2.82,8.53,0.5455555555555556,-0.26222222222222225,-0.6555555555555556,-0.001090830782496456,0.09599310885968812,-1.5707963267948966
1589550915.6000366,-2.425702797443123,-2.9766942745205855,8.951873324627122,0.5455555555555556,-0.26222222222222225,-0.6555555555555556,-0.009574066352016887,0.056927548706703066,-1.461439809830304
1589550915.6100366,-2.1115528279574276,-2.914155282795743,8.929086979570199,0.5455555555555556,-0.26222222222222225,-0.6555555555555556,-0.011999138607461015,0.05217558885404826,-1.4519506622251905
1589550915.6200366,-2.1667835166432483,-2.9167835166432483,9.011814283637774,0.5455555555555556,-0.26222222222222225,-0.6555555555555556,-0.009192227361915117,0.060818850361884315,-1.4785097646361671
1589550915.6300366,-2.1101998193011577,-2.8660586640892567,8.897869854810581,0.570618391593535,-0.3585676698487406,-0.6148691334159786,-0.0003965386373620322,0.0808318605460611,-1.501600460635132
1589550915.6400366,-2.0316902024220695,-2.810753289905128,8.540508459756044,0.6311111111111111,-0.5911111111111111,-0.5166666666666667,-0.0009685993613650608,0.08095258733384533,-1.526338808377272
1589550915.6500366,-2.2217043815020125,-3.0365912369959753,9.058415976915484,0.6311111111111111,-0.5911111111111111,-0.5166666666666667,-0.032303716509369,0.0377447413551776,-1.5767210562769258
1589550915.6600366,-2.306925539875059,-3.100422155323925,8.828884925261455,0.6311111111111111,-0.5911111111111111,-0.5166666666666667,-0.013913630435672165,0.06599157036847401,-1.6055886599949474
1589550915.6700366,-2.3801157819180476,-3.217197203757451,9.014344786692883,0.6311111111111111,-0.5911111111111111,-0.5166666666666667,-0.002805766696706782,0.0749525650303929,-1.6176984419142368
1589550915.6800365,-1.963478699874988,-3.065223098374844,8.831308298874893,0.9117262343601414,-0.5540049791112394,-0.43820265837527117,-0.00796881310407727,0.07593001496912068,-1.6493859170750487
1589550915.6900365,-1.9655359725234995,-3.167856109906001,9.046240961677514,1.4377777777777778,-0.4844444444444445,-0.2911111111111111,-0.023881346149480887,0.053314551680122106,-1.7129727698276598
1589550915.7000365,-2.054564652714717,-3.279587565729732,9.105618651405402,1.4377777777777778,-0.4844444444444445,-0.2911111111111111,-0.013144956678573167,0.07514735172618485,-1.7730329629485477
1589550915.7100365,-1.9592014157725914,-3.3398739077535673,8.84949563101427,1.4377777777777778,-0.4844444444444445,-0.2911111111111111,0.004933955160271963,0.09980413933323355,-1.8310993061458751
1589550915.7200365,-1.8263234573226925,-3.3522425929920194,9.067940743936155,1.4377777777777778,-0.4844444444444445,-0.2911111111111111,-0.010083473858310097,0.05926317510934264,-1.9118453120802126
1589550915.7300365,-1.934065738821439,-3.4195847728095283,9.156228407857071,1.1298616274946351,-0.30872551062561926,-0.49457513974343503,-0.027406652342740145,0.04891941600686283,-1.9923816613696552
1589550915.7400365,-1.98,-3.44,8.85,0.8088888888888889,-0.12555555555555556,-0.7066666666666667,-0.02072578486743266,0.0839939702522271,-2.0202186091834364
1589550915.7500365,-1.9344996332142266,-3.57650110035732,8.730561537187345,0.8088888888888889,-0.12555555555555556,-0.7066666666666667,-0.011419559735282473,0.08585521527865714,-2.045655624544647
1589550915.7600365,-1.7558711292596372,-3.605052987215011,8.720712167614604,0.8088888888888889,-0.12555555555555556,-0.7066666666666667,-0.008136608142386792,0.09166862844751761,-2.0687159562781923
1589550915.7700365,-1.7405835002236005,-3.6644212634403375,8.822907973790127,0.8088888888888889,-0.12555555555555556,-0.7066666666666667,-0.011428367143018129,0.09022174421470955,-2.0657670034621805
1589550915.7800364,-1.8643467697851923,-3.8386935395703845,8.857826615107403,0.7629005459613035,-0.08193425969041948,-0.7127533591129648,-0.009343318013856784,0.08674468890572622,-2.0455454592368865
1589550915.7900364,-1.9227883200941454,-3.9360583995292733,8.807693439246837,0.6577777777777778,0.017777777777777778,-0.7266666666666667,-0.005097443581577658,0.08810568663508812,-1.9978573804596924
1589550915.8000364,-1.979028659242406,-3.9534858100826247,8.772285754201095,0.6577777777777778,0.017777777777777778,-0.7266666666666667,-0.01662427331670486,0.07354691321137528,-1.9243750416290804
1589550915.8100364,-1.8812348968900463,-3.856943948157345,8.804290948732701,0.6577777777777778,0.017777777777777778,-0.7266666666666667,-0.026493317686541954,0.05718327673192608,-1.840334261008552
1589550915.8200364,-1.6784665591082428,-3.6907993546494575,8.848099515987093,0.6577777777777778,0.017777777777777778,-0.7266666666666667,-0.013122887904697664,0.06247898099313129,-1.7371631404434333
1589550915.8300364,-1.6507653175731278,-3.7521530635146254,8.711673524351013,0.6381604365643417,0.03870294173877625,-0.7240510211715419,0.010631703430764534,0.08928115777127872,-1.636569538521795
1589550915.8400364,-1.615617560858903,-3.770741073030684,8.799139900711765,0.6077777777777778,0.07111111111111111,-0.72,-0.006525019731796495,0.06732811936838345,-1.5393638410836537
1589550915.8500364,-1.5606369380492409,-3.749207640351514,8.871118454499237,0.6077777777777778,0.07111111111111111,-0.72,-0.016882169046124065,0.04281920803817249,-1.4730898475137508
1589550915.8600364,-1.4104264923621392,-3.6761391787945543,8.330134700805315,0.6077777777777778,0.07111111111111111,-0.72,0.005282755092120354,0.06303434870410762,-1.393911562392235
1589550915.8700364,-1.513120065089961,-3.8596800976349415,8.89071876329074,0.6077777777777778,0.07111111111111111,-0.72,-0.007269186281250123,0.046993185365813275,-1.3102450233661491
1589550915.8800364,-1.5097895852255525,-3.8644739630638814,9.078815092340298,0.611584838698826,0.08633935479530393,-0.7167368049248158,-0.023579101625856448,0.01591187068420173,-1.2532896838689513
1589550915.8900363,-1.5253293000289152,-4.067146066416068,8.914451166618475,0.6233333333333333,0.13333333333333333,-0.7066666666666667,-0.002786945390944091,0.04358533655209588,-1.1398570740031908
1589550915.9000363,-1.4513629122381528,-4.1413629122381534,8.818215279263855,0.6233333333333333,0.13333333333333333,-0.7066666666666667,-0.002460120781791113,0.042370723770343593,-1.0574799223338769
1589550915.9100363,-1.3722013358975949,-4.097295324358417,8.70119465640962,0.6233333333333333,0.13333333333333333,-0.7066666666666667,-0.0029020470529062302,0.03902977967390131,-0.9879156341921267
1589550915.9200363,-1.3174933502525685,-4.109638107323263,8.768217135606042,0.6233333333333333,0.13333333333333333,-0.7066666666666667,-0.0008963504463018414,0.03638637649477228,-0.9287620078115445
1589550915.9300363,-1.2724614541754715,-4.1729023505778615,8.876451175288931,0.6167270761408665,0.13877378043301186,-0.7136615272233963,-0.0031650911481170157,0.029559832326776662,-0.8774206721137268
1589550915.9400363,-1.3012959224868794,-4.273431301305342,8.90381429148163,0.6044444444444445,0.14888888888888888,-0.7266666666666667,0.00508787198966097,0.03681353516276352,-0.8262745624726476
1589550915.9500363,-2.167838451793281,-5.219306714429251,9.361560875453234,0.6044444444444445,0.14888888888888888,-0.7266666666666667,0.012934858027543163,0.04555637392749397,-0.7797838468769553
1589550915.9600363,-6.180291579616677,-3.4062671450631306,4.51046484694341,0.6044444444444445,0.14888888888888888,-0.7266666666666667,0.014582194985778764,0.23330132213539398,-1.2042849125345516
1589550915.9700363,-7.011191132211437,0.7879483701411555,-1.7712483574244415,0.6044444444444445,0.14888888888888888,-0.7266666666666667,-0.4904254236155568,-0.00647372996920087,-3.614223492582248
1589550915.9800363,1.4771575424336605,-1.164564051774188,8.577069430688843,0.58345927772655,0.16624200752099388,-0.7161740833077195,-1.4369743642487391,-0.7391993320726945,-6.35278795559849
1589550915.9900362,0.8565702192178914,-2.917300734937983,14.493737865099922,0.5466666666666666,0.19666666666666666,-0.6977777777777778,-0.47402254144030354,0.5999721602424635,-4.742356608361544
1589550916.0000362,-2.055476696546838,-1.3401635708344886,9.036860733758433,0.5466666666666666,0.19666666666666666,-0.6977777777777778,0.7937373249773731,1.2306137764806027,-4.291892211786885
1589550916.0100362,-0.4146052428919078,0.171505406154699,11.982677201737362,0.5466666666666666,0.19666666666666666,-0.6977777777777778,1.6175201613061305,0.5583393317777502,-3.9916941893095093
1589550916.0200362,0.2631709306637004,-1.0004189840563589,7.768301075268817,0.5466666666666666,0.19666666666666666,-0.6977777777777778,0.46313746728594374,0.11708088614474567,-2.948938185733657
1589550916.0300362,0.9785502410085278,-1.3892120875046348,9.346801075268818,0.5466666666666666,0.19666666666666666,-0.6977777777777778,-0.6369973494881157,-0.15434790442402765,-2.1668839829073794
1589550916.0400362,1.08,-1.82,7.52,0.5311111111111111,0.3244444444444444,-0.7066666666666667,0.022907446432425576,0.04690572364734761,-1.7758725139042302
1589550916.0500362,0.5086011776206606,-2.3567685907199856,7.848987200763863,0.5311111111111111,0.3244444444444444,-0.7066666666666667,0.19384259164543027,0.23106237180500455,-1.5926602588140484
1589550916.0600362,0.6363659920762395,-2.5396427883070993,9.478477353035657,0.5311111111111111,0.3244444444444444,-0.7066666666666667,-0.09766625335704246,-0.029574771438099973,-1.0951756039029223
1589550916.0700362,1.0094896558735322,-2.199421033904336,8.886442586285773,0.5311111111111111,0.3244444444444444,-0.7066666666666667,-0.027393337622428092,-0.003440555586535105,-0.7702073480713033
1589550916.0800362,0.30917281208351843,-2.7543198578409593,8.787279431363839,0.5222753344192704,0.3299142109679648,-0.7049836615825066,0.020042016660368027,0.060170148426775864,-0.6231892515085353
1589550916.0900362,0.1620397033884215,-2.7789040002660195,8.717168889036676,0.4844444444444445,0.3533333333333333,-0.6977777777777778,-0.0059688644103915245,0.04473236854493547,-0.4292328628581462
1589550916.1000361,0.026654333469572133,-2.921772323445264,8.903327166734785,0.4844444444444445,0.3533333333333333,-0.6977777777777778,0.013111674780148476,0.0251542241679915,-0.16523839553620456
1589550916.1100361,1.8244978843070776,-10.051162974059764,8.311746695051118,0.4844444444444445,0.3533333333333333,-0.6977777777777778,0.0003120058715316825,-0.004456211030726671,0.06370940291331348
1589550916.1200361,3.3790331896119525,-17.320690263712024,7.78231825930011,0.4844444444444445,0.3533333333333333,-0.6977777777777778,-0.0666834821712317,-0.04148132065964614,0.03449007209295524
1589550916.130036,0.12943104439669523,-2.386034561026541,9.67055170535363,0.48326819934966897,0.3580383137124353,-0.6945431037671452,-0.15220663014839125,-0.021118864252693853,-0.49743950261960795
1589550916.140036,-0.5088756976634188,-2.9132974647620853,9.277772916469587,0.48,0.3711111111111111,-0.6855555555555556,0.09100831866059014,0.1629076213490705,-1.0127532354971605
1589550916.150036,-1.01,-6.73,7.99,0.48,0.3711111111111111,-0.6855555555555556,0.3567016658763411,0.25634523388666713,-0.8519388411297321
1589550916.160036,0.8358903608757366,-5.3277571078325945,8.908984042324402,0.48,0.3711111111111111,-0.6855555555555556,0.02053320389849822,0.0817796058159107,-0.22886053499599257
1589550916.170036,1.6363718049376255,-4.103706534066125,8.867220099450405,0.48,0.3711111111111111,-0.6855555555555556,-0.053299192964860506,-0.08604516605757571,0.3127316406913383
1589550916.180036,0.5020849690307947,-4.132978452412108,8.845266160690919,0.48,0.3711111111111111,-0.6855555555555556,0.05127388095719479,0.009746962725986394,0.17223651847544727
1589550916.190036,0.19707893054563233,-4.271236791636897,8.71831572218253,0.4577777777777778,0.4,-0.6855555555555556,-0.019843086878919097,-0.005613473536414,0.004044683882122383
1589550916.200036,0.18130673485503704,-4.223920204565111,8.655226939420148,0.4577777777777778,0.4,-0.6855555555555556,-0.03274668430406355,-0.006473713364756963,0.0023242042254364567
1589550916.210036,0.17009970803723903,-4.1224750729906905,8.687624635046548,0.4577777777777778,0.4,-0.6855555555555556,0.009795724123211577,0.001090830782496456,0.002181661564992912
1589550916.220036,0.14158344751986848,-4.130263907919978,8.656597697999452,0.4577777777777778,0.4,-0.6855555555555556,0.015988219189733133,0.0010332550059251166,0.0021240857884215723
1589550916.230036,0.19608756631501922,-4.137391710876679,8.879133687013436,0.4606758768036895,0.3981162356331574,-0.6874393199223982,0.0020394014617244756,-0.000664050472691147,0.0
1589550916.240036,0.17051100676870543,-4.120340671179137,8.742725369433096,0.4796214764676256,0.38580159585159884,-0.6997539597039566,0.0011094115129420528,0.0021259193736561212,0.0
1589550916.250036,0.1793618585502132,-4.197234230260256,8.71957506249081,0.48,0.3855555555555555,-0.7,-0.01568945394986338,-0.0024137498082324902,-0.0013229190257360343
1589550916.260036,0.14081697544478755,-4.150980370533746,8.573104506690193,0.48,0.3855555555555555,-0.7,-0.0013938326501605688,-0.003254668708215009,-0.002163837925718552
1589550916.270036,0.2009871792354662,-4.140987179235466,8.822789743388373,0.48,0.3855555555555555,-0.7,0.014878372461867316,0.0024859753613232314,-0.0008942015359549218
1589550916.280036,0.1601734891607121,-4.100462637761899,8.790231318880949,0.48007068076917897,0.38563908737367614,-0.6998779150350544,0.012976420999796916,-0.001090830782496456,-6.3082438978086195e-06
1589550916.290036,0.1835217814034006,-4.177840593801133,8.791130688420404,0.4922222222222222,0.4,-0.6788888888888889,-0.007722758071797338,-0.0008552761071327355,-0.0008552761071327355
1589550916.300036,0.1725984251968504,-4.180498687664042,8.656299212598425,0.4922222222222222,0.4,-0.6788888888888889,-0.012228184441056071,-0.00022904583359505636,0.0
1589550916.310036,0.20905990212211228,-4.212706601414741,8.678176650353684,0.4922222222222222,0.4,-0.6788888888888889,-0.009509830731340247,-0.001090830782496456,0.0
1589550916.320036,0.16236906447046712,-4.17822320164715,8.681253056234718,0.4922222222222222,0.4,-0.6788888888888889,0.007061834384999576,-0.0009616183599912458,6.460621125260506e-05
1589550916.330036,0.18935593874662207,-4.157983045940034,8.809440709046454,0.4922222222222222,0.4,-0.6788888888888889,0.012949457021757892,0.0005102872991983325,0.0008005590408473942
1589550916.340036,0.14011317195850362,-4.130037723986168,8.73024520591009,0.47225994620839007,0.3922368926612876,-0.6910880575640085,0.0011175785979742059,-0.0010867157339614173,0.001090830782496456
1589550916.350036,0.1918961245797204,-4.144827464165635,8.789309856662538,0.4722222222222222,0.3922222222222223,-0.6911111111111111,-0.006187583669710254,-0.001090830782496456,0.001090830782496456
1589550916.360036,0.15212213201553124,-4.159646311330745,8.64601270737734,0.4722222222222222,0.3922222222222223,-0.6911111111111111,-0.006622147592547492,0.0010136678849276984,3.858144878437879e-05
1589550916.370036,0.19129114894303695,-4.176516459577215,8.76387344682911,0.4722222222222222,0.3922222222222223,-0.6911111111111111,0.0006616803148949777,-0.0016116685962061868,0.0
1589550916.3800359,0.152078957212327,-4.112910540097258,8.780415791442465,0.4722222222222222,0.3922222222222223,-0.6911111111111111,0.01159093631337514,0.002000238323176968,-0.00209094994408494
1589550916.3900359,0.17524131053539152,-4.1184137701784636,8.838896391249246,0.4825057191070114,0.3922222222222223,-0.7041991980553882,0.008327938804453393,0.00034606166348910084,-0.00034606166348910084
1589550916.4000359,0.12851674641148325,-4.2,8.675741626794258,0.4844444444444445,0.3922222222222223,-0.7066666666666667,-0.010792178710560032,0.0007424434392828749,0.001090830782496456
1589550916.4100358,0.18842248089695066,-4.2,8.645788759551525,0.4844444444444445,0.3922222222222223,-0.7066666666666667,-0.009975340970249942,-0.0017080697816474002,0.001090830782496456
1589550916.4200358,0.18152962969755881,-4.173881481209764,8.668355556370706,0.4844444444444445,0.3922222222222223,-0.7066666666666667,-0.0025278992540761188,0.00016685671599179138,-0.0007571173505128731
1589550916.4300358,0.18922234653265593,-4.143110613869376,8.760668158391871,0.4844444444444445,0.3922222222222223,-0.7066666666666667,0.006702698303151791,0.0010060019484670558,0.0009211731144376557
1589550916.4400358,0.18,-4.162030589805045,8.81593882038991,0.48,0.37777777777777777,-0.6855555555555556,0.0076191313269880455,0.0,0.0002215029865967205
