time,acc_x,acc_y,acc_z,mag_x,mag_y,mag_z,gyr_x,gyr_y,gyr_z
1589550931.344614,0.22,-4.16,8.78,0.4988888888888889,0.3088888888888889,-0.6077777777777778,-0.001090830782496456,-0.00545415391248228,-0.001090830782496456
1589550931.354614,0.22696449920297557,-4.166964499202976,8.821786995217852,0.4988888888888889,0.3088888888888889,-0.6077777777777778,0.00042858724055909827,-0.002415317866371171,-0.001090830782496456
1589550931.364614,0.22051357094174717,-4.160513570941747,8.802054283766989,0.49256460285005366,0.3088888888888889,-0.6531018277227635,-0.0009787869840457515,-0.004195257432309767,-0.001090830782496456
1589550931.374614,0.239729665356675,-4.17,8.789188996070024,0.4922222222222222,0.3088888888888889,-0.6555555555555556,-0.002181661564992912,-0.005444324267465142,0.0
1589550931.384614,0.21475467428843634,-4.17,8.714264022865308,0.4922222222222222,0.3088888888888889,-0.6555555555555556,-0.002181661564992912,-0.004536207965804851,0.0
1589550931.394614,0.2292850044012835,-4.17,8.709642502200643,0.4922222222222222,0.3088888888888889,-0.6555555555555556,-0.00638899685329284,-0.004363323129985824,0.0010518338220749824
1589550931.404614,0.23,-4.193664953950558,8.71788831798352,0.4922222222222222,0.3088888888888889,-0.6555555555555556,-0.006544984694978735,-0.00522380513784013,-0.0006301332332121553
1589550931.414614,0.23637251682810703,-4.1808824495156784,8.758235100968642,0.47522884401393684,0.3053486017621627,-0.647766923876758,-0.005154717191363568,-0.003368752657059528,-0.00178596453430404
1589550931.424614,0.2312235081374322,-4.17,8.78,0.4655555555555556,0.3033333333333333,-0.6433333333333333,0.0004235106130234881,-0.002181661564992912,-0.002181661564992912
1589550931.434614,0.23,-4.176540470859624,8.734216703982632,0.4655555555555556,0.3033333333333333,-0.6433333333333333,0.001090830782496456,0.0006721572132867095,-0.0007547521758531012
1589550931.444614,0.22167394412457977,-4.18,8.768282391127942,0.4655555555555556,0.3033333333333333,-0.6433333333333333,0.001999062587065842,0.003089893369562298,0.001816463609138772
1589550931.454614,0.22722246759481518,-4.18,8.801667402784446,0.4655555555555556,0.3033333333333333,-0.6433333333333333,0.002969510562793665,0.005636039340891626,-0.001757583424010853
1589550931.464614,0.23975782110010296,-4.18,8.800242178899898,0.4774817813445703,0.31525955912234804,-0.6292387028554068,0.0011436660222722155,0.004416158369761583,-0.0011436660222722155
1589550931.474614,0.23128650771862397,-4.18,8.765146030874496,0.4777777777777778,0.31555555555555553,-0.6288888888888889,-0.001760652898574623,0.003412828569628798,-0.0001403362221394296
1589550931.484614,0.21215036096589493,-4.171075180482948,8.697526263380633,0.4777777777777778,0.31555555555555553,-0.6288888888888889,-0.003155208350735517,0.003272492347489368,-0.0009735467857426049
1589550931.494614,0.23600078321162837,-4.16133307226279,8.716000783211628,0.4777777777777778,0.31555555555555553,-0.6288888888888889,-0.004217907504031412,-0.0014545834352208513,-0.001090830782496456
1589550931.5046139,0.23417515143704085,-4.177474545688877,8.743299394251837,0.4777777777777778,0.31555555555555553,-0.6288888888888889,-0.004998715541571432,-0.0028170539765785202,0.00017995404067476018
1589550931.5146139,0.2363536174430129,-4.177292765113974,8.747292765113974,0.47001224534742875,0.31555555555555553,-0.6380663363065742,-0.004761081763777792,-0.004658636644898343,0.00039775863379196835
1589550931.5246139,0.22167496782136661,-4.160837483910684,8.730837483910683,0.4655555555555556,0.31555555555555553,-0.6433333333333333,-0.0013648967513821145,-0.0014562520743440013,-0.0009994754595345696
1589550931.5346138,0.22790205108437647,-4.175804102168753,8.690489744578118,0.4655555555555556,0.31555555555555553,-0.6433333333333333,0.0014951093878127462,-0.00022885072572672194,-0.001090830782496456
1589550931.5446138,0.23,-4.18,8.74839519532518,0.4655555555555556,0.31555555555555553,-0.6433333333333333,0.0012490667595483442,0.0,-0.00015823597705188824
1589550931.5546138,0.22315974494661456,-4.173159744946615,8.807881785373699,0.4655555555555556,0.31555555555555553,-0.6433333333333333,-0.00040148137197549964,-0.002238468231707933,-0.0007461560772359778
1589550931.5646138,0.22,-4.17,8.83,0.4655555555555556,0.31555555555555553,-0.6466951911137958,0.000559417296490179,-0.002172326961498278,-0.001090830782496456
1589550931.5746138,0.22,-4.156079794286633,8.816079794286633,0.4655555555555556,0.31555555555555553,-0.65,-0.0023737151022543324,-0.004127748560661284,0.0011868575511271662
1589550931.5846138,0.22,-4.156069707081943,8.779651464590286,0.4655555555555556,0.31555555555555553,-0.65,-0.006349630127701841,-0.007440460910198296,0.0008574568998489013
1589550931.5946138,0.22,-4.16,8.767679073033708,0.4655555555555556,0.31555555555555553,-0.65,-0.007635815477475192,-0.008726646259971648,-0.0016753138492413971
1589550931.6046138,0.23065226398342703,-4.16,8.759347736016572,0.4655555555555556,0.31555555555555553,-0.65,-0.008797797223115248,-0.011050609751251756,-0.002181661564992912
1589550931.6146138,0.236042868605051,-4.136257211630306,8.761871394184846,0.4655555555555556,0.3177539618860828,-0.6473619124033674,-0.010249133116067455,-0.012658313316358121,-0.002181661564992912
1589550931.6246138,0.21803708791208792,-4.028222527472527,8.75009271978022,0.4655555555555556,0.3211111111111111,-0.6433333333333333,-0.006993453998826523,-0.00808428478132298,-0.006096515391130949
1589550931.6346138,0.22633623576691225,-3.971831882116544,8.680991292699263,0.4655555555555556,0.3211111111111111,-0.6433333333333333,-0.0034723196877524494,-0.000999136701315407,-0.013181663471138517
1589550931.6446137,0.23,-4.03177283793797,8.677721604742246,0.4655555555555556,0.3211111111111111,-0.6433333333333333,-0.00832627083335704,-0.002526889242933836,-0.01754998582969904
1589550931.6546137,0.19757990392813324,-4.075936076857493,8.71890411528624,0.4655555555555556,0.3211111111111111,-0.6433333333333333,-0.007695586716467024,-0.004687085898156755,-0.019251420077773446
1589550931.6646137,0.18,-4.09,8.820484276361936,0.474498252929104,0.31216841373756266,-0.6433333333333333,-0.010535654066003809,-0.013435492654532422,-0.02602002507857632
1589550931.6746137,0.18803226439148768,-4.114096793174463,8.85,0.4777777777777778,0.3088888888888889,-0.6433333333333333,-0.013751506857738,-0.01022917286147738,-0.038875809846569784
1589550931.6846137,0.176540873015873,-4.086352182539683,8.775974801587301,0.4777777777777778,0.3088888888888889,-0.6433333333333333,-0.016383044675426086,-0.010194809261953089,-0.04952646624576324
1589550931.6946137,0.08041257367387034,-3.920687622789784,8.822121807465619,0.4777777777777778,0.3088888888888889,-0.6433333333333333,-0.020710783265315814,-0.018237662002052728,-0.0656662986374733
1589550931.7046137,-0.038790134429507836,-3.8404032885234973,8.820403288523497,0.4777777777777778,0.3088888888888889,-0.6433333333333333,-0.02343086584689088,-0.017497284473509143,-0.07707729596610109
1589550931.7146137,-0.12005462671743089,-3.7716029354963303,8.81,0.4898279656912334,0.3144505140797145,-0.6368447706107034,-0.028548371184067296,-0.016362461737446838,-0.07963064712224129
1589550931.7246137,-0.3039596990539968,-3.5208054138007543,8.723020150473001,0.4922222222222222,0.31555555555555553,-0.6355555555555555,-0.02708042369438032,-0.013199785160081516,-0.06618927166843866
1589550931.7346137,-0.4272431229773463,-3.279086312150633,8.695203920270668,0.4922222222222222,0.31555555555555553,-0.6355555555555555,-0.027315258064095294,-0.015972756102092256,-0.04746269240963728
1589550931.7446136,-0.5600326061641177,-3.0045602049530316,8.7,0.4922222222222222,0.31555555555555553,-0.6355555555555555,-0.032390924825241786,-0.022992724485214482,-0.018789287118550865
1589550931.7546136,-0.42145243304413427,-2.6347613730667674,8.767683741984156,0.4922222222222222,0.31555555555555553,-0.6355555555555555,-0.04123500011681797,-0.02245226838203041,0.009731231047744883
1589550931.7646136,-0.041408371944400085,-2.44084997603451,8.716833359961655,0.486063890220305,0.3135027782215831,-0.63795046244519,-0.03758412234923132,-0.0028407087936253364,0.07916339718968449
1589550931.7746136,0.3528876047385149,-2.860697486275643,8.724495810459404,0.4722222222222222,0.3088888888888889,-0.6433333333333333,0.0067669329865228025,0.008527958098952931,0.31580594392188915
1589550931.7846136,0.3576121607776798,-3.013733768554478,8.78671487455624,0.4722222222222222,0.3088888888888889,-0.6433333333333333,0.0077984095871055994,-0.016297746370921948,0.4412513565972571
1589550931.7946136,0.31392215947023694,-3.028480539867559,8.752720809801339,0.4722222222222222,0.3088888888888889,-0.6433333333333333,-0.00020044785711091292,-0.02323894120947408,0.504904414816153
1589550931.8046136,0.2140830975428146,-3.02,8.816903052866717,0.4722222222222222,0.3088888888888889,-0.6433333333333333,0.0028270954987255886,-0.023291503340240632,0.5812448045098877
1589550931.8146136,0.16,-3.0844371274754856,8.828450298019613,0.4722222222222222,0.32177631438398596,-0.6476291418316991,0.011538246347407955,-0.021113715628070042,0.665280385878827
1589550931.8246136,0.18055269533615992,-3.1268508984453867,8.806850898445386,0.4722222222222222,0.3288888888888889,-0.65,0.0115953352075605,-0.025957004505822057,0.7278617398801809
1589550931.8346136,0.11886973735032831,-3.215356315179606,8.852678157589803,0.4722222222222222,0.3288888888888889,-0.65,-0.0015062649854866092,-0.040000262354705815,0.7636592836607562
1589550931.8446136,0.10355423456818028,-3.195783061727279,8.754789006170467,0.4722222222222222,0.3288888888888889,-0.65,0.00010843464008813714,-0.03659210511727296,0.7978310405652619
1589550931.8546135,0.10420376031154474,-3.129426322180813,8.740573677819187,0.4722222222222222,0.3288888888888889,-0.65,0.004537035682468301,-0.037150825147319946,0.8332490514244876
1589550931.8646135,0.04302465717729065,-3.164097260675548,8.841219178528386,0.48646605792789954,0.31464505318321156,-0.6555392694410968,-0.0007608918669477086,-0.04657578473179886,0.8684023169030292
1589550931.8746135,0.00440739432473802,-3.182203697162369,8.71407394324738,0.4922222222222222,0.3088888888888889,-0.6577777777777778,0.000979731214986809,-0.04143338279988341,0.9082540174194732
1589550931.8846135,0.0,-3.1947559171597635,8.719186390532544,0.4922222222222222,0.3088888888888889,-0.6577777777777778,0.0037912824311766616,-0.04302569019096784,0.9361675981849966
1589550931.8946135,-0.04816380346686314,-3.2067890797688756,8.773210920231124,0.4922222222222222,0.3088888888888889,-0.6577777777777778,0.004403382724007003,-0.04585495245887233,0.9688775338542489
1589550931.9046135,-0.11920624419135832,-3.1345632689066365,8.845436731093363,0.4922222222222222,0.3088888888888889,-0.6577777777777778,0.0034413156929208643,-0.04615253955571414,1.0100357611903497
1589550931.9146135,-0.08179873701364841,-3.03,8.933481768180892,0.4930088046897988,0.3082334034992417,-0.6543692537516127,0.005582858167772959,-0.049920807484255605,1.0341814000967087
1589550931.9246135,-0.1618312637108298,-3.001409422987904,8.834506208867511,0.4988888888888889,0.3033333333333333,-0.6288888888888889,0.004317307445398053,-0.05066976712934088,1.073008288751459
1589550931.9346135,-0.13684808048345967,-2.9643839731721804,8.830544241450378,0.4988888888888889,0.3033333333333333,-0.6288888888888889,0.003960134514008075,-0.05501975641340807,1.10401144169891
1589550931.9446135,-0.20913809990205678,-2.9465426052889323,8.747159647404505,0.4988888888888889,0.3033333333333333,-0.6288888888888889,0.008147576442035233,-0.053585326049079084,1.1349896638893486
1589550931.9546134,-0.2916469259505951,-2.931011844429643,8.794424140627262,0.4988888888888889,0.3033333333333333,-0.6288888888888889,0.005123028597196657,-0.05567346836516954,1.1709158503075336
1589550931.9646134,-0.29977072485002076,-2.9579541449700044,8.92011463757499,0.4988888888888889,0.286983146450547,-0.6372849308016711,0.0023798196901914977,-0.05719454705759053,1.2177009444186273
1589550931.9746134,-0.3680662209933149,-3.0103311049665744,8.894033110496657,0.4988888888888889,0.26222222222222225,-0.65,0.00719587136957884,-0.05151610729301487,1.2604759107127248
1589550931.9846134,-0.38,-3.0641587085572164,8.835745794129378,0.4988888888888889,0.26222222222222225,-0.65,0.00017312417965710102,-0.06564380541126598,1.3074837149050187
1589550931.9946134,-0.3235088765064144,-3.0474464170014253,8.727232085007126,0.4988888888888889,0.26222222222222225,-0.65,0.003852977729295764,-0.0637785307854845,1.3434399386223546
1589550932.0046134,-0.3858514685152644,-3.15715179485199,8.833777202772897,0.4988888888888889,0.26222222222222225,-0.65,0.008726646259971648,-0.05948573854594163,1.3606205947719283
1589550932.0146134,-0.4478496705492927,-3.2378496705492927,8.948924835274646,0.5099640536142425,0.2517623444260549,-0.6463082784248821,0.009330702790153382,-0.061807862627850284,1.3844458921211964
1589550932.0246134,-0.4928006268026253,-3.2828006268026253,8.877199373197374,0.5188888888888888,0.2433333333333333,-0.6433333333333333,0.009817477042468105,-0.06463828252232195,1.4084415253368818
1589550932.0346134,-0.515571485014393,-3.276714455043179,8.84,0.5188888888888888,0.2433333333333333,-0.6433333333333333,0.00614502777433207,-0.06702375377898852,1.42263549948088
1589550932.0446134,-0.5177047360631475,-3.2255738159842133,8.773607239763196,0.5188888888888888,0.2433333333333333,-0.6433333333333333,0.00894116644777266,-0.0629284779691798,1.4395031440779678
1589550932.0546134,-0.5364225326777792,-3.248619738577767,8.786591617699964,0.5188888888888888,0.2433333333333333,-0.6433333333333333,0.013941122189334952,-0.06109574597715445,1.4533061729294379
1589550932.0646133,-0.5301353579565895,-3.2989171363472836,8.956345335172085,0.5188888888888888,0.2433333333333333,-0.6433333333333333,0.007768702840608493,-0.07069728718628451,1.4615360653944065
1589550932.0746133,-0.6098182200273196,-3.329939406675773,8.804666736716753,0.5288888888888889,0.2311111111111111,-0.6433333333333333,0.009804257629812022,-0.06216413518964191,1.4606422468817386
1589550932.0846133,-0.6272684469268586,-3.3272684469268583,8.783610681561152,0.5288888888888889,0.2311111111111111,-0.6433333333333333,0.01061034160734401,-0.06227582066711539,1.4504059404146799
1589550932.0946133,-0.6455360421100516,-3.32,8.74,0.5288888888888889,0.2311111111111111,-0.6433333333333333,0.010281735389080936,-0.06155078216641437,1.4376207090046567
1589550932.1046133,-0.692476954160879,-3.3387154312413183,8.78158984720293,0.5288888888888889,0.2311111111111111,-0.6433333333333333,0.00863993354655057,-0.06467256630855338,1.41959122217115
1589550932.1146133,-0.7628109048723898,-3.419776102088167,8.96281090487239,0.5288888888888889,0.2137313740654808,-0.6541956689868522,0.004621098339260217,-0.06955539487049879,1.3891540195350633
1589550932.1246133,-0.7919095092024541,-3.376683282208589,8.91954754601227,0.5288888888888889,0.17777777777777778,-0.6766666666666666,0.0184564274228142,-0.05144443853658452,1.3695133698874264
1589550932.1346133,-0.7304133828084272,-3.1751574718635958,8.682578735931799,0.5288888888888889,0.17777777777777778,-0.6766666666666666,0.022379208556796096,-0.03804379817965982,1.3422737173395067
1589550932.1446133,-0.68933781565163,-3.0846689078258147,8.680871706668752,0.5288888888888889,0.17777777777777778,-0.6766666666666666,0.011829983509573302,-0.049256540310228226,1.3137497836329688
1589550932.1546133,-0.6036157404473734,-2.9670246921403374,8.985857254504362,0.5288888888888889,0.17777777777777778,-0.6766666666666666,0.007066748484126705,-0.051873043949721365,1.256255018362927
1589550932.1646132,-0.7348745425046221,-3.014808512243897,8.90986793947855,0.5488624767845988,0.1677909838299228,-0.6916468575884491,0.009830442053843662,-0.05506174477172966,1.2021329767884017
1589550932.1746132,-0.8685571654284465,-3.1551803543214443,8.875049921000437,0.5688888888888889,0.15777777777777774,-0.7066666666666667,-0.0021029671467578835,-0.06944481712955376,1.1532299922852973
1589550932.1846132,-0.9400865566675684,-3.1972788747633216,8.815961590478766,0.5688888888888889,0.15777777777777774,-0.7066666666666667,-0.0029567798948869316,-0.06764095038252163,1.115250698117704
1589550932.1946132,-1.0230076836158193,-3.1985604519774014,8.733393446327684,0.5688888888888889,0.15777777777777774,-0.7066666666666667,0.006281385744532756,-0.04920798056122125,1.0746674312726865
1589550932.2046132,-1.0921784276329731,-3.228539944903581,8.863070565797837,0.5688888888888889,0.15777777777777774,-0.7066666666666667,0.009758069644480906,-0.043533371393514,1.0457907285345351
1589550932.2146132,-1.13,-3.2098429206867656,8.891716698540945,0.5576387724940489,0.14652766138293782,-0.7029166278683867,0.006885850269447727,-0.048968051789178534,1.0197903135160074
1589550932.2246132,-1.1437392654851086,-3.1366380412936232,8.807769961629818,0.5422222222222223,0.13111111111111112,-0.6977777777777778,-0.0016315623580332528,-0.0543076473062115,1.0011581341445581
1589550932.2346132,-1.176813760765106,-3.140767891548086,8.850653218505537,0.5422222222222223,0.13111111111111112,-0.6977777777777778,-0.002001624728865105,-0.04785214513639302,0.9921284104518651
1589550932.2446132,-1.2073135676123108,-3.1489555271276997,8.740298743321544,0.5422222222222223,0.13111111111111112,-0.6977777777777778,0.005633263910782172,-0.03349012210191091,0.984043300127862
1589550932.2546132,-1.241519960932731,-3.2374398730313763,8.81167989256501,0.5422222222222223,0.13111111111111112,-0.6977777777777778,0.008726646259971648,-0.034775674692042124,0.9709354151001732
1589550932.2646132,-1.2917418501370121,-3.322752716620996,8.897247283379004,0.5403432969017398,0.12815851417892427,-0.7012672105158168,0.007672571620065973,-0.04227888185738536,0.9446532319800899
1589550932.2746131,-1.3624009810745419,-3.3,8.919399754731364,0.5344444444444445,0.11888888888888888,-0.7122222222222222,0.004035940121948125,-0.04171347614129549,0.9186314057771751
1589550932.2846131,-1.4,-3.297538821141894,8.84600934968925,0.5344444444444445,0.11888888888888888,-0.7122222222222222,0.0005200070132943024,-0.04259321727326964,0.8817444398162814
1589550932.2946131,-1.4009793308874277,-3.2901224163609286,8.6525707435795,0.5344444444444445,0.11888888888888888,-0.7122222222222222,0.0053740325916130935,-0.03287181256315386,0.8656656204839274
1589550932.304613,-1.48,-3.2655974955598213,8.881170771963186,0.5344444444444445,0.11888888888888888,-0.7122222222222222,0.000929870570336047,-0.03981664451119004,0.8223919473951427
1589550932.314613,-1.48,-3.1703436587212868,8.93896902383614,0.5348644717704615,0.1181633871439504,-0.7137114100144644,0.006844883504461011,-0.025767577916876814,0.8034924384856645
1589550932.324613,-1.5046820432932642,-3.2258380804017763,8.924104024739007,0.5466666666666666,0.09777777777777777,-0.7555555555555555,0.015271630954950384,-0.009565268869733447,0.7823905099216096
1589550932.334613,-1.513832231216509,-3.217571257553301,8.853552616577357,0.5466666666666666,0.09777777777777777,-0.7555555555555555,0.013518168042806098,-0.0006524650544603844,0.751949605341782
1589550932.344613,-1.46,-3.0957570061838617,8.832116797924929,0.5466666666666666,0.09777777777777777,-0.7555555555555555,0.0027438998169264078,-0.014609993277541953,0.709999331996984
1589550932.354613,-1.4552049443757724,-3.0912296662546352,8.940881582200246,0.5466666666666666,0.09777777777777777,-0.7555555555555555,-0.009555947328533602,-0.03578059803520699,0.6688648592239774
1589550932.364613,-1.451080198019802,-3.025853795379538,8.760174587458746,0.5417421342134213,0.09244286762009533,-0.7604800880088008,-0.01235263258281853,-0.03808029059968057,0.6171364711679082
1589550932.374613,-1.51245717606043,-3.0169285299244626,8.768549912841372,0.5333333333333333,0.08333333333333333,-0.7688888888888888,-0.015070603708595602,-0.03924574636311543,0.5631312437584917
1589550932.384613,-1.6091194056894365,-3.019266171407864,8.620733828592137,0.5333333333333333,0.08333333333333333,-0.7688888888888888,-0.005012801287493227,-0.016570587269965187,0.5292450453869519
1589550932.394613,-1.7210870864142207,-3.142981552020315,8.737857569646724,0.5333333333333333,0.08333333333333333,-0.7688888888888888,-0.0057793907848197115,-0.013327134854730584,0.5087980130059923
1589550932.404613,-1.7826032129901537,-3.207378772548923,8.961508032475384,0.5333333333333333,0.08333333333333333,-0.7688888888888888,-0.016432962090810566,-0.027388270151350945,0.4961145399029457
1589550932.414613,-1.6670359803455381,-2.9262878427643053,8.751136471707085,0.5346506754019831,0.07180659023264824,-0.7774516123351121,-0.00036257285637899357,-0.0035142075850753633,0.4958838240291933
1589550932.424613,-1.7196602449396947,-2.938838744161186,8.965892496107458,0.5377777777777778,0.04444444444444445,-0.7977777777777778,-0.0039678142673400625,-0.010923796603010743,0.5009231031391569
1589550932.434613,-1.7533686690223793,-2.966461900878862,8.912923801757724,0.5377777777777778,0.04444444444444445,-0.7977777777777778,-0.01666983545617149,-0.020785875935273364,0.5105873792329029
1589550932.444613,-1.6710306242638397,-2.8461216816163812,8.672243363232763,0.5377777777777778,0.04444444444444445,-0.7977777777777778,-0.017360734485349843,-0.011113289526776435,0.5230235617581132
1589550932.454613,-1.668207549002467,-2.8548382772888865,8.944622647007401,0.5377777777777778,0.04444444444444445,-0.7977777777777778,-0.005649679984904814,-0.019783436927622314,0.5390659326256717
1589550932.464613,-1.6111721739806129,-2.781507080832216,8.773516521941838,0.5377777777777778,0.04444444444444445,-0.7977777777777778,-0.011871274261411642,-0.004673850827534302,0.5452875269021785
1589550932.474613,-1.8183453505718548,-2.9862076436740783,8.839794522980748,0.5722222222222222,-0.04,-0.8044444444444444,-0.013714424874844,-0.0042355222726985975,0.5504558632588592
1589550932.484613,-1.870744680851064,-3.0601489361702128,8.97776595744681,0.5722222222222222,-0.04,-0.8044444444444444,-0.018479137638801664,-0.01307372297404795,0.5586515783813711
1589550932.494613,-1.9670294576488943,-3.096454069927503,8.827060658896944,0.5722222222222222,-0.04,-0.8044444444444444,-0.013539535421359836,-0.010075344354178745,0.5702466319339358
1589550932.504613,-2.073271428966815,-3.1446204090670062,8.816155102266752,0.5722222222222222,-0.04,-0.8044444444444444,-0.012837965168056667,-0.005768713872705649,0.5770697420971959
1589550932.514613,-2.007618742306114,-2.9809499384489127,8.806193834632746,0.5759264008571559,-0.04635002051702914,-0.8028569393151871,-0.018907500431949557,-0.010804685614809479,0.6079057106628923
1589550932.524613,-1.9881794908950394,-2.92,8.86931410906632,0.5877777777777777,-0.06666666666666668,-0.7977777777777778,-0.01308996938995747,-0.017130938140031526,0.6532118445218903
1589550932.534613,-1.9841427052569403,-2.947160543414058,8.813964323685765,0.5877777777777777,-0.06666666666666668,-0.7977777777777778,-0.018027895527521758,-0.018666827268310173,0.6954727282795945
1589550932.544613,-2.04,-3.01,8.7970581671415,0.5877777777777777,-0.06666666666666668,-0.7977777777777778,-0.024317964184986995,-0.024319181398823112,0.7356079537364992
1589550932.5546129,-2.057543089297439,-3.0275430892974393,8.837616956664478,0.5877777777777777,-0.06666666666666668,-0.7977777777777778,-0.011179001100643978,-0.025909245504235522,0.7758728667767363
1589550932.5646129,-2.1044134519597404,-3.053929442478788,8.944618529078355,0.5828119572975469,-0.07990885461394892,-0.8017090523246272,-0.01116423768805586,-0.030596059153985045,0.8042510138070635
1589550932.5746129,-2.0886054405732875,-2.965816321719862,8.858843524586298,0.5611111111111111,-0.13777777777777778,-0.8188888888888889,-0.018531137833929054,-0.039891384978654576,0.8401567526998924
1589550932.5846128,-2.1153435773480664,-2.992328211325967,8.888625690607734,0.5611111111111111,-0.13777777777777778,-0.8188888888888889,-0.014599231334576078,-0.04010677049411672,0.8748921469018569
1589550932.5946128,-2.121152762686627,-2.969230150106644,8.846541711940118,0.5611111111111111,-0.13777777777777778,-0.8188888888888889,-0.014684226765623446,-0.042332676018855736,0.9071522010238141
1589550932.6046128,-2.058607142857143,-2.9161785714285715,8.964785714285714,0.5611111111111111,-0.13777777777777778,-0.8188888888888889,-0.011847201462756151,-0.043481294155153366,0.9362756439136009
1589550932.6146128,-1.9736710235640647,-2.7385848674521354,8.7022558910162,0.5611111111111111,-0.13777777777777778,-0.8188888888888889,-0.0025821081156880855,-0.03421620080808531,0.9632286427414353
1589550932.6246128,-2.029522510728053,-2.7191168448614444,8.772577642010328,0.4755555555555556,-0.18222222222222226,-0.72,-0.01367053192184472,-0.05010792171355892,0.9983835083912246
1589550932.6346128,-2.2888253691177542,-2.8792744926903775,8.650552767473998,0.4755555555555556,-0.18222222222222226,-0.72,-0.012006675804663514,-0.05343563394792133,1.0241732782075332
1589550932.6446128,-1.895395605143207,-2.495767399142799,8.703021974283965,0.4755555555555556,-0.18222222222222226,-0.72,0.008686089826021426,-0.03284659277674434,1.0841131824943078
1589550932.6546128,-1.810797018693274,-2.5101532728256295,9.128681853699586,0.4755555555555556,-0.18222222222222226,-0.72,-0.0022318199798880126,-0.06542643968950297,1.121541239122674
1589550932.6646128,-2.0974436795994995,-2.5525153601092274,8.70249487996359,0.47527834667071217,-0.1761236267556668,-0.7091888534911063,-0.011196095272559695,-0.05046600344243211,1.1993204135522788
1589550932.6746128,-2.1382131607862287,-2.522402392870223,8.827762910511538,0.4744444444444445,-0.15777777777777774,-0.6766666666666666,0.0013774485349184896,-0.046594548551952504,1.2896175197790143
1589550932.6846128,-2.1513796997959775,-2.5491828184202854,9.00191562226756,0.4744444444444445,-0.15777777777777774,-0.6766666666666666,-0.013194450376812002,-0.07833085436603576,1.3480607863376084
1589550932.6946127,-2.3221365980983157,-2.6232530607171713,9.032570070225592,0.4744444444444445,-0.15777777777777774,-0.6766666666666666,-0.010664733466533774,-0.08290313946973066,1.417031217106433
1589550932.7046127,-2.1037683862005974,-2.4188504937872244,9.396551481361673,0.4744444444444445,-0.15777777777777774,-0.6766666666666666,-0.011221319987924742,-0.08567499916745631,1.494009191756756
1589550932.7146127,-1.8908241017718024,-2.2109020084809834,8.733919660760659,0.47695002355828764,-0.15557286815759577,-0.6729584095781788,-0.012738885461374493,-0.08603833221937054,1.5178205911538276
1589550932.7246127,-1.9968191750278708,-2.2422657748049053,8.605381047937568,0.5022222222222222,-0.13333333333333333,-0.6355555555555555,0.02881315807752389,-0.03469980146546553,1.536635981890318
1589550932.7346127,-2.014971543027431,-2.2567046092967584,8.929649967024108,0.5022222222222222,-0.13333333333333333,-0.6355555555555555,-0.0018852062708710335,-0.08636468002068891,1.5243698982968088
1589550932.7446127,-1.8977585444437426,-2.03982753174553,8.040844652220608,0.5022222222222222,-0.13333333333333333,-0.6355555555555555,0.01933779934780027,-0.032894174874338454,1.5508961938072472
1589550932.7546127,-1.4327186320432943,-1.7459768520623948,7.36633248442403,0.5022222222222222,-0.13333333333333333,-0.6355555555555555,0.02575596382504633,0.028526224563913447,1.5889090339392582
1589550932.7646127,-1.7539948320413437,-2.1496985357450473,9.967789836347976,0.5013065365106709,-0.13459240118671642,-0.634868791271892,-0.033974728045846975,-0.20576413396458257,1.5836478355021688
1589550932.7746127,-2.051346048620339,-2.061121707183616,8.125328109122176,0.4933333333333334,-0.14555555555555555,-0.6288888888888889,-0.01617280486509729,-0.18246423618826135,1.6103048355461118
1589550932.7846127,-2.248061439849918,-2.2250511998749314,8.903993199405924,0.4933333333333334,-0.14555555555555555,-0.6288888888888889,0.011544192336843503,-0.06623166727689672,1.6451746062195212
1589550932.7946126,-2.333014664245406,-2.3254587702341203,9.246376310702361,0.4933333333333334,-0.14555555555555555,-0.6288888888888889,0.0004953713219010814,-0.11776094778316266,1.6579383128926914
1589550932.8046126,-2.1282668463085543,-2.06338156327495,8.46014468982485,0.4933333333333334,-0.14555555555555555,-0.6288888888888889,0.029083559796076842,-0.06773161795335511,1.690100024926139
1589550932.8146126,-2.4766879911542867,-2.238019192038858,9.160047980097145,0.49288959970514296,-0.14651697841663486,-0.6298503117499682,0.009454448316823873,-0.09402926453008176,1.7151455295989453
1589550932.8246126,-2.3110559570351064,-2.088950361331596,8.78737590332899,0.48736853190117024,-0.158479291991909,-0.6418126253252423,0.004937535282206246,-0.09673941235085233,1.7467639208412686
1589550932.8346126,-2.388031324531916,-2.018057428308513,8.784041766042556,0.4866666666666667,-0.16,-0.6433333333333333,0.024232958757190982,-0.08571765865390256,1.7939615115236576
1589550932.8446126,-2.3407707186989426,-1.931412984281395,8.721027624931924,0.4866666666666667,-0.16,-0.6433333333333333,-0.000684481003127832,-0.11836809696052719,1.8223158395267787
1589550932.8546126,-2.2627539424182763,-1.8453197793415332,9.100112863297012,0.4866666666666667,-0.16,-0.6433333333333333,0.009805165566608659,-0.10553480033756725,1.870206805551098
1589550932.8646126,-1.9643823299452698,-1.5869155590304926,8.963733385457388,0.4872378594387977,-0.16274172530622882,-0.6440187646598905,0.0200835678391138,-0.10518841150353923,1.885872862291933
1589550932.8746126,-1.5797578398457033,-1.6551410815058218,8.851189370669333,0.4922222222222222,-0.18666666666666668,-0.65,0.01739391591759582,-0.0901562797580609,1.7964465845396809
1589550932.8846126,-2.503536774012094,-1.8137195893685838,9.259227956686823,0.4922222222222222,-0.18666666666666668,-0.65,-0.0063055265524563095,-0.1085154964896629,1.5641760224663632
1589550932.8946126,-1.947756334991354,-1.5619456482291911,8.559500458979997,0.4922222222222222,-0.18666666666666668,-0.65,-0.005827001331702882,-0.08174442721655603,1.4134690839343704
1589550932.9046125,-1.7906766394155504,-1.4149571664637328,8.86237258653679,0.4922222222222222,-0.18666666666666668,-0.65,0.04523724493243462,-0.043952070189428157,1.4090163167966478
1589550932.9146125,-2.4010488321037955,-1.6290577718003993,9.007066711497004,0.4924839522776668,-0.1887605071102233,-0.650680498144156,-0.012872778403082373,-0.08632980354585909,1.2357919908859147
1589550932.9246125,-2.2434338719566465,-1.6124667233638577,9.13149957477107,0.49709257684337294,-0.22562950363587217,-0.6626629220149918,-0.02825610079928163,-0.08904450749812955,1.1760685039359648
1589550932.9346125,-2.131129946627582,-1.4816321451287298,8.755021985011476,0.4977777777777778,-0.2311111111111111,-0.6644444444444444,0.013619291248879103,-0.07652249884994454,1.1607261246138252
1589550932.9446125,-2.168497985315899,-1.4355772507923361,8.889026421825479,0.4977777777777778,-0.2311111111111111,-0.6644444444444444,0.009450316906818863,-0.06563342701761198,1.1162764010050725
1589550932.9546125,-2.2954178279634965,-1.54245711828505,8.882346430107185,0.4977777777777778,-0.2311111111111111,-0.6644444444444444,-0.008037860516710293,-0.07437751572937655,1.0813000461580142
1589550932.9646125,-1.9455406265469202,-1.3779598331093983,8.92810480164062,0.4977777777777778,-0.2311111111111111,-0.6644444444444444,0.004709911257116619,-0.04911291841289255,1.02283687224091
1589550932.9746125,-1.9018000311963812,-1.3468125097488692,9.005912494150678,0.4722222222222222,-0.25555555555555554,-0.6766666666666666,0.005902754030724661,-0.05890486225480863,0.9681750196907412
1589550932.9846125,-2.0326470129464984,-1.3877021915457806,8.981378685072531,0.4722222222222222,-0.25555555555555554,-0.6766666666666666,-0.011046660933686668,-0.05890486225480863,0.8736151256787623
1589550932.9946125,-1.7833069582186105,-1.3553227832874442,8.569881311983748,0.4722222222222222,-0.25555555555555554,-0.6766666666666666,-0.0045127951445031005,-0.04480311370766806,0.7631676566484052
1589550933.0046124,-1.8885570374574348,-1.395061010215664,9.002175085130535,0.4722222222222222,-0.25555555555555554,-0.6766666666666666,0.004862152246328912,-0.029887029997615725,0.6715547726652199
1589550933.0146124,-1.9703839741770715,-1.4173774475028376,9.188145395856981,0.4722222222222222,-0.25555555555555554,-0.6766666666666666,-0.012178267477621603,-0.05585338386268318,0.5928442625117342
1589550933.0246124,-1.97,-1.3086612736151533,8.911338726384846,0.4722222222222222,-0.31555555555555553,-0.6766666666666666,-0.0005067012025240037,-0.017015195334963956,0.4881325431964655
1589550933.0346124,-1.97,-1.3017649089922558,8.918235091007745,0.4722222222222222,-0.31555555555555553,-0.6766666666666666,0.002502405524666437,-0.014758365289571123,0.4234367485618711
1589550933.0446124,-2.3087381907090463,-1.356715305623472,9.23451501222494,0.4722222222222222,-0.31555555555555553,-0.6766666666666666,-0.015118071851935675,-0.03892752065756492,0.27749299157337476
1589550933.0546124,-2.11184195599022,-1.2992872371638142,8.963782689486553,0.4722222222222222,-0.31555555555555553,-0.6766666666666666,-0.012433315929573883,-0.01386979871552154,0.20858425623275545
1589550933.0646124,-2.0718194509073986,-1.2654583527221963,8.92,0.4722222222222222,-0.31555555555555553,-0.6766666666666666,0.013879286219544255,0.027661620982849862,0.1447911625010547
1589550933.0746124,-2.055382539410555,-1.2526912697052777,9.044248415010282,0.4811551148046608,-0.4146294551062371,-0.6726062609473764,-0.001891033478472321,-0.0006764889152759274,0.03182948803668309
1589550933.0846124,-2.1272630840711844,-1.3358478711902049,9.08141521288098,0.4844444444444445,-0.4511111111111111,-0.6711111111111111,-0.03603821718416662,-0.029164080253424506,-0.12251102954506492
1589550933.0946124,-1.7139597672064777,-1.2533109817813766,8.51300531376518,0.4844444444444445,-0.4511111111111111,-0.6711111111111111,-0.008946275322125604,0.0031236347966289582,-0.26323676160984033
1589550933.1046124,-1.9258165699292358,-1.384106305160213,9.138782698576767,0.4844444444444445,-0.4511111111111111,-0.6711111111111111,-0.004886058052948864,0.02014086296259398,-0.38766852781341155
1589550933.1146123,-1.6840365349447404,-1.3424200922318519,8.988712332034666,0.4844444444444445,-0.4511111111111111,-0.6711111111111111,-0.03944523729659712,-0.007142699598180952,-0.5295430531294412
1589550933.1246123,-1.6050201972564537,-1.3218503557587813,8.79907482212061,0.5633333333333334,-0.9633333333333334,-0.5866666666666667,-0.02617993877991494,0.025089107997418484,-0.9075712110370512
1589550933.1346123,-1.3728110069921469,-1.3390510365191004,8.79047448174045,0.5633333333333334,-0.9633333333333334,-0.5866666666666667,-0.02617993877991494,0.025089107997418484,-0.9075712110370512
1589550933.1446123,-1.4173630647911337,-1.441415973998295,9.07867220801364,0.5633333333333334,-0.9633333333333334,-0.5866666666666667,-0.024749298632016442,0.044590875875082175,-1.1432296888750437
1589550933.1546123,-1.6322534455327875,-1.486854453794399,8.717261400448542,0.5633333333333334,-0.9633333333333334,-0.5866666666666667,-0.014691223416746916,0.0763052326809702,-1.6171507071910252
1589550933.1646123,-1.3428194905020223,-1.4627349575418351,8.926297034637427,0.5633333333333334,-0.9633333333333334,-0.5866666666666667,-0.026969358269695674,0.06753513635743537,-1.7969376818234892
1589550933.1746123,-1.3643236153788505,-1.6611352769242298,9.136424492243123,0.7688888888888888,-0.9277777777777778,-0.72,-0.0188681923440208,0.09001465636560455,-2.0703707459592358
1589550933.1846123,-1.3328891553623623,-1.6674221689275275,8.784358540058458,0.7688888888888888,-0.9277777777777778,-0.72,-0.008581289358879036,0.11127425586823085,-2.2212453230746485
1589550933.1946123,-1.3637530942782377,-1.74000495084518,8.727506188556475,0.7688888888888888,-0.9277777777777778,-0.72,-0.041590556343159224,0.07703688621325624,-2.505517682602759
1589550933.2046123,-1.7281703516478122,-2.1175958872174916,9.173574636205245,0.7688888888888888,-0.9277777777777778,-0.72,-0.058215554422361177,0.1068898260554946,-2.753187351246106
1589550933.2146122,-1.2278172149928666,-2.0201547706541008,8.780541697289353,0.7688888888888888,-0.9277777777777778,-0.72,-0.011281475607675825,0.1576402567918202,-2.919488735197871
1589550933.2246122,-1.1259578532624919,-2.056168586950033,8.752126440212525,0.626907182987417,-0.5143145682844805,-0.7348222660007031,-0.008633654417251516,0.14359575036473243,-3.104546214241935
1589550933.2346122,-1.436213364595545,-2.367466695086859,9.249111158478097,0.5666666666666667,-0.3388888888888889,-0.7411111111111112,-0.04331131821910232,0.14880580384441663,-3.3728255282633857
1589550933.2446122,-1.127851750016903,-2.526356178585112,9.227940321381082,0.5666666666666667,-0.3388888888888889,-0.7411111111111112,-0.04014643745068936,0.14372491476692273,-3.5732568224971275
1589550933.2546122,-1.3263604606612427,-2.687053706249577,8.670225372427938,0.5666666666666667,-0.3388888888888889,-0.7411111111111112,-0.007149955597047043,0.19218849748945985,-3.731021251359855
1589550933.2646122,-1.2249374840520542,-2.7863073062856167,8.826348983584248,0.5666666666666667,-0.3388888888888889,-0.7411111111111112,-0.0256458891087361,0.18543668673636976,-3.8657100089402947
1589550933.2746122,-1.379268067064945,-3.2654765850838308,9.062727693197148,0.5866666666666667,-0.15555555555555556,-0.7411111111111112,-0.038672505410632024,0.16876915949730703,-4.024374614218201
1589550933.2846122,-1.5570953941029102,-3.3705563692426286,8.73132222008094,0.5866666666666667,-0.15555555555555556,-0.7411111111111112,-0.02721007909278204,0.18375848622064933,-4.071987769692347
1589550933.2946122,-1.4436245255474454,-3.4498808759124087,8.989364671532847,0.5866666666666667,-0.15555555555555556,-0.7411111111111112,-0.02436333130043953,0.16838764638242007,-4.074991743743411
1589550933.3046122,-1.201299674669522,-3.620595684223531,8.721028909113372,0.5866666666666667,-0.15555555555555556,-0.7411111111111112,-0.026132681275356763,0.20390856288193024,-4.051126960233256
1589550933.3146122,-1.4085706049499649,-3.7155948606020672,8.885118395585389,0.5866666666666667,-0.15555555555555556,-0.7411111111111112,-0.018596097573137294,0.19166161436582352,-4.01627026061049
1589550933.3246121,-1.3016448673444088,-3.7919190119018102,8.887806843540789,0.6088888888888889,-0.045555555555555564,-0.7333333333333333,-0.021696997521102178,0.1843204977096943,-3.9557398069647376
1589550933.3346121,-1.3406446813786264,-3.8374187949417307,8.835807091495166,0.6088888888888889,-0.045555555555555564,-0.7333333333333333,-0.018860851010424715,0.18361146108202495,-3.9131976093045755
1589550933.3446121,-1.55750028044722,-4.05750028044722,8.896900123396776,0.6088888888888889,-0.045555555555555564,-0.7333333333333333,-0.01917680760365138,0.171194965873448,-3.835208234184988
1589550933.354612,-1.3492778980398388,-3.8926477071872583,8.578424522868549,0.6088888888888889,-0.045555555555555564,-0.7333333333333333,-0.017505805256359624,0.18052652616204024,-3.739014652928899
1589550933.364612,-1.3242885230274264,-3.9842754155661035,8.869967231346692,0.6088888888888889,-0.045555555555555564,-0.7333333333333333,-0.019323083889618772,0.16144510051281924,-3.689039490514272
1589550933.374612,3.51,-1.46,9.31,0.6133333333333333,0.054444444444444434,-0.7622222222222222,-0.09926560120717748,0.19198621771937624,-4.654574948912376
1589550933.384612,-13.301764744258874,-11.781965683716074,12.032331354384134,0.6133333333333333,0.054444444444444434,-0.7622222222222222,0.1510062287634914,0.542692513079576,-4.456420463143843
1589550933.394612,-9.63427361563518,-9.841620846905537,3.147906188925081,0.6133333333333333,0.054444444444444434,-0.7622222222222222,0.11248533326872051,0.8004605822466221,-5.605140526836607
1589550933.404612,-0.9205339785916413,1.568081450190707,-1.3787684042160526,0.6133333333333333,0.054444444444444434,-0.7622222222222222,-0.9225326779508644,-0.3111456680505871,-7.124237761785401
1589550933.414612,-1.5713154563002014,-1.7663985803532514,-0.5568199082625931,0.6133333333333333,0.054444444444444434,-0.7622222222222222,-1.2491099192478297,0.1654440799220399,-5.68856267313693
1589550933.424612,0.8848104382077795,-3.0348276710979816,17.491610044313145,0.5722917008589091,0.1888557907981837,-0.7232326713715193,0.1884551163015904,-0.968641353596948,-4.723626793224456
1589550933.434612,-0.15349641859900442,-0.8939808182590747,2.8145465582129425,0.5688888888888889,0.2,-0.72,1.759139378941069,0.09753844143234214,-4.0069492298235385
1589550933.444612,-3.1911218927480807,-0.13022146750763436,14.321618196866348,0.5688888888888889,0.2,-0.72,0.233583733819958,1.2623370328619872,-2.6147407808201653
1589550933.454612,1.38,-1.9,16.15,0.5688888888888889,0.2,-0.72,-0.6294093615004551,-0.4679664056909796,-1.4922565104551515
1589550933.464612,1.1433339267435132,-1.590513596510748,12.59636788464106,0.5688888888888889,0.2,-0.72,-0.3891195216268461,-0.2689825878782885,-1.2793716275258054
1589550933.474612,0.5915048282150109,-1.4876447428405655,7.243130258195532,0.5467296614032906,0.2720174893281943,-0.72,0.1296483284861924,0.15347291545840436,-0.6930449998505663
1589550933.484612,0.6831263975209958,-1.949798052714052,8.44056094512034,0.5288888888888889,0.33,-0.72,0.04116112069840752,0.03833817808287393,-0.3280936745581662
1589550933.494612,0.30372368206299993,-2.353109596866329,8.633495185245634,0.5288888888888889,0.33,-0.72,-0.05929547474653332,-0.036773967342793354,-0.012475431254902442
1589550933.504612,0.06955182166585777,-2.380044014526467,8.52565026023798,0.5288888888888889,0.33,-0.72,0.022506734574011825,0.025553988520175045,0.20583527593779402
1589550933.514612,-0.02354877434844907,-2.335596948456802,8.8326944971537,0.5288888888888889,0.33,-0.72,-0.001198380454193626,-0.00430718270827115,0.4074079989157806
1589550933.524612,-0.08193432095983777,-2.45129555568073,8.884507407198782,0.5248742935466306,0.3450547325334685,-0.7260218930133874,0.0014809442640528123,-0.022202796659786056,0.6116135752734406
1589550933.534612,-0.13714712741149035,-2.5498026287894846,8.8781638753445,0.5244444444444445,0.3466666666666667,-0.7266666666666667,0.036823366897804785,-0.021616325520456958,0.7269682530741833
1589550933.544612,-0.056305471669140614,-2.587035368787429,8.89703536878743,0.5244444444444445,0.3466666666666667,-0.7266666666666667,0.01854658000277398,-0.03575364414830927,0.8432434061308249
1589550933.554612,-0.15395805043646946,-2.7916180892337534,8.786041949563531,0.5244444444444445,0.3466666666666667,-0.7266666666666667,0.0017499052395154695,-0.03435418663877951,0.9370286942662853
1589550933.564612,3.758199406922008,-22.797263131700642,6.354998029985691,0.5244444444444445,0.3466666666666667,-0.7266666666666667,0.006669261996661243,-0.11384689821732505,0.9104173512582007
1589550933.574612,-1.123262694452598,-7.979074845905487,10.895613736425009,0.5413951015882333,0.35264925154094506,-0.7087189120438313,-0.2976684781217894,-0.42731046686145724,-0.839678569095149
1589550933.584612,-0.5283245690914402,-0.45073814392832734,6.988495958710683,0.5433333333333333,0.3533333333333333,-0.7066666666666667,0.08897539364666429,0.40957333842205734,-1.5663351433222898
1589550933.594612,-0.903624321463931,-1.044210508347274,8.229183708306305,0.5433333333333333,0.3533333333333333,-0.7066666666666667,0.2615126681175257,0.40491515005621215,-1.339694565508886
1589550933.6046119,-0.5961220680139598,-3.020698604009415,9.485202296891485,0.5433333333333333,0.3533333333333333,-0.7066666666666667,0.04350662728890381,0.09309613463280247,-0.7840529072467837
1589550933.6146119,0.35321142293395336,-6.523304969786657,9.279541074291352,0.5433333333333333,0.3533333333333333,-0.7066666666666667,-0.16913880608716417,-0.12257338213321627,-0.46455374246232595
1589550933.6246119,0.5064279707899977,-8.355522018145606,8.770763443239655,0.5357041134961028,0.3561075950923262,-0.7066666666666667,-0.09388048416209818,-0.08016483798784534,-0.4310386818721944
1589550933.6346118,-0.7417662213267716,-4.063519561375984,8.407925123445576,0.5188888888888888,0.3622222222222222,-0.7066666666666667,0.07944515202592292,0.12745745111092696,-0.5015343167381972
1589550933.6446118,-0.5120586086532998,-5.066542738858673,8.404927347999026,0.5188888888888888,0.3622222222222222,-0.7066666666666667,0.07626951757909652,0.061423097227080455,-0.285845481283456
1589550933.6546118,0.005045388640232018,-4.460900838429049,9.175045388640232,0.5188888888888888,0.3622222222222222,-0.7066666666666667,-0.03648874696661409,-0.04137097629875073,-0.05840751410916116
1589550933.6646118,-0.14660354643214235,-4.122957944783399,8.944135939763708,0.5188888888888888,0.3622222222222222,-0.7066666666666667,0.03621875606563696,0.03413276227674072,-0.0082304781825005
1589550933.6746118,-0.22221489976983455,-4.105583380874629,8.793328939861901,0.5195063355606704,0.36592690225291097,-0.7066666666666667,0.018169490213681992,0.029443804566419055,-0.0018185305575488299
1589550933.6846118,-0.053406935033878056,-4.274869669190912,8.965170187325628,0.52,0.3688888888888889,-0.7066666666666667,-0.02873758697731238,-0.030392397708415602,-0.0024308700960917434
1589550933.6946118,-0.12749389483750875,-4.207241661970388,8.822115545536827,0.52,0.3688888888888889,-0.7066666666666667,0.004375748358940938,-0.002585509448828162,-0.00015798855587465964
1589550933.7046118,-0.25216923369461874,-4.038208784940103,8.68509450465868,0.52,0.3688888888888889,-0.7066666666666667,0.031335612849078646,0.023977659496766456,0.0019037994398299052
1589550933.7146118,-0.21995108789977752,-4.088975843733729,8.76897584373373,0.52,0.3688888888888889,-0.7066666666666667,0.0023944268363481104,0.006284200081520232,0.0009684416994510891
1589550933.7246118,-0.16878912116906838,-4.171210878830932,8.851210878830932,0.52,0.3688888888888889,-0.7066666666666667,-0.023650991409071828,-0.011172480605495262,-0.003057292931904518
1589550933.7346117,-0.22183516319737692,-4.164541209200656,8.728600278205574,0.52,0.3688888888888889,-0.7066666666666667,-0.005696744403706152,0.0029298092309353266,-0.0020815689396627437
1589550933.7446117,-0.22496631376323387,-4.122415784408085,8.705033686236767,0.52,0.3688888888888889,-0.7066666666666667,0.005739722702510226,0.0002561720028191874,-0.001090830782496456
1589550933.7546117,-0.24307755081853702,-4.094614966120975,8.733077550818537,0.52,0.3688888888888889,-0.7066666666666667,0.008474938904724741,-0.002181661564992912,-0.001090830782496456
1589550933.7646117,-0.18974738822264772,-4.095477510161577,8.844072693069972,0.52,0.3688888888888889,-0.7066666666666667,0.000361594886011455,-0.006961690921541593,-0.0022858381216336265
1589550933.7746117,-0.23086755918614327,-4.117037667347402,8.765302548975116,0.5282033213154157,0.3739370866214524,-0.7016184689341032,-0.005925477628162713,0.0008623264445398772,-0.002652985280673345
1589550933.7846117,-0.2526463605753565,-4.1394707278849285,8.682618275482179,0.5344444444444445,0.37777777777777777,-0.6977777777777778,-0.007003798138911447,3.063608416712174e-06,-0.002181661564992912
1589550933.7946117,-0.17479676075163142,-4.168902429436277,8.752052834342322,0.5344444444444445,0.37777777777777777,-0.6977777777777778,-0.008382990395087357,-0.012970243014270307,-0.002868973294761494
1589550933.8046117,-0.16007420240585774,-4.165918377353556,8.75191095711297,0.5344444444444445,0.37777777777777777,-0.6977777777777778,0.002855586178917565,-0.006961890863550537,-0.0030518979229367292
1589550933.8146117,-0.21831411505414125,-4.106743539783435,8.70697415913374,0.5344444444444445,0.37777777777777777,-0.6977777777777778,0.01670510810774965,0.007439335623688578,-0.001090830782496456
1589550933.8246117,-0.21,-4.148952772073922,8.79523613963039,0.5249942961441935,0.3718092630618298,-0.7077253023043577,-0.005059931699506148,-0.0028155529642670332,-0.0025557246875327648
1589550933.8346117,-0.204030721472918,-4.165969278527082,8.775815671162492,0.5133333333333333,0.3644444444444445,-0.72,-0.01747004848411459,-0.008286962754138807,-0.003061028576658595
1589550933.8446116,-0.20475155993141606,-4.155745320205751,8.747732840754423,0.5133333333333333,0.3644444444444445,-0.72,-0.009051853549271936,-0.007171701908552036,-0.0032182911326059864
1589550933.8546116,-0.2002526156661495,-4.135126307833074,8.748484306003103,0.5133333333333333,0.3644444444444445,-0.72,0.004197986563119789,-0.0033276045364447125,-0.003831685785976432
