time,acc_x,acc_y,acc_z,mag_x,mag_y,mag_z,gyr_x,gyr_y,gyr_z
1589550965.8764248,0.13,-4.17,8.76,0.4811111111111111,0.34444444444444444,-0.6355555555555555,-0.006544984694978735,0.0,-0.031634092692397225
1589550965.8864248,0.11237726098191214,-4.205245478036176,8.80405684754522,0.4811111111111111,0.34444444444444444,-0.6355555555555555,-0.0007779568371292555,0.007689370477132641,-0.037401120550246705
1589550965.8964248,0.09303601543188486,-4.21,8.84,0.4744444444444445,0.3388888888888889,-0.6288888888888889,0.002278958620719084,0.004557917241438168,-0.03685436575168225
1589550965.9064248,0.11083379247015611,-4.196457759412305,8.81020707070707,0.4744444444444445,0.3388888888888889,-0.6288888888888889,0.00029544585794061496,-0.0017726751476436896,-0.03352030839944952
1589550965.9164248,0.14214807156722087,-4.1578519284327795,8.738592286268883,0.4744444444444445,0.3388888888888889,-0.6288888888888889,0.00038787600593747935,-0.006779302953831728,-0.03483378780457061
1589550965.9264247,0.1533701618076841,-4.144607741107706,8.768651935276926,0.4744444444444445,0.3388888888888889,-0.6288888888888889,-0.0024022381395018538,-0.007929917576820447,-0.04313060471605229
1589550965.9364247,0.18326751728562266,-4.096771972343004,8.756692993085752,0.4744444444444445,0.3388888888888889,-0.6288888888888889,-0.004359015479736319,-0.0105389540304664,-0.0483486776233442
1589550965.9464247,0.16642366287314111,-3.9625557211940516,8.850729011380578,0.4789212893946923,0.33441204393864105,-0.6385887196144259,-0.025964771089297792,-0.03617236599442216,-0.07251218599617808
1589550965.9564247,0.1819826169782117,-3.998739135611382,8.931173949279676,0.4811111111111111,0.3322222222222222,-0.6433333333333333,-0.034032024220363465,-0.045539814927319594,-0.08929066217629425
1589550965.9664247,0.12738119153744742,-3.9732861447674055,8.677714859689873,0.4811111111111111,0.3322222222222222,-0.6433333333333333,-0.024694247661435402,-0.033223463753415505,-0.1175450119482675
1589550965.9764247,0.16029521627220794,-4.032531389289974,8.756708519053298,0.4811111111111111,0.3322222222222222,-0.6433333333333333,-0.013205085627346923,-0.015989720702282786,-0.14554984440635818
1589550965.9864247,0.1432158058381381,-4.210705164971172,8.717503546955657,0.4811111111111111,0.3322222222222222,-0.6433333333333333,-0.003974072347243934,0.002726303130558506,-0.16841565207006073
1589550965.9964247,0.14,-4.278755873513102,8.799385768107353,0.45402451471494354,0.34215397423415034,-0.6315958082283274,-0.005931712730269112,-0.00361433801835341,-0.16219194092110786
1589550966.0064247,0.15462634048257373,-4.303879021447721,8.842384383378016,0.4477777777777778,0.34444444444444444,-0.6288888888888889,-0.0045587149038612785,-0.002100141704236642,-0.13938178057727754
1589550966.0164247,0.13506702737624163,-4.209731890495034,8.685201082128724,0.4477777777777778,0.34444444444444444,-0.6288888888888889,-0.007112334743809263,-0.00032023278705242946,-0.11828933592811858
1589550966.0264246,0.15094314508461684,-4.134909678646131,8.733772580338467,0.4477777777777778,0.34444444444444444,-0.6288888888888889,-0.012410663283725127,-0.011216951332162644,-0.10270299381556906
1589550966.0364246,0.15891861570640806,-4.007302148697471,8.765674462825633,0.4477777777777778,0.34444444444444444,-0.6288888888888889,-0.01589061882738353,-0.013826917989906444,-0.09487309384233766
1589550966.0464246,0.11665792900219299,-3.8756918174342108,8.78522186814693,0.4666666666666667,0.3511111111111111,-0.6644444444444444,-0.017142852036663953,-0.022232442556976578,-0.11589009930703838
1589550966.0564246,0.0663562225877193,-3.746344572368421,8.691804413377193,0.4666666666666667,0.3511111111111111,-0.6644444444444444,-0.02419764986410775,-0.023800175407519643,-0.12921582853665442
1589550966.0664246,0.006913369082840236,-3.230042067307692,8.780740107248521,0.4666666666666667,0.3511111111111111,-0.6644444444444444,-0.04572957085653088,-0.04254240051736178,-0.14248140012826788
1589550966.0764246,0.04747112294555138,-3.1061757414378843,8.853176567808282,0.4666666666666667,0.3511111111111111,-0.6644444444444444,-0.04891413031494245,-0.04271565541475985,-0.13917722756853415
1589550966.0864246,0.1321966761546231,-2.9906408961527866,8.868581213846294,0.4666666666666667,0.3511111111111111,-0.6644444444444444,-0.04807393721035611,-0.043555848519346185,-0.1475791586143975
1589550966.0964246,0.21398963730569948,-2.9306735751295334,8.845336787564767,0.45661869123009013,0.3456303972366149,-0.6470888505085396,-0.04889333414049745,-0.04453001101051162,-0.17166925889650617
1589550966.1064246,-0.09600280694178295,-2.7386629240776226,8.911998596529108,0.4544444444444444,0.34444444444444444,-0.6433333333333333,-0.06283177652433333,-0.046978267088768115,-0.18056551295671586
1589550966.1164246,-0.18103049692137035,-2.612646335385753,8.856838416153561,0.4544444444444444,0.34444444444444444,-0.6433333333333333,-0.05223599882974364,-0.03639467302405969,-0.031029990980334484
1589550966.1264246,-0.1001154285163095,-2.6665897143224604,8.843352571419384,0.4544444444444444,0.34444444444444444,-0.6433333333333333,-0.019136756060726096,-0.019477282275450723,0.07856527952152359
1589550966.1364245,-0.08,-2.8028044198279938,8.708423835898577,0.4544444444444444,0.34444444444444444,-0.6433333333333333,0.009185518381284554,-0.005703142285307947,0.22445984540572247
1589550966.1464245,-0.0881472664754115,-2.8694821868196705,8.834223280229507,0.4477777777777778,0.3566666666666667,-0.6222222222222222,-0.00447629244132292,-0.022963931088094122,0.4064456269506237
1589550966.1564245,-0.055219954435493344,-2.909395917983888,8.868516100241916,0.4477777777777778,0.3566666666666667,-0.6222222222222222,0.0028649520027687176,-0.020318244522712015,0.5065773626025245
1589550966.1664245,-0.09647562018819504,-2.9944054747647564,8.775286569717707,0.4477777777777778,0.3566666666666667,-0.6222222222222222,0.008534421160575352,-0.02675661407810383,0.6035373561321944
1589550966.1764245,-0.05789165767466954,-3.0425300107903968,8.829578331534934,0.4477777777777778,0.3566666666666667,-0.6222222222222222,0.006544984694978735,-0.03286291415740432,0.7008586122313629
1589550966.1864245,-0.022533719989209604,-3.0849595360129487,8.822506743997842,0.4477777777777778,0.3566666666666667,-0.6222222222222222,0.006544984694978735,-0.03517708576737778,0.7648840267739623
1589550966.1964245,0.002127037622945182,-3.156596739803288,8.909149184950822,0.4477777777777778,0.3566666666666667,-0.6355555555555555,0.0035509209212457715,-0.040314334190076136,0.853214653224165
1589550966.2064245,0.03818780521356352,-3.0988995116582982,8.894724877914575,0.4477777777777778,0.3566666666666667,-0.6355555555555555,0.008271264360641416,-0.0395276102835102,0.893337572459028
1589550966.2164245,0.03970343808300826,-3.0501482809584957,8.808739611852786,0.4477777777777778,0.3566666666666667,-0.6355555555555555,0.013049532031461128,-0.03604594065257865,0.9471403556597965
1589550966.2264245,-0.000133683979837826,-3.072272627657243,8.642138943677406,0.4477777777777778,0.3566666666666667,-0.6355555555555555,0.007562902177308324,-0.04265906179762877,0.9876101726402271
1589550966.2364244,-0.005878670830593908,-3.1699374041200965,8.734058733289503,0.4477777777777778,0.3566666666666667,-0.6355555555555555,0.00442949792638727,-0.04767250859910246,1.005157236445385
1589550966.2464244,-0.03663221747921815,-3.3110192466112487,8.795561297086797,0.4507369130532464,0.3487756392654169,-0.6390078800436023,0.004118411073824334,-0.047395547759670587,1.0298498044993898
1589550966.2564244,-0.06071462846174938,-3.353573142308747,8.799285371538252,0.4544444444444444,0.3388888888888889,-0.6433333333333333,0.010596492335314832,-0.04254240051736178,1.0622347971030333
1589550966.2664244,-0.035225012431626054,-3.4243249627051218,8.750450024863252,0.4544444444444444,0.3388888888888889,-0.6433333333333333,0.009106619886594605,-0.04794746433247164,1.072568452625894
1589550966.2764244,-0.07155391213795295,-3.318546516758741,8.772330868206929,0.4544444444444444,0.3388888888888889,-0.6433333333333333,0.008726646259971648,-0.048250812708850156,1.0731232316975066
1589550966.2864244,-0.086359849621406,-3.399979172917733,8.79453977443211,0.4544444444444444,0.3388888888888889,-0.6433333333333333,0.008726646259971648,-0.050673428564450465,1.0707006158419061
1589550966.2964244,-0.11456923674499903,-3.477389007574286,8.931514274616429,0.4933333333333334,0.3055555555555556,-0.65,0.007849426795787715,-0.046549704783493406,1.0593618715405342
1589550966.3064244,-0.1715902116915906,-3.444805593319091,8.825618178287046,0.4933333333333334,0.3055555555555556,-0.65,0.010515151140917769,-0.04210683087494331,1.047810399378304
1589550966.3164244,-0.1868046357615894,-3.426390728476821,8.789586092715231,0.4933333333333334,0.3055555555555556,-0.65,0.007196954748755591,-0.04813200527204147,1.0349726611854744
1589550966.3264244,-0.20978213850328364,-3.4298910692516418,8.809673207754926,0.4933333333333334,0.3055555555555556,-0.65,0.003296257350183262,-0.046953253652735394,1.0189547758651591
1589550966.3364244,-0.2239610313458091,-3.395097421635477,8.82396103134581,0.4933333333333334,0.3055555555555556,-0.65,0.006318316896970669,-0.047667179784717933,1.011982845615357
1589550966.3464243,-0.286794618124258,-3.351602690937871,8.763739612188365,0.4933333333333334,0.29819329024315167,-0.65,0.01073348136397878,-0.04283377795233808,1.0069533632182193
1589550966.3564243,-0.30415055862513724,-3.3641505586251372,8.774150558625136,0.4933333333333334,0.2977777777777777,-0.65,0.008592928084291492,-0.04408598701114382,1.0029778460097736
1589550966.3664243,-0.3465025023572931,-3.3973768767679697,8.770874374410676,0.4933333333333334,0.2977777777777777,-0.65,0.007635815477475192,-0.04074225676140622,1.0013826583317464
1589550966.3764243,-0.39485306909723533,-3.5270836957755,8.799902046064824,0.4933333333333334,0.2977777777777777,-0.65,0.011713074515867263,-0.041991642567725695,0.9989363029087113
1589550966.3864243,-0.4564059076523574,-3.616405907652357,8.856405907652357,0.4933333333333334,0.2977777777777777,-0.65,0.012583759464388678,-0.043554820368499364,0.9965915362075508
1589550966.3964243,-0.5207906620433836,-3.6340311265220544,8.877628013869849,0.4981291831303928,0.2977777777777777,-0.6527975790482846,0.012391498151475645,-0.04080046664220838,0.9975841904448701
1589550966.4064243,-0.5873802857870051,-3.446811256953787,8.8294760571574,0.5066666666666667,0.2977777777777777,-0.6577777777777778,0.011022614421159694,-0.041051496648182355,1.0107429089894342
1589550966.4164243,-0.7320890146642655,-3.56314381270903,8.754219192179058,0.5066666666666667,0.2977777777777777,-0.6577777777777778,0.007808406403957137,-0.04661807210321103,1.0514988538473111
1589550966.4264243,-0.8213760294091146,-3.4886239705908855,8.799311985295443,0.5066666666666667,0.2977777777777777,-0.6577777777777778,0.013880597125037388,-0.04626519743597596,1.1230549023412402
1589550966.4364243,-0.8364925305894437,-3.4735074694105563,8.791753734705278,0.5066666666666667,0.2977777777777777,-0.6577777777777778,0.010582688162808005,-0.05121206087932004,1.177470400218025
1589550966.4464242,-0.86,-3.44,8.99,0.5133333333333333,0.2733333333333333,-0.6844444444444444,0.0,-0.06981317007977318,1.2762720155208536
1589550966.4564242,-0.8546170859828587,-3.431028476638098,8.955908211224772,0.5133333333333333,0.2733333333333333,-0.6844444444444444,0.0013700979388668508,-0.06766015903298242,1.291147364571408
1589550966.4664242,-0.8719921836252902,-3.410996091812645,8.699218759299304,0.5133333333333333,0.2733333333333333,-0.6844444444444444,0.009926133803610697,-0.06147854079412897,1.3898654205607999
1589550966.4764242,-0.961907923065882,-3.512932395579159,8.714981340605712,0.5133333333333333,0.2733333333333333,-0.6844444444444444,0.005631509814430445,-0.07549082922291625,1.4620946557199548
1589550966.4864242,-1.011599991336178,-3.582600012995733,8.859400030323377,0.5133333333333333,0.2733333333333333,-0.6844444444444444,0.006217728372156963,-0.07542004833495419,1.538834954152768
1589550966.4964242,-1.135661167621164,-3.714576459526455,8.92638430635097,0.5240427007056634,0.24120523121634327,-0.6930119383423085,0.014141359073129538,-0.07499123629698476,1.6390577740024324
1589550966.5064242,-1.1470046530653986,-3.656958122411413,8.922995346934602,0.5244444444444445,0.24,-0.6933333333333334,0.018001245764676394,-0.0722109675184775,1.6951865659482808
1589550966.5164242,-1.0824450516811217,-3.523842224070334,8.755937982654153,0.5244444444444445,0.24,-0.6933333333333334,0.02384586934986134,-0.06985127204603836,1.78543312667072
1589550966.5264242,-1.0594941070715143,-3.4926588094286855,8.838858869356772,0.5244444444444445,0.24,-0.6933333333333334,0.01430527821570225,-0.08099739969425755,1.816205034201718
1589550966.5364242,-1.0223960276858262,-3.397188083057478,8.85929702076437,0.5244444444444445,0.24,-0.6933333333333334,0.011323040178442146,-0.08467006868124598,1.8451316351742841
1589550966.5464242,-1.0367016369466164,-3.3332983630533835,8.858900545648872,0.5244444444444445,0.22219890870225573,-0.6972891313994988,0.010057340772500093,-0.08884846483962942,1.849317971926541
1589550966.5564241,-1.2062239703840814,-3.349555761221657,8.830666358167514,0.5244444444444445,0.22,-0.6977777777777778,0.006617673095108069,-0.08624832021734936,1.852157980278853
1589550966.5664241,-1.283785221940322,-3.313107389029839,8.80233054177238,0.5244444444444445,0.22,-0.6977777777777778,0.01157543415659349,-0.08215127224792822,1.8733585564177646
1589550966.5764241,-1.3773048322452168,-3.3682032214968114,8.780598926167729,0.5244444444444445,0.22,-0.6977777777777778,0.016231796317406427,-0.07757965097728878,1.9132320345009162
1589550966.586424,-1.31195655400141,-3.2943961711126777,8.764879234222535,0.5244444444444445,0.22,-0.6977777777777778,0.02048601092869114,-0.07167601668950635,1.9424481577817412
1589550966.596424,-1.3301941080477542,-3.2403882160955084,8.674755647169974,0.5188888888888888,0.15444444444444444,-0.7055555555555556,0.027069617480472045,-0.06250555010440956,1.9643533263391348
1589550966.606424,-1.3482062183286097,-3.276412436657219,9.116052349050932,0.5188888888888888,0.15444444444444444,-0.7055555555555556,0.008403861345997934,-0.09296020485013048,1.9427403455518488
1589550966.616424,-1.3320546448087431,-3.1543825136612025,8.863901639344263,0.5188888888888888,0.15444444444444444,-0.7055555555555556,0.01046005386406984,-0.07152392655286871,1.9131824778775575
1589550966.626424,-1.3027747087062456,-2.99479844643331,8.920750970979181,0.5188888888888888,0.15444444444444444,-0.7055555555555556,0.012888186878675227,-0.07565191598526406,1.8724269981307913
1589550966.636424,-1.3074588976747827,-2.9501644093008688,8.952376693024348,0.5188888888888888,0.15444444444444444,-0.7055555555555556,7.173709052665789e-05,-0.09669914274261257,1.827097514961993
1589550966.646424,-1.2222935352358766,-2.7848270238788584,8.926266744321492,0.5271347958325244,0.13045635151750468,-0.7392888112340645,-0.0006835957611917225,-0.09038190580950455,1.7761634868211686
1589550966.656424,-1.1747580237198583,-2.662822213478725,8.836612332078017,0.5311111111111111,0.11888888888888888,-0.7555555555555555,0.0005190198737469788,-0.08285034843472815,1.7241105668593182
1589550966.666424,-1.266666407041047,-2.6651109899524883,8.911777396993536,0.5311111111111111,0.11888888888888888,-0.7555555555555555,-0.01195062514248668,-0.1029016471739754,1.645869851814111
1589550966.676424,-1.5186696389255836,-2.8706087626596215,9.224791391457508,0.5311111111111111,0.11888888888888888,-0.7555555555555555,-0.009678511397042738,-0.10764175623570797,1.5489588167640607
1589550966.686424,-1.5636019248489814,-2.787724992321081,8.707155728473431,0.5311111111111111,0.11888888888888888,-0.7555555555555555,0.015302679481369348,-0.04940267294644387,1.4950016245949058
1589550966.696424,-1.7,-2.85,8.95,0.5311111111111111,0.07222222222222223,-0.7744444444444445,0.008726646259971648,-0.0643590161672909,1.4104442017679175
1589550966.706424,-1.7098197290337027,-2.8441081625797784,8.95392789161348,0.5311111111111111,0.07222222222222223,-0.7744444444444445,0.006370080464709458,-0.06457324942140565,1.3986613727916066
1589550966.716424,-1.782642785342228,-2.82,8.876734899022207,0.5311111111111111,0.07222222222222223,-0.7744444444444445,0.0002882831602832631,-0.05832829593424209,1.3265404446069964
1589550966.726424,-1.8850564026762098,-2.8416854675587366,8.806142445931227,0.5311111111111111,0.07222222222222223,-0.7744444444444445,0.005151828981515762,-0.04781269844024716,1.28498635662574
1589550966.736424,-1.8948062489090591,-2.789224995636237,8.971937510909408,0.5311111111111111,0.07222222222222223,-0.7744444444444445,0.002968082203744175,-0.05436393877356191,1.2720862927421286
1589550966.746424,-1.8437904141516763,-2.6406131596246936,8.909096993964024,0.5362455095387025,0.024985756688380246,-0.7816326022430726,-0.005883432625369339,-0.05773133746361099,1.2616619366355124
1589550966.756424,-1.749419823464509,-2.503187752850313,8.918116035307099,0.5366666666666666,0.021111111111111112,-0.7822222222222223,-0.006544984694978735,-0.05287364922986833,1.2471673142870603
1589550966.766424,-1.748769348410418,-2.419845212716656,8.727074334970803,0.5366666666666666,0.021111111111111112,-0.7822222222222223,0.00206430297468957,-0.049490115003273785,1.2390326409789885
1589550966.776424,-1.78584625019571,-2.44584625019571,9.065631751996243,0.5366666666666666,0.021111111111111112,-0.7822222222222223,-0.005329990145631657,-0.05690782384245054,1.2326186310924006
1589550966.786424,-1.7866366775275981,-2.3931833876379907,9.049640130331179,0.5366666666666666,0.021111111111111112,-0.7822222222222223,0.005121621073884848,-0.043960857177050186,1.2275416979541378
1589550966.796424,-1.7080036639356775,-2.3312014655742708,8.732412090987737,0.5086680915305413,-0.022886649817085932,-0.7822222222222223,0.020638078764112507,-0.013222028136665478,1.2198109339575427
1589550966.806424,-1.711514503272468,-2.280606870909415,8.907873277815979,0.4977777777777778,-0.04,-0.7822222222222223,0.004231507812723346,-0.026708366802036514,1.1950221095939941
1589550966.816424,-1.6396149707042929,-2.176217465821675,8.886217465821675,0.4977777777777778,-0.04,-0.7822222222222223,-0.006936595076338917,-0.028340600254511832,1.1707375395028794
1589550966.826424,-1.524535121918985,-2.0209951761052007,8.856769972906891,0.4977777777777778,-0.04,-0.7822222222222223,-0.004329516241927222,-0.01794799757910362,1.1461855610905265
1589550966.8364239,-1.6859984167821096,-2.087999208391055,8.816000395804473,0.4977777777777778,-0.04,-0.7822222222222223,-0.011271846126512951,-0.02756155702807986,1.1391909831667741
1589550966.8464239,-1.6852284989923942,-2.055228498992394,9.188629006045636,0.48544034901442434,-0.10168714381676744,-0.768856674395256,-0.031339810189155964,-0.07200823390816673,1.1225962031878902
1589550966.8564239,-1.6610695628265053,-2.0355768097725755,9.20647825916179,0.4844444444444445,-0.10666666666666667,-0.7677777777777778,-0.034298249463081354,-0.0760539869863493,1.1210790457835718
1589550966.8664238,-1.6286381521908277,-1.9609696996643176,9.049126558922259,0.4844444444444445,-0.10666666666666667,-0.7677777777777778,-0.027864211771896165,-0.05075065783845815,1.1272093088845574
1589550966.8764238,-1.955524639624539,-2.0951748798748464,8.756188400938653,0.4844444444444445,-0.10666666666666667,-0.7677777777777778,0.017341434318125112,0.0077871267537450465,1.157824093853242
1589550966.8864238,-1.9983071810333013,-2.1147178635055504,8.828824688228039,0.4844444444444445,-0.10666666666666667,-0.7677777777777778,-0.0003864324479585235,-0.006109014895978721,1.1796804969554873
1589550966.8964238,-2.04397021058038,-2.14698510529019,9.084656736860127,0.4947180848028306,-0.11488557895337556,-0.7718872339211322,-0.023071883430197896,-0.03424883704879731,1.2094317841889937
1589550966.9064238,-2.158664900160878,-2.1824845273019777,8.819098135705499,0.5011111111111111,-0.12,-0.7744444444444445,-0.010240884966901478,-0.030417878824027748,1.2459727685445825
1589550966.9164238,-1.999393541876892,-2.0934117053481334,9.051212916246216,0.5011111111111111,-0.12,-0.7744444444444445,-0.019481951583657692,-0.05831849943156356,1.2696352293251076
1589550966.9264238,-2.045497542032369,-2.0907993445419653,8.920505735257805,0.5011111111111111,-0.12,-0.7744444444444445,-0.0032511404778102077,-0.04965504621551939,1.2864382724161998
1589550966.9364238,-2.0312228527459846,-2.0573199961527364,8.742445705491969,0.5011111111111111,-0.12,-0.7744444444444445,0.009258348889531668,-0.030996423044435603,1.2937782915499976
1589550966.9464238,-1.983154209697182,-1.9963084193943637,8.675788552424295,0.46227220569072486,-0.15322364198611355,-0.7716368127273081,0.003902016081060314,-0.03347359273765731,1.288556606958672
1589550966.9564238,-1.9209208309938237,-1.9035934868051656,8.599169006176306,0.4088888888888889,-0.1988888888888889,-0.7677777777777778,-0.007927357000478174,-0.048262984183008555,1.2768550985668594
1589550966.9664237,-1.884488188976378,-1.8299212598425196,8.634921259842521,0.4088888888888889,-0.1988888888888889,-0.7677777777777778,-0.011969076341801664,-0.060687125147470156,1.269525184185019
1589550966.9764237,-2.41369520661157,-2.144530247933884,9.124759669421488,0.4088888888888889,-0.1988888888888889,-0.7677777777777778,-0.0054586975382209385,-0.05826947586183051,1.2665729612317644
1589550966.9864237,-2.3124835497065623,-2.050872532455984,8.85006580117375,0.4088888888888889,-0.1988888888888889,-0.7677777777777778,0.01693353289447582,-0.028310288813346355,1.2737901960458093
1589550966.9964237,-2.1370310662344743,-1.9811606092768423,9.309163248329078,0.40235117880853805,-0.22503972921029236,-0.7048523182544008,-0.01746064587279854,-0.07864579849344999,1.253744377586117
1589550967.0064237,-1.919547794117647,-1.7344347426470588,8.527889705882354,0.4,-0.2344444444444445,-0.6822222222222222,0.007176724103113857,-0.03585765312837569,1.2336967296637251
1589550967.0164237,-2.0113134308354694,-1.7852249082776297,8.672634065437,0.4,-0.2344444444444445,-0.6822222222222222,0.010006674259656385,-0.045911455995887834,1.2060305978232313
1589550967.0264237,-2.106858672463068,-1.846073340578835,8.95214668115767,0.4,-0.2344444444444445,-0.6822222222222222,0.002181661564992912,-0.05552387081849951,1.1599357885517514
1589550967.0364237,-2.2140093527700344,-1.8278727779554906,8.818190833066764,0.4,-0.2344444444444445,-0.6822222222222222,0.01231648962750549,-0.029289776059850232,1.1053824043200084
1589550967.0464237,-2.374342954725311,-1.8543429547253114,8.803942271648133,0.4018856817582296,-0.23475872473748274,-0.6787651389988013,0.019061573916036825,-0.02144251007855689,1.0452344283489112
1589550967.0564237,-2.2581292550373755,-1.8108940728678218,9.117996429202064,0.4066666666666667,-0.23555555555555555,-0.67,-0.007742353876016804,-0.052963067239318984,0.9618996733647909
1589550967.0664237,-1.9828411712511091,-1.5905533274179238,8.56320958296362,0.4066666666666667,-0.23555555555555555,-0.67,0.00748288622846504,-0.03273696423348663,0.9127274820022211
1589550967.0764236,-2.1455243339836985,-1.5743292427198627,8.295375540198027,0.4066666666666667,-0.23555555555555555,-0.67,0.025186751882673594,-0.02085614910128109,0.854380714001897
1589550967.0864236,-2.473257433403338,-1.79072897092959,9.264738311042334,0.4066666666666667,-0.23555555555555555,-0.67,-0.01682465109270322,-0.08494318715674831,0.7700842713405563
1589550967.0964236,-2.3887088111172687,-1.676853659576282,9.174027878426191,0.4135394612823318,-0.2228673193420199,-0.6562544107686696,-0.017954510176472954,-0.06556381712106059,0.6973662732215062
1589550967.1064236,-2.1364156129741616,-1.4772259483232546,8.556997251236943,0.4211111111111111,-0.2088888888888889,-0.6411111111111111,0.03044239454452644,0.0029886004879875437,0.62786408785541
1589550967.1164236,-2.3140817122791373,-1.6348809988294968,9.083015996878657,0.4211111111111111,-0.2088888888888889,-0.6411111111111111,-0.005341003247177893,-0.05843985618911927,0.5346461961165554
1589550967.1264236,-2.554673711938286,-1.6758189344288,9.019667283389257,0.4211111111111111,-0.2088888888888889,-0.6411111111111111,-0.02159293530602544,-0.07315684743959831,0.4543840590460673
1589550967.1364236,-2.39743208435626,-1.5649728337425042,8.698165774540186,0.4211111111111111,-0.2088888888888889,-0.6411111111111111,0.010137609777444729,-0.01537390045661359,0.4410098421055605
1589550967.1464236,-2.406546574575322,-1.5867624914442164,9.109423806857071,0.4435970934533563,-0.2088888888888889,-0.6426618685140245,0.016613601921333147,-0.021596834051165907,0.43473139613989525
1589550967.1564236,-2.5891809567829904,-1.6721416685925583,9.486425005777674,0.4533333333333333,-0.2088888888888889,-0.6433333333333333,-0.005876721640150538,-0.054151567750326896,0.39891084242136554
1589550967.1664236,-2.489864635641469,-1.300735099004081,8.891225165006801,0.4533333333333333,-0.2088888888888889,-0.6433333333333333,0.009515049644496027,-0.025459759264426673,0.38720343287126685
1589550967.1764235,-2.2584814956123616,-1.2676279005237419,9.005244008185633,0.4533333333333333,-0.2088888888888889,-0.6433333333333333,0.013344866097726147,-0.02617350677155503,0.3665230021238251
1589550967.1864235,-2.2898287983044017,-1.6460571368867263,9.571885308297386,0.4533333333333333,-0.2088888888888889,-0.6433333333333333,-0.008464851431072435,-0.05532692361152043,0.28511814469663205
1589550967.1964235,-2.480518515494223,-1.6322149185481565,9.190584248560814,0.452839042447502,-0.20919782069253348,-0.6443837014657249,-0.011148893620377364,-0.03823666299149828,0.18713045528174896
1589550967.2064235,-2.041113648947951,-1.5748678017718716,9.61234634551495,0.4444444444444444,-0.21444444444444444,-0.6622222222222223,0.0008669718906012466,-0.02305127482671238,0.006477940278114332
1589550967.2164235,-2.4730122392550724,-1.6938555686577481,9.276265604033668,0.4444444444444444,-0.21444444444444444,-0.6622222222222223,-0.03649685690768822,-0.08802879776251754,-0.10205173729353265
1589550967.2264235,-2.0913407874390386,-1.4831564172713214,8.701089330319972,0.4444444444444444,-0.21444444444444444,-0.6622222222222223,0.011852881386332193,0.02749015539410463,-0.2946065744732941
1589550967.2364235,-2.0402898028764196,-1.4623184230113568,8.712461523686043,0.4444444444444444,-0.21444444444444444,-0.6622222222222223,0.00947754348521531,0.019136957578456154,-0.4013074753960179
1589550967.2464235,-2.073742852158406,-1.4157896063114228,8.43701816278664,0.4519558432999283,-0.2122352094869492,-0.6622222222222223,0.01085730695564394,0.04044375280516853,-0.5134880435572372
1589550967.2564235,-2.037369652680844,-1.5012353230971345,9.096059200262747,0.4633333333333333,-0.2088888888888889,-0.6622222222222223,-0.009100676093923961,0.021238150208698042,-0.647458540151932
1589550967.2664235,-2.088547972139137,-1.5757095944278274,9.290516848292162,0.4633333333333333,-0.2088888888888889,-0.6622222222222223,-0.034596966061901754,-0.01335395550456945,-0.7725350349713173
1589550967.2764235,-2.2222727519695735,-1.6490910078782939,8.77931757674545,0.4633333333333333,-0.2088888888888889,-0.6622222222222223,-0.0012395346365189283,0.047550383599600454,-0.8384274750071721
1589550967.2864234,-2.23,-1.68,8.59,0.4633333333333333,-0.2088888888888889,-0.6622222222222223,0.01308996938995747,0.07199483164476607,-0.8573929950422143
1589550967.2964234,-2.5550101441537643,-1.845962626801922,9.226190069407368,0.46717506080560006,-0.2088888888888889,-0.6622222222222223,-0.012556959068472815,0.029752831830880906,-0.9531918160487038
1589550967.3064234,-2.7,-1.92,9.51,0.4688888888888889,-0.2088888888888889,-0.6622222222222223,-0.02399827721492203,0.01090830782496456,-0.9959285044192642
1589550967.3164234,-2.2903577843584637,-1.8484751686975096,9.405963881741831,0.4688888888888889,-0.2088888888888889,-0.6622222222222223,-0.04953258227959853,-0.03235815353462616,-1.0760778508722766
1589550967.3264234,-2.0756231108569563,-1.7537688914304388,8.85516624458786,0.4688888888888889,-0.2088888888888889,-0.6622222222222223,-0.03873273572016335,0.00815979922072159,-1.1467947637140739
1589550967.3364234,-2.066368273272525,-1.7611189752280316,8.677883832593997,0.4688888888888889,-0.2088888888888889,-0.6622222222222223,-0.009969514448545009,0.061159760577216817,-1.1827779275082912
1589550967.3464234,-2.049694117647059,-1.8793882352941178,9.081938823529411,0.4688888888888889,-0.2114739869281046,-0.6638379084967321,0.005660000097791022,0.06541083370768397,-1.2182244179280537
1589550967.3564234,-2.191511505241643,-2.1046433045427575,9.216759411881057,0.4688888888888889,-0.23555555555555555,-0.6788888888888889,-0.01991062853534228,0.045847868793760925,-1.3178977067909219
1589550967.3664234,-2.2439160293429063,-2.1636663024816607,9.312446152645544,0.4688888888888889,-0.23555555555555555,-0.6788888888888889,-0.01130823938545842,0.054549583725177556,-1.3824633366091124
1589550967.3764234,-1.8493940866747671,-2.059040637235048,8.591440259214258,0.4688888888888889,-0.23555555555555555,-0.6788888888888889,0.007159248930673715,0.09506751530386387,-1.503969237869714
1589550967.3864233,-1.8821866767030486,-2.1621866767030484,9.031681512148204,0.4688888888888889,-0.23555555555555555,-0.6788888888888889,-0.0203812423633472,0.05046975195983237,-1.620581190477708
1589550967.3964233,-1.7760864364883184,-2.094348736145443,8.743043218244159,0.44415366486812147,-0.30203147011136805,-0.65144824974085,-0.025041311847591376,0.06056565886219972,-1.7173009199807459
1589550967.4064233,-1.75,-2.2083475616886914,8.931445444977197,0.3977777777777778,-0.4266666666666667,-0.6,-0.016354935247426105,0.08488018256026159,-1.8138957036508379
1589550967.4164233,-1.80993557695534,-2.4070600275140084,8.917543200348957,0.3977777777777778,-0.4266666666666667,-0.6,-0.027277797026433116,0.07026259836478724,-1.9115603630947289
1589550967.4264233,-1.8629957370737074,-2.553206820682068,8.67924092409241,0.3977777777777778,-0.4266666666666667,-0.6,-0.016482127614335804,0.09684460788840667,-1.9890356167207783
1589550967.4364233,-1.7365226372869684,-2.6521742124289895,8.93881175761749,0.3977777777777778,-0.4266666666666667,-0.6,-0.010422184879847035,0.10750612452203163,-2.1008207510643704
1589550967.4464233,-1.6070593192868718,-2.703430794165316,8.70470340356564,0.587182603997839,-0.6807605258418874,0.0025987394201333336,-0.009245330109191763,0.10690141668465268,-2.2211715973716637
1589550967.4564233,-1.55,-2.77,8.99,0.7588888888888888,-0.9111111111111112,0.5488888888888889,-0.008726646259971648,0.10690141668465268,-2.2787455046350966
1589550967.4664233,-1.6323076744240113,-2.9071794573733523,8.814410294562109,0.7588888888888888,-0.9111111111111112,0.5488888888888889,-0.013515112654500065,0.11408411627644531,-2.4140196802805245
1589550967.4764233,-1.6106537794299876,-3.0590889714993805,8.636495167286245,0.7588888888888888,-0.9111111111111112,0.5488888888888889,-0.009534536894522432,0.134001492181124,-2.5758314704723673
1589550967.4864233,-1.54,-3.09,8.61,0.7588888888888888,-0.9111111111111112,0.5488888888888889,-0.003272492347489368,0.14508049407202864,-2.6158122164265016
1589550967.4964232,-1.4626467488997705,-3.150163639744623,8.575620777288787,0.7588888888888888,-0.9111111111111112,0.5488888888888889,-0.02202344955333559,0.10945367538092082,-2.6889409495293015
1589550967.5064232,-1.3501431913897988,-3.207882452035564,8.805418249883013,0.9633333333333334,-0.05666666666666665,-0.6288888888888889,-0.017453292519943295,0.13026426582691075,-2.762245769446485
1589550967.5164232,-1.6641759475900795,-3.4983627515208235,9.174406738418343,0.9633333333333334,-0.05666666666666665,-0.6288888888888889,-0.017453292519943295,0.11228004447519851,-2.7990706036428477
1589550967.5264232,-1.7528559501637662,-3.589928392524565,8.97750208721341,0.9633333333333334,-0.05666666666666665,-0.6288888888888889,-0.018512878647055163,0.1313283971924581,-2.8339627505981
1589550967.5364232,-1.4997891088205784,-3.445911338137371,8.690378728450241,0.9633333333333334,-0.05666666666666665,-0.6288888888888889,-0.0013574937850587571,0.1591727979480352,-2.828346052307195
1589550967.5464232,-1.3117081270500988,-3.2927031762524703,7.986152639406719,0.9092426434135377,-0.04224248268805446,-0.6455905756009662,0.01144015533746222,0.1721106643627715,-2.8280195072583134
1589550967.5564232,-1.322182456140351,-3.506983859649123,8.525120000000001,0.6466666666666666,0.027777777777777776,-0.7266666666666667,0.00491754171702262,0.15363857827003133,-2.838350269602981
1589550967.5664232,-1.3674243726215738,-3.678029391648984,8.077873840380198,0.6466666666666666,0.027777777777777776,-0.7266666666666667,-0.05353461104495562,0.05599348055883154,-2.87706665751115
1589550967.5764232,-1.3600689195587747,-3.7295175630885784,8.357381056766567,0.6466666666666666,0.027777777777777776,-0.7266666666666667,0.017875025074016504,0.19720804187275395,-2.8505889272647895
1589550967.5864232,-1.3830498430898157,-3.82,8.994428022931679,0.6466666666666666,0.027777777777777776,-0.7266666666666667,-0.011199398751179581,0.11064096261600799,-2.7959816457113003
1589550967.5964231,-1.4198167920194953,-3.82,9.457691579445644,0.6466666666666666,0.027777777777777776,-0.7266666666666667,-0.04889952724189113,0.06893018215819946,-2.7534687348600726
1589550967.6064231,-1.46524015577672,-4.040103395659204,8.952364891024619,0.6133333333333333,0.09888888888888887,-0.7266666666666667,-0.016362461737446838,0.10799224746714917,-2.5492715386942173
1589550967.6164231,-1.4588017959265578,-4.030978729808368,9.12088466940905,0.6133333333333333,0.09888888888888887,-0.7266666666666667,-0.0037474256454369317,0.12206286464669866,-2.443499312999673
1589550967.6264231,-1.2127388822454368,-3.7127388822454366,8.76,0.6133333333333333,0.09888888888888887,-0.7266666666666667,0.0046864055442325915,0.12061323419515246,-2.266131483117974
1589550967.636423,-1.1015189612954999,-3.608691948394,8.731308051606,0.6133333333333333,0.09888888888888887,-0.7266666666666667,-0.016882547337175754,0.08260858665262122,-2.1744216214986234
1589550967.646423,-1.146570447014819,-3.6950423840790356,8.809218791291444,0.6038426876452612,0.11324653236571598,-0.7281267660032932,-0.03544737704532484,0.05720101708038415,-2.084955479039946
1589550967.656423,-1.1724601207721037,-3.8335306642465703,9.25154909420922,0.57,0.16444444444444445,-0.7333333333333333,-0.016449464716189705,0.06708976742876123,-1.9776514594598673
1589550967.666423,-1.1425246062065981,-3.888854658712385,9.006059054895834,0.57,0.16444444444444445,-0.7333333333333333,0.006970830974447026,0.09920647870019386,-1.8375205578398384
1589550967.676423,-1.0324406062031655,-3.815118787593669,8.854492422460432,0.57,0.16444444444444445,-0.7333333333333333,-0.02447065653862349,0.041099347113506796,-1.7508340637965734
1589550967.686423,-1.0,-3.889324862109893,9.095260769391887,0.57,0.16444444444444445,-0.7333333333333333,-0.014696323007524686,0.04948623187909566,-1.6308489108881623
1589550967.696423,-0.9908670353251898,-3.929280703202377,8.787842109607132,0.57,0.17132235611312865,-0.7314165382781262,0.002419166649527878,0.08148022472047635,-1.5394277392178495
1589550967.706423,-7.67908318569818,-11.729938395876951,9.892853116443872,0.57,0.23222222222222225,-0.7144444444444444,-0.0030941277232456026,0.15782730591231448,-1.3890238885076833
1589550967.716423,-14.717148740745582,-17.729547943190546,7.165169725595306,0.57,0.23222222222222225,-0.7144444444444444,-0.2911897424595811,0.2340970602137611,-2.6180585038366337
1589550967.726423,-5.0654671743997906,-0.33184352885416857,-4.954271332145716,0.57,0.23222222222222225,-0.7144444444444444,-1.1772761313926041,0.10024941159012296,-6.990913527026777
1589550967.736423,0.3087692574000346,-5.110262246840922,4.256298597888177,0.57,0.23222222222222225,-0.7144444444444444,-2.341030507260434,-0.9736757452793909,-11.923927231739636
1589550967.746423,-1.2885061450579887,-4.565736541457504,4.466848537303099,0.57,0.23222222222222225,-0.7144444444444444,-1.4833155877935915,1.201102803987415,-9.90516884787908
1589550967.756423,-4.247959142719537,-4.148566583721304,10.27518060683898,0.5377777777777778,0.2766666666666667,-0.7055555555555556,0.5443901434048943,1.7517371385758316,-8.32580598451893
1589550967.766423,-3.379164313356344,-6.263800857650873,3.138850538646585,0.5377777777777778,0.2766666666666667,-0.7055555555555556,1.7832018790646065,0.6892234585754682,-7.22066402312096
1589550967.776423,-7.098767749582718,-16.255010522750915,7.21947531386826,0.5377777777777778,0.2766666666666667,-0.7055555555555556,1.6631206565877377,0.5747437221997673,-4.070594141625946
1589550967.786423,-1.19,3.14,0.8,0.5377777777777778,0.2766666666666667,-0.7055555555555556,0.7406741013150936,0.9206611804270088,-2.664899601638842
1589550967.796423,0.1821981261185388,-0.44133979015334956,7.330105976067657,0.5377777777777778,0.2766666666666667,-0.7055555555555556,-0.6659270626860584,-0.32776370173552327,-2.003531658112262
1589550967.806423,2.171060853345768,-0.061303001032541715,13.046788795256969,0.37666666666666665,0.4888888888888889,-0.6933333333333334,0.07722419223042208,-0.06084857788519907,-1.7015142458416974
1589550967.816423,0.42439824945295407,-0.6643982494529541,6.907574840541924,0.37666666666666665,0.4888888888888889,-0.6933333333333334,0.07109409256201746,0.1836338129062232,-1.2505544317595076
1589550967.826423,1.8639139642922207,-3.476399161960284,10.162399799599198,0.37666666666666665,0.4888888888888889,-0.6933333333333334,-0.143219856514191,-0.12402747487462182,-0.7238192851845632
1589550967.836423,3.526371294078784,-7.831841605417458,10.15255925344785,0.37666666666666665,0.4888888888888889,-0.6933333333333334,-0.050764664784501846,0.015183078088554,-0.1327508361697473
1589550967.846423,3.4342338570034316,-7.044439756949911,8.04922205081384,0.3667950130655165,0.49476487317528783,-0.6973290026480846,0.082882224696361,0.1209992446198963,0.4527150026531306
1589550967.856423,2.6534399056800053,-3.563369859213538,9.855108537346558,0.33,0.5166666666666667,-0.7122222222222222,0.018811932510431804,-0.08576272146207295,0.6449704382265291
1589550967.866423,2.5456922893113694,-4.670262996759211,8.832074403739602,0.33,0.5166666666666667,-0.7122222222222222,-0.033543449764649375,-0.013560405335926649,0.6370170260857104
1589550967.876423,2.1573253782165205,-4.025072805746801,8.030284651801848,0.33,0.5166666666666667,-0.7122222222222222,0.02590317054616248,0.023337496925956564,0.6281341977634052
1589550967.8864229,1.3992195961242415,-3.7749729240242687,8.659074345739382,0.33,0.5166666666666667,-0.7122222222222222,0.05117398062274911,-0.01082317896791888,0.5104454287719518
1589550967.8964229,1.3916232907724349,-4.018054695282079,8.55272607081409,0.33,0.5166666666666667,-0.7122222222222222,-0.013459032322997694,-0.009994550596819562,0.4673567534747873
1589550967.9064229,1.2788492820564314,-3.969205743548549,8.745397128225726,0.3477777777777778,0.5188888888888888,-0.7033333333333334,0.006270058973112474,-0.02368446757621811,0.48384177791243477
1589550967.9164228,1.2620030123506376,-4.103975901194899,8.67801204940255,0.3477777777777778,0.5188888888888888,-0.7033333333333334,0.01821473819056875,-0.01909036018488877,0.5086499578256132
1589550967.9264228,1.2502673131101356,-4.069732686889864,8.739599030334796,0.3477777777777778,0.5188888888888888,-0.7033333333333334,0.013065669942532403,-0.02504050910256835,0.5148624095593571
1589550967.9364228,1.3052276747690494,-4.01477232523095,8.657158487846427,0.3477777777777778,0.5188888888888888,-0.7033333333333334,0.008069632082975649,-0.01504843338345484,0.5128639944155344
1589550967.9464228,1.1344815458191255,-4.073902507023527,8.884085654849986,0.34726965336307164,0.519312325901144,-0.7028252089186272,-0.003937625650968731,-0.01879354829124451,0.49356435283035005
1589550967.9564228,1.3053874198460187,-4.001942139012202,8.578254090801861,0.34127295602879465,0.5243095736797082,-0.6968285115843502,-0.011787284105621215,-0.021737170211739196,0.48669590168252924
1589550967.9664228,1.0050357548957676,-4.022482122552116,8.703758938723942,0.3411111111111111,0.5244444444444445,-0.6966666666666667,0.012548454252802061,-0.0201107299569936,0.48119565411931875
1589550967.9764228,1.0678973776186291,-3.99,8.747334090957823,0.3411111111111111,0.5244444444444445,-0.6966666666666667,0.01986431460669276,-0.016306489911160543,0.49316198412435935
1589550967.9864228,1.0589248533030475,-4.010427787242097,8.84139882642438,0.3411111111111111,0.5244444444444445,-0.6966666666666667,0.017441936151774202,-0.01282010078637563,0.5184964626196371
1589550967.9964228,1.0501034765600354,-4.178033945359329,8.770827812480283,0.3411111111111111,0.5244444444444445,-0.6966666666666667,-0.009501425874998633,-0.01955594129306884,0.52138325140822
