time,acc_x,acc_y,acc_z,mag_x,mag_y,mag_z,gyr_x,gyr_y,gyr_z
1589551228.1155114,0.3,-4.23,8.79,0.43666666666666665,0.32,-0.6355555555555555,0.0,0.007635815477475192,-0.07417649320975901
1589551228.1255114,0.33616937725882684,-4.183830622741173,8.715322490964692,0.43666666666666665,0.32,-0.6355555555555555,-0.006892484200926228,-0.0031097547693250197,-0.06368604150501471
1589551228.1355114,0.3264753739830286,-4.18,8.706762313008486,0.43666666666666665,0.32,-0.6355555555555555,-0.009817477042468105,-0.006576284887145549,-0.06548114714195417
1589551228.1455114,0.3288360356840529,-4.16674594647392,8.740926124894186,0.43666666666666665,0.32,-0.6355555555555555,-0.012227131972318606,-0.007635815477475192,-0.06943226364810441
1589551228.1555114,0.33394725396386066,-4.156052746036139,8.810263730180697,0.4390205123473875,0.32134505467469765,-0.6291665458507418,-0.013951126615979545,-0.006645437223247062,-0.07539654502046152
1589551228.1655114,0.32896784548121094,-4.152064309037578,8.862064309037578,0.4444444444444444,0.3244444444444444,-0.6144444444444445,-0.009930067634606899,-0.001917722654091672,-0.08121059799991658
1589551228.1755114,0.3581191694252182,-4.102821245862173,8.817351038218478,0.4444444444444444,0.3244444444444444,-0.6144444444444445,-0.006750151483741987,0.004549696640898362,-0.08280055607534903
1589551228.1855114,0.3851199596397474,-4.080239919279495,8.774640121080758,0.4444444444444444,0.3244444444444444,-0.6144444444444445,0.00010468453415489725,0.012636152966094778,-0.08678647504231506
1589551228.1955113,0.3728444444444444,-4.09,8.777155555555556,0.4444444444444444,0.3244444444444444,-0.6144444444444445,0.006234703939068633,0.015894616535176136,-0.093190885782875
1589551228.2055113,0.35,-4.124975000698305,8.817487500349152,0.4483305556331449,0.3244444444444444,-0.6144444444444445,0.006819055890994368,0.013364040585973102,-0.10516926844426439
1589551228.2155113,0.34383099234897796,-4.162338015302044,8.86084503825511,0.4511111111111111,0.3244444444444444,-0.6144444444444445,0.007472956945439578,0.010653269918822816,-0.11286564640941844
1589551228.2255113,0.34600434181020084,-4.151986974569398,8.74190013836538,0.4511111111111111,0.3244444444444444,-0.6144444444444445,0.010691562522530926,0.014402281655106423,-0.11584717633716739
1589551228.2355113,0.3367501117568172,-4.153249888243183,8.669874832364775,0.4511111111111111,0.3244444444444444,-0.6144444444444445,0.006217784223340327,0.015285284625898034,-0.12177757881322636
1589551228.2455113,0.34720466545827094,-4.15426511151391,8.754553550319175,0.4511111111111111,0.3244444444444444,-0.6144444444444445,-0.00048098338939772016,0.007925007277642112,-0.12873376423096425
1589551228.2555113,0.36,-4.234760818581939,8.81,0.4547333683154674,0.3295156045305433,-0.6282090218209986,-0.003272492347489368,0.003272492347489368,-0.13839158153229414
1589551228.2655113,0.3406875931137229,-4.260687593113723,8.771375186227447,0.4566666666666666,0.3322222222222222,-0.6355555555555555,-0.0011658355559246076,0.010294681652705234,-0.1453190963771472
1589551228.2755113,0.3488388571428571,-4.212322285714286,8.68092419047619,0.4566666666666666,0.3322222222222222,-0.6355555555555555,-0.0006850001759493936,0.011440799468656353,-0.15068715651676853
1589551228.2855113,0.36,-4.163946162657504,8.659540378006874,0.4566666666666666,0.3322222222222222,-0.6355555555555555,-0.0067748963375667635,0.0012913787098626436,-0.1619529160764931
1589551228.2955112,0.38543598429153714,-4.190697574866459,8.781918330882764,0.4566666666666666,0.3322222222222222,-0.6355555555555555,-0.007597768670603701,-0.006047127812319872,-0.1768857973953476
1589551228.3055112,0.41,-4.210656319014589,8.846476717782824,0.45398004430758165,0.3322222222222222,-0.6253463905910327,-0.0028165685792724752,0.0018236950728675698,-0.19760992220637516
1589551228.3155112,0.40181069027921407,-4.19,8.816378619441572,0.4511111111111111,0.3322222222222222,-0.6144444444444445,0.0026799453392492264,0.013536626946499007,-0.214799400917818
1589551228.3255112,0.3941318580343811,-4.18793407098281,8.817274780810903,0.4511111111111111,0.3322222222222222,-0.6144444444444445,0.006995700488259556,0.014180800172453925,-0.22298019542255781
1589551228.3355112,0.41,-4.18388901106957,8.74166703320871,0.4511111111111111,0.3322222222222222,-0.6144444444444445,0.006181294467078003,0.014605025471269533,-0.22598381709071674
1589551228.3455112,0.41253164929635516,-4.195063298592711,8.775189895778132,0.4511111111111111,0.3322222222222222,-0.6144444444444445,0.0005247009752230788,0.013614670365180551,-0.22964059413152912
1589551228.3555112,0.41479609455938216,-4.183980472796911,8.804388283678145,0.4401250885142512,0.3420518213878337,-0.6219611967475591,-0.005498639178751168,0.009294304284354321,-0.236231592309886
1589551228.3655112,0.4346855979078433,-4.178514198430883,8.808514198430883,0.43,0.3511111111111111,-0.6288888888888889,-0.00991096095525443,0.004431915026026993,-0.23914750108833766
1589551228.3755112,0.490089287727447,-4.184272958896079,8.785637753376474,0.43,0.3511111111111111,-0.6288888888888889,-0.011999138607461015,-0.001408062309015346,-0.24498055833224391
1589551228.3855112,0.52,-4.163004139562389,8.754334713187463,0.43,0.3511111111111111,-0.6288888888888889,-0.009527190908746397,0.0035253638239758312,-0.25365331380662115
1589551228.3955112,0.510448715434399,-4.154775642282801,8.764326926848401,0.43,0.3511111111111111,-0.6288888888888889,-0.004510164912512901,0.009768529781625745,-0.26472924932074227
1589551228.4055111,0.4784942912348498,-4.18150570876515,8.796129281573863,0.4240261920096805,0.3511111111111111,-0.6253046040946972,-0.0016773080105071977,0.01090830782496456,-0.27505360453615696
1589551228.4155111,0.46,-4.180513202437373,8.822991198375085,0.4188888888888889,0.3511111111111111,-0.6222222222222222,-0.0028902215194459248,0.008782627961605522,-0.27423677893628773
1589551228.4255111,0.4896531207903009,-4.134416255051639,8.711387516838798,0.4188888888888889,0.3511111111111111,-0.6222222222222222,-0.0065071460430039495,0.005048092521063528,-0.2707669034068052
1589551228.435511,0.51,-4.186229796767483,8.758637782045128,0.4188888888888889,0.3511111111111111,-0.6222222222222222,-0.010285780176048255,0.0017133584314127604,-0.2725534711087778
1589551228.445511,0.5068267798929448,-4.2541338994647235,8.871441019036503,0.4188888888888889,0.3511111111111111,-0.6222222222222222,-0.009922270904013522,0.003807590789653736,-0.27563404335436203
1589551228.455511,0.4844431509507179,-4.229334109429569,8.813111369809857,0.41681464234898463,0.34523407924804894,-0.6287906695985858,-0.0034177671338893618,0.016071912164646852,-0.27319236820694615
1589551228.465511,0.4429429096531404,-4.25352854517343,8.82,0.4122222222222222,0.3322222222222222,-0.6433333333333333,0.002245544490278411,0.025089107997418484,-0.2632767301684542
1589551228.475511,0.4307071384812859,-4.259646430759357,8.82,0.4122222222222222,0.3322222222222222,-0.6433333333333333,0.004247617866554653,0.025089107997418484,-0.25259900549498093
1589551228.485511,0.44549585704648065,-4.166953415558131,8.600991714092961,0.4122222222222222,0.3322222222222222,-0.6433333333333333,0.004854648908232164,0.01936777988975263,-0.2312417850185417
1589551228.495511,0.5253057482398935,-4.188719749519971,8.760611496479786,0.4122222222222222,0.3322222222222222,-0.6433333333333333,-0.003851259697914583,0.008287532572838588,-0.22095298393855012
1589551228.505511,0.6357184114044611,-4.180574729123569,8.883864981668475,0.4151899719394548,0.33869731251436597,-0.6363186521835109,-0.009615299221547422,-0.008026072964271692,-0.21757372119157403
1589551228.515511,0.5743153697537716,-4.1322703169318045,8.758405475397707,0.4244444444444445,0.3588888888888889,-0.6144444444444445,-0.003297064850009533,0.005032565100995797,-0.22364488291429363
1589551228.525511,0.6110576713454411,-4.187576931461823,8.795903808421794,0.4244444444444445,0.3588888888888889,-0.6144444444444445,-0.008049072981246342,0.006396042966161742,-0.2279836335417593
1589551228.535511,0.5878495097058235,-4.205887132279368,8.74981188713228,0.4244444444444445,0.3588888888888889,-0.6144444444444445,-0.007442273237779102,0.00671800700400549,-0.22776957137139386
1589551228.545511,0.6494786522156859,-4.204206179311275,8.804739326107843,0.4244444444444445,0.3588888888888889,-0.6144444444444445,0.005455440985059262,0.022391753224330138,-0.2268928027592628
1589551228.555511,0.6757445301104397,-4.15440258387164,8.80014711398208,0.42216401565140893,0.3588888888888889,-0.6132005741936978,0.02139351241622649,0.036795479351731886,-0.22974219187304956
1589551228.565511,0.57,-4.142874858859779,8.674291619619925,0.4122222222222222,0.3588888888888889,-0.6077777777777778,0.032411325020935786,0.0545415391248228,-0.2463777214235763
1589551228.575511,0.5800667516064701,-4.170066751606471,8.676644416131177,0.4122222222222222,0.3588888888888889,-0.6077777777777778,0.02615081289706743,0.04685475335236446,-0.2505177610857369
1589551228.585511,0.6081237981041153,-4.19,8.718742788624692,0.4122222222222222,0.3588888888888889,-0.6077777777777778,0.015680954711392234,0.028532501527432867,-0.24628933427028218
1589551228.595511,0.6029376467518914,-4.196824941299243,8.79341247064962,0.4122222222222222,0.3588888888888889,-0.6077777777777778,0.01308996938995747,0.02585949122940855,-0.2428571240676169
1589551228.605511,0.5647778699737614,-4.212611065013119,8.813055325065596,0.41396293223096836,0.3588888888888889,-0.6170615644910906,0.012805146380816474,0.027743493072558325,-0.23741936506695133
1589551228.615511,0.5568763855974315,-4.22,8.843123614402568,0.4188888888888889,0.3588888888888889,-0.6433333333333333,0.011061516972211836,0.022532397778325903,-0.22660233289280532
1589551228.625511,0.5889404479779833,-4.22,8.811059552022018,0.4188888888888889,0.3588888888888889,-0.6433333333333333,0.006689458690137753,0.02078357446549627,-0.20998851142092384
1589551228.635511,0.59,-4.225081784574872,8.711311338431154,0.4188888888888889,0.3588888888888889,-0.6433333333333333,0.0035407393865232867,0.017721539558977213,-0.17379985840958542
1589551228.645511,0.5864330528870878,-4.246433052887088,8.733566947112912,0.4188888888888889,0.3588888888888889,-0.6433333333333333,0.0002361937098421757,0.016362461737446838,-0.15077768561241334
1589551228.655511,0.5328982308397568,-4.214637508913715,8.747246426024653,0.4188888888888889,0.3613043642304398,-0.6433333333333333,-0.0040629548045668365,0.015176768051830635,-0.12914482279524003
1589551228.665511,0.45,-4.17,8.76,0.4188888888888889,0.3655555555555556,-0.6433333333333333,-0.00545415391248228,0.01308996938995747,-0.11453723216212787
1589551228.675511,0.4321562541275921,-4.21460936468102,8.733234381191389,0.4188888888888889,0.3655555555555556,-0.6433333333333333,-0.008373830003382267,0.0053041664808908375,-0.08631369661676133
1589551228.6855109,0.711299195028017,-4.143282037719631,8.800324798757003,0.4188888888888889,0.3655555555555556,-0.6433333333333333,-0.009424032216853546,-0.010281781964534022,-0.04733645566875388
1589551228.6955109,0.9233729940698358,-4.0580640760879865,8.832375286561453,0.4188888888888889,0.3655555555555556,-0.6433333333333333,-0.00524297737290272,-0.016048941664494994,-0.0305976784130044
1589551228.7055109,1.037532621589561,-3.9747040991169107,8.810822459470145,0.41684943543781033,0.363516102104477,-0.6344957017119928,0.0041838903085075615,-0.007660976329845941,-0.04867819786464248
1589551228.7155108,1.1452710320901995,-3.943772586007517,8.786227413992483,0.4122222222222222,0.3588888888888889,-0.6144444444444445,0.005434443902680016,0.0034162374489772737,-0.10954795854084176
1589551228.7255108,1.0693600272724455,-3.9082843152446776,8.752189543496451,0.4122222222222222,0.3588888888888889,-0.6144444444444445,-0.0037920627536686844,0.003431720443858981,-0.19059505096912022
1589551228.7355108,0.560570753247705,-3.8171462337614748,8.669429246752294,0.4122222222222222,0.3588888888888889,-0.6144444444444445,-0.02596246017639434,-0.011158205350910527,-0.3076159995464473
1589551228.7455108,0.5864542651593012,-3.962880860147047,8.745983345191977,0.4122222222222222,0.3588888888888889,-0.6144444444444445,-0.0484649157216251,-0.03109018647489345,-0.3590646295138352
1589551228.7555108,0.8903140235159163,-4.276947232578148,9.141683395468885,0.4098478475607813,0.3632984418315649,-0.6188539973871204,-0.050338540278183526,-0.04227790455332371,-0.35034031114101977
1589551228.7655108,0.8,-4.27,9.1,0.4044444444444445,0.37333333333333335,-0.6288888888888889,-0.02836160034490785,-0.02181661564992912,-0.3457933580513765
1589551228.7755108,0.7926460209296666,-4.203814188366999,8.805840837186663,0.4044444444444445,0.37333333333333335,-0.6288888888888889,-0.002691370764893907,0.01989750741759354,-0.3425845793538748
1589551228.7855108,0.8570377184912603,-4.214075436982521,8.707778288868447,0.4044444444444445,0.37333333333333335,-0.6288888888888889,0.02464454678615268,0.04848125660826705,-0.346035709140588
1589551228.7955108,0.7558208139852499,-4.164067194755531,8.682674132750615,0.4044444444444445,0.37333333333333335,-0.6288888888888889,0.03301662610697891,0.056875160181504646,-0.35023266092720684
1589551228.8055108,0.5771148558758314,-4.25019600886918,8.72750687361419,0.4066884454299089,0.3746156196107416,-0.6288888888888889,0.030668550234808342,0.059491540557696294,-0.34430228186336453
1589551228.8155107,0.548570914844649,-4.30857163406214,8.82857163406214,0.4122222222222222,0.37777777777777777,-0.6288888888888889,0.018232345286786637,0.04316556427637856,-0.30028961556651534
1589551228.8255107,0.52,-4.325270695075096,8.818917219699616,0.4122222222222222,0.37777777777777777,-0.6288888888888889,0.010274307677540843,0.03209092332746996,-0.25408108372076244
1589551228.8355107,0.52,-4.337479042961928,8.770083828152288,0.4122222222222222,0.37777777777777777,-0.6288888888888889,0.0062791351740262725,0.028095750823955393,-0.21346349660169767
1589551228.8455107,0.7506922062537718,-4.180397621868085,8.804653896873115,0.4122222222222222,0.37777777777777777,-0.6288888888888889,-0.0025704411554734216,0.016017055964316435,-0.13415129172122425
1589551228.8555107,0.8077854671280277,-4.082214532871972,8.768321799307959,0.4107083813917724,0.37691272587466357,-0.6317003075740101,-0.0062741642498433696,0.002240166330144106,-0.0902020807349643
1589551228.8655107,0.84,-4.05,8.72,0.4044444444444445,0.37333333333333335,-0.6433333333333333,-0.014180800172453925,-0.006544984694978735,-0.07526732399225547
1589551228.8755107,0.9969860852777058,-3.909538765804158,8.579538765804159,0.4044444444444445,0.37333333333333335,-0.6433333333333333,-0.025897580726027387,-0.027274673366685633,-0.08337894129857557
1589551228.8855107,1.0858735781079223,-3.845873578107922,8.577410031170304,0.4044444444444445,0.37333333333333335,-0.6433333333333333,-0.057889695907636124,-0.07055252664402567,-0.12063880604455597
1589551228.8955107,1.0953383458646617,-3.869389097744361,8.70282894736842,0.4044444444444445,0.37333333333333335,-0.6433333333333333,-0.0861510266115998,-0.09679277804234529,-0.16728976779498045
1589551228.9055107,0.8538679016340398,-3.8470943213072317,8.88386790163404,0.4044444444444445,0.37405031548293155,-0.6420786145715364,-0.10095432850112035,-0.10626749593222957,-0.2281956316775745
1589551228.9155107,0.7701813222696017,-3.7741976873727476,8.798005455034383,0.4044444444444445,0.37777777777777777,-0.6355555555555555,-0.09244370783367176,-0.09125398109455851,-0.2517643396521244
1589551228.9255106,0.6878623145956839,-3.2450120673899288,8.605540455046043,0.4044444444444445,0.37777777777777777,-0.6355555555555555,-0.08247431673059849,-0.07299788885116552,-0.24165788254033702
1589551228.9355106,0.54,-2.9,8.47,0.4044444444444445,0.37777777777777777,-0.6355555555555555,-0.09053895494720583,-0.07635815477475191,-0.2443460952792061
1589551228.9455106,0.04380417835983785,-2.4956484772892633,9.73513002806361,0.4044444444444445,0.37777777777777777,-0.6355555555555555,-0.16232314887991267,-0.12101305494282298,-0.27325153503075805
1589551228.9555106,-0.1776533086138049,-2.3879684826012553,9.06061323445522,0.4032029615896559,0.37777777777777777,-0.6355555555555555,-0.17528948292946367,-0.11093046676217286,-0.26350159407725504
1589551228.9655106,0.09237206085753803,-2.4604650760719227,8.47987897648686,0.3922222222222223,0.37777777777777777,-0.6355555555555555,-0.011774899706978946,0.018637477596584934,-0.02335498126072158
1589551228.9755106,0.18171931609700445,-2.5740631793164055,8.819375452877603,0.3922222222222223,0.37777777777777777,-0.6355555555555555,0.03806846896567978,0.008824826580157487,0.1704332998119127
1589551228.9855106,0.0523913479179193,-2.418869617501503,8.715913078334335,0.3922222222222223,0.37777777777777777,-0.6355555555555555,-0.002843260365285996,-0.03138152810717096,0.28188249350661254
1589551228.9955106,0.12729498942547743,-2.5718237473563694,8.87148917900361,0.3922222222222223,0.37777777777777777,-0.6355555555555555,-0.0027054900001322966,-0.032791236800087824,0.47870916437243044
1589551229.0055106,0.20732997280837057,-2.5918324932020926,8.778115031723567,0.3922222222222223,0.37777777777777777,-0.6355555555555555,0.015482973239586903,-0.033518775329676585,0.5965704061658108
1589551229.0155106,0.303169490293027,-2.663169490293027,8.911460045081073,0.3972356738327799,0.3978315842200086,-0.6355555555555555,0.0061728347617661,-0.04267525455362162,0.7903705528823232
1589551229.0255105,0.405017849579476,-2.867953853290575,8.771636917367541,0.3977777777777778,0.4,-0.6355555555555555,0.007818269636916168,-0.04708817780678858,0.9019987138321981
1589551229.0355105,0.44355975119722574,-2.9642934992018493,8.914633125997687,0.3977777777777778,0.4,-0.6355555555555555,0.021268228049525082,-0.04831076797554803,1.0158465689318699
1589551229.0455105,0.39738481862718117,-2.9950767875818793,8.87615401552265,0.3977777777777778,0.4,-0.6355555555555555,0.009515452556534423,-0.0583845755409686,1.0569812831573373
1589551229.0555105,0.5170809919374542,-2.967784021500122,8.80610798924994,0.3965885522708147,0.4,-0.634906887097212,0.02040737048253463,-0.04884565945623881,1.1246348768841334
1589551229.0655105,0.4914622526264354,-3.036100659662839,8.77194967016858,0.38615128810706617,0.4,-0.6292138339169857,0.017612799537613494,-0.056297848642695165,1.1628273464647223
1589551229.0755105,0.48085385076482473,-3.05234154030593,8.817878471682613,0.3855555555555555,0.4,-0.6288888888888889,0.01044403331102811,-0.06914004347631673,1.1975459178415229
1589551229.0855105,0.3841290971341011,-3.0398386285823737,8.65322575238825,0.3855555555555555,0.4,-0.6288888888888889,0.014965486907438628,-0.0711925420188052,1.2183594444229433
1589551229.0955105,0.27767915309446256,-3.1839250814332245,8.771331433224756,0.3855555555555555,0.4,-0.6288888888888889,0.026258109064002638,-0.07333882755186474,1.2488040436508574
1589551229.1055105,0.26060138436482083,-3.286391693811075,9.001881311074918,0.3855555555555555,0.4,-0.6288888888888889,0.018806526733343213,-0.07520172313452961,1.3195940757921214
1589551229.1155105,0.3446666046684646,-3.203444620106017,8.711555844880499,0.4188888888888889,0.37777777777777777,-0.6433333333333333,0.028313109959523935,-0.06359544476397547,1.3643747851019614
1589551229.1255105,0.28240659553205893,-3.333198800812353,8.868819187002353,0.4188888888888889,0.37777777777777777,-0.6433333333333333,0.02286342076788589,-0.06950826070499394,1.3699513858219294
1589551229.1355104,0.2080419715676477,-3.3467196415331553,8.65248573546952,0.4188888888888889,0.37777777777777777,-0.6433333333333333,0.027288105546930615,-0.06360868099960097,1.3832254401590638
1589551229.1455104,0.12214060132274009,-3.3370527254960276,8.993650281117672,0.4188888888888889,0.37777777777777777,-0.6433333333333333,0.029345265202290974,-0.06444701056104117,1.442177597122363
1589551229.1555104,0.0746205265468553,-3.3192326974550705,8.773869935279206,0.4188888888888889,0.37777777777777777,-0.6433333333333333,0.028697310697890114,-0.0715745101094506,1.4823507763952162
1589551229.1655104,0.08956930305403289,-3.2862584181675802,8.596689115113547,0.4329579744192117,0.34172574610632556,-0.6486092404072044,0.032677941726234866,-0.07267751916345924,1.5532343783035096
1589551229.1755104,0.08715676654841875,-3.4,8.966654087100913,0.43666666666666665,0.3322222222222222,-0.65,0.01733300391150286,-0.0946322256229243,1.6096906315207546
1589551229.1855104,0.02384179938108537,-3.4,8.752966072911164,0.43666666666666665,0.3322222222222222,-0.65,0.03287283482675079,-0.08254569046662036,1.6347270257730984
1589551229.1955104,-0.008446894028737151,-3.4284468940287374,9.014986642277792,0.43666666666666665,0.3322222222222222,-0.65,0.028643962978563278,-0.0921558912448879,1.6796892204868294
1589551229.2055104,-0.08313529533393066,-3.29287132124888,8.61861396374664,0.43666666666666665,0.3322222222222222,-0.65,0.03733665138159522,-0.07875942601068509,1.7199557265422152
1589551229.2155104,-0.15998656734644034,-3.2877762852607155,8.89882769568934,0.4522192371880978,0.3261740003527767,-0.6612324120432558,0.028848204917927705,-0.09186942482821385,1.7540500371535037
1589551229.2255104,-0.11964342547297695,-3.287860552837862,8.965839963851398,0.4566666666666666,0.3244444444444444,-0.6644444444444444,0.033893546751456304,-0.07320235116836181,1.8089993652651326
1589551229.2355103,-0.09492308599045204,-3.139538515942712,8.67743600322194,0.4566666666666666,0.3244444444444444,-0.6644444444444444,0.03928668820371644,-0.08129206334675201,1.8368639294351432
1589551229.2455103,-0.10225007137904311,-3.1297954480564507,9.063454337806421,0.4566666666666666,0.3244444444444444,-0.6644444444444444,0.038268330010033214,-0.09374450782770227,1.8490251157984858
1589551229.2555103,-0.19634253783089284,-3.121241587469919,8.789730799037402,0.4566666666666666,0.3244444444444444,-0.6644444444444444,0.04200065578482204,-0.09094526349661064,1.8518243601295776
1589551229.2655103,-0.27941562355122856,-3.026975892443208,8.719072322670376,0.4977777777777778,0.28,-0.6711111111111111,0.02955362502614216,-0.09496602365908026,1.877383522258289
1589551229.2755103,-0.2187549675066623,-3.0274304549067277,8.803615877320118,0.4977777777777778,0.28,-0.6711111111111111,0.025084773030074888,-0.09981751904944111,1.8831857014869091
1589551229.2855103,-0.22062028519403126,-3.1393797148059686,8.979464374394022,0.4977777777777778,0.28,-0.6711111111111111,0.033188320835235305,-0.08905238942272536,1.8757460726369326
1589551229.2955103,-0.3150314779115383,-3.053354318607692,8.499629814367948,0.4977777777777778,0.28,-0.6711111111111111,0.03592956517421525,-0.09545112717592735,1.8524067509635855
1589551229.3055103,-0.36592013912293236,-3.0872800927486215,8.799307485946157,0.4977777777777778,0.28,-0.6711111111111111,0.02421059356911505,-0.10100221898886956,1.843154931275349
1589551229.3155103,-0.4424040227372103,-3.1039422824661127,8.818268473983384,0.4930662196958655,0.2598076082203761,-0.6758226691930234,0.033543118107291756,-0.08952148217710465,1.8422453935301382
1589551229.3255103,-0.3606059169995261,-3.0984246158012323,8.919394083000475,0.49,0.2466666666666667,-0.6788888888888889,0.03485370880670891,-0.09797648455026475,1.8430810125535895
1589551229.3355103,-0.407931758174802,-2.975377428745515,8.872068241825197,0.49,0.2466666666666667,-0.6788888888888889,0.030723750057786582,-0.082489139241806,1.8100413425622106
1589551229.3455102,-0.4709899882327977,-3.0540600706032137,8.831384864677174,0.49,0.2466666666666667,-0.6788888888888889,0.030986146909210227,-0.09391943825855972,1.7249171291119638
1589551229.3555102,-0.48717201334902294,-2.9569679199058623,9.017478153513764,0.49,0.2466666666666667,-0.6788888888888889,0.020395036237264658,-0.09568462337055064,1.6587226874123042
1589551229.3655102,-0.5406593487010611,-3.032875472618612,9.269523844371266,0.5115771300023038,0.22602767275141955,-0.696713474542966,0.03972742114643649,-0.06375765561882353,1.6222871319266956
1589551229.3755102,-0.5225399122397535,-2.9810062863722653,8.754025145489061,0.5155555555555555,0.2222222222222222,-0.7,0.031212432431936374,-0.0803293688282984,1.5940035284885627
1589551229.3855102,-0.5421193165904211,-3.0658503718918246,9.093401487567299,0.5155555555555555,0.2222222222222222,-0.7,0.002735343140398791,-0.1109422398167013,1.5626787302678715
1589551229.3955102,-0.6163817308056154,-2.9956858515911757,8.689463049154273,0.5155555555555555,0.2222222222222222,-0.7,0.014031170566878205,-0.07981713720720435,1.4890382149827304
1589551229.4055102,-0.6969313250473983,-3.0241917000210656,8.967725300189594,0.5155555555555555,0.2222222222222222,-0.7,0.023663536704944657,-0.07651655158502678,1.42510331756577
1589551229.4155102,-0.7076303993011654,-2.9064455989517484,8.743696006988346,0.5277777777777778,0.17333333333333334,-0.7288888888888889,0.029897053563772317,-0.04755193199347606,1.3520668631831712
1589551229.4255102,-0.6923420607007945,-2.885464808301854,8.895798706091789,0.5277777777777778,0.17333333333333334,-0.7288888888888889,0.02517426772764855,-0.05184891917844949,1.2948363157115457
1589551229.4355102,-0.7196593721505796,-2.949205201684686,8.613519821110676,0.5277777777777778,0.17333333333333334,-0.7288888888888889,0.0261675532017975,-0.04588920633355581,1.2441787565299494
1589551229.4455101,-0.8135238212533612,-2.8734805098836134,8.924580126034034,0.5277777777777778,0.17333333333333334,-0.7288888888888889,0.008558533331938654,-0.06529118309682494,1.1869731061340358
1589551229.4555101,-0.8217057288549472,-2.810234373129683,9.062942711450528,0.5277777777777778,0.17333333333333334,-0.7288888888888889,0.011787506310859275,-0.06872233929727672,1.1417205938084327
1589551229.4655101,-0.9564484272128748,-2.8454828090709583,8.81619970738844,0.5257563195968463,0.15109729334308705,-0.7460712834268065,0.02598962192430016,-0.05383812483457362,1.0937804942649256
1589551229.4755101,-0.9497326383050277,-2.6882621489826803,9.03344963847318,0.5255555555555556,0.14888888888888888,-0.7477777777777778,-0.0008137667339071005,-0.05317364429373697,1.0667741760081466
1589551229.48551,-0.9321006389776358,-2.5736541533546324,8.601465654952078,0.5255555555555556,0.14888888888888888,-0.7477777777777778,0.017458084508205064,-0.03490179305162483,1.0629274704834917
1589551229.49551,-0.9593735093019558,-2.6970763767424604,9.166843695341072,0.5255555555555556,0.14888888888888888,-0.7477777777777778,0.020703005022820183,-0.03272492347489368,1.0496525708969404
1589551229.50551,-0.9838464509898599,-2.6602559150169,8.94948430709802,0.5255555555555556,0.14888888888888888,-0.7477777777777778,0.014656214882391784,-0.018851620651943096,1.0346388285122057
1589551229.51551,-0.9762922036716921,-2.622584407343384,8.636405767926304,0.5171785689104785,0.11081167686581135,-0.7774780031557782,0.016828190938735013,-0.022748074052505465,1.0151345589542853
1589551229.52551,-1.007070907440406,-2.711944995461117,8.927779981844468,0.5133333333333333,0.09333333333333334,-0.7911111111111111,-0.006729681054480203,-0.04437707791689731,0.9664786038813766
1589551229.53551,-1.0164371742156895,-2.6685026062744845,8.702513031372423,0.5133333333333333,0.09333333333333334,-0.7911111111111111,-0.009428833038648303,-0.03598427796337801,0.9393292304693645
1589551229.54551,-1.1324898222419282,-2.7364198476359385,8.648384860332945,0.5133333333333333,0.09333333333333334,-0.7911111111111111,-0.02208821312437309,-0.05859065866854074,0.9050797867705112
1589551229.55551,-1.0181083926122045,-2.4584803343009347,8.356656033685285,0.5133333333333333,0.09333333333333334,-0.7911111111111111,-0.016060290232288804,-0.058355775848614025,0.9005803111142281
1589551229.56551,-1.1108118528787418,-2.6033552831087814,9.14352900402894,0.49919912200898214,0.04700452954795978,-0.7706950280870482,-0.014442886882141808,-0.054221609982271955,0.9071934394616376
1589551229.57551,-1.3120931443448076,-2.9127908591264102,9.743139716517211,0.4933333333333334,0.027777777777777776,-0.7622222222222222,-0.003044165719136913,-0.030864568425605154,0.9104927779363949
1589551229.58551,-1.1369291096417038,-2.53356950638167,7.742073273873597,0.4933333333333334,0.027777777777777776,-0.7622222222222222,0.04140862760349225,0.026975877894622875,0.9119030404749853
1589551229.59551,-1.207164587314076,-2.643463339702522,8.791170057322692,0.4933333333333334,0.027777777777777776,-0.7622222222222222,-0.02311293506808524,-0.04318588074179723,0.8892076872336132
1589551229.60551,-1.2925802550282635,-2.703467595635599,8.916614171158143,0.4933333333333334,0.027777777777777776,-0.7622222222222222,-0.0195031423779202,-0.09849125044794511,0.8654159858993058
1589551229.61551,-1.2154997192588433,-2.571884205070617,8.939961776011748,0.5038333645267952,0.00516232597647533,-0.7517221910287604,-0.013882921814472936,-0.05565738744912832,0.8654232019367966
1589551229.62551,-1.1895234689897283,-2.377147965154076,8.674772461318424,0.5077777777777778,-0.0033333333333333327,-0.7477777777777778,-0.029763539867672932,0.0689263647920916,0.8661716227716679
1589551229.63551,-1.3447844745172188,-2.602176711775828,9.287737035542055,0.5077777777777778,-0.0033333333333333327,-0.7477777777777778,-0.017410976507773623,-0.01681148421926476,0.8454831928131292
1589551229.64551,-1.218874902025984,-2.48047906324965,8.399291024392562,0.5077777777777778,-0.0033333333333333327,-0.7477777777777778,0.006708623562096224,-0.007822150298930065,0.8357104565197921
1589551229.65551,-1.3675690166312735,-2.6201703076049707,9.016459283867034,0.5077777777777778,-0.0033333333333333327,-0.7477777777777778,-0.003619023376961813,-0.02748471101736665,0.8126945518068992
1589551229.66551,-1.3211263154665112,-2.571126315466511,9.136689473199766,0.47249463927155455,-0.04466500986919481,-0.7689476608815117,-0.0027885079353247542,-0.021152070010765814,0.8000846688785119
1589551229.67551,-1.2836283765471137,-2.507256753094227,9.330972987623092,0.4688888888888889,-0.048888888888888885,-0.7711111111111111,-0.011770654447264247,-0.01867605479670907,0.7832776756700409
1589551229.68551,-1.1733831359771119,-2.0638401017245487,7.373049352300723,0.4688888888888889,-0.048888888888888885,-0.7711111111111111,-0.0046317179565461865,0.010002475285323342,0.7672901816881691
1589551229.69551,-1.426899545266639,-2.587883422902026,10.208147995039273,0.4688888888888889,-0.048888888888888885,-0.7711111111111111,-0.061285840564681,-0.1353387754303292,0.7318247985967345
1589551229.70551,-1.438610060362173,-2.488745271629779,9.60441754527163,0.4688888888888889,-0.048888888888888885,-0.7711111111111111,-0.03602691434495196,-0.1006276954867973,0.726023695198529
1589551229.71551,-1.2935400410677618,-2.1896167008898018,8.086696783025324,0.44209445585215607,-0.09652343650974726,-0.7175222450376454,0.020966001584582013,-0.0040029980542618075,0.7333514734845938
1589551229.72551,-1.1401731337452077,-2.1743097848648385,8.990505482161607,0.4188888888888889,-0.13777777777777778,-0.6711111111111111,-0.014293103720084147,-0.07804979355459171,0.7018559378948086
1589551229.7355099,-1.5013661140131729,-2.422540313422666,8.194504883034295,0.4188888888888889,-0.13777777777777778,-0.6711111111111111,0.0009870247189338842,-0.024714885899539574,0.6753523396513726
1589551229.7455099,-1.5432517746563963,-2.5062588732819817,8.54068267633288,0.4188888888888889,-0.13777777777777778,-0.6711111111111111,0.0047180367192797175,-0.019989667674230098,0.666905701723858
1589551229.7555099,-1.402913477435552,-2.3862277264098952,8.900400771538791,0.4188888888888889,-0.13777777777777778,-0.6711111111111111,0.008371363121639724,-0.06156671379563687,0.6479097674097687
1589551229.7655098,-1.4117835193271875,-2.4232387190684137,9.429245916221898,0.4538391108235844,-0.12239968012651176,-0.6536360001437633,0.022169905095497478,-0.028971366460386325,0.6313964712871207
1589551229.7755098,-0.984568034182096,-1.9817796227463789,8.634376628339181,0.4744444444444445,-0.11333333333333333,-0.6433333333333333,0.013357457300946549,-0.0013949992853310358,0.5858994345868214
1589551229.7855098,-1.4011856695487759,-2.39842435940362,9.847737970968822,0.4744444444444445,-0.11333333333333333,-0.6433333333333333,-0.013081461541497296,-0.06850962160130648,0.5036149567575637
1589551229.7955098,-1.3069374475230897,-2.1729659949622167,8.373681780016792,0.4744444444444445,-0.11333333333333333,-0.6433333333333333,0.045773219648559293,0.02127394794327156,0.4628149550309029
1589551229.8055098,-1.454452295455423,-2.4636541951426696,9.213763851886174,0.4744444444444445,-0.11333333333333333,-0.6433333333333333,0.001995581392126425,-0.027118847610503406,0.40572844235876876
1589551229.8155098,-1.303236077635418,-2.2479424077127996,8.30941646581251,0.5092074012995617,-0.08044945522714138,-0.6311193214653192,0.0049327124439877655,-0.027206700724114317,0.33491729221199135
1589551229.8255098,-1.4450923614578133,-2.4576385421867197,9.060889051038828,0.5155555555555555,-0.07444444444444444,-0.6288888888888889,-0.015808856422700086,-0.054431949151052275,0.29198995934621613
1589551229.8355098,-1.409955065359477,-2.3970722455648925,9.2656308356676,0.5155555555555555,-0.07444444444444444,-0.6288888888888889,0.00554502464906104,-0.04791058530217357,0.273017260872438
1589551229.8455098,-1.13538299904489,-2.0987717287488064,9.229833810888252,0.5155555555555555,-0.07444444444444444,-0.6288888888888889,0.024277288182976045,-0.0281188462166159,0.2672897985513938
1589551229.8555098,-1.2086185956178024,-2.2083423147413628,9.458480455179583,0.5155555555555555,-0.07444444444444444,-0.6288888888888889,0.006342108132618766,-0.04166951508145706,0.24846133549413668
1589551229.8655097,-1.4567213439911142,-2.341737707519289,8.81291786500585,0.5181639350042865,-0.06075045233860713,-0.6328014580619853,0.01951335880958007,-0.02099043849877718,0.24318373531871548
1589551229.8755097,-1.5143469330392856,-2.308912239735357,8.270869386607856,0.52,-0.05111111111111112,-0.6355555555555555,0.03011627869902282,-0.0073751302460438005,0.2519108962599981
1589551229.8855097,-1.277123292811046,-2.1086537595677624,8.63205950772925,0.52,-0.05111111111111112,-0.6355555555555555,0.008746742234540377,-0.016077516370955006,0.27543915194752183
1589551229.8955097,-1.3210111464968153,-2.1477786624203823,9.163638535031847,0.52,-0.05111111111111112,-0.6355555555555555,0.007426507978604454,-0.03617936570210678,0.2992788917826234
1589551229.9055097,-1.5139683391467669,-2.3687514533583762,9.09331186834809,0.52,-0.05111111111111112,-0.6355555555555555,0.0406989833243316,-0.016462852120703156,0.34032769192779194
1589551229.9155097,-1.4844633231778768,-2.4063088821185845,9.406682095148817,0.5135129416972632,-0.048162448246230775,-0.6355555555555555,0.022161414810438165,-0.024408776753003507,0.3707061359498433
1589551229.9255097,-1.3345103629783968,-2.245216580765435,9.444670468253099,0.5077777777777778,-0.045555555555555564,-0.6355555555555555,-0.014180800172453925,-0.06420494334704137,0.3813372878011152
1589551229.9355097,-0.9703184563125118,-1.9446555953953577,8.788314304585771,0.5077777777777778,-0.045555555555555564,-0.6355555555555555,0.04603577632014812,0.002366674617600706,0.4140807236850535
1589551229.9455097,-0.8617177850701532,-1.9362577194387742,8.411533552104597,0.5077777777777778,-0.045555555555555564,-0.6355555555555555,0.03093138469419513,0.0005085902338277069,0.3527732826653419
1589551229.9555097,-1.0243655469841464,-2.1072192188544006,9.267583672477677,0.5077777777777778,-0.045555555555555564,-0.6355555555555555,-0.01497889631381151,-0.042560953188144686,0.2298010001640221
1589551229.9655097,-1.0322630612486672,-2.0297817201753348,9.077375014808673,0.5325221800997776,-0.050137852281851816,-0.6474695270439258,-0.0017518424460990362,-0.02182475714256,0.08936102311656313
1589551229.9755096,-1.0703935098843715,-1.9160108168593808,8.195698433420366,0.5377777777777778,-0.05111111111111112,-0.65,0.03093253917627654,0.0123884158738368,-0.02014710747824744
1589551229.9855096,-1.0873225273900646,-1.925105808194507,8.180759417679724,0.5377777777777778,-0.05111111111111112,-0.65,0.02743923194800179,0.008324563053936635,-0.04735806725413699
1589551229.9955096,-1.1477413198267634,-2.138007046905968,9.29807347867577,0.5377777777777778,-0.05111111111111112,-0.65,-0.04570619413569906,-0.06953779996592122,-0.13591520940447308
1589551230.0055096,-0.81,-1.8629720873578206,9.038076995659559,0.5377777777777778,-0.05111111111111112,-0.65,-0.018872108004425254,-0.009985249657628436,-0.2701904888288004
1589551230.0155096,-0.81,-1.927733363070219,9.117229665974712,0.5377777777777778,-0.05111111111111112,-0.65,0.010955186843478407,0.04182005192030949,-0.37380109198467626
1589551230.0255096,-0.8908009199756477,-1.7267963200974092,7.306767570858418,0.4988888888888889,-0.07777777777777778,-0.65,0.009598432790432609,0.012259357423294995,-0.6113919479406562
1589551230.0355096,-1.1006956793336804,-2.025612701717855,8.756545757418012,0.4988888888888889,-0.07777777777777778,-0.65,-0.026376549529593014,0.022768619618419982,-0.702159586364034
1589551230.0455096,-1.186884000245113,-2.264589333496742,9.97359866821905,0.4988888888888889,-0.07777777777777778,-0.65,-0.04023558429613417,0.04102207335715832,-0.7360071271872145
1589551230.0555096,-0.957264046191428,-2.061913644871673,9.275673677865552,0.4988888888888889,-0.07777777777777778,-0.65,-0.003919322021536553,0.06863122044158328,-0.7695634850508791
1589551230.0655096,-0.8993520039735605,-1.9566530393917396,9.544479425362015,0.45790080532525035,-0.15336619162240986,-0.622852048548759,-0.01717055091491307,0.03533069744743193,-0.8512910027587726
1589551230.0755095,-0.9975391515063836,-1.9073098484574489,9.054787514919166,0.4133333333333333,-0.23555555555555555,-0.5933333333333334,-0.03916985584015304,0.01217423018446994,-0.9495425715621583
1589551230.0855095,-1.0504846227775109,-1.9570485343584814,8.790837337818356,0.4133333333333333,-0.23555555555555555,-0.5933333333333334,-0.01878920640304341,0.044993152895518834,-1.015871024559765
1589551230.0955095,-0.8698450174938448,-1.8022534663729428,8.145873007645458,0.4133333333333333,-0.23555555555555555,-0.5933333333333334,-0.013495571288013106,0.05591199689370445,-1.055638435695536
1589551230.1055095,-0.8668235775685633,-1.7968235775685633,7.99187176720128,0.4133333333333333,-0.23555555555555555,-0.5933333333333334,0.002773169255334086,0.07320816930411196,-1.069758503692381
1589551230.1155095,-0.8542332642279141,-1.8748542098575536,9.825739650906172,0.4373440112352036,-0.5244582283748338,0.5266486100893913,-0.0833814038053186,-0.007815456405843912,-1.1048843567687778
1589551230.1255095,-0.7165922317541061,-1.8191201448463163,9.041907143165064,0.4477777777777778,-0.65,1.0133333333333334,-0.03930498855801494,0.006761298080308023,-1.0949061737007089
1589551230.1355095,-0.6110455381903948,-1.834215846357204,8.984806002643651,0.4477777777777778,-0.65,1.0133333333333334,-0.009990390529385874,0.05006600317116519,-1.0853766285839737
1589551230.1455095,-0.7769692550163487,-1.9771390934111173,8.973115664181035,0.4477777777777778,-0.65,1.0133333333333334,-0.023420440457587746,0.06515629694739364,-1.1294302214344625
1589551230.1555095,-0.6630448510362694,-2.02,8.99479740123057,0.4477777777777778,-0.65,1.0133333333333334,-0.015551204914607781,0.08004045931833705,-1.1815083432494526
1589551230.1655095,-0.47578387718482096,-2.0515810460556922,8.876304246693694,0.6659209292365403,-0.19324450056489673,0.1600602556434284,-0.021932317512683444,0.08439566450130087,-1.237635930274578
1589551230.1755095,-0.6407005642934326,-2.382418657702005,8.757030856045143,0.8622222222222222,0.21777777777777774,-0.6077777777777778,-0.013618555419271396,0.08113906872596358,-1.3157629973323217
1589551230.1855094,-0.8182203369347159,-2.6687711792715056,8.70944915766321,0.8622222222222222,0.21777777777777774,-0.6077777777777778,0.010453023800307206,0.023002204990719442,-1.4165662532315126
1589551230.1955094,-0.7515705112846806,-2.7741695816761704,8.758429488715318,0.8622222222222222,0.21777777777777774,-0.6077777777777778,-0.03994913576118729,0.13346117825823337,-1.4931070542518254
1589551230.2055094,-0.7790679703516795,-2.9890175051253745,9.2507301687431,0.8622222222222222,0.21777777777777774,-0.6077777777777778,-0.049935054141649976,0.09999379655527835,-1.593721578145472
1589551230.2155094,-0.6033383966767933,-2.9099038998077997,8.854360158720318,0.7068386481217407,0.1397212405535922,-0.6639493045652758,-0.03643827269235038,0.0858219521360826,-1.7184645766369835
1589551230.2255094,-0.49,-2.8376757812499998,8.329296875,0.6255555555555555,0.09888888888888887,-0.6933333333333334,-0.03587064935449527,0.0978445384495112,-1.8232373665235075
1589551230.2355094,-0.3972080023536334,-2.7730075022065312,8.124010002942041,0.6255555555555555,0.09888888888888887,-0.6933333333333334,-0.03455773741982962,0.061438099319132175,-1.9249620277276405
1589551230.2455094,-0.4448891055325372,-3.0909480867657813,8.487462832074092,0.6255555555555555,0.09888888888888887,-0.6933333333333334,-0.015575245079642305,0.11027865856377832,-1.9999509041205958
1589551230.2555094,-0.52,-3.401470875236483,9.015638355073186,0.6255555555555555,0.09888888888888887,-0.6933333333333334,-0.020568117839266584,0.12916707272301123,-2.0425700501617547
1589551230.2655094,-0.6162088356365776,-3.7101429726551016,8.861578579829462,0.5913479695514391,0.10102686301414618,-0.6976092815838478,-0.00661209917343724,0.11202472909400496,-2.0386644262127698
1589551230.2755094,-0.6110687173420093,-3.8364004732327714,8.450540274080648,0.5722222222222222,0.10222222222222224,-0.7,-0.002544841645096484,0.1191913574646337,-1.978594106795682
1589551230.2855093,-0.5229536784741144,-3.822272842870118,8.211136421435059,0.5722222222222222,0.10222222222222224,-0.7,-0.01633761338501722,0.11423932934679543,-1.9109861634053902
1589551230.2955093,-0.45455481972038264,-3.9762823971874743,8.811752514103507,0.5722222222222222,0.10222222222222224,-0.7,-0.04597471371042662,0.028887082723329006,-1.7857186195691481
1589551230.3055093,-0.5178352106156456,-4.122191019904336,9.260324024070359,0.5722222222222222,0.10222222222222224,-0.7,-0.08324060524953397,0.005759135455127481,-1.6906050942305608
1589551230.3155093,-11.164030031327643,-15.295123042022253,11.231420978718807,0.568844093958926,0.12007804304250239,-0.6908307947139102,-0.004330681871829669,0.06746556837133082,-1.5485186327517781
1589551230.3255093,-13.418971798967805,-4.540498586876382,7.281581162447777,0.5644444444444444,0.14333333333333334,-0.6788888888888889,-0.23246876700273472,0.6384454093521811,-1.39973581703365
1589551230.3355093,7.737322144347296,2.2593202222170135,-1.3687295187642108,0.5644444444444444,0.14333333333333334,-0.6788888888888889,-1.1306497753156175,-0.04277710518327549,-7.162351909564933
1589551230.3455093,3.3432369402985067,-11.340195895522388,11.046147388059701,0.5644444444444444,0.14333333333333334,-0.6788888888888889,-1.884422387554969,-1.3967691319116025,-14.452941083800194
1589551230.3555093,-2.1914437083367626,-7.6228176693276275,8.632404740350587,0.5644444444444444,0.14333333333333334,-0.6788888888888889,-1.4914260211481913,-0.48783050516084914,-14.229674369418326
1589551230.3655093,-8.303843930635837,-18.426069364161847,10.552731213872832,0.5468625561978163,0.18846017983301222,-0.6747864482980089,-0.2727281881099123,1.7787982103382092,-10.979653202444023
1589551230.3755093,-10.800152324959914,-19.692288214858365,11.670596606093,0.5311111111111111,0.2288888888888889,-0.6711111111111111,1.1658433266640449,2.814467602142124,-8.427991323502447
1589551230.3855093,-2.3795033292742955,-4.661765940358059,8.418453506749229,0.5311111111111111,0.2288888888888889,-0.6711111111111111,1.6349052802432318,1.5637992904283882,-5.247819385352741
1589551230.3955092,2.1852825836216843,-0.2090657439446367,12.240219146482122,0.5311111111111111,0.2288888888888889,-0.6711111111111111,0.1325403436577932,-0.04881939564293836,-3.1463032308097083
1589551230.4055092,1.8090709734775525,-0.304871832864128,9.335322269965921,0.5311111111111111,0.2288888888888889,-0.6711111111111111,-0.47736106256349503,-0.23777331048131,-2.621144017560446
1589551230.4155092,4.324842851106705,-6.184774271134656,7.506176422790652,0.44209372957317183,0.36241496119579775,-0.6595266573493245,0.12832438023401763,0.3513108338274639,-2.536784013372781
1589551230.4255092,6.9578880759792785,-10.68021698627647,9.145572343906208,0.3688888888888889,0.4722222222222222,-0.65,0.18357533043806964,0.4899798873980151,-2.4751979026085924
1589551230.4355092,3.049656050955414,-4.934678343949045,8.01478025477707,0.3688888888888889,0.4722222222222222,-0.65,-0.17840676407064887,0.03836319850671453,-2.170649037666435
1589551230.4455092,1.3551456310679613,-0.7119601154552611,8.694723169771713,0.3688888888888889,0.4722222222222222,-0.65,-0.01438774602806793,0.12836825662841264,-1.8495775827375074
1589551230.4555092,2.1138515791646597,-1.969722700061928,9.278652033303516,0.3688888888888889,0.4722222222222222,-0.65,0.11559939045037582,0.0697911402968885,-1.6661566892500952
1589551230.4655092,1.9547922665569724,-3.414090615267086,8.583887289181407,0.3447091470620882,0.4938832409420645,-0.6469775322716499,-0.0875263337868964,0.05382942540543906,-1.1662865034840548
1589551230.4755092,1.962984423413359,-3.0702432392555274,8.949032523238413,0.31555555555555553,0.52,-0.6433333333333333,0.01192908061377878,0.048761835119610984,-0.7846761085127757
1589551230.4855092,1.8985197111631538,-3.696386855971897,8.870741608118657,0.31555555555555553,0.52,-0.6433333333333333,0.041411440616500664,0.02778592844995894,-0.48059265491076275
1589551230.4955091,1.65,-4.060713650575108,8.587596305538824,0.31555555555555553,0.52,-0.6433333333333333,-0.027030062761225465,0.012664907399302209,-0.15342312959874213
1589551230.5055091,1.6809857467960234,-4.0254928733980115,8.577464366990059,0.31555555555555553,0.52,-0.6433333333333333,-0.019624806619278776,0.0048191316088299135,-0.0051214215621699505
1589551230.5155091,1.687262198838664,-3.994524397677328,8.644315549709667,0.3048182605627025,0.5275792670537787,-0.6471229668602226,0.0035483583466045564,0.002181661564992912,0.010184470158378414
1589551230.525509,1.6477058749882625,-3.97783530000939,8.738094150051644,0.2966666666666667,0.5333333333333333,-0.65,0.008726646259971648,0.005099955704788198,0.0012088968517278168
1589551230.535509,1.6387465940054498,-3.974223433242507,8.80141689373297,0.2966666666666667,0.5333333333333333,-0.65,0.009237880305174346,0.006937327101762202,0.0005112340452026987
1589551230.545509,1.7,-3.937999533690837,8.64054515780326,0.2966666666666667,0.5333333333333333,-0.65,-0.0014675430048668898,0.00013884225712480595,0.001705667302307087
1589551230.555509,1.6711573871109162,-4.009614204296361,8.702433143358176,0.2966666666666667,0.5333333333333333,-0.65,-0.01920120418589005,-0.002139577782064509,0.0014404131156858068
1589551230.565509,1.621346601032827,-4.024326699483587,8.75,0.2944603831325059,0.5295511329890576,-0.6522062835341608,-0.017337696674934386,-0.00405389258790298,0.002181661564992912
1589551230.575509,1.646740246498399,-3.987181725488793,8.740220739495197,0.2888888888888889,0.52,-0.6577777777777778,0.0031280186857251726,-0.0011389886697511873,0.0018260776187032151
1589551230.585509,1.64,-3.94,8.723041198501873,0.2888888888888889,0.52,-0.6577777777777778,0.015864846796218118,0.0026090057591844074,0.0012567024295726962
1589551230.595509,1.6370729703608247,-3.954635148195876,8.73414594072165,0.2888888888888889,0.52,-0.6577777777777778,0.00861991774558886,-0.001090830782496456,0.0025009509681620987
1589551230.605509,1.6303166881443298,-3.9884165592783507,8.72063337628866,0.2888888888888889,0.52,-0.6577777777777778,-0.0016980271181914856,-0.001090830782496456,0.0032379470298606948
1589551230.615509,1.6648647302904565,-3.969425726141079,8.666858091286308,0.29307810050714617,0.5241892116182573,-0.6532394651913325,-0.011033594945543405,-0.003272492347489368,0.010595090023517443
1589551230.625509,1.5628606766278548,-3.9642876417970117,8.724280895507471,0.3022222222222222,0.5333333333333333,-0.6433333333333333,0.0004669732596200042,-0.0014026368929297042,0.041450097922805594
1589551230.635509,1.4243631968575314,-3.897584227224656,8.784787732285844,0.3022222222222222,0.5333333333333333,-0.6433333333333333,0.010996147801859955,0.0018766112887576892,0.08845469193070296
1589551230.645509,1.3212865853658537,-3.8735213414634146,8.731060975609756,0.3022222222222222,0.5333333333333333,-0.6433333333333333,0.009189584201811606,0.0008347516048982026,0.1466538844476356
1589551230.655509,1.4748274459974586,-3.9758439644218555,8.702359339263024,0.3022222222222222,0.5333333333333333,-0.6433333333333333,-0.008738510950566526,-0.011238911329718123,0.247628400945552
1589551230.665509,1.609840914866582,-3.9332081321473953,8.709465311308769,0.3022222222222222,0.5333333333333333,-0.6433333333333333,-0.021915913130561963,-0.022090889595596717,0.32979337924434704
1589551230.675509,1.8449794834660873,-3.955008447984552,8.794996379435192,0.2677777777777778,0.5244444444444445,-0.65,0.010637114075031819,-0.013635253133754273,0.43333601700417984
1589551230.685509,1.5914146904320894,-4.047267786111195,8.72736495308657,0.2677777777777778,0.5244444444444445,-0.65,0.027909243256377992,-0.011690501033255751,0.47453258893151434
1589551230.695509,1.6370082577501015,-3.988504128875051,8.624364810767952,0.2677777777777778,0.5244444444444445,-0.65,0.0171023466324264,-0.010970898378478783,0.4556543143159475
1589551230.705509,1.7583028910408216,-4.0427454336561235,8.715424277239794,0.2677777777777778,0.5244444444444445,-0.65,0.011892047972597063,-0.01458010731157406,0.43421415896794996
1589551230.715509,1.910714766818439,-4.082919955815395,8.671722660775385,0.2711273959521393,0.5240616309388032,-0.6506699236348723,0.00018791314015901984,-0.01760455760164465,0.36482128274782605
1589551230.725509,1.5745515439873123,-4.209521223994775,8.697484840003732,0.30666666666666664,0.52,-0.6577777777777778,0.002181661564992912,-0.007635815477475192,0.19634954084936207
1589551230.735509,1.4415109618434554,-4.154739807817894,8.73661442298722,0.30666666666666664,0.52,-0.6577777777777778,0.002181661564992912,-0.007635815477475192,0.19634954084936207
1589551230.745509,1.4562023563833955,-4.093797643616604,8.743101178191697,0.30666666666666664,0.52,-0.6577777777777778,0.006510589001400711,-0.004363323129985824,0.09492382169305327
1589551230.755509,1.4901504637136,-4.0699247681432,8.7298495362864,0.30666666666666664,0.52,-0.6577777777777778,-0.006203258494205747,-0.004363323129985824,0.022125515760613366
1589551230.765509,1.5273430100397802,-4.05531397992044,8.68468602007956,0.30666666666666664,0.52,-0.6557112300309402,-0.009970310101286808,-0.003783657842507479,0.0067663175462576745
1589551230.7755089,1.5142160260310573,-4.061324039046586,8.687351921906828,0.30666666666666664,0.52,-0.65,-0.0012086547047454183,-0.001550727879944831,0.004047856287461783
1589551230.7855089,1.503415352546674,-4.029753942359978,8.712923237266631,0.30666666666666664,0.52,-0.65,0.00729009903317665,0.00037255716909895725,0.0028999351783904107
1589551230.7955089,1.51,-4.00380840223034,8.69238319553932,0.30666666666666664,0.52,-0.65,0.0053496535399810575,-0.0009353648494978982,0.0015062630209947939
1589551230.8055089,1.51,-4.011731927401287,8.725432981850322,0.30666666666666664,0.52,-0.65,-0.004552247102223088,-0.00397253795171342,0.0
1589551230.8155088,1.512057085058634,-4.072057085058634,8.733828744824098,0.3027810615559138,0.5172572199218215,-0.65,-0.009786341972878879,-0.00022439317041713614,0.0006731795112514084
1589551230.8255088,1.52,-4.08,8.71,0.2877777777777778,0.5066666666666667,-0.65,-0.00545415391248228,-0.001090830782496456,0.003272492347489368
1589551230.8355088,1.513361484505126,-4.063403711262815,8.690084453515379,0.2877777777777778,0.5066666666666667,-0.65,-0.0003851059761603949,0.0003574686278812252,0.0025483426423005273
1589551230.8455088,1.4941424687330072,-4.024142468733007,8.679287656334965,0.2877777777777778,0.5066666666666667,-0.65,0.00758112564705313,0.0026335348059422325,0.001090830782496456
1589551230.8555088,1.4820629852378349,-4.020314926189174,8.752062985237835,0.2877777777777778,0.5066666666666667,-0.65,0.0001563305438534563,-3.4353118136574946e-05,0.0008657940023698498
1589551230.8655088,1.4968482443118127,-4.06,8.753151755688187,0.2889191518297466,0.5066666666666667,-0.65,-0.008009329262544267,-0.0036162955598476746,0.0001867568925345373
1589551230.8755088,1.5274975553687533,-4.054995110737506,8.72,0.29444444444444445,0.5066666666666667,-0.65,-0.006814759043685552,-0.0008189230905770601,0.001909753873073516
1589551230.8855088,1.5203021049561682,-4.0406042099123365,8.72,0.29444444444444445,0.5066666666666667,-0.65,0.001819161640686606,-0.0031736287317694666,0.004264459514265922
1589551230.8955088,1.51,-4.034326525042078,8.691346949915843,0.29444444444444445,0.5066666666666667,-0.65,0.005926104582196322,0.001090830782496456,0.0015034175243513984
1589551230.9055088,1.51,-4.015246781603967,8.729506436792066,0.29444444444444445,0.5066666666666667,-0.65,0.0038448274357536687,0.001090830782496456,0.0028909356219798347
1589551230.9155087,1.51,-4.029349071010436,8.730325464494783,0.29444444444444445,0.5066666666666667,-0.65,-0.006225460674412279,3.550266895182858e-05,0.001161836120400113
1589551230.9255087,1.5158946390336525,-4.077947319516826,8.725894639033653,0.29444444444444445,0.5133333333333333,-0.6377777777777778,-0.005844513831334686,-0.0013147434882640192,0.0028246669359542416
1589551230.9355087,1.5,-4.068498064068731,8.707496773447884,0.29444444444444445,0.5133333333333333,-0.6377777777777778,0.0014185023719297334,-0.0020178257702762733,0.001036218850924243
1589551230.9455087,1.5,-4.044259626683105,8.667099377805174,0.29444444444444445,0.5133333333333333,-0.6377777777777778,0.006706509095900475,0.0006261775917090978,0.00015488439692911945
1589551230.9555087,1.5,-4.014888716046428,8.723259144030953,0.29444444444444445,0.5133333333333333,-0.6377777777777778,0.004945156109880278,0.0005575545874636367,0.0
1589551230.9655087,1.5,-4.039983247576882,8.739988831717922,0.29444444444444445,0.5133333333333333,-0.6377777777777778,-0.0032670101298437,-0.0021798341591110224,0.0
1589551230.9755087,1.5080437692552853,-4.0680437692552855,8.748043769255286,0.30666666666666664,0.52,-0.6577777777777778,-0.006758376366378818,-0.002181661564992912,0.0
1589551230.9855087,1.5022794486914792,-4.056580826962781,8.729742480888344,0.30666666666666664,0.52,-0.6577777777777778,-0.006392569077581765,-0.0019330122850142264,0.0
1589551230.9955087,1.5176176443072318,-4.027617644307232,8.676205912620452,0.30666666666666664,0.52,-0.6577777777777778,0.004052116424847556,0.0,0.0007796240773581885
1589551231.0055087,1.506464753139969,-4.021767623430015,8.76353524686003,0.30666666666666664,0.52,-0.6577777777777778,0.005580895670317316,0.00019281780493228382,0.0026940389326925167
1589551231.0155087,1.4906449666201487,-4.029677516689926,8.77935503337985,0.30666666666666664,0.52,-0.6577777777777778,0.0012667181432316548,0.001055653310349416,0.00010553241644111963
1589551231.0255086,1.49,-4.021672082962472,8.763344165924945,0.2964881013985773,0.5088961106166298,-0.6633297224694629,-0.00435977817267068,0.00018239595663526668,0.0
1589551231.0355086,1.5269410289597152,-4.068470514479857,8.68776411583886,0.29444444444444445,0.5066666666666667,-0.6644444444444444,-0.004286266991754548,0.0017581947371980169,-8.978485044411452e-05
1589551231.0455086,1.5100181647353585,-4.0599273410585655,8.620199812088943,0.29444444444444445,0.5066666666666667,-0.6644444444444444,0.0021915688912354414,0.005442265120991244,0.00544424658623975
1589551231.0555086,1.5162803324099723,-4.0218598337950136,8.73929916897507,0.29444444444444445,0.5066666666666667,-0.6644444444444444,0.006824309895903867,-0.0002793252009251313,0.0004057527907856623
1589551231.0655086,1.50078891966759,-4.029605540166205,8.778027700831025,0.29444444444444445,0.5066666666666667,-0.6644444444444444,0.003444607919154183,0.003100376775824553,0.0020956037791605045
1589551231.0755086,1.5168052317108716,-4.043194768289129,8.763610463421742,0.30666666666666664,0.5133333333333333,-0.6577777777777778,-0.005802649071754774,-0.0034467399271256153,0.0009165832028602089
1589551231.0855086,1.5015243369280094,-4.058475663071991,8.733048673856018,0.30666666666666664,0.5133333333333333,-0.6577777777777778,-0.007469536113078327,-0.004280183447787391,8.313968219843303e-05
1589551231.0955086,1.507622537144703,-4.044754925710595,8.638529554263565,0.30666666666666664,0.5133333333333333,-0.6577777777777778,-0.00264687658257649,-0.002700343498352923,0.0008314898158164503
1589551231.1055086,1.51,-4.02,8.743972551119573,0.30666666666666664,0.5133333333333333,-0.6577777777777778,0.004189987888134976,0.00017333524185084796,-0.000917495540645608
1589551231.1155086,1.51,-4.02,8.78556533983856,0.30666666666666664,0.5133333333333333,-0.6577777777777778,0.0023751601175533194,0.0019881630124325045,0.0008973322299360485
1589551231.1255085,1.492418559883171,-4.016046399707927,8.786372160175242,0.3144444444444445,0.5066666666666667,-0.6433333333333333,-0.0018823026534586368,-0.0009589188040027591,-0.0009589188040027591
1589551231.1355085,1.5063394679632918,-4.050848669908229,8.765490798055062,0.3144444444444445,0.5066666666666667,-0.6433333333333333,-0.006437909169688463,-0.0001996510512977882,-0.0001996510512977882
1589551231.1455085,1.5242029283963838,-4.057681171358553,8.638115900245063,0.3144444444444445,0.5066666666666667,-0.6433333333333333,-0.0002055234009979629,0.003272492347489368,0.0
1589551231.1555085,1.4810152597870632,-4.040406103914825,8.69857863629811,0.3144444444444445,0.5066666666666667,-0.6433333333333333,0.006389937967064434,0.003272492347489368,0.0
1589551231.1655085,1.4975690631434455,-4.022430936856554,8.735138126286891,0.3144444444444445,0.5066666666666667,-0.6433333333333333,0.005586740950154024,0.0003977611130152334,0.0028747312344741347
1589551231.1755085,1.485249761115742,-4.027375119442129,8.784250716652775,0.3054304095707312,0.5115834129614193,-0.6433333333333333,0.0006271495252448264,-0.0008045007312062422,0.0016634908850768834
1589551231.1855085,1.5004938812931,-4.06,8.697036712241399,0.3022222222222222,0.5133333333333333,-0.6433333333333333,-0.008511149893006588,-0.002127787473251647,-5.387409174126476e-05
1589551231.1955085,1.5088533902020966,-4.06,8.64687965878742,0.3022222222222222,0.5133333333333333,-0.6433333333333333,-0.004863626035211807,-0.0012159065088029517,-0.0009657550561899603
1589551231.2055085,1.511044872280755,-4.0389551277192455,8.683583339649815,0.3022222222222222,0.5133333333333333,-0.6433333333333333,-0.0014977942564180474,0.001090830782496456,0.0012048086672589334
1589551231.2155085,1.518992837110589,-4.031007162889411,8.786906882437657,0.3022222222222222,0.5133333333333333,-0.6433333333333333,0.003704136560331235,0.001090830782496456,0.0020717971367171474
1589551231.2255085,1.52,-4.020609304320699,8.788172087037903,0.3144444444444445,0.4988888888888889,-0.65,-0.0012237603642817245,-6.646479089263424e-05,0.00013292958178526848
1589551231.2355084,1.52,-4.0287872406800815,8.763638277959757,0.3144444444444445,0.4988888888888889,-0.65,-0.0030079093079039697,-0.0009585392627037568,0.0019170785254075135
1589551231.2455084,1.5122381800799582,-4.053285459760125,8.635810881279331,0.3144444444444445,0.4988888888888889,-0.65,-0.005812541976582073,-0.0019375139921940245,0.0004882951455977749
1589551231.2555084,1.51,-4.049033393735439,8.712899818793684,0.3144444444444445,0.4988888888888889,-0.65,0.0024979827253741,0.0001054403867937294,0.001090830782496456
1589551231.2655084,1.51,-4.041794977996376,8.734615066010873,0.3144444444444445,0.4988888888888889,-0.65,0.004866748736777095,0.0008950290572613945,0.001090830782496456
1589551231.2755084,1.49,-4.021412085062241,8.774351659751037,0.3022222222222222,0.52,-0.6433333333333333,0.003747184788627608,-0.001167848075166233,-0.001013813489826679
1589551231.2855084,1.49,-4.035008752593361,8.719964989626556,0.3022222222222222,0.52,-0.6433333333333333,-0.0021854806042988515,-0.0019094312492820404,-0.00027223031571087155
1589551231.2955084,1.51,-4.050245550138048,8.620613875345121,0.3022222222222222,0.52,-0.6433333333333333,-0.005413975865097842,-0.0010774381000349768,0.0011176161474194142
1589551231.3055084,1.51,-4.066671562004347,8.661678905010868,0.3022222222222222,0.52,-0.6433333333333333,-0.0027262759584862667,-0.00018153813116445166,0.0029094160851604652
1589551231.3155084,1.501666500548191,-4.044999501644573,8.761668493969898,0.3022222222222222,0.52,-0.6433333333333333,0.002363557298982405,0.0009090437727950632,0.0005453610291041786
1589551231.3255084,1.4906042100393246,-4.01,8.789395789960675,0.3022222222222222,0.52,-0.6644444444444444,0.003140674165491647,0.00198393429199633,0.0011237853279958863
1589551231.3355083,1.5099956545604245,-4.010017381758302,8.769947854725093,0.3022222222222222,0.52,-0.6644444444444444,-0.0010922528242721923,-0.004361901088210087,0.0021821355789181573
1589551231.3455083,1.500402982343793,-4.048388070624828,8.654835788125515,0.3022222222222222,0.52,-0.6644444444444444,-0.00423144746636227,-0.0012227064461200095,0.0032285337929481833
1589551231.3555083,1.5194985239501,-4.0394985239501,8.7025073802495,0.3022222222222222,0.52,-0.6644444444444444,-0.0008173180265386264,0.00010940510238313184,-0.0009814256801133241
1589551231.3655083,1.5115101418912484,-4.031510141891249,8.742449290543757,0.3022222222222222,0.52,-0.6644444444444444,0.00353966849953021,0.0018521997128106665,0.0007613689303142105
1589551231.3755083,1.4910729215048768,-4.029463539247562,8.780536460752439,0.29444444444444445,0.5255555555555556,-0.6577777777777778,0.0010323119922603478,-0.0001755563707083242,0.0020061051942845878
1589551231.3855083,1.5073072457036694,-4.0213463771481655,8.788653622851834,0.29444444444444445,0.5255555555555556,-0.6577777777777778,0.00014686696380685556,-0.0028318914560688012,-0.0006502298910758893
1589551231.3955083,1.5023203898412978,-4.058398050793511,8.674805847619465,0.29444444444444445,0.5255555555555556,-0.6577777777777778,-0.0033508620634739787,-0.0015970613157523786,-0.0019285462983649505
1589551231.4055083,1.5098822161371395,-4.059646648411418,8.68035335158858,0.29444444444444445,0.5255555555555556,-0.6577777777777778,-0.003221099442173507,-0.0021688133386639466,0.002143116886006016
1589551231.4155083,1.5020156419970743,-4.036046925991222,8.703953074008778,0.29444444444444445,0.5255555555555556,-0.6577777777777778,0.00021134104773600643,-0.0013107032161865683,-0.0004312134814261192
1589551231.4255083,1.5,-4.03,8.770539491558315,0.29444444444444445,0.5207508340033083,-0.6693091095031712,0.0029776405238820256,0.0017393838295818983,0.0017393838295818983
1589551231.4355083,1.5063727951036687,-4.03,8.77362720489633,0.29444444444444445,0.52,-0.6711111111111111,0.002577328240526905,0.0014864974580304489,9.616924410552237e-05
1589551231.4455082,1.51,-4.03,8.695768606813596,0.29444444444444445,0.52,-0.6711111111111111,-0.0023168878080808476,0.0019905406571112077,0.0007085889667330478
1589551231.4555082,1.51,-4.049439838325215,8.68,0.29444444444444445,0.52,-0.6711111111111111,-0.003272492347489368,-0.000999174542791927,3.055207990150977e-05
1589551231.4655082,1.51,-4.05,8.711095046039114,0.29444444444444445,0.52,-0.6711111111111111,-0.0007285348422935963,-0.0002428449474311988,0.0016959716701305143
1589551231.4755082,1.5166830939226519,-4.043316906077348,8.76009856353591,0.3026126703499079,0.52,-0.6666557151626764,0.002187037371943116,0.0,0.0007236366503641683
1589551231.4855082,1.5103995722687578,-4.04,8.760799144537515,0.30666666666666664,0.52,-0.6644444444444444,0.003272492347489368,0.0020944884188743213,-0.0010472442094371607
1589551231.4955082,1.5028256590509665,-4.04,8.688256590509667,0.30666666666666664,0.52,-0.6644444444444444,0.00014209556695718353,-0.00016613602040622694,0.001256966802902683
1589551231.5055082,1.509865735972842,-4.04,8.699462943891367,0.30666666666666664,0.52,-0.6644444444444444,-0.004319385329844074,-1.4645933380583306e-05,0.0011054767158770393
1589551231.5155082,1.5177914949419258,-4.055582989883852,8.731165979767704,0.30666666666666664,0.52,-0.6644444444444444,0.0007361983846050453,0.0008499202524318115,0.00024091053006464452
1589551231.5255082,1.510861593478195,-4.050861593478195,8.74,0.30666666666666664,0.5139077289854633,-0.6583521734299078,0.001184816051297784,-0.0018997057585889278,0.0029905365410853838
1589551231.5355082,1.5005225906534807,-4.031045181306961,8.721045181306962,0.30666666666666664,0.5133333333333333,-0.6577777777777778,0.001090830782496456,0.0009198133910579484,0.0012048423767887944
1589551231.5455081,1.5183333333333333,-4.039166666666667,8.665000000000001,0.30666666666666664,0.5133333333333333,-0.6577777777777778,0.001090830782496456,-0.0009090256520803799,0.001090830782496456
1589551231.5555081,1.5288697060865541,-4.0488697060865535,8.677739412173107,0.30666666666666664,0.5133333333333333,-0.6577777777777778,-0.0027793085898672716,0.000844238903685408,0.001090830782496456
1589551231.5655081,1.519395656279509,-4.05,8.701208687440982,0.30666666666666664,0.5133333333333333,-0.6577777777777778,-0.0026941151195651377,0.001090830782496456,0.001090830782496456
1589551231.575508,1.51,-4.0428570308211125,8.741428907536664,0.302301518835124,0.5157143230596293,-0.6549999564304325,-0.0006233074332420341,0.001090830782496456,0.0007012422495587364
1589551231.585508,1.5021312636668822,-4.045737472666236,8.78,0.29444444444444445,0.52,-0.65,0.0038983535272955365,0.0028075227447990807,-0.0008583459811513122
1589551231.595508,1.5,-4.042695933263817,8.699655265901981,0.29444444444444445,0.52,-0.65,0.0003795727133671196,0.0024757422641656273,-0.001090830782496456
1589551231.605508,1.526692833706418,-4.048897611235472,8.696692833706418,0.29444444444444445,0.52,-0.65,-0.004002567250398437,-0.002671232548177056,-0.0020614096051304494
1589551231.615508,1.507666129564559,-4.05,8.722333870435442,0.29444444444444445,0.52,-0.65,-0.004363323129985824,-0.0008362450111627138,-0.0013695791195506939
1589551231.625508,1.5,-4.044278102509046,8.735721897490954,0.29444444444444445,0.5123708033453949,-0.641735036957511,-0.0018666743630171173,-0.0006241621917421767,-0.0004666685907542793
1589551231.635508,1.5,-4.031900626536601,8.772397493853596,0.29444444444444445,0.5066666666666667,-0.6355555555555555,0.001767009178562147,-0.00020732619321538247,0.0008835045892810735
1589551231.645508,1.5064294491268757,-4.03,8.722134957858119,0.29444444444444445,0.5066666666666667,-0.6355555555555555,0.0014803174627838235,0.0,0.00038948668028736754
1589551231.655508,1.51,-4.0605078194896755,8.697626954872419,0.29444444444444445,0.5066666666666667,-0.6355555555555555,-0.0014050843629672888,0.0,-0.0008319717151545815
1589551231.665508,1.5036273731321737,-4.057254746264347,8.706372626867827,0.29444444444444445,0.5066666666666667,-0.6355555555555555,-0.002181661564992912,-0.0013902915105578162,0.0002994607280613602
1589551231.675508,1.5,-4.05,8.748694419840566,0.30390308040547187,0.5169851786241512,-0.6415746875307549,-0.000493298994075634,0.00035088229138300524,0.001090830782496456
1589551231.685508,1.5,-4.058672780040484,8.742654439919031,0.30666666666666664,0.52,-0.6433333333333333,0.0009460535437981726,0.001090830782496456,0.00014477723869828337
1589551231.695508,1.5090981829058552,-4.050901817094145,8.676312719659014,0.30666666666666664,0.52,-0.6433333333333333,0.001090830782496456,9.837298464747814e-05,0.0
1589551231.705508,1.51,-4.041980204235373,8.69405938729388,0.30666666666666664,0.52,-0.6433333333333333,-0.001533641244320528,-0.0008748240089389946,-0.0008748240089389946
1589551231.715508,1.4992966008139592,-4.05070339918604,8.726758497965102,0.30666666666666664,0.52,-0.6433333333333333,-0.002181661564992912,-0.0005070509170224171,-0.001090830782496456
1589551231.725508,1.49,-4.055660472759449,8.736981418278347,0.3100418545204287,0.52,-0.6462263514937008,-0.0026550305545404197,0.0009467379790950154,-0.001090830782496456
1589551231.735508,1.4976852473695992,-4.034629505260802,8.773796731587195,0.3144444444444445,0.52,-0.65,8.082941325415847e-05,0.0013433311248070303,0.0014241605380611894
1589551231.745508,1.4860313946468102,-4.036984302676595,8.720156973234051,0.3144444444444445,0.52,-0.65,0.002614569253276875,0.002614569253276875,0.0014197923296027026
1589551231.755508,1.5034914456676445,-4.04,8.72132192755686,0.3144444444444445,0.52,-0.65,-0.00014419992712526135,-0.00014419992712526135,-0.0006175153548108588
1589551231.765508,1.5228418699944124,-4.033579065002794,8.742841869994413,0.3144444444444445,0.52,-0.65,-0.0024916614919687162,-0.0031920768467048463,-0.00039041542776032593
1589551231.775508,1.5164351511051868,-4.039043232596542,8.75,0.3054012118479023,0.5260288217310282,-0.6469855891344859,-0.004258955996447725,-0.0023903958320691094,0.0004932318244791786
1589551231.785508,1.5110746406334077,-4.0444626796832965,8.733388039049888,0.29444444444444445,0.5333333333333333,-0.6433333333333333,-0.002434014185480504,0.0,-0.0007212530537046096
1589551231.795508,1.508975393450369,-4.0455123032748155,8.686926180351108,0.29444444444444445,0.5333333333333333,-0.6433333333333333,0.0,-0.0012025980189249628,-0.0003777645366054676
1589551231.805508,1.4930120725976341,-4.0360241451952685,8.687951709609463,0.29444444444444445,0.5333333333333333,-0.6433333333333333,0.0007622646316351228,-0.0014193969333577891,0.00032856615086133316
1589551231.815508,1.5031164240374018,-4.036558212018701,8.719674636056103,0.29444444444444445,0.5333333333333333,-0.6433333333333333,-0.0003399491271309607,-0.00037544082768274764,0.0
1589551231.8255079,1.5029579836898712,-4.04,8.744084032620258,0.3030513532679352,0.5239439782531615,-0.6480280108734192,-0.001090830782496456,-0.0015363296323861269,0.0
1589551231.8355079,1.5,-4.04,8.728070187487123,0.30666666666666664,0.52,-0.65,0.00010525494467464596,-0.001583618701407361,0.0
1589551231.8455079,1.481235294117647,-4.04,8.684980392156863,0.30666666666666664,0.52,-0.65,0.00245543870256065,-0.00040852682246435897,0.000682303960032097
1589551231.8555079,1.500333271271644,-4.032416682182089,8.723083224725377,0.30666666666666664,0.52,-0.65,-3.635425620310273e-05,0.0,-0.0013908041702728974
1589551231.8655078,1.51,-4.039078460985257,8.74,0.30666666666666664,0.52,-0.65,-0.002576290487558189,0.0009903064700411551,-0.0016865083299723344
1589551231.8755078,1.51,-4.051351296252251,8.73864870374775,0.30666666666666664,0.52,-0.6519518723643626,-0.003921112465517569,0.002329065119815664,-0.0012382343373192077
1589551231.8855078,1.5158457120572908,-4.048308575885418,8.747537136171871,0.30666666666666664,0.52,-0.6644444444444444,-0.001090830782496456,0.0013594875501783392,0.0003690114980884596
1589551231.8955078,1.5020569902048087,-4.051962006530127,8.700189967349361,0.30666666666666664,0.52,-0.6644444444444444,0.00021402171185222842,0.0006524262471743422,0.00022438282346988556
1589551231.9055078,1.503134790528233,-4.0468652094717665,8.6994043715847,0.30666666666666664,0.52,-0.6644444444444444,0.0003744390910044756,0.001090830782496456,-0.001090830782496456
1589551231.9155078,1.516059335443038,-4.04,8.738178006329115,0.30666666666666664,0.52,-0.6644444444444444,0.0,0.001090830782496456,-0.002412772707043981
1589551231.9255078,1.508028163908875,-4.043990612030375,8.75,0.30666666666666664,0.51733959197975,-0.6644444444444444,-0.0013059247331201117,-0.0006504021949970261,-0.0019665676143692567
1589551231.9355078,1.496634444738134,-4.046682777630933,8.743365555261866,0.30666666666666664,0.5133333333333333,-0.6644444444444444,-0.0029106395202329635,-0.003272492347489368,0.0
1589551231.9455078,1.51,-4.044437875237955,8.69893487333431,0.30666666666666664,0.5133333333333333,-0.6644444444444444,-0.0026657586568370065,-0.0027883952556452735,-0.001452291275532284
1589551231.9555078,1.505311967545639,-4.040623935091278,8.674064097363082,0.30666666666666664,0.5133333333333333,-0.6644444444444444,-0.0022497223253774776,-0.002181661564992912,-0.001738337314321533
1589551231.9655077,1.5,-4.024683485984925,8.705949542045225,0.30666666666666664,0.5133333333333333,-0.6644444444444444,-0.001090830782496456,-0.0004418364220277096,-0.0005799417143217341
1589551231.9755077,1.5053009845739393,-4.035902953721817,8.735902953721817,0.31078965466861946,0.505676355615421,-0.660910454728485,-0.0016690784975756361,0.0005125830674172757,6.566464766190458e-05
1589551231.9855077,1.51,-4.05,8.77076571892358,0.3144444444444445,0.4988888888888889,-0.6577777777777778,-0.002181661564992912,-0.0015101256948340364,0.00033576793507943776
1589551231.9955077,1.4959321313951293,-4.028898197092694,8.695592788370776,0.3144444444444445,0.4988888888888889,-0.6577777777777778,-0.0006470951531620708,-0.0014143783590774913,0.0
1589551232.0055077,1.503006265358985,-4.026503132679492,8.68601253071797,0.3144444444444445,0.4988888888888889,-0.6577777777777778,0.0014187634618898313,0.0003279326793933753,0.0007093817309449156
1589551232.0155077,1.5047520321123933,-4.0352479678876065,8.726239839438033,0.3144444444444445,0.4988888888888889,-0.6577777777777778,0.0016091970732574914,0.0005183662907610354,0.0005183662907610354
1589551232.0255077,1.4892524491777235,-4.0346262245888616,8.75,0.31026484134689253,0.5102335258679586,-0.6535981746802259,-0.0006677331085111872,0.0,0.0
1589551232.0355077,1.4937030261851252,-4.043703026185125,8.708890921444624,0.30666666666666664,0.52,-0.65,-0.0036764298426018643,-0.0029895365552179043,-0.0014947682776089522
1589551232.0455077,1.5,-4.055026819794522,8.664865901027392,0.30666666666666664,0.52,-0.65,-0.00271830019900779,-0.003266641176000468,-0.001633320588000234
1589551232.0555077,1.5043932504440498,-4.046820248667851,8.66196625222025,0.30666666666666664,0.52,-0.65,-0.00013237221857932127,-0.002181661564992912,-0.0015700600644550232
1589551232.0655077,1.5147907700760004,-4.034790770076,8.718744620456002,0.30666666666666664,0.52,-0.65,4.564688834363898e-05,-0.001136477670840095,-0.0006138857237636861
1589551232.0755076,1.5137741288254423,-4.04,8.756225871174557,0.3090878387901058,0.5179247096084807,-0.6455035374850416,-0.0004116935899899564,-0.0003395685962532498,0.001090830782496456
1589551232.0855076,1.5,-4.04,8.757537826685006,0.3144444444444445,0.5133333333333333,-0.6355555555555555,0.0006376933735364426,-0.001090830782496456,0.001090830782496456
1589551232.0955076,1.4960325438610445,-4.043967456138955,8.7042928947494,0.3144444444444445,0.5133333333333333,-0.6355555555555555,-0.00043278232845773117,-0.00022526612558099364,-0.00020751620287673758
1589551232.1055076,1.4928046779542679,-4.048597661022866,8.659816372839938,0.3144444444444445,0.5133333333333333,-0.6355555555555555,-0.0006319164253707868,0.001396773687246902,-0.002334633017368135
1589551232.1155076,1.51,-4.037120549448722,8.722879450551279,0.3144444444444445,0.5133333333333333,-0.6355555555555555,0.002495760894793955,0.0026442936878872817,-0.0020160950282851952
1589551232.1255076,1.51,-4.030145510784428,8.729854489215572,0.3144444444444445,0.5133333333333333,-0.6355555555555555,0.0032566195832054575,0.001122576311064277,0.0010273397253608135
1589551232.1355076,1.5156897343391276,-4.018534601508692,8.762844867169564,0.3211111111111111,0.52,-0.6433333333333333,0.001090830782496456,-0.002651838611354618,-0.0015610078288581623
1589551232.1455076,1.53,-4.036702671769377,8.727134733001895,0.3211111111111111,0.52,-0.6433333333333333,1.1782642308878289e-05,-0.0018101962092881745,-0.0007193654267917183
