time,acc_x,acc_y,acc_z,mag_x,mag_y,mag_z,gyr_x,gyr_y,gyr_z
1589551320.1230636,0.17,-4.22,8.77,0.4666666666666667,0.2966666666666667,-0.6488888888888888,-0.004363323129985824,-0.004363323129985824,0.009817477042468105
1589551320.1330636,0.14890650931218885,-4.205937672874793,8.791093490687812,0.4666666666666667,0.2966666666666667,-0.6488888888888888,-0.006664266025242501,-0.0058972850601569414,0.011351438972639221
1589551320.1430635,0.14492090567570312,-4.204920905675703,8.809841811351406,0.46010545909906253,0.2966666666666667,-0.6592774675375954,-0.007635815477475192,-0.007081772233860584,0.01038877599081547
1589551320.1530635,0.1380248965590409,-4.227962655161439,8.796049793118081,0.4533333333333333,0.2966666666666667,-0.67,-0.006982674904626321,-0.0050232531860797125,0.011339208551367127
1589551320.1630635,0.1599248870371457,-4.269924887037146,8.732120180740566,0.4533333333333333,0.2966666666666667,-0.67,-0.005892124936121781,-8.193553204597238e-06,0.012437109631100517
1589551320.1730635,0.14872745856756955,-4.243091187851355,8.707818135358108,0.4533333333333333,0.2966666666666667,-0.67,-0.002895675099377958,0.00388731410706246,0.011999138607461015
1589551320.1830635,0.13363163113534954,-4.210894893406049,8.748210213187903,0.4533333333333333,0.2966666666666667,-0.67,-0.0007922990066223639,0.004363323129985824,0.00783105093234937
1589551320.1930635,0.13,-4.2,8.808911078029121,0.45852147707054935,0.28715506981510397,-0.6535708781654825,0.0008489080338857174,0.002665507062214389,0.002907429810825128
1589551320.2030635,0.13702826210602703,-4.1929717378939735,8.827028262106028,0.46,0.28444444444444444,-0.6488888888888888,-0.0004424981480450742,0.002181661564992912,0.0006483326344513818
1589551320.2130635,0.14,-4.181441395393413,8.752972558540716,0.46,0.28444444444444444,-0.6488888888888888,-0.0029580286545127198,-0.004353530987064012,0.0009335989360081319
1589551320.2230635,0.15989458578414004,-4.1932630571894265,8.79968375735242,0.46,0.28444444444444444,-0.6488888888888888,-0.004719267452713124,-0.0061775414650941576,0.001814218335108334
1589551320.2330635,0.17784588800875947,-4.19607705599562,8.849614720021899,0.46,0.28444444444444444,-0.6488888888888888,-0.0037424466812873477,-0.001837789809192674,0.002609588372791645
1589551320.2430634,0.1749260621234645,-4.19,8.864926062123466,0.46,0.28918994340557597,-0.6469348599048935,5.376914114488393e-06,0.00819467315400964,0.00245033657503116
1589551320.2530634,0.11371446936151978,-4.17371446936152,8.730429581488359,0.46,0.3033333333333333,-0.6411111111111111,0.0014960165345150292,0.01547422383095967,0.0
1589551320.2630634,0.0731991185897436,-4.17,8.608797576121795,0.46,0.3033333333333333,-0.6411111111111111,-0.002923522644034472,0.009250100815153992,0.003010765069898196
1589551320.2730634,0.06275123466028135,-4.148253703980844,8.6,0.46,0.3033333333333333,-0.6411111111111111,-0.012761103988679544,-0.005506271201813616,0.004853927621021064
1589551320.2830634,0.11072690506598552,-4.168986802894849,8.708700510855683,0.46,0.3033333333333333,-0.6411111111111111,-0.02663886322470086,-0.032251603221569065,0.006244646334578743
1589551320.2930634,0.15208436724565758,-4.18,8.794168734491315,0.4667480011028398,0.29290460435621724,-0.6380438378825475,-0.029941004219812776,-0.04036073895236887,0.008351757765242718
1589551320.3030634,0.15078228086710652,-4.160782280867107,8.797970468111844,0.4722222222222222,0.28444444444444444,-0.6355555555555555,-0.025259775207498048,-0.031276651125905296,0.010516253029119148
1589551320.3130634,0.14792091405381902,-4.173762742161457,8.740395429730905,0.4722222222222222,0.28444444444444444,-0.6355555555555555,-0.0203153333698012,-0.027908014154997853,0.011772345512506017
1589551320.3230634,0.12309008718114303,-4.112725217952858,8.743454956409428,0.4722222222222222,0.28444444444444444,-0.6355555555555555,-0.016699537959225692,-0.02982930840776311,0.014200700701743903
1589551320.3330634,0.11503001153537842,-4.054849942323108,8.775150057676893,0.4722222222222222,0.28444444444444444,-0.6355555555555555,-0.018015076664501903,-0.030543261909900768,0.016917698380681294
1589551320.3430634,0.1317920353982301,-3.9769358407079647,8.817688053097346,0.4564995083579154,0.2916506882989184,-0.6434169124877089,-0.02394156366760197,-0.03182957342996849,0.0211167463425752
1589551320.3530633,0.1286469754605803,-3.911617438651451,8.795940926381741,0.4455555555555555,0.2966666666666667,-0.6488888888888888,-0.02617993877991494,-0.034582557771199174,0.02414586929662924
1589551320.3630633,0.1266251059621362,-3.8171238344165017,8.776625105962136,0.4455555555555555,0.2966666666666667,-0.6488888888888888,-0.0334068083007139,-0.03961085058278253,0.02581179494949838
1589551320.3730633,0.1360760918505178,-3.7617717244484465,8.786076091850518,0.4455555555555555,0.2966666666666667,-0.6488888888888888,-0.03244865498540504,-0.04078877093208326,0.02617993877991494
1589551320.3830633,0.12131652992921246,-3.706405236501496,8.79622782335693,0.4455555555555555,0.2966666666666667,-0.6488888888888888,-0.02809373084226656,-0.03900203866723112,0.02685928892248382
1589551320.3930633,-0.07397530786431923,-3.3396456804510093,8.855192592359295,0.45271015086139016,0.3079096021472639,-0.6488888888888888,-0.0282741992075997,-0.03617221809699933,0.04533250317580095
1589551320.4030633,-0.05592251113643427,-3.3137863876515072,8.822136123484926,0.4533333333333333,0.3088888888888889,-0.6488888888888888,-0.02712250788348926,-0.033932261720018723,0.0626008948253164
1589551320.4130633,0.042867285853503315,-3.358104254092003,8.679028460054493,0.4533333333333333,0.3088888888888889,-0.6488888888888888,-0.03132390199356199,-0.03469979124066311,0.10654210920429816
1589551320.4230633,0.14594137461477819,-3.388811725077044,8.696288611768079,0.4533333333333333,0.3088888888888889,-0.6488888888888888,-0.05770630088976504,-0.05940735740671116,0.1295874994418372
1589551320.4330633,0.13559376075237986,-3.148773483197614,9.058831976144052,0.4533333333333333,0.3088888888888889,-0.6488888888888888,-0.08272971251357782,-0.07600917399889509,0.10009097439656683
1589551320.4430633,-0.10708636231462633,-2.4882388291169915,8.991004167878259,0.4462981271472111,0.292808417606324,-0.6368285354269652,-0.030038711702081326,-0.02011708923742083,0.06041766702712221
1589551320.4530632,-0.09214683780267578,-2.498135691955184,8.583897745587294,0.4455555555555555,0.2911111111111111,-0.6355555555555555,0.03711298670379318,0.03206556171197921,0.16021668993069982
1589551320.4630632,-0.04206923215712555,-2.573103074980024,8.558619996391474,0.4455555555555555,0.2911111111111111,-0.6355555555555555,0.002934336773061326,-0.011848266169414888,0.3006547763353815
1589551320.4730632,0.038413737805692905,-2.6273165842576507,8.677072029934518,0.4455555555555555,0.2911111111111111,-0.6355555555555555,-0.012823930878924993,-0.038006043024309905,0.4081559920769744
1589551320.4830632,0.12204547416397632,-2.6347107366676448,8.726177684166911,0.4455555555555555,0.2911111111111111,-0.6355555555555555,0.000509360706009385,-0.030033901203891378,0.4827151730883582
1589551320.4930632,0.20428372675416223,-2.61,8.739997217455826,0.4455555555555555,0.2911111111111111,-0.6431735431577754,0.014181710757905159,-0.01698479630528394,0.5390251554918782
1589551320.5030632,0.24467698163747223,-2.666123779649667,8.761938110175166,0.4455555555555555,0.2911111111111111,-0.6622222222222223,-0.001161302457127831,-0.03694730325561676,0.5564646424224553
1589551320.5130632,0.24175743530320587,-2.791819235225956,8.771212823483971,0.4455555555555555,0.2911111111111111,-0.6622222222222223,0.0031469351542935614,-0.031627351366588057,0.5456003563751172
1589551320.5230632,0.2253257038988018,-2.856628519494009,8.853371480505992,0.4455555555555555,0.2911111111111111,-0.6622222222222223,0.003556722618523055,-0.0248048777263848,0.5196493142418035
1589551320.5330632,0.2160269077149464,-2.802188354004625,8.85616144628968,0.4455555555555555,0.2911111111111111,-0.6622222222222223,0.00020936062737424111,-0.027285445444286485,0.4944290845076442
1589551320.5430632,0.18329833984375,-2.8200787353515624,8.880078735351562,0.4507475450303819,0.2911111111111111,-0.6533216688368055,-0.000731037719226751,-0.024726452035976943,0.45957664930890296
1589551320.5530632,0.19223715622612683,-2.723989448051948,8.865525687547747,0.4533333333333333,0.2911111111111111,-0.6488888888888888,-0.0005645299298834552,-0.0226634105447543,0.4227396104092338
1589551320.5630631,0.10789652911440598,-2.844470483724275,8.836842361302057,0.4533333333333333,0.2911111111111111,-0.6488888888888888,0.008611654390009035,-0.01176968552825191,0.4055308500419818
1589551320.5730631,0.019121123185531844,-2.998131461357447,8.94582348430766,0.4533333333333333,0.2911111111111111,-0.6488888888888888,0.016805964155216013,-0.0035721888827719007,0.4014257279586957
1589551320.5830631,0.032030719771387745,-2.8965386676192173,8.679692802286123,0.4533333333333333,0.2911111111111111,-0.6488888888888888,0.009809099524402851,-0.009752015505958224,0.40783141206258944
1589551320.593063,0.07440534642662303,-2.837621385706492,8.731322967812329,0.45813511547554103,0.2951125962296175,-0.6536906710310966,-0.0009610974979442316,-0.03207625705213256,0.4220674539892339
1589551320.603063,0.02421882305791196,-3.027343530826264,9.385936811168259,0.46,0.2966666666666667,-0.6555555555555556,-0.02217451831532372,-0.05469491557243185,0.4236854958909803
1589551320.613063,0.01,-2.8668969632674712,9.244360164434426,0.46,0.2966666666666667,-0.6555555555555556,0.0059618871105412315,-0.013012145896921658,0.44381494059664317
1589551320.623063,-0.0013463645274750628,-2.8297122758461626,8.856340886813124,0.46,0.2966666666666667,-0.6555555555555556,0.01854412330243975,-0.006775944196410263,0.46459975583432817
1589551320.633063,-0.01,-2.9181015706147115,8.636942022599227,0.46,0.2966666666666667,-0.6555555555555556,0.01487481383340234,-0.009934453545441427,0.4845185980287876
1589551320.643063,-0.01,-3.043517358597463,8.630341191652766,0.46,0.2966666666666667,-0.6555555555555556,0.006954385288302448,0.0015861697928856895,0.506119766788151
1589551320.653063,-0.04,-3.172368220015279,9.103025210084034,0.4533333333333333,0.27,-0.6555555555555556,-0.004211537770640303,-0.03598705870374535,0.5262725788695931
1589551320.663063,-0.04656659537235077,-3.165215632899086,8.67461520513319,0.4533333333333333,0.27,-0.6555555555555556,0.01681885871932043,-0.0011706228377900939,0.5504295223060792
1589551320.673063,-0.051223251925505614,-3.3029511375157865,8.748134794286628,0.4533333333333333,0.27,-0.6555555555555556,0.0034059284329983263,-0.03065335589698494,0.5654739956881158
1589551320.683063,-0.05781796366129585,-3.2798902982516283,8.693124785738773,0.4533333333333333,0.27,-0.6555555555555556,0.00023802324067843461,-0.030130601036234383,0.5739276960173203
1589551320.693063,-0.1264592021402156,-3.3426555983948383,8.89593359036903,0.4619417560608842,0.26442984411746706,-0.6651767338981124,-0.004266762847484564,-0.04461316796236214,0.5821173967231025
1589551320.703063,-0.18058073601897492,-3.368194048104362,8.864001408294111,0.4722222222222222,0.2577777777777778,-0.6766666666666666,-0.0002603472645472029,-0.035807370404582366,0.5961003950238668
1589551320.713063,-0.19,-3.353310814367685,8.835582129884715,0.4722222222222222,0.2577777777777778,-0.6766666666666666,0.007720859278325035,-0.027688619252384864,0.6138332725899978
1589551320.723063,-0.19,-3.299369696569485,8.726218179416911,0.4722222222222222,0.2577777777777778,-0.6766666666666666,0.007331044120738473,-0.025973672464619367,0.63257409257409
1589551320.733063,-0.19928540633757275,-3.296071890493641,8.808570812675145,0.4722222222222222,0.2577777777777778,-0.6766666666666666,0.004791813406641174,-0.029452431127404314,0.6521996476747692
1589551320.743063,-0.21473012527807048,-3.270539749443859,8.872571127502635,0.4822080422537044,0.2577777777777778,-0.6803456529940548,0.0055130314433019575,-0.03151633763075787,0.6714218642404398
1589551320.753063,-0.23141778910813576,-3.225746632675593,8.897164421783728,0.4933333333333334,0.2577777777777778,-0.6844444444444444,0.004986066921346187,-0.030702035300588314,0.6942241148874922
1589551320.763063,-0.28198106708172793,-3.220990533540864,8.754056798754817,0.4933333333333334,0.2577777777777778,-0.6844444444444444,0.006026581915667248,-0.031223740360832697,0.7144619867707285
1589551320.773063,-0.29238730559722115,-3.2630105786689825,8.690623273071761,0.4933333333333334,0.2577777777777778,-0.6844444444444444,0.00855303649779332,-0.0313056895038719,0.7388700151480526
1589551320.783063,-0.26228129689844926,-3.271749624812406,8.77737556278139,0.4933333333333334,0.2577777777777778,-0.6844444444444444,0.01090830782496456,-0.029854705673413116,0.7646555133529914
1589551320.793063,-0.2688381690845423,-3.219294647323662,8.856058029014507,0.4933333333333334,0.2577777777777778,-0.6844444444444444,0.01090830782496456,-0.03414616848390419,0.7896890464141894
1589551320.803063,-0.3642142447966393,-3.2622321940042007,8.910250143211764,0.48,0.25,-0.6977777777777778,0.009357774247553137,-0.03294113167658001,0.8589337388455609
1589551320.813063,-0.3701708928359508,-3.2845300447011354,8.795213616044938,0.48,0.25,-0.6977777777777778,0.009789514767573618,-0.03764764313357497,0.9263764666026454
1589551320.823063,-0.34395205177231947,-3.34,8.79116781879688,0.48,0.25,-0.6977777777777778,0.011440647365532765,-0.03665714463215292,0.9774139020557832
1589551320.833063,-0.3286760470120841,-3.3320562820725046,8.814844893229598,0.48,0.25,-0.6977777777777778,0.008646761549132973,-0.037890235652616594,1.022944271294862
1589551320.8430629,-0.3318541674513201,-3.32445312794245,8.74186979774773,0.48197569457522,0.2463778932787633,-0.7020584493574212,0.014301814148192819,-0.039553410780494104,1.0618641122728536
1589551320.8530629,-0.3562483097725876,-3.428124154886294,8.971255070682238,0.4866666666666667,0.23777777777777775,-0.7122222222222222,0.008315925339653682,-0.051679767697651396,1.0719451292612543
1589551320.8630629,-0.36398481699051066,-3.4319924084952556,8.944048079530049,0.4866666666666667,0.23777777777777775,-0.7122222222222222,-0.0015310275841234943,-0.05803827039665618,1.060508999161879
1589551320.8730628,-0.3967768839028711,-3.4177688390287106,8.804215071222968,0.4866666666666667,0.23777777777777775,-0.7122222222222222,0.008690577753767617,-0.043984818725289046,1.0477294811530486
1589551320.8830628,-0.43148716545131083,-3.391487165451311,8.71773220464898,0.4866666666666667,0.23777777777777775,-0.7122222222222222,0.0104054691899333,-0.0422098689071984,1.0298374946286608
1589551320.8930628,-0.4711918114676228,-3.4355959057338112,8.886992430510864,0.49204944854756383,0.23239499589688062,-0.7215197545619536,0.00453294328843598,-0.04839773919956427,1.010928957068076
1589551320.9030628,-0.4500928676009203,-3.3556965070069023,8.892414557623928,0.4988888888888889,0.2255555555555556,-0.7333333333333333,0.0064639424247543605,-0.04108343430973292,0.9846014097502771
1589551320.9130628,-0.44953364548494984,-3.318134581939799,8.806372441471572,0.4988888888888889,0.2255555555555556,-0.7333333333333333,0.00695195578343708,-0.0363760472000774,0.949520228794843
1589551320.9230628,-0.44928149017166663,-3.29568894103,8.882096391888332,0.4988888888888889,0.2255555555555556,-0.7333333333333333,-0.007443097773449493,-0.05002146146718251,0.8968851331813991
1589551320.9330628,-0.4914535944532295,-3.284593115192799,8.783430239630215,0.4988888888888889,0.2255555555555556,-0.7333333333333333,-0.003018792255513549,-0.03826784588190097,0.8528647403147778
1589551320.9430628,-0.5871148582897457,-3.367499543851113,8.789807657219315,0.4988888888888889,0.2255555555555556,-0.7333333333333333,0.013677247950148356,-0.020180468992433906,0.8180813232196488
1589551320.9530628,-0.6098193536464228,-3.293453764235718,8.943634410589295,0.51,0.1988888888888889,-0.7555555555555555,-0.005355626610868448,-0.037782624692672524,0.7207388783488197
1589551320.9630628,-0.6411066520383416,-3.28,8.854466739808291,0.51,0.1988888888888889,-0.7555555555555555,-0.010304722770496821,-0.03498998150345198,0.6536578281060732
1589551320.9730628,-0.6567616872044014,-3.237901933657218,8.730855184839612,0.51,0.1988888888888889,-0.7555555555555555,0.0007064902561582207,-0.021525561318368257,0.6047866844769234
1589551320.9830627,-0.6500143174286542,-3.150186126572504,8.670128856857888,0.51,0.1988888888888889,-0.7555555555555555,0.0021785379866124804,-0.01637339426177835,0.5716656105417026
1589551320.9930627,-0.7123679162766431,-3.223816041861679,9.031379686037411,0.5127560302334344,0.19104480283988318,-0.7606436113711268,-0.012099472207446954,-0.029136499134388857,0.5228591124157532
1589551321.0030627,-0.6866229840256572,-3.2366885079871714,8.934836190096215,0.5220528113240683,0.16458473358192538,-0.7778068995384508,-0.005078631059281649,-0.020711489756590488,0.4982861683971746
1589551321.0130627,-0.6873585997567054,-3.2289621003649422,8.913679299878353,0.5244444444444445,0.15777777777777774,-0.7822222222222223,0.0007410012178532049,-0.008911738745617577,0.4783188047837369
1589551321.0230627,-0.6972658879663639,-3.2141011680504543,8.918632943983182,0.5244444444444445,0.15777777777777774,-0.7822222222222223,0.0061445886929330845,0.004056871194574135,0.4599466073684654
1589551321.0330627,-0.8407256087919038,-3.331451217583808,8.785283542852625,0.5244444444444445,0.15777777777777774,-0.7822222222222223,-0.012694211186828074,-0.010314670520270464,0.37433554531158325
1589551321.0430627,-0.8490160499683744,-3.348032099936749,8.731395675205565,0.5244444444444445,0.15777777777777774,-0.7822222222222223,-0.008172476968942948,-0.003532069193442777,0.36393555661044746
1589551321.0530627,-0.857306491144845,-3.36461298228969,8.677507807558507,0.5244444444444445,0.15777777777777774,-0.7822222222222223,-0.003650742751057824,0.0032505321333849094,0.3535355679093117
1589551321.0630627,-0.8669079420841415,-3.3769079420841415,8.8016128127249,0.5267470918058249,0.14434566816972494,-0.7822222222222223,-0.00707966887989765,0.0031935351517570158,0.32792726336756395
1589551321.0730627,-0.8771403129993535,-3.3871403129993536,9.011376416486748,0.5301578821108957,0.12444939139014594,-0.7822222222222223,-0.014334829241850238,-0.00015500039991340944,0.2949999971094714
1589551321.0830626,-0.8366309495336044,-3.317718249222674,8.614624970102845,0.5311111111111111,0.11888888888888888,-0.7822222222222223,-0.0061123310985630765,0.02414026002090973,0.24716255722135577
1589551321.0930626,-0.904632733356052,-3.308807274079123,9.023025496452803,0.5311111111111111,0.11888888888888888,-0.7822222222222223,-0.035006547165560384,-0.019524684843532016,0.18208385059587617
1589551321.1030626,-0.8822468228236559,-3.285715969970699,8.938579849853495,0.5237873560229092,0.1053977610948327,-0.7775966926928315,-0.03292556885817479,-0.015338941438417016,0.17019246758630893
1589551321.1130626,-0.8531586247551016,-3.260263796660714,8.81131898330357,0.5161113037548185,0.09125766481150777,-0.7727486596814058,-0.028562652352351524,-0.007406365973283799,0.16107000580140574
1589551321.1230626,-0.8769413702430144,-3.279529574941486,8.7964709451845,0.51,0.08,-0.7688888888888888,-0.02832311378480648,-0.002707833676190454,0.13628960898364864
1589551321.1330626,-1.030102384737679,-3.3865301536830947,8.894994382617913,0.51,0.08,-0.7688888888888888,-0.036709745087578294,-0.006166483177677528,0.08106647409498358
1589551321.1430626,-1.0629620740380255,-3.3764971851393053,8.620669925785009,0.5132732510197034,0.07764325926581354,-0.7695435390928296,-0.032915972388665275,-0.002372710478764509,0.07873438822685531
1589551321.1530626,-1.1139915720084501,-3.4414438189198457,8.820148872396668,0.5261594878809217,0.06836516872573634,-0.7721207864650732,-0.02937368302129839,0.0011695788886023732,0.083794801608808
1589551321.1630626,-1.1505364191767808,-3.488508509000377,9.0,0.5377777777777778,0.06,-0.7744444444444445,-0.025958728095459,0.004068375550711234,0.09226534880760123
1589551321.1730626,-1.0543573616366109,-3.3717196534158846,9.0,0.5377777777777778,0.06,-0.7744444444444445,-0.023710547882680816,0.0010708019336736541,0.1319831992333492
1589551321.1830626,-1.0103944133680123,-3.317993016710015,8.947169273524068,0.5377777777777778,0.06,-0.7744444444444445,-0.022907446432425576,-0.003667324353738041,0.15298207008289574
1589551321.1930625,-0.9954505290911034,-3.2993131613638793,8.864977910001068,0.5377777777777778,0.06,-0.7744444444444445,-0.022907446432425576,-0.00937276149649897,0.16357788191945177
1589551321.2030625,-0.9805066448141946,-3.280633306017743,8.78278654647807,0.5377777777777778,0.06,-0.7744444444444445,-0.022907446432425576,-0.0150781986392599,0.17417369375600777
1589551321.2130625,-1.0907769394010847,-3.3933011082291915,8.729126385286488,0.5011111111111111,-0.042222222222222223,-0.7477777777777778,-0.022992197373909323,-0.015176334372796425,0.21000074409157307
1589551321.2230625,-1.129247885251931,-3.4532102795145274,8.763398308201545,0.5011111111111111,-0.042222222222222223,-0.7477777777777778,-0.01595074232202316,-0.01632144024148867,0.22965102195143308
1589551321.2330625,-1.2561035623905004,-3.5952589059762508,8.875258905976251,0.5011111111111111,-0.042222222222222223,-0.7477777777777778,-0.011333343233616478,-0.018579776502436085,0.2488223874526586
1589551321.2430625,-1.2590494962768288,-3.620418309242225,8.896311870346036,0.49959020781622615,-0.03857205431449847,-0.7391086289969339,-0.009518848378841174,-0.00827870326453125,0.2678632219912925
1589551321.2530625,-1.1881108998023642,-3.5562217996047285,8.809055449901182,0.49,-0.015555555555555557,-0.6844444444444444,-0.006090298992374217,-0.0047329128861018244,0.2947124416528717
1589551321.2630625,-1.1914438372799028,-3.537869864399919,8.739242461040275,0.49,-0.015555555555555557,-0.6844444444444444,0.0036584667366896416,-0.003666237884947863,0.32133035733976256
1589551321.2730625,-1.2122164614387556,-3.547135450421257,8.675729099157486,0.49,-0.015555555555555557,-0.6844444444444444,-0.006562658557300455,-0.01695206178449936,0.3305570748210696
1589551321.2830625,-1.1797871771122774,-3.502260574251312,8.842154162807452,0.49,-0.015555555555555557,-0.6844444444444444,-0.008738253947829027,-0.024279690676439175,0.34624010809583705
1589551321.2930624,-1.24,-3.54380008448965,8.906813440353556,0.4925229548269226,-0.007986691074787784,-0.6782340941012504,-0.0048825604257323576,-0.02181661564992912,0.38044248675053355
1589551321.3030624,-1.2626395730706075,-3.457732621784346,8.821691981390257,0.5044444444444445,0.027777777777777776,-0.6488888888888888,-0.001770062511526303,-0.0255210071311286,0.42538153919693195
1589551321.3130624,-1.3135236247748372,-3.530142718581128,8.923095469031454,0.5044444444444445,0.027777777777777776,-0.6488888888888888,0.0029659654212176745,-0.02720849683379999,0.4689530959151914
1589551321.3230624,-1.3510546029632096,-3.580400158148826,8.85407254036957,0.5044444444444445,0.027777777777777776,-0.6488888888888888,0.011812710415005475,-0.016433850592344278,0.5204294963265547
1589551321.3330624,-1.3943933334448888,-3.6623988889074814,8.764797777814962,0.5044444444444445,0.027777777777777776,-0.6488888888888888,0.012610731054011878,-0.014310124248255661,0.5669672986769465
1589551321.3430624,-1.4786148156824686,-3.676435802613745,8.79287160522749,0.5044444444444445,0.027777777777777776,-0.6488888888888888,0.0034235925167888388,-0.03421559107890559,0.6037158528258386
1589551321.3530624,-1.4071585190854299,-3.602572275901655,8.950917248636754,0.4988888888888889,0.048888888888888885,-0.6488888888888888,-0.003963097910715719,-0.053340863467012486,0.6625638759061079
1589551321.3630624,-1.2948076150387449,-3.450096048981154,8.95894231321152,0.4988888888888889,0.048888888888888885,-0.6488888888888888,-0.00046150292284629583,-0.042836078503404214,0.6949536295438999
1589551321.3730624,-1.2818957791269152,-3.422985930423051,8.671374674761491,0.4988888888888889,0.048888888888888885,-0.6488888888888888,0.01757220957908362,-0.01842520624329943,0.733007249142183
1589551321.3830624,-1.2787685552579107,-3.361730347036194,8.570498902294103,0.4988888888888889,0.048888888888888885,-0.6488888888888888,0.005089393843779866,-0.039097349105928984,0.7404853497339453
1589551321.3930624,-1.3573761639759767,-3.420634194721472,8.73733263540691,0.5016642484128296,0.05009556694277615,-0.6464755327811144,-0.014254728315187447,-0.08492179849562331,0.7386800850034454
1589551321.4030623,-1.4835250650562184,-3.5735250650562183,9.141725585505965,0.5244444444444445,0.06,-0.6266666666666667,0.013539541422572743,-0.05261545984951776,0.763518803687928
1589551321.4130623,-1.4337898653748267,-3.5105253365629334,8.684634124936373,0.5244444444444445,0.06,-0.6266666666666667,0.01668377748686947,-0.04402412525410758,0.7802080199049868
1589551321.4230623,-1.4485136819195057,-3.473715795201236,8.780338932476786,0.5244444444444445,0.06,-0.6266666666666667,0.009456240941624535,-0.06249449642528907,0.7769957814404335
1589551321.4330623,-1.6127166390486403,-3.644617409104201,8.936879812847257,0.5244444444444445,0.06,-0.6266666666666667,0.02471387241583841,-0.03890477385784465,0.8262818291251675
1589551321.4430623,-1.2893067125645439,-3.2306110154905334,8.56163339070568,0.5238412315930389,0.06094790590935169,-0.6266666666666667,0.041754073445150745,-0.02009385401584461,0.8786084333830981
1589551321.4530623,-1.4240241097628676,-3.0600602744071694,8.918619398842097,0.5166666666666667,0.07222222222222223,-0.6266666666666667,-0.004972610387894146,-0.07771104794176246,0.8495737047512314
1589551321.4630623,-1.4905527797604885,-3.226381949401221,9.524030295820445,0.5166666666666667,0.07222222222222223,-0.6266666666666667,-0.0006183191187769579,-0.078436763153282,0.8248993875595675
1589551321.4730623,-1.5073302227805265,-3.3182177557874226,8.643776501653548,0.5166666666666667,0.07222222222222223,-0.6266666666666667,0.048577834934496335,-0.0039031590433865164,0.8905545640381146
1589551321.4830623,-1.23,-2.92,8.53,0.5166666666666667,0.07222222222222223,-0.6266666666666667,0.004363323129985824,-0.04036073895236887,0.9184795188620161
1589551321.4930623,-1.1930959057767807,-2.987657506075902,8.942095718825948,0.5166666666666667,0.07222222222222223,-0.6266666666666667,-0.0036879012657816254,-0.07256563653543867,0.8943258456747136
1589551321.5030622,-1.1797917189460476,-2.941874529485571,9.268542032622333,0.536250104558762,0.06025456573260839,-0.6614816673637252,0.031861565811658096,-0.022225300808841844,0.7905564106409523
1589551321.5130622,-1.3515197109554802,-2.79575985547774,9.013796678957657,0.5366666666666666,0.06,-0.6622222222222223,0.007497764334866196,-0.03400217998888363,0.6516330579541667
1589551321.5230622,-1.5494812564228586,-2.8603458290514276,8.751383316205711,0.5366666666666666,0.06,-0.6622222222222223,0.012572847071817645,-0.03737510083705782,0.592589107079015
1589551321.5330622,-1.6804303247855898,-2.8369146443694513,8.562735206242074,0.5366666666666666,0.06,-0.6622222222222223,0.0009245437436239661,-0.04506936795114702,0.6016572223796608
1589551321.5430622,-1.8598123129196669,-3.0078169241970714,8.779436938759,0.5360198293917249,0.05919145340632275,-0.6606859836942355,-0.02601866596582124,-0.08644968529145695,0.647064873803433
1589551321.5530622,-1.7410512903486772,-2.982368133646145,8.423153871046033,0.5284794470062653,0.04976597542449819,-0.6427775755287688,0.02672594984366393,-0.013347498467784533,0.7257191254491565
1589551321.5630622,-1.9928315492762896,-3.233369187403808,8.770215124422847,0.5277777777777778,0.048888888888888885,-0.6411111111111111,0.02771648090363308,-0.03634929915398747,0.7917789396437502
1589551321.5730622,-2.087122970238816,-3.3711797257336538,9.597078354401923,0.5277777777777778,0.048888888888888885,-0.6411111111111111,-0.024502711232850305,-0.06483249486479659,0.8226357349971267
1589551321.5830622,-1.966898314124026,-3.33778451008859,8.725725459986371,0.5277777777777778,0.048888888888888885,-0.6411111111111111,0.03769099759531438,0.0069060632260459776,0.9589454592661055
1589551321.5930622,-1.4014612900358507,-2.933900921454179,8.787861396699357,0.5277777777777778,0.048888888888888885,-0.6411111111111111,0.009901282684345772,-0.06494051678767773,1.0240140600332515
1589551321.6030622,-1.61330164311606,-3.10075166590697,9.570913372837577,0.5666666666666667,0.022222222222222227,-0.6555555555555556,-0.04593943476574176,-0.14462380886587312,0.944726913892052
1589551321.6130621,-1.895525384732261,-3.1098556575720084,9.097505806255562,0.5666666666666667,0.022222222222222227,-0.6555555555555556,0.018611508521058515,-0.03339756812554033,0.8662726905127102
1589551321.6230621,-2.4564475832479022,-3.5932148688157346,8.627726392527622,0.5666666666666667,0.022222222222222227,-0.6555555555555556,0.036805360389879666,-0.005771914240663652,0.8624306062512921
1589551321.6330621,-2.4007083190948095,-3.441922580400197,8.412732087937123,0.5666666666666667,0.022222222222222227,-0.6555555555555556,0.017696127348427054,-0.020538139772695214,0.9414733429227552
1589551321.643062,-2.221989917542694,-3.456182734768846,9.041126655984993,0.5666666666666667,0.022222222222222227,-0.6555555555555556,-0.017851957941722448,-0.07456629182147292,1.0245625034003107
1589551321.653062,-1.800072442538685,-3.1106519828481636,8.852836444988947,0.5966666666666667,-0.06222222222222223,-0.6766666666666666,0.0059419729038503784,-0.052320366284250075,1.0261894059708119
1589551321.663062,-1.7041078131730631,-2.587946093413468,9.025532809583392,0.5966666666666667,-0.06222222222222223,-0.6766666666666666,-0.0161286147905561,-0.08377972429332568,0.835904964447791
1589551321.673062,-1.5701545433418547,-2.6464606088775273,9.534915175458982,0.5966666666666667,-0.06222222222222223,-0.6766666666666666,-0.028688272856433415,-0.06903215374534981,0.6839757757752971
1589551321.683062,-1.738664701661851,-2.5182062867226436,8.437673214528107,0.5966666666666667,-0.06222222222222223,-0.6766666666666666,0.04871670285215382,0.016824439753109786,0.6246878573384537
1589551321.693062,-1.9694209076757274,-2.590579092324272,9.027335169440786,0.5998623983820967,-0.0658469112148911,-0.676130470070118,-0.00480550734324256,-0.05005187764819219,0.5748216080383256
1589551321.703062,-1.9423028583012365,-2.619424285424691,9.377834988850598,0.7622222222222222,-0.25,-0.6488888888888888,-0.02592055412395136,-0.041717809398787026,0.5155465736696904
1589551321.713062,-2.0526325383563724,-2.615606866170439,8.631418806015494,0.7622222222222222,-0.25,-0.6488888888888888,0.016849134987969718,0.015169060051963097,0.46268193288457005
1589551321.723062,-2.215457491518558,-2.6934796698567016,8.638498151805155,0.7622222222222222,-0.25,-0.6488888888888888,0.002948872034833197,-0.023442781484527237,0.4526428540850824
1589551321.733062,-2.388123473240062,-2.7952731512325117,8.974726848767489,0.7622222222222222,-0.25,-0.6488888888888888,-0.024659001389751946,-0.05589665957725121,0.502305531013345
1589551321.743062,-2.51231623362203,-2.8185592938041304,8.95144070619587,0.7622222222222222,-0.25,-0.6488888888888888,-0.0034913004541493563,-0.047429579203010185,0.5624218016704563
1589551321.753062,-2.7249446149979355,-3.078492307139908,9.26213999748658,1.2811111111111109,-0.7355555555555555,-0.5366666666666666,0.015494160356244922,-0.014532718973937944,0.6776767778637063
1589551321.763062,-2.619524245525215,-2.927891779321736,8.576907595913896,1.2811111111111109,-0.7355555555555555,-0.5366666666666666,-0.0058621995523109385,-0.016996914348002084,0.7483170452535449
1589551321.773062,-2.3797070016109076,-2.7684203768122706,9.270700628020451,1.2811111111111109,-0.7355555555555555,-0.5366666666666666,-0.025631047134334527,-0.0852821198520556,0.8570428229025246
1589551321.783062,-2.2564323894983147,-2.6423843462207244,9.031872786209561,1.2811111111111109,-0.7355555555555555,-0.5366666666666666,0.009691798386957327,-0.0327423925035896,0.9408022445886274
1589551321.793062,-1.7702202520232704,-2.21019577957624,8.050444582787712,1.2811111111111109,-0.7355555555555555,-0.5366666666666666,0.028353146833702447,-0.013098867822805262,0.9850001751203921
1589551321.803062,-1.9225357418029279,-2.533016864994435,9.135695574009075,1.0258879091401993,-0.43048407194969995,-0.7260901368794528,-0.007852842336350436,-0.08747639219470424,0.9683811283353432
1589551321.813062,-1.88429718875502,-2.5623293172690764,8.73574297188755,0.9966666666666668,-0.3955555555555556,-0.7477777777777778,0.014141372553809477,-0.03377632663874569,0.9389555954780335
1589551321.823062,-1.748951228456179,-2.469812719367175,8.402696841112682,0.9966666666666668,-0.3955555555555556,-0.7477777777777778,0.019475606731120327,-0.039449684671613416,0.8973492368656659
1589551321.833062,-1.4856745688290305,-2.4257748411475375,9.110925249625298,0.9966666666666668,-0.3955555555555556,-0.7477777777777778,-0.02335740175297994,-0.08636655195860775,0.7776126928724664
1589551321.843062,-1.653903443034768,-2.487753900065441,9.01352958561145,0.9966666666666668,-0.3955555555555556,-0.7477777777777778,-0.02818659213425211,-0.0767081711960634,0.6472245525781175
1589551321.853062,-1.5430860448300796,-2.3925717040250665,9.302284887924802,0.6870611927907662,-0.14007691277684048,-0.7737586567044268,-0.02942437818826419,-0.06679315418454491,0.487333765760388
1589551321.863062,-1.4924433470791267,-2.3001707667050173,9.035228227568288,0.6788888888888889,-0.13333333333333333,-0.7744444444444445,-0.0075491209617779935,-0.042331755970275775,0.2964834973390108
1589551321.873062,-1.414666730557286,-2.204296324692127,8.774296324692127,0.6788888888888889,-0.13333333333333333,-0.7744444444444445,0.007145623753949782,-0.01872727875128098,0.10397103404397434
1589551321.883062,-1.17749908059842,-2.111670957207373,8.728354786036864,0.6788888888888889,-0.13333333333333333,-0.7744444444444445,-0.023997876050304096,-0.004726665947739354,-0.08472747568623902
1589551321.8930619,-1.1589890995748686,-2.198050868650613,9.160254343253063,0.6788888888888889,-0.13333333333333333,-0.7744444444444445,-0.015921373216738054,0.0006576692746380099,-0.21125935341210703
1589551321.9030619,-1.4724950884086443,-2.4242829076620827,8.807937131630649,0.5969853743724077,-0.0719056974459725,-0.7570399476096922,0.02619494038203179,0.06156871817355732,-0.46568830525523564
1589551321.9130619,-1.3920988603386313,-2.6326806065381585,8.898730036707473,0.59,-0.06666666666666668,-0.7555555555555555,-0.0008137677720709002,0.036274478832808606,-0.6578593050298313
1589551321.9230618,-1.4515830464798753,-2.8822614949712504,8.996155458548873,0.59,-0.06666666666666668,-0.7555555555555555,-0.0034698450138174516,0.036441459321621225,-0.9551461045457793
1589551321.9330618,-1.5080436914674717,-2.9629195592392454,8.859036749293283,0.59,-0.06666666666666668,-0.7555555555555555,-0.01050858896262595,0.052278633206440356,-1.1346340752403963
1589551321.9430618,-1.484297940120407,-3.033553089819389,9.053137874247456,0.59,-0.06666666666666668,-0.7555555555555555,0.004552446406495426,0.08094655875219381,-1.3547105263372112
1589551321.9530618,-1.3007533736621686,-2.94,8.601130060493253,0.5777777777777777,-0.04,-0.7477777777777778,0.01630276806596169,0.08866741114236473,-1.5879875458234474
1589551321.9630618,-1.3229262336294205,-2.943204922546508,8.6401721454737,0.5777777777777777,-0.04,-0.7477777777777778,-0.013591573431632165,0.06844873709272689,-1.8072133382542364
1589551321.9730618,-1.5303435304781328,-3.1693129390437345,9.348663494221617,0.5777777777777777,-0.04,-0.7477777777777778,-0.04805686775658984,0.05056758301241876,-2.0203228227021093
1589551321.9830618,-1.5493523680036256,-3.1312952639927487,8.721371855880353,0.5777777777777777,-0.04,-0.7477777777777778,0.00896555130218394,0.13247251220593018,-2.146808915887025
1589551321.9930618,-1.492395596360091,-3.195833604159896,8.716458401039974,0.5777777777777777,-0.04,-0.7477777777777778,-0.012431021805633357,0.11641202002023145,-2.247168621178164
1589551322.0030618,-1.515079581842155,-3.3752742983612736,9.121097193445094,0.6,0.0011111111111111113,-0.7911111111111111,-0.01282160221049087,0.09751835082732174,-2.3998142376402343
1589551322.0130618,-1.32,-3.26,8.66,0.6,0.0011111111111111113,-0.7911111111111111,-0.002181661564992912,0.1265363707695889,-2.493639168786898
1589551322.0230618,-1.2908949434636452,-3.303657584804532,8.72306095582877,0.6,0.0011111111111111113,-0.7911111111111111,-0.01382284848358329,0.11066202497151112,-2.5476119445003627
1589551322.0330617,-1.3989208371847353,-3.5153819490294467,8.948766671068269,0.6,0.0011111111111111113,-0.7911111111111111,-0.030509628080808874,0.09164660264424825,-2.6626330992801224
1589551322.0430617,-1.2260815184116156,-3.444779148080119,8.908040759205807,0.6,0.0011111111111111113,-0.7911111111111111,-0.021235373532639837,0.1123086285220026,-2.7205918894794596
1589551322.0530617,-0.9604002366763873,-3.2852001183381936,8.886559739655974,0.5729334253741506,0.04055097699449164,-0.7508979145241348,0.0031851742501119024,0.1472708229032871,-2.779881768836762
1589551322.0630617,-26.059420777654978,-26.356946146890383,15.824262533909373,0.5611111111111111,0.057777777777777775,-0.7333333333333333,-0.019698685432270845,0.2405900557185776,-2.536818773179417
1589551322.0730617,-9.46931306247724,-11.627723560318369,-1.4157634084169999,0.5611111111111111,0.057777777777777775,-0.7333333333333333,-0.8014934927461629,0.6046721929772625,-0.6416855063225941
1589551322.0830617,2.7832228837690938,2.5470708430408173,9.349557856588143,0.5611111111111111,0.057777777777777775,-0.7333333333333333,-1.4463878714192067,-0.7661198353948939,-1.9736645982206928
1589551322.0930617,3.761207266571956,1.6528930266299913,10.413311670646555,0.5611111111111111,0.057777777777777775,-0.7333333333333333,-0.5053886312275131,-0.1665993676197921,-1.583580838506619
1589551322.1030617,1.9008440225235297,-0.6756812961193666,9.344568536173846,0.5573576412181498,0.11783329606515833,-0.7288291694617798,0.6709225098559167,0.22677760616797812,-1.2869103043098076
1589551322.1130617,0.9075146225977161,0.27269705691207874,10.8981849410454,0.5555555555555556,0.14666666666666667,-0.7266666666666667,1.7172011913193166,0.5567119866249604,-1.4806225687469277
1589551322.1230617,2.5663873363661684,-1.3394468480178259,12.70503221613592,0.5555555555555556,0.14666666666666667,-0.7266666666666667,0.323933092966181,0.1608199538002279,-1.0796332136111473
1589551322.1330616,1.9162949498413786,-1.1544175598045099,8.46244739775358,0.5555555555555556,0.14666666666666667,-0.7266666666666667,-0.43387898658828045,-0.27435072266313615,-0.6503579515715285
1589551322.1430616,1.3552808025379406,-1.82331904312784,7.318841635942725,0.5555555555555556,0.14666666666666667,-0.7266666666666667,0.10277294531620751,0.13755317243899273,-0.6840948420275125
1589551322.1530616,0.30997181289470865,-2.614907053912299,9.185633853070254,0.5596544601832361,0.16716118980506892,-0.7133452266267052,-0.021270285621959595,-0.024300029491537256,-0.6980468925672733
1589551322.1630616,-0.3389609065980732,-2.3512208498143607,8.51155864010289,0.56,0.1688888888888889,-0.7122222222222222,-0.09013802983299071,-0.011270982787981956,-0.5960313795617557
1589551322.1730616,-0.7300759907656791,-2.6224264140053863,8.557910734898039,0.56,0.1688888888888889,-0.7122222222222222,0.12296346975239124,0.1059778934899487,-0.4892738585502139
1589551322.1830616,-0.8833526000886394,-2.720538484266509,8.99005780026592,0.56,0.1688888888888889,-0.7122222222222222,0.01843361403828006,0.031719381832836915,-0.39268647163686415
1589551322.1930616,-0.9869372950412403,-2.75,9.05408360661168,0.56,0.1688888888888889,-0.7122222222222222,-0.04022657569106809,0.003957111607350919,-0.27830873174968207
1589551322.2030616,-1.0102390407225725,-2.7897609592774275,8.886501985517402,0.5577910578179207,0.1777246576172061,-0.7206162025141235,-0.025980891677308042,0.004994353831422982,-0.10173234986408422
1589551322.2130616,-0.7913740834743372,-2.7193668922729834,8.713345318668923,0.5544444444444444,0.19111111111111112,-0.7333333333333333,0.019565892745209625,-0.0002880119346058384,0.20015883514706473
1589551322.2230616,-0.6773124112356005,-2.631009547104308,9.025961811582768,0.5544444444444444,0.19111111111111112,-0.7333333333333333,0.0030343841448874694,-0.031248656922181452,0.3014621766550247
1589551322.2330616,-7.113703299912391,-15.787182127908109,7.763648982770369,0.5544444444444444,0.19111111111111112,-0.7333333333333333,0.010870952206422532,-0.04126353866802558,0.3244030296845595
1589551322.2430615,-2.9807811117138208,-8.324668969651983,7.574325520312902,0.5544444444444444,0.19111111111111112,-0.7333333333333333,-0.0631864361398105,-0.11405664002933075,-0.13439547847050604
1589551322.2530615,1.1723536458749302,0.3418880281127705,9.284692516572159,0.5525285964024882,0.18855664705516956,-0.7333333333333333,-0.02144639878145066,0.037277907064387106,-0.6277074267706844
1589551322.2630615,-0.5855019604941925,-1.4678652807575645,8.249189909003476,0.5511111111111111,0.18666666666666668,-0.7333333333333333,0.10412717019431601,0.1535878362962354,-0.5954071080244255
1589551322.2730615,-1.111631122528145,-3.4627550299122456,8.782380394117546,0.5511111111111111,0.18666666666666668,-0.7333333333333333,-0.03362116387229813,-0.0006840471708660645,-0.3303239960334265
1589551322.2830615,-3.1174269995768094,-7.739875351056053,8.25754818605009,0.5511111111111111,0.18666666666666668,-0.7333333333333333,0.001358408094434188,0.003814193718645595,-0.10663232858488092
1589551322.2930615,-1.7377814082666228,-4.962041333115504,8.498675869955889,0.5511111111111111,0.18666666666666668,-0.7333333333333333,0.0008097026074616251,0.0004670024612860521,-0.16290901028296137
1589551322.3030615,-1.5005465430668212,-4.477914252607184,8.365811123986095,0.5511111111111111,0.2303706922449681,-0.7333333333333333,-0.020353747949339047,-0.01308996938995747,-0.18238003910773934
1589551322.3130615,-1.242425816551626,-4.262425816551627,8.907866647690884,0.5511111111111111,0.2344444444444445,-0.7333333333333333,0.0036750432930544898,0.02961147989089505,-0.07127418317221951
1589551322.3230615,-1.218410192584829,-4.189126162714529,8.945230577754486,0.5511111111111111,0.2344444444444445,-0.7333333333333333,0.004413627392456511,0.02440071131468753,-0.0549439732245883
1589551322.3330615,-1.2234559217338523,-3.9053208126539793,8.890641625307959,0.5511111111111111,0.2344444444444445,-0.7333333333333333,0.001978233522825633,-0.015364951573183738,-0.009707369618534177
1589551322.3430614,-1.3031688543342963,-3.8538596661302518,8.72039474959769,0.5511111111111111,0.2344444444444445,-0.7333333333333333,0.01224792086494993,0.009029254144027707,-0.001090830782496456
1589551322.3530614,-1.2730456372664933,-3.9630456372664935,8.8,0.5494190904075037,0.23072199889650827,-0.7248732298152964,-0.012237217778008245,4.978253511984335e-05,-0.001090830782496456
1589551322.3630614,-1.2959560006567066,-3.97,8.752131998029881,0.5455555555555556,0.2222222222222222,-0.7055555555555556,-0.005698717779922301,0.0032844913070078805,-0.00022056594840299387
1589551322.3730614,-1.2713685642277073,-3.8984214105692683,8.76147357682922,0.5455555555555556,0.2222222222222222,-0.7055555555555556,0.009220328247505447,-0.0025031461581301443,-0.000780801287187176
1589551322.3830614,-1.245096992602411,-3.884903007397589,8.824644360457826,0.5455555555555556,0.2222222222222222,-0.7055555555555556,0.013097022891049756,-0.001111991285773313,-0.0005489421417943709
1589551322.3930614,-1.247181141439206,-3.908590570719603,8.875704714640198,0.5455555555555556,0.2222222222222222,-0.7055555555555556,0.003565365525320923,-0.00016105318004600326,-0.0009370858980155658
1589551322.4030614,-1.274373850868233,-3.915626149131767,8.821887640449438,0.5509013732833958,0.22416615594143682,-0.714789240721825,-0.009544267943522106,6.729946809273324e-05,-0.0017045484484811831
1589551322.4130614,-1.28,-3.9312503192382064,8.734499616914151,0.5577777777777778,0.22666666666666666,-0.7266666666666667,-0.012462748654719259,0.0006544427519198704,-0.0001636106879799676
1589551322.4230614,-1.2508986162310356,-3.955149769371839,8.753352536909768,0.5577777777777778,0.22666666666666666,-0.7266666666666667,-0.005153798082850223,-0.0038342450428453406,0.0005617526953559728
1589551322.4330614,-1.2422356732961246,-3.9277643267038758,8.837794591620156,0.5577777777777778,0.22666666666666666,-0.7266666666666667,0.008123563727678779,-0.003272492347489368,-0.0012127678450473529
1589551322.4430614,-1.26,-3.9366971006412044,8.86,0.5577777777777778,0.22666666666666666,-0.7266666666666667,0.005592294387238069,-0.00036029042920621016,-0.0015992211813362805
1589551322.4530613,-1.2866214653631873,-3.96,8.801432776200988,0.5548198371818681,0.2243003141899389,-0.7189760211173015,-0.005227112500799007,0.0027624518428594684,-0.001090830782496456
1589551322.4630613,-1.274974383049948,-3.9716752056500173,8.773350411300035,0.5522222222222222,0.2222222222222222,-0.7122222222222222,-0.009180693356717331,0.0026357086617385945,-0.001090830782496456
1589551322.4730613,-1.2439207334273625,-3.9739207334273625,8.777841466854724,0.5522222222222222,0.2222222222222222,-0.7122222222222222,-0.005410920703754282,-0.0031234993249548734,-0.001090830782496456
1589551322.4830613,-1.2529755239901912,-3.898634618053949,8.847853143941148,0.5522222222222222,0.2222222222222222,-0.7122222222222222,0.008758493491904062,-0.0022987543987222307,0.00032457931625571234
1589551322.4930613,-1.2764382972624337,-3.8983560269456787,8.862602837895944,0.5522222222222222,0.2222222222222222,-0.7122222222222222,0.0122830641773354,0.0029885667776149856,-0.00010459592854953834
1589551322.5030613,-1.2716647694059011,-3.948335230594099,8.84,0.5481477265346446,0.21339414823247083,-0.716975800524396,-0.004849654510755478,0.0034540905188608817,-0.001090830782496456
1589551322.5130613,-1.2672440302565877,-3.96,8.832755969743411,0.5455555555555556,0.20777777777777776,-0.72,-0.011810196814487448,0.0006012593263485929,-0.001090830782496456
1589551322.5230613,-1.2516916704651302,-3.9477944469767534,8.799486117441884,0.5455555555555556,0.20777777777777776,-0.72,-0.004916920995147029,-0.0006657096477575035,-0.0004251211347389525
1589551322.5330613,-1.247973800064426,-3.928039299903361,8.783986900032213,0.5455555555555556,0.20777777777777776,-0.72,0.0015185891866279983,-0.0028304440952460924,0.0
1589551322.5430613,-1.2545555990602977,-3.91,8.817222004698511,0.5455555555555556,0.20777777777777776,-0.72,0.0066419379399382875,-0.004860261898754276,0.0
