time,acc_x,acc_y,acc_z,mag_x,mag_y,mag_z,gyr_x,gyr_y,gyr_z
1589551357.3774006,-0.14,-4.17,8.81,0.48,0.2488888888888889,-0.6677777777777778,-0.004363323129985824,-0.001090830782496456,0.001090830782496456
1589551357.3874006,-0.14870331175298804,-4.161296688247012,8.85351655876494,0.48,0.25469109672421425,-0.6677777777777778,0.0013329810919077084,0.0027067053654325655,0.0020402148194787113
1589551357.3974006,-0.14204871141319741,-4.175902577173605,8.791561597281223,0.48,0.25555555555555554,-0.6677777777777778,0.002181661564992912,0.005677633659879033,-0.0004203915403061956
1589551357.4074006,-0.1499677145284622,-4.160064570943076,8.720290569243842,0.48,0.25555555555555554,-0.6677777777777778,0.002181661564992912,0.00654146289636065,0.002171096169138656
1589551357.4174006,-0.15184791011235954,-4.1681520898876405,8.79184791011236,0.48,0.25555555555555554,-0.6677777777777778,0.0023832372883777404,0.005051002465712624,0.0017785101182232555
1589551357.4274006,-0.15938822471910113,-4.160611775280899,8.799388224719102,0.48,0.25555555555555554,-0.6677777777777778,0.0032057580166518773,0.00340596100916435,0.00013346866167498203
1589551357.4374006,-0.16,-4.16,8.804616261476921,0.4655555555555556,0.2411111111111111,-0.6611111111111111,-0.0018880241796986267,0.004573241756599424,0.0026852175769007973
1589551357.4474006,-0.1615204332392828,-4.16,8.77935696732502,0.4655555555555556,0.2411111111111111,-0.6611111111111111,-0.0012566843205105026,0.0020158080269788653,0.0009249772444824094
1589551357.4574006,-0.16864167053903348,-4.161358329460967,8.728149976765799,0.4655555555555556,0.2411111111111111,-0.6611111111111111,-0.0024780030827517363,0.0018316845768935174,-0.0002963415177588246
1589551357.4674006,-0.16,-4.171746757434611,8.785240272303833,0.4655555555555556,0.2411111111111111,-0.6611111111111111,-0.0045538648079086735,0.005782817983287339,-0.0018005782091472136
1589551357.4774005,-0.16,-4.177757936223576,8.803273808670728,0.4655555555555556,0.2411111111111111,-0.6611111111111111,-0.0052095826941179,0.003159946438450429,-0.0004891424367287585
1589551357.4874005,-0.16,-4.189942535253866,8.800057464746136,0.4799169953666948,0.25547255092225035,-0.6677394679470215,-0.007623278614676851,1.2536862798341077e-05,0.0010845623510972854
1589551357.4974005,-0.1486570843605064,-4.181342915639493,8.777913759244557,0.48,0.25555555555555554,-0.6677777777777778,-0.008726646259971648,0.0007978520389253525,-0.001090830782496456
1589551357.5074005,-0.13990357995226732,-4.189903579952268,8.700674940334128,0.48,0.25555555555555554,-0.6677777777777778,-0.008705610668748327,-0.0010697951912731353,-0.001059277395661475
1589551357.5174005,-0.13189536992840095,-4.181895369928401,8.756732410501193,0.48,0.25555555555555554,-0.6677777777777778,-0.006958490267402308,0.000677325210072883,0.0015614032063575526
1589551357.5274005,-0.15951599520604776,-4.170161334931318,8.760161334931317,0.48,0.25555555555555554,-0.6677777777777778,-0.005471752823419578,1.7598910937298646e-05,0.0011084296934337546
1589551357.5374005,-0.13457770684998774,-4.186948195433342,8.802370488583355,0.4837662656518537,0.24990615707777505,-0.6498880159314728,-0.003605392583836801,0.0036975226572909577,0.0020152114468191956
1589551357.5474005,-0.15105938134229127,-4.186821855973126,8.84410927986563,0.4844444444444445,0.2488888888888889,-0.6466666666666666,-0.003272492347489368,0.0031569317696319944,-0.000859709626781709
1589551357.5574005,-0.1583977185247393,-4.164806844425782,8.73403422212891,0.4844444444444445,0.2488888888888889,-0.6466666666666666,-0.003272492347489368,0.0023564433605367313,0.0007412671914088171
1589551357.5674005,-0.16228130093922224,-4.153421951408833,8.763421951408834,0.4844444444444445,0.2488888888888889,-0.6466666666666666,-0.0031770668804495866,0.00423889746555374,0.0008419794536322874
1589551357.5774004,-0.17855972987658153,-4.177839594814872,8.787839594814871,0.4844444444444445,0.2488888888888889,-0.6466666666666666,-0.010279871430670629,0.0033510468967761094,-0.0009337216839229734
1589551357.5874004,-0.1288000972565547,-4.175200389026219,8.860400778052437,0.4655555555555556,0.26222222222222225,-0.6677777777777778,-0.02002762133950184,-0.011737360437750597,-0.0019198833952824928
1589551357.5974004,-0.12030169793735057,-4.1412067917494015,8.792413583498803,0.4655555555555556,0.26222222222222225,-0.6677777777777778,-0.02280871601330227,-0.009883297321883642,-6.582027941553787e-05
1589551357.6074004,-0.11176577925419923,-4.0691171103729005,8.7482342207458,0.4655555555555556,0.26222222222222225,-0.6677777777777778,-0.022618521477589453,-0.010426766233571022,-0.0002889249548361221
1589551357.6174004,-0.13378007856608937,-4.051022313405538,8.729527490179239,0.4655555555555556,0.26222222222222225,-0.6677777777777778,-0.019222611478921677,-0.005196439783723196,-0.0034786636504966343
1589551357.6274004,-0.18714522003276238,-3.9242801024221894,8.722856847495905,0.4655555555555556,0.26222222222222225,-0.6677777777777778,-0.013401377576509175,-0.0015581685947153841,-0.006389280601702884
1589551357.6374004,-0.12767936834878132,-4.018177136972193,8.868177136972195,0.48110500820078583,0.26222222222222225,-0.6558870198726018,-0.01090830782496456,0.0,-0.005839857896681164
1589551357.6474004,-0.15188061193880611,-3.9596566343365667,8.685298470152985,0.4844444444444445,0.26222222222222225,-0.6533333333333333,-0.009239503608166662,0.0003077144089170085,0.0007180002874730198
1589551357.6574004,-0.16865613438656135,-3.8673912608739127,8.643359664033596,0.4844444444444445,0.26222222222222225,-0.6533333333333333,-0.013814317677784582,0.003052602850687763,0.007122739984938113
1589551357.6674004,-0.11435928246502446,-3.7845508969187196,8.872371255686208,0.4844444444444445,0.26222222222222225,-0.6533333333333333,-0.031277449729713795,-0.018921668159569353,0.0060485588502879935
1589551357.6774004,-0.14908513898008316,-3.7352950004689993,8.811960416471251,0.48428470680604635,0.26222222222222225,-0.653522114178713,-0.02834734379401883,-0.012933147330178254,0.011507082962303388
1589551357.6874003,-0.0969804065938561,-3.38,8.932406839284985,0.4722222222222222,0.26222222222222225,-0.6677777777777778,-0.0272707695624114,-0.001090830782496456,0.0567232006898157
1589551357.6974003,-0.16344416341434817,-3.381722081707174,8.823685700407028,0.4722222222222222,0.26222222222222225,-0.6677777777777778,-0.026707219641563536,-0.001779614019088287,0.06141945003021455
1589551357.7074003,-0.20559722617711595,-3.402798613088558,8.746405085341955,0.4722222222222222,0.26222222222222225,-0.6677777777777778,-0.019809940875843705,-0.010209621399412526,0.11889677307787982
1589551357.7174003,-0.26,-3.3890321635999805,8.682903509200058,0.4722222222222222,0.26222222222222225,-0.6677777777777778,-0.024244617887019794,-0.020022060855375556,0.16246351002245193
1589551357.7274003,-0.26,-3.36856117916931,8.744316462492069,0.4722222222222222,0.26222222222222225,-0.6677777777777778,-0.029455039878848614,-0.028209866842535125,0.18404954398859988
1589551357.7374003,-0.17,-3.3210284971163633,8.77196935429153,0.4988888888888889,0.2677777777777778,-0.6677777777777778,-0.02179274640234198,-0.023950538719747755,0.22416930310627764
1589551357.7474003,-0.17,-2.9969184665837387,8.843115458554788,0.4988888888888889,0.2677777777777778,-0.6677777777777778,-0.02093043128473014,-0.02222590848452408,0.2440025508113499
1589551357.7574003,-0.1733387252202643,-2.706661274779736,8.787612885462554,0.4988888888888889,0.2677777777777778,-0.6677777777777778,-0.009662652354038334,-0.019323540217204654,0.32708735209701895
1589551357.7674003,-0.12281542538546256,-2.7571845746145374,8.84535379955947,0.4988888888888889,0.2677777777777778,-0.6677777777777778,-0.0002148173780783559,-0.016961581473214655,0.3837743619527788
1589551357.7774003,-0.0541199571581578,-2.928326788051886,8.84137331905272,0.4988888888888889,0.2677777777777778,-0.6677777777777778,0.005229445107948022,-0.018394317432750246,0.4428540609078814
1589551357.7874002,-0.0686381698055536,-2.9679572547083306,8.933190849027767,0.4854279884737669,0.2563877851188283,-0.6481041540941378,0.0003713815741588182,-0.019560677770104447,0.4766464240709913
1589551357.7974002,-0.07,-2.99921950611125,8.862081317036667,0.4844444444444445,0.25555555555555554,-0.6466666666666666,0.0,-0.01857250286108639,0.49799883554524077
1589551357.8074002,-0.07811186037286791,-3.0405593018643393,8.77888139627132,0.4844444444444445,0.25555555555555554,-0.6466666666666666,-0.0008848666998037494,-0.0229684568014585,0.5047037344995067
1589551357.8174002,-0.11943564326329552,-3.079576732447472,8.78957673244747,0.4844444444444445,0.25555555555555554,-0.6466666666666666,0.0032109305774187195,-0.025073717554900822,0.5104472444382707
1589551357.8274002,-0.16223328649683344,-3.0968933145987334,8.806893314598733,0.4844444444444445,0.25555555555555554,-0.6466666666666666,0.0014297175892198544,-0.026931882755688,0.5197226799996889
1589551357.8374002,-0.19833433106950438,-3.1354179138368803,8.81,0.48129618543672176,0.2508331670439715,-0.6568985084417654,0.001090830782496456,-0.028043468575712924,0.5337802982461304
1589551357.8474002,-0.23998059857004275,-3.249935328566809,8.819993532856682,0.48,0.2488888888888889,-0.6611111111111111,0.003271081435687914,-0.025091224365120665,0.5704840410245253
1589551357.8574002,-0.2531048387096774,-3.2368951612903225,8.71516129032258,0.48,0.2488888888888889,-0.6611111111111111,0.003272492347489368,-0.02580386607062685,0.5926619995151057
1589551357.8674002,-0.2834223339092194,-3.261229778545626,8.79272655881891,0.48,0.2488888888888889,-0.6611111111111111,0.003272492347489368,-0.024476618591509135,0.6281667361407179
1589551357.8774002,-0.27793222476683593,-3.30016943808291,8.848101662849746,0.48,0.2488888888888889,-0.6611111111111111,0.007221662557664481,-0.023340082179892845,0.654609366463813
1589551357.8874002,-0.2850661712520352,-3.2522022293658415,8.897665428130088,0.4892071046540215,0.23382271763685367,-0.68203634896116,0.007352280536055623,-0.02948130378285886,0.688131743107935
1589551357.8974001,-0.2827810722012982,-3.2155621444025964,8.873905361006491,0.4922222222222222,0.2288888888888889,-0.6888888888888889,0.0057575218290344034,-0.030846629826452893,0.7106084657691291
1589551357.9074001,-0.3088554877630767,-3.2003815040789747,8.821526016315898,0.4922222222222222,0.2288888888888889,-0.6888888888888889,0.0012572933396937623,-0.033690907339492156,0.7345124815345228
1589551357.9174001,-0.30084241690216657,-3.1908424169021665,8.829157583097833,0.4922222222222222,0.2288888888888889,-0.6888888888888889,0.00608551755068942,-0.03481469161102873,0.7522018824144675
1589551357.9274,-0.27667494655400593,-3.2599751603379823,8.791124910923342,0.4922222222222222,0.2288888888888889,-0.6888888888888889,0.006544984694978735,-0.03490658503988659,0.758004685088762
1589551357.9374,-0.30509039893195755,-3.3010542393591744,8.801054239359175,0.5023594485803433,0.2288888888888889,-0.659256996457458,0.00042055472296912647,-0.0425621225048986,0.7546249021385262
1589551357.9474,-0.37,-3.37,8.93,0.5066666666666667,0.2288888888888889,-0.6466666666666666,-0.002181661564992912,-0.03817907738737596,0.7537640707050511
1589551357.9574,-0.3604152193784278,-3.1878891681901282,8.67121092321755,0.5066666666666667,0.2288888888888889,-0.6466666666666666,0.012455861678688165,-0.02458709151824353,0.7548096080795997
1589551357.9674,-0.36,-3.2521382502977594,8.777224656733859,0.5066666666666667,0.2288888888888889,-0.6466666666666666,0.007188172588440207,-0.029900074016439297,0.7460022062852716
1589551357.9774,-0.36788788578626913,-3.26,8.813663657358807,0.5066666666666667,0.2288888888888889,-0.6466666666666666,0.004824114970083004,-0.030543261909900768,0.7398748152703922
1589551357.9874,-0.3825343502447271,-3.2537328248776363,8.876404576101272,0.5017921971270506,0.22540712493202025,-0.655719252954525,0.00983246516420193,-0.027125048138515698,0.7371251542415467
1589551357.9974,-0.4366676154847105,-3.268667046193884,8.760663630448926,0.4988888888888889,0.22333333333333333,-0.6611111111111111,0.011053710529300253,-0.021016590276104048,0.733256389894122
1589551358.0074,-0.482384472087014,-3.3547689441740283,8.804494321254733,0.4988888888888889,0.22333333333333333,-0.6611111111111111,0.00892683838843413,-0.02799117280137757,0.7389826941472097
1589551358.0174,-0.48091215965576084,-3.369277023518065,8.851635136137695,0.4988888888888889,0.22333333333333333,-0.6611111111111111,0.010174208408982265,-0.02574434291324923,0.74412495934584
1589551358.0274,-0.4814893579749496,-3.3023936235438383,8.806276605062626,0.4988888888888889,0.22333333333333333,-0.6611111111111111,0.009655013289944938,-0.027172129490601875,0.7497256750801116
1589551358.0374,-0.5416438041229212,-3.341389378496437,9.021761054486934,0.5061600292913037,0.21209611634778316,-0.6776364302075084,0.002444233370328292,-0.039863348872220664,0.7576577572854113
1589551358.0474,-0.5583216379711494,-3.3024122847836206,8.878845044206608,0.5111111111111111,0.20444444444444448,-0.6888888888888889,0.009737418489180371,-0.025615386897042645,0.7724112163507274
1589551358.0574,-0.5424888803680982,-3.24,8.717600076687116,0.5111111111111111,0.20444444444444448,-0.6888888888888889,0.01253727621664811,-0.027566523567895775,0.7908668728740529
1589551358.0674,-0.5467867603422861,-3.24,8.70606619828857,0.5111111111111111,0.20444444444444448,-0.6888888888888889,0.007947024987047807,-0.031244282055935303,0.8037489788806493
1589551358.0774,-0.569565014516798,-3.2530433430111985,8.813911758606388,0.5111111111111111,0.20444444444444448,-0.6888888888888889,0.005833580691814959,-0.03410028192571964,0.8161310538646754
1589551358.0874,-0.5384737126694951,-3.135421138008485,8.868135346476999,0.5229757646341125,0.19587552801116567,-0.6974578053221677,0.006101270376809528,-0.03793876521536479,0.8287172624735891
1589551358.0974,-0.6060464732481764,-3.131270092748457,8.793506287751262,0.5311111111111111,0.19,-0.7033333333333334,0.005739058159830019,-0.038463981634723705,0.8473803731721683
1589551358.1074,-0.6655435734480947,-3.2110871468961895,8.82108714689619,0.5311111111111111,0.19,-0.7033333333333334,0.006382944452886973,-0.044680611170208814,0.8695858613974213
1589551358.1174,-0.7048853094344193,-3.272327964151629,8.891049291510233,0.5311111111111111,0.19,-0.7033333333333334,0.008447683164377665,-0.04010679745665437,0.8993024045687497
1589551358.1274,-0.7459218544863128,-3.3159218544863127,8.878446887308211,0.5311111111111111,0.19,-0.7033333333333334,0.008726646259971648,-0.036918828291590704,0.9235839135188403
1589551358.1374,-0.8422177312483434,-3.43048833819242,8.833458786111848,0.525020908796419,0.1717293930559237,-0.7165287716818328,0.009723153283446247,-0.03500090879890845,0.9594716849092624
1589551358.1474,-0.893825069637883,-3.4838250696378834,8.891355097493037,0.5244444444444445,0.17,-0.7177777777777777,0.006949132942104887,-0.044467732041097316,0.9917523058656273
1589551358.1574,-0.8589394486306006,-3.407878897261201,8.793242566439561,0.5244444444444445,0.17,-0.7177777777777777,0.013711402835781605,-0.037752672456447915,1.0263857815176765
1589551358.1674,-0.8215449602676704,-3.347317440401506,8.791341279799248,0.5244444444444445,0.17,-0.7177777777777777,0.013719649292091143,-0.04065336081096076,1.046984585989877
1589551358.1773999,-0.8187910405798007,-3.3212089594201992,8.8131865608697,0.5244444444444445,0.17,-0.7177777777777777,0.01308996938995747,-0.04541926181974841,1.05696699706266
1589551358.1873999,-0.8403885866072576,-3.3307771732145155,8.83,0.5238673007440413,0.1682685688987904,-0.7195092088789874,0.012806664638511794,-0.048237470958003494,1.0621858774001025
1589551358.1973999,-0.8993322233454243,-3.409554815563616,8.864220927236328,0.5222222222222223,0.16333333333333333,-0.7244444444444444,0.009866039131177683,-0.04794799234113448,1.0549790529402017
1589551358.2073998,-0.9433531696834448,-3.3632341515827755,8.813204397057607,0.5222222222222223,0.16333333333333333,-0.7244444444444444,0.013462234891315258,-0.04580840143445692,1.038820450431604
1589551358.2173998,-0.95,-3.33,8.827859434735117,0.5222222222222223,0.16333333333333333,-0.7244444444444444,0.011313273540093979,-0.04363323129985824,1.0233780568872655
1589551358.2273998,-0.9653496648674298,-3.33,8.83418411530933,0.5222222222222223,0.16333333333333333,-0.7244444444444444,0.008752074606701651,-0.04140071304140532,1.0055171263411624
1589551358.2373998,-1.1096099711717822,-3.364562658979142,8.895047312192641,0.5222222222222223,0.14605200384376238,-0.7417257739340154,0.005104725500046159,-0.041155008786841196,0.9780200485580608
1589551358.2473998,-1.1077036558128601,-3.3625678852709533,8.835678852709533,0.5222222222222223,0.14333333333333334,-0.7444444444444445,0.005984759035083706,-0.03658726201957168,0.971149129789087
1589551358.2573998,-1.1283972622975036,-3.36,8.760304790979369,0.5222222222222223,0.14333333333333334,-0.7444444444444445,0.007319399891297309,-0.03413216984356802,0.9689741504430307
1589551358.2673998,-1.179930362485768,-3.383958217491461,8.747986072497154,0.5222222222222223,0.14333333333333334,-0.7444444444444445,0.006764670106360842,-0.03642919037073318,0.9625597172590524
1589551358.2773998,-1.2028882966744239,-3.3577792583139403,8.807997335034907,0.5222222222222223,0.14333333333333334,-0.7444444444444445,0.006544984694978735,-0.03568235153023868,0.958210129230096
1589551358.2873998,-1.2561489062813567,-3.355382968760452,8.84,0.5273498784757062,0.12196809894381638,-0.766664288209542,0.005705973902474605,-0.03742361741739899,0.9566585962493918
1589551358.2973998,-1.2475200479011184,-3.285066826337061,8.869973269465175,0.5288888888888889,0.11555555555555555,-0.7733333333333333,0.002184577414014832,-0.04144865388584341,0.955023808000158
1589551358.3073997,-1.2247395662382912,-3.1913280480723105,8.780807180548893,0.5288888888888889,0.11555555555555555,-0.7733333333333333,0.0027554858726484698,-0.03754843524690573,0.958638572409779
1589551358.3173997,-1.2066158273381296,-3.1766920863309354,8.870457553956834,0.5288888888888889,0.11555555555555555,-0.7733333333333333,0.007652452608834131,-0.032347448937929076,0.9679610157426801
1589551358.3273997,-1.1706526322618314,-3.1254977456291155,8.795840604625514,0.5288888888888889,0.11555555555555555,-0.7733333333333333,0.005701518342091828,-0.033287234376818284,0.9714728984598561
1589551358.3373997,-1.1948961088024177,-3.0986720816018134,8.73283906309029,0.5227083070981824,0.10628468286949586,-0.7733333333333333,-0.001516942995983927,-0.04290319475615122,0.9690696295931979
1589551358.3473997,-1.3710022559783426,-3.1430067679350278,8.867015791848399,0.5022222222222222,0.07555555555555556,-0.7733333333333333,0.0012540042365904508,-0.038780387807590425,0.978801558807509
1589551358.3573997,-1.3575414323396209,-3.125248594037725,8.983950131886727,0.5022222222222222,0.07555555555555556,-0.7733333333333333,0.00463151125846502,-0.03358372266607027,0.9987188553155342
1589551358.3673997,-1.3495938204891031,-3.1243907307336545,8.97114129464648,0.5022222222222222,0.07555555555555556,-0.7733333333333333,0.01855254930332365,-0.008754101569574419,1.0155275771937138
1589551358.3773997,-1.3557199530292932,-3.137509917801263,9.021479577263639,0.5022222222222222,0.07555555555555556,-0.7733333333333333,0.02520366444349043,0.007359862188977325,1.0279912923282553
1589551358.3873997,-1.4402701835814418,-3.17569498688704,8.891293937850229,0.5098755788674847,0.06216218142634626,-0.7824216943495824,0.005409945227347992,-0.02251152349204927,1.0230181789069566
1589551358.3973997,-1.5377897125567324,-3.165552571860817,8.674608547655069,0.52,0.04444444444444445,-0.7944444444444444,-0.013457485298069363,-0.05576171009276276,1.0145931802007682
1589551358.4073997,-1.6654011212062632,-3.227757863632598,9.235974151500926,0.52,0.04444444444444445,-0.7944444444444444,-0.024010778796616433,-0.06761900693308587,1.0207730332798712
1589551358.4173996,-1.5894747420608335,-3.1026329894144444,8.774742060833445,0.52,0.04444444444444445,-0.7944444444444444,0.008668911011534549,-0.015099886861498234,1.0473121447023566
1589551358.4273996,-1.5379681640469163,-3.0139044921407483,8.959002832522142,0.52,0.04444444444444445,-0.7944444444444444,0.004319913582968342,-0.024945606261789263,1.053299258051055
1589551358.4373996,-1.592543591203473,-2.974364102199132,8.967643584086542,0.5165253560442515,-0.002463248958160351,-0.7987877493891301,-0.004839372831663162,-0.02998833639333364,1.0549720980532147
1589551358.4473996,-1.5173783582813358,-2.8831672108887525,8.80158950567392,0.5155555555555555,-0.015555555555555557,-0.8,-0.0018374596821839045,-0.021759677746261582,1.0616073902141236
1589551358.4573996,-1.5961187287627423,-2.947059764141515,8.761764941035379,0.5155555555555555,-0.015555555555555557,-0.8,-0.011088056155384322,-0.033790200516093195,1.0608906499310569
1589551358.4673996,-1.7286835274048802,-3.0078291181487797,8.90779425943781,0.5155555555555555,-0.015555555555555557,-0.8,-0.022100022920646695,-0.03988712600267413,1.0501400354774992
1589551358.4773996,-1.7301047646383467,-2.9663678602181403,8.904051198335248,0.5155555555555555,-0.015555555555555557,-0.8,-0.018159346363644045,-0.027988251455354725,1.0433853574824812
1589551358.4873996,-1.7280104956687394,-2.932741813737824,8.797903022896373,0.5208900550743044,-0.032120580376933494,-0.7963500792766456,-0.006544984694978735,-0.01366469343330002,1.0359667109674486
1589551358.4973996,-1.8085681785178374,-2.938568178517837,8.945835229197929,0.5366666666666666,-0.0811111111111111,-0.7855555555555556,-0.009895570789857245,-0.026284063776433796,1.0137319779619829
1589551358.5073996,-1.7888627151051626,-2.896655449330784,8.891170936902485,0.5366666666666666,-0.0811111111111111,-0.7855555555555556,-0.0076394863420587355,-0.023881560406913423,0.9942394061383905
1589551358.5173995,-1.828767628319851,-2.8749294867205957,8.824383814159926,0.5366666666666666,-0.0811111111111111,-0.7855555555555556,-0.007098091891801872,-0.01567492364420537,0.9744997978474403
1589551358.5273995,-1.88178387754481,-2.8621414442652386,8.855713155412191,0.5366666666666666,-0.0811111111111111,-0.7855555555555556,-0.011999138607461015,-0.01515461751931848,0.9543603527876786
1589551358.5373995,-2.0765184532483816,-2.9499722099840717,9.0498054698885,0.5329681092622089,-0.107001012942315,-0.8040483425778441,-0.011999138607461015,-0.042150496998696885,0.9286767737412205
1589551358.5473995,-1.8072266813015938,-2.6812412247604676,8.782555166815303,0.5311111111111111,-0.12,-0.8133333333333334,-0.013599552570209924,-0.03475532396959186,0.9252434629361251
1589551358.5573995,-1.7554170085949985,-2.6257919060164987,8.843167624065995,0.5311111111111111,-0.12,-0.8133333333333334,-0.010612855838740947,-0.039065433346046785,0.9225473900057781
1589551358.5673995,-1.79,-2.6203566937235623,8.86885606493655,0.5311111111111111,-0.12,-0.8133333333333334,-0.005493063161840791,-0.03243644630945743,0.91031371451299
1589551358.5773995,-1.7952179082537074,-2.5947820917462927,8.647809027627654,0.5311111111111111,-0.12,-0.8133333333333334,-0.0089643472908758,-0.022859906226244744,0.8838555810995516
1589551358.5873995,-1.7933552344876136,-2.623223827561932,8.968423116891824,0.48385944524525193,-0.18201781144894014,-0.7948756513544821,-0.017080126077806713,-0.04501122289275141,0.8371263822486582
1589551358.5973995,-1.7673350556438792,-2.5629391891891893,9.137472178060413,0.46,-0.21333333333333332,-0.7855555555555556,-0.017060706163206197,-0.05078953213288148,0.8091356557492257
1589551358.6073995,-1.7739417824540822,-2.4901136488616786,9.011029805330498,0.46,-0.21333333333333332,-0.7855555555555556,-0.013351829563869076,-0.040205014530070186,0.7912513061546337
1589551358.6173995,-1.9905722568176936,-2.6183433540906162,8.732228902727078,0.46,-0.21333333333333332,-0.7855555555555556,0.002543085635723432,-0.015938614131492935,0.7754623978548383
1589551358.6273994,-1.9638869808652486,-2.549469248751768,8.80551357903547,0.46,-0.21333333333333332,-0.7855555555555556,0.003152953991948398,-0.023751707712526226,0.7629184671985584
1589551358.6373994,-2.0622202234215026,-2.5622202234215026,9.06449730161903,0.4477039702104663,-0.20103730354379964,-0.7404701129939321,-0.004193594734530426,-0.038597196482032636,0.74604959292383
1589551358.6473994,-2.0884701541705097,-2.553528791672157,8.953763341678746,0.43333333333333335,-0.18666666666666668,-0.6877777777777778,-0.005909732798385892,-0.030831960503476225,0.7510178046712682
1589551358.6573994,-1.9003339944299096,-2.4144288547556756,8.800872858469068,0.43333333333333335,-0.18666666666666668,-0.6877777777777778,0.008690213119438864,-0.016589323055344288,0.7794244632345635
1589551358.6673994,-2.054549633358871,-2.41257633796651,9.360767210244063,0.43333333333333335,-0.18666666666666668,-0.6877777777777778,-0.0031571653762852946,-0.04255947272945514,0.7770183337537787
1589551358.6773994,-2.2378104588100234,-2.6612418352400935,9.52859803649895,0.43333333333333335,-0.18666666666666668,-0.6877777777777778,-0.034991071419125504,-0.08728250486390625,0.7576846446163624
1589551358.6873994,-2.2559566408298855,-2.607598927676438,8.538374031120695,0.44602288400644946,-0.17598072925772676,-0.6717488716643679,0.00883306567426731,-0.02078668677836172,0.7998881774475212
1589551358.6973994,-2.2677623013240966,-2.508584027317169,8.849215368364163,0.4544444444444444,-0.1688888888888889,-0.6611111111111111,0.0025705951139440436,-0.03786458626635554,0.8523222008755841
1589551358.7073994,-2.2379410308178733,-2.4793135499600014,9.109803436059579,0.4544444444444444,-0.1688888888888889,-0.6611111111111111,-0.015688707202099708,-0.06643371805706588,0.8630182678134952
1589551358.7173994,-1.9263763285208182,-2.1038381394994476,8.071254428402728,0.4544444444444444,-0.1688888888888889,-0.6611111111111111,-0.002617000740370008,-0.03331872835401731,0.880447209762468
1589551358.7273993,-2.1532778076303063,-2.258435911213988,9.426766420038854,0.4544444444444444,-0.1688888888888889,-0.6611111111111111,-0.005442656295422114,-0.06404078016254325,0.8466553028366838
1589551358.7373993,-2.384046193690825,-2.3273485330955714,9.600394429584341,0.4588475636507734,-0.16797157238757035,-0.6607441845105837,-0.006466297415249553,-0.050911272065203975,0.8380574138685021
1589551358.7473993,-2.124740032821701,-2.05032898928468,9.096494642339994,0.4811111111111111,-0.16333333333333333,-0.6588888888888889,0.01342759094173275,-0.01926454126897815,0.8707877947197644
1589551358.7573993,-2.3034695425970084,-2.1295913722089748,9.320809668328636,0.4811111111111111,-0.16333333333333333,-0.6588888888888889,-0.020592061735522464,-0.0931433833957828,0.8952384543006131
1589551358.7673993,-2.380664696935261,-2.112665606042064,8.740662424168255,0.4811111111111111,-0.16333333333333333,-0.6588888888888889,0.004799357938478961,-0.05257863872534007,0.9685109850383016
1589551358.7773993,-2.4070571923743502,-2.1433934142114386,8.909819757365685,0.4811111111111111,-0.16333333333333333,-0.6588888888888889,0.0019392967360222953,-0.04460609355405699,1.0350116290859988
1589551358.7873993,-2.2016856335865302,-2.05798255957441,8.944855897112458,0.4988296877237563,-0.16333333333333333,-0.6600320228638983,-0.0037659940407908862,-0.07090400086226964,1.1080735186811375
1589551358.7973993,-2.2047547724667296,-2.0262383492000198,8.94,0.5155555555555555,-0.16333333333333333,-0.6611111111111111,0.01899778885839601,-0.06365685127965942,1.1581602913311597
1589551358.8073993,-2.1558111416870704,-2.010485363264068,8.9738696886308,0.5155555555555555,-0.16333333333333333,-0.6611111111111111,-0.003904947767264459,-0.07737791173083147,1.1875622366137468
1589551358.8173993,-2.113464522603226,-1.9425748341777418,8.930496120615805,0.5155555555555555,-0.16333333333333333,-0.6611111111111111,0.006836134551383367,-0.07355035415130863,1.218576499794766
1589551358.8273993,-2.1247705012483196,-1.91440368734396,8.81275206452852,0.5155555555555555,-0.16333333333333333,-0.6611111111111111,0.028401613534740165,-0.058774767014568505,1.2357811813282444
1589551358.8373992,-2.106646745755657,-1.900966610174531,8.96840067790563,0.5045584858786178,-0.16248740489664582,-0.668301502822955,0.012526342673987341,-0.0745292382991186,1.2266210035925427
1589551358.8473992,-2.129334612297633,-1.8038707593524266,9.030019184464498,0.4866666666666667,-0.16111111111111112,-0.68,0.006006199747478233,-0.08419845698114252,1.1993618149111056
1589551358.8573992,-2.1542408969930347,-1.7506806727447761,8.84425420465485,0.4866666666666667,-0.16111111111111112,-0.68,0.011850638850899403,-0.06990598242762418,1.17502748827324
1589551358.8673992,-2.2132839973721836,-1.7725033813811493,9.041736290914711,0.4866666666666667,-0.16111111111111112,-0.68,-0.0027101940977803506,-0.07680153531230642,1.1433448188912199
1589551358.8773992,-2.109354338478889,-1.6803228307605553,8.704069218298441,0.4866666666666667,-0.16111111111111112,-0.68,0.002632080027237519,-0.0709392162353847,1.1105992166856014
1589551358.8873992,-2.080377552418802,-1.7032074825270658,9.346446142250239,0.4935080626741583,-0.1701293149391683,-0.6781341647252296,0.009858661622511651,-0.061834274343859,1.059028550579362
1589551358.8973992,-2.049272820381513,-1.596378824734349,9.023075790551786,0.5111111111111111,-0.19333333333333333,-0.6733333333333333,0.012309866874143207,-0.03713286578744353,0.9961747827555761
1589551358.9073992,-1.7252248101083552,-1.477094567839015,8.906452716080492,0.5111111111111111,-0.19333333333333333,-0.6733333333333333,-0.01072971614064209,-0.056633904847654466,0.9436027901763562
1589551358.9173992,-1.5412192503959175,-1.9183469998240366,8.603937357029737,0.5111111111111111,-0.19333333333333333,-0.6733333333333333,0.004973136502498799,-0.052969690932342856,0.8004942210782918
1589551358.9273992,-2.006186521203589,-1.7116948794650713,8.471089565370404,0.5111111111111111,-0.19333333333333333,-0.6733333333333333,0.013023939865203154,-0.06102049429504722,0.6080800207096577
1589551358.9373991,-1.8623039501848608,-1.2811519750924303,9.047110332749563,0.508418844997946,-0.19501599965406152,-0.6713141337484595,0.006518982209892957,0.014621674960398106,0.15691820500677345
1589551358.9473991,-2.350880829015544,-1.5266321243523315,9.45678756476684,0.5022222222222222,-0.1988888888888889,-0.6666666666666666,-0.01552031776546771,-0.01810892138403443,-0.04745961699804529
1589551358.9573991,-1.9554676643506146,-1.6493853554249065,8.928476750400854,0.5022222222222222,-0.1988888888888889,-0.6666666666666666,-0.013549389302628348,0.00174556246007182,-0.19895564111540115
1589551358.9673991,-1.8303968253968255,-1.617936507936508,9.106904761904762,0.5022222222222222,-0.1988888888888889,-0.6666666666666666,-0.043066172440703335,-0.03597144366089504,-0.29437280699869633
1589551358.977399,-1.6445333783631655,-1.2187200270178995,8.49737701227063,0.5022222222222222,-0.1988888888888889,-0.6666666666666666,-0.011406261086590493,0.008838762493723673,-0.3954495520202772
1589551358.987399,-1.5530917099153236,-1.2296083720295001,8.72837510243103,0.5043966053597985,-0.21976296700962095,-0.6749293225894565,-0.007738239154471405,0.02038428570584054,-0.5569127655733279
1589551358.997399,-2.0091188779549825,-1.4363370659427668,8.982581834634091,0.5077777777777778,-0.25222222222222224,-0.6877777777777778,-0.03301494800122963,0.0037815960659303705,-0.8318417676450942
1589551359.007399,-1.9920158102766798,-1.4481674452030184,8.446191160618039,0.5077777777777778,-0.25222222222222224,-0.6877777777777778,-0.0006953409299851644,0.07796010425662867,-1.0195583371729766
1589551359.017399,-2.118633105517586,-1.6830838473078846,8.82973162193699,0.5077777777777778,-0.25222222222222224,-0.6877777777777778,-0.019896797113240074,0.06512054297460798,-1.15521289176416
1589551359.027399,-2.3010699988562275,-1.796031110602768,9.052217774219375,0.5077777777777778,-0.25222222222222224,-0.6877777777777778,-0.03397420731626816,0.03078449733457844,-1.2303404038870414
1589551359.037399,-2.207855529969371,-1.8017483064678397,8.615373024212479,0.5227000876885739,-0.264549347800706,-0.6931844118034286,0.001852380847219942,0.0719732242743064,-1.2538845604574367
1589551359.047399,-2.4951514160507555,-2.1496801622081234,9.052592713715743,0.5844444444444444,-0.31555555555555553,-0.7155555555555555,0.007351139251288986,0.09489856801108601,-1.288662352060189
1589551359.057399,-2.3465389852228586,-2.1934610147771414,9.0880983941372,0.5844444444444444,-0.31555555555555553,-0.7155555555555555,-0.03436191227501706,0.052064421470870106,-1.3591736697378267
1589551359.067399,-2.2759186356018533,-2.1877940258289246,8.90239032565476,0.5844444444444444,-0.31555555555555553,-0.7155555555555555,-0.01943038074604799,0.07151356273852584,-1.3857080697067237
1589551359.077399,-2.3058241589332718,-2.287872115587834,9.121968028896958,0.5844444444444444,-0.31555555555555553,-0.7155555555555555,-0.013083430315579719,0.06152677957742676,-1.4143607300659005
1589551359.087399,-2.5261762758881567,-2.44628944299089,9.065497273271758,0.7181629872472479,-0.42942232589743856,-0.7462696186083003,-0.01812701970594251,0.07218000088360679,-1.4337564071809175
1589551359.097399,-2.44,-2.38,8.86,0.9811111111111112,-0.6533333333333333,-0.8066666666666666,-0.008726646259971648,0.10471975511965977,-1.4409874636778182
1589551359.107399,-1.9405575879022299,-2.286610667101615,9.118354032201692,0.9811111111111112,-0.6533333333333333,-0.8066666666666666,-0.02064663564785315,0.06754943631503003,-1.4486841025600634
1589551359.117399,-2.1577952164864036,-2.4377952164864034,9.164550820567062,0.9811111111111112,-0.6533333333333333,-0.8066666666666666,-0.04739358095728529,0.010899747618885396,-1.4769831674589855
1589551359.127399,-1.9722104826400724,-2.340144036275803,8.678653735014745,0.9811111111111112,-0.6533333333333333,-0.8066666666666666,-0.024533112923181298,0.06393961134707465,-1.482145323955221
1589551359.137399,-1.7360274439488463,-2.29663663441163,8.653792362520932,0.9811111111111112,-0.6533333333333333,-0.8066666666666666,-0.004193450114659662,0.09648307184070926,-1.4767214138729483
1589551359.147399,-1.0167028145318966,-2.279110626108307,8.76507593325149,0.9044444444444444,-0.8388888888888889,-0.8711111111111111,0.0010624353556343078,0.0663868712367388,-1.532749753133044
1589551359.157399,-1.1404578146611342,-2.3604578146611344,8.648549100968188,0.9044444444444444,-0.8388888888888889,-0.8711111111111111,0.010816726319435465,0.09371986578916612,-1.6460717980710045
1589551359.167399,-1.4518331975744412,-2.603907819712191,8.808276540863426,0.9044444444444444,-0.8388888888888889,-0.8711111111111111,-0.014166435444528029,0.0818123086872342,-1.8499819717170018
1589551359.177399,-1.5838462622561356,-2.7051861321951316,8.706054279329159,0.9044444444444444,-0.8388888888888889,-0.8711111111111111,-0.032124021080243384,0.08485742840609835,-1.9761901496574856
1589551359.187399,-1.4410763772847632,-2.721076377284763,9.318025656186535,0.8454335015753046,-0.7153827147798715,-0.848515843023671,-0.03202284785673945,0.08430729070603911,-2.0712497702174884
1589551359.197399,-1.73,-3.021893090828435,9.155389819230344,0.6055555555555555,-0.21333333333333332,-0.7566666666666667,-0.022580693194816294,0.08535324436469581,-2.157340163787744
1589551359.207399,-1.463049211965262,-2.8610809807754163,8.330023257540143,0.6055555555555555,-0.21333333333333332,-0.7566666666666667,0.026394639496810292,0.17161037747736976,-2.2019579484265535
1589551359.217399,-1.08,-2.59,7.67,0.6055555555555555,-0.21333333333333332,-0.7566666666666667,0.014180800172453925,0.1908953869368798,-2.2263856270752664
1589551359.2273989,-1.1923506464328752,-2.807211249770225,8.88338698147505,0.6055555555555555,-0.21333333333333332,-0.7566666666666667,-0.04301178682331213,0.14677539125443168,-2.2843952510281147
1589551359.2373989,-1.6343606351484705,-3.2524374271104333,9.550706198977302,0.6055555555555555,-0.21333333333333332,-0.7566666666666667,-0.030256438098696214,0.07163097347526054,-2.3345947685359856
1589551359.2473989,-1.861400209606296,-3.57372683949299,9.651400209606296,0.5933577434585917,-0.1568748887702438,-0.7545756131643301,-0.010051061637268564,0.05891756715150614,-2.356858574495616
1589551359.2573988,-1.58578743149726,-3.5455314212568503,9.293316532661306,0.5666666666666667,-0.03333333333333333,-0.75,-0.024587698480171127,0.13558290504374038,-2.3462191854391565
1589551359.2673988,-1.6193431737269492,-3.4616420656826272,8.848702948117925,0.5666666666666667,-0.03333333333333333,-0.75,-0.009031152944865107,0.06786617741946709,-2.3453040945253156
1589551359.2773988,-1.6894475739939623,-3.692527621300302,8.817154461423547,0.5666666666666667,-0.03333333333333333,-0.75,-0.02372255650283573,0.12482178616782733,-2.3108225701590275
1589551359.2873988,-1.5589100868320314,-3.6990544956583986,9.326250661355077,0.5666666666666667,-0.03333333333333333,-0.75,-0.02301058495650588,0.10631052596325122,-2.2866155375838124
1589551359.2973988,-1.4810646920129678,-3.6279750589448865,8.769248636899498,0.6044444444444445,0.03888888888888889,-0.7588888888888888,-0.022779913589504396,0.06743340763273208,-2.233593272180943
1589551359.3073988,-1.4501606248157972,-3.7593173445328616,9.008755157677571,0.6044444444444445,0.03888888888888889,-0.7588888888888888,-0.018566025114127804,0.0969306269603682,-2.1906116097321022
1589551359.3173988,-1.30590721284382,-3.7706752449533703,8.935865895407863,0.6044444444444445,0.03888888888888889,-0.7588888888888888,-0.0060248730752758455,0.11178485143434139,-2.1307422639841134
1589551359.3273988,-1.2995374011586114,-3.8046530508689584,9.201170028331008,0.6044444444444445,0.03888888888888889,-0.7588888888888888,-0.008320000559160249,0.09916615382390283,-2.1101995333129904
1589551359.3373988,-1.221935166994106,-3.709819908316961,8.86139489194499,0.6004300371098014,0.049816997744306195,-0.7642414320017463,-0.026836794644031176,0.05323961436968214,-2.091716602053333
1589551359.3473988,-1.1799602964531497,-3.5832362802188107,8.56283924475031,0.5844444444444444,0.09333333333333334,-0.7855555555555556,-0.029452431127404314,0.061086523819801536,-2.0245819323134224
1589551359.3573987,-1.2047049062865332,-3.6660276426443414,9.122494814647208,0.5844444444444444,0.09333333333333334,-0.7855555555555556,-0.027286751300881058,0.06517725238101213,-2.0096628046195955
1589551359.3673987,-1.0958989731487978,-3.4704407168824543,8.466010587409912,0.5844444444444444,0.09333333333333334,-0.7855555555555556,-0.019211951906380278,0.08130150572753722,-1.9516840466756207
1589551359.3773987,-9.098714763899709,-10.462643523294247,10.205030209890317,0.5844444444444444,0.09333333333333334,-0.7855555555555556,-0.06747624637460514,0.22338329509617705,-2.4369192520027245
1589551359.3873987,-27.390066025549018,-23.628735467202524,12.844438065164345,0.5806699838923177,0.10465671498971342,-0.7798039966189816,-0.579644493182637,0.10523706600029253,-5.6158599077225855
1589551359.3973987,-0.9468339922319322,-0.9490423429047024,2.8463320155361354,0.5611111111111111,0.16333333333333333,-0.75,-2.002263461115706,-1.0927768653162,-8.903853528804017
1589551359.4073987,-0.21229331391316397,-3.414480857261756,4.315413372173672,0.5611111111111111,0.16333333333333333,-0.75,-1.8031385548687842,0.16464535142232872,-7.088722909310166
1589551359.4173987,-2.4064119199130842,-4.672629520409747,19.4754421853174,0.5611111111111111,0.16333333333333333,-0.75,0.15628291818371565,2.1914622808608546,-6.166027169097024
1589551359.4273987,-2.563455509816339,-1.7662735512982901,6.454986542115263,0.5611111111111111,0.16333333333333333,-0.75,2.109349920061787,0.822656053532427,-5.037043584481428
1589551359.4373987,-1.2631487489689304,0.5645955457794886,8.220070387682156,0.5569702746463814,0.17242959704273975,-0.7482350533101152,1.7915198921245947,0.14901870212059828,-4.0848160056631935
1589551359.4473987,0.8011692285795616,-1.7157648377455166,12.992575789923142,0.4933333333333334,0.31222222222222223,-0.7211111111111111,-0.8320998608560616,-0.3879248339496702,-2.6270741398878146
1589551359.4573987,0.5922302875035583,-1.9620143040136635,9.724173783091375,0.4933333333333334,0.31222222222222223,-0.7211111111111111,-0.3673119204142722,0.09558486241184089,-2.1183307725040694
1589551359.4673986,0.9931821383293422,-2.233629384420341,9.461488942104522,0.4933333333333334,0.31222222222222223,-0.7211111111111111,0.4000240434400407,0.22166030308029955,-1.6633217953857302
1589551359.4773986,0.427485290913053,-2.405009806057965,7.425653955110046,0.4933333333333334,0.31222222222222223,-0.7211111111111111,0.06476283036064565,0.12219838705154773,-1.2961937851259815
1589551359.4873986,0.30776383389176565,-2.4828333840999086,8.721180830541172,0.49081174625737534,0.316933608600986,-0.7203811780101759,-0.2011144633719088,-0.11754468663140483,-0.9254897652029598
1589551359.4973986,0.4184875621890547,-2.380626865671642,8.167562189054726,0.45485019347705913,0.38412493090105027,-0.7099712548369265,0.026510986927836794,0.07291742484389244,-0.6365448058428747
1589551359.5073986,0.34057563536752394,-2.558848729264952,8.306653287170903,0.4511111111111111,0.3911111111111111,-0.7088888888888889,0.04978345178835751,0.057122343326045336,-0.35680923829257266
1589551359.5173986,0.2927027849642368,-2.6545944300715267,9.000809618018565,0.4511111111111111,0.3911111111111111,-0.7088888888888889,-0.0685845536406838,-0.05167177931094119,-0.19666428977092856
1589551359.5273986,-0.0710229714786455,-4.817782762002128,9.06932650378685,0.4511111111111111,0.3911111111111111,-0.7088888888888889,0.021737731894955453,0.046247433477451985,0.15615489931297644
1589551359.5373986,-2.709718221665623,-15.901802128991859,7.937575453976205,0.45143338203576144,0.39299102483823833,-0.7099094134836151,0.045198645192986206,0.12607121374837404,1.1121045100399805
1589551359.5473986,1.6255121306304217,0.35170826181750703,6.933485410771443,0.4577777777777778,0.43,-0.73,0.04636129499823691,-0.15114895821782293,2.8047861128086495
1589551359.5573986,3.5494442428840003,-3.6973389623668327,11.994007388106468,0.4577777777777778,0.43,-0.73,0.007945841825731135,-0.31081334098447466,2.472736082092356
1589551359.5673985,9.166007454071703,-10.801046373561134,8.210435865298987,0.4577777777777778,0.43,-0.73,-0.056943065029399324,-0.12972801952829663,1.7665033284132614
1589551359.5773985,-1.1034104267636964,-1.0976948573280498,10.267556825714834,0.4577777777777778,0.43,-0.73,-0.016256516989144626,0.08243621446572376,0.16952748979925022
1589551359.5873985,0.21265677710177777,-4.650458435838133,7.894928627196794,0.4577777777777778,0.43,-0.73,0.1859415981954326,0.15590152964945342,0.14458972225981903
1589551359.5973985,-0.8335425601039638,-3.7950097465886943,8.981893437296947,0.4545163526099198,0.42130286621904556,-0.7093443072702332,-0.12098440357056695,-0.10370263869803378,-0.04835945589874477
1589551359.6073985,-0.14593239650588674,-4.062682301557159,8.636484998101025,0.4544444444444444,0.4211111111111111,-0.7088888888888889,-0.05597643939644317,-0.028614836317487027,-0.019736248473967877
1589551359.6173985,0.06413933828887917,-4.081141233056406,8.586924646552982,0.4544444444444444,0.4211111111111111,-0.7088888888888889,0.03240630740025108,0.023928639569865413,0.001979108232111337
1589551359.6273985,0.26281992420929895,-4.172839965019677,8.808529915464218,0.4544444444444444,0.4211111111111111,-0.7088888888888889,-0.015106897381926894,-0.003579005304027095,0.00031197823975421504
1589551359.6373985,0.12856189560594922,-4.321304642877339,8.630066730758355,0.45652170634696215,0.4196730067170603,-0.7088888888888889,0.0027379957510441635,0.0017967586261597593,7.843642707370037e-05
1589551359.6473985,0.11,-4.08,8.76,0.4833333333333333,0.4011111111111111,-0.7088888888888889,0.02399827721492203,0.01090830782496456,0.001090830782496456
1589551359.6573985,0.2036124462433595,-4.17361244624336,8.853612446243359,0.4833333333333333,0.4011111111111111,-0.7088888888888889,-0.0005094039019702644,0.001377542946173111,0.0004100618625827811
1589551359.6673985,0.21142556468172485,-4.205712782340862,8.626649127310062,0.4833333333333333,0.4011111111111111,-0.7088888888888889,-0.015271630954950384,0.0027015421083551863,0.0
1589551359.6773984,0.18057420320687073,-4.18,8.655742032068709,0.4833333333333333,0.4011111111111111,-0.7088888888888889,0.004363323129985824,0.0033351282008356464,6.263585334627839e-05
1589551359.6873984,0.18883622897214672,-4.18,8.738362289721467,0.4833333333333333,0.4011111111111111,-0.7088888888888889,0.004363323129985824,0.004236375403889834,0.0009638830564004653
1589551359.6973984,0.2316189734902248,-4.190421683988829,8.905632525983243,0.4833333333333333,0.4177777777777778,-0.7088888888888889,0.005500152500032265,-0.0006990187093915295,-0.0001306040243683088
1589551359.7073984,0.17169969326646867,-4.126798773065874,8.781303374068845,0.4833333333333333,0.4177777777777778,-0.7088888888888889,-0.0032014043197191987,0.002088957678199613,-0.0009981268957031573
1589551359.7173984,0.19366697533462413,-4.203666975334625,8.59375115750484,0.4833333333333333,0.4177777777777778,-0.7088888888888889,-0.013580792736404439,0.000990829543154875,0.00010000123934158099
1589551359.7273984,0.22897550298846706,-4.238975502988467,8.726158136206752,0.4833333333333333,0.4177777777777778,-0.7088888888888889,-0.007803448408988559,2.793882191889441e-05,0.0010628919605775616
1589551359.7373984,0.20591068391866912,-4.209888354898337,8.73,0.4833333333333333,0.4177777777777778,-0.7088888888888889,0.0009043289635356569,0.003941605126620391,0.00043389659472639066
1589551359.7473984,0.1962584241617439,-4.202516848323488,8.823876362426159,0.47985643102125336,0.4177777777777778,-0.7088888888888889,0.006544984694978735,0.00517960834986877,0.0013653763451099662
1589551359.7573984,0.18188022437307524,-4.179800373955126,8.795441047074352,0.4777777777777778,0.4177777777777778,-0.7088888888888889,0.006544984694978735,0.0050221767641784425,0.0008639542966076747
1589551359.7673984,0.22388895197002384,-4.1907936868400135,8.709206313159985,0.4777777777777778,0.4177777777777778,-0.7088888888888889,-0.006891295909678417,0.0004155486857358474,-0.001679535075582144
1589551359.7773983,0.1993570322239432,-4.233869139813381,8.686452344074647,0.4777777777777778,0.4177777777777778,-0.7088888888888889,-0.008691577807857846,0.0018648092403124978,-0.000703841553588435
1589551359.7873983,0.20353262241292275,-4.210778962645129,8.750597867238769,0.4777777777777778,0.4177777777777778,-0.7088888888888889,0.0034878983882404187,0.003272492347489368,-0.0008556702973627394
1589551359.7973983,0.20296928190956787,-4.178907845728704,8.762969281909568,0.47309063238415633,0.4123094414852194,-0.72373151596869,0.007311917066588543,0.003272492347489368,-0.001090830782496456
1589551359.8073983,0.19893387314439948,-4.150355375618534,8.903603238866397,0.4711111111111111,0.41,-0.73,0.0039756684659407494,0.00545415391248228,-0.001090830782496456
1589551359.8173983,0.17796971060128958,-4.15734342979957,8.777818263607738,0.4711111111111111,0.41,-0.73,-0.0036471161444870765,0.00545415391248228,-0.001090830782496456
1589551359.8273983,0.21643660915228807,-4.234298574643661,8.73,0.4711111111111111,0.41,-0.73,-0.010597343310824535,0.00444106425852083,-0.001090830782496456
1589551359.8373983,0.19497828628695507,-4.231659428762319,8.713318857524637,0.4711111111111111,0.41,-0.73,9.474394636681607e-06,0.005273138314952594,-0.00018101559752968575
1589551359.8473983,0.21,-4.18,8.798994473015942,0.4711111111111111,0.41,-0.7155555555555555,0.00850727430260312,0.0034370213155157643,-0.0009263018144700598
1589551359.8573983,0.21,-4.18,8.781093446576044,0.4711111111111111,0.41,-0.7155555555555555,0.0046018761668186635,0.006366069917354106,0.002002746787368283
1589551359.8673983,0.21,-4.18,8.725419140237001,0.4711111111111111,0.41,-0.7155555555555555,-0.0025828330992177188,0.0035680605967486467,0.00019704549950618584
1589551359.8773983,0.19212902922657646,-4.197870970773423,8.702129029226576,0.4711111111111111,0.41,-0.7155555555555555,-0.006196623102401103,0.003272492347489368,-0.0009747102516372453
1589551359.8873982,0.19661433471235107,-4.219843004137053,8.739686008274106,0.4711111111111111,0.41,-0.7155555555555555,-0.00365893673099179,0.003272492347489368,-0.001090830782496456
1589551359.8973982,0.20718546073579017,-4.194072696321049,8.78155638220737,0.46312726584912206,0.4115967690523978,-0.7155555555555555,0.005656460192026641,0.004056304523191323,-0.00030701860679450076
1589551359.9073982,0.21909729685045878,-4.170902703149541,8.808194593700918,0.46,0.4122222222222222,-0.7155555555555555,0.006741923971573946,0.0013862396973892714,0.0
1589551359.9173982,0.21189846630908482,-4.1618984663090846,8.728984663090849,0.46,0.4122222222222222,-0.7155555555555555,0.0003588030601410462,0.002858311249592939,-0.0017674804670964827
1589551359.9273982,0.20010383122159692,-4.229273181448822,8.719896168778403,0.46,0.4122222222222222,-0.7155555555555555,-0.009726867208306423,3.397868781063098e-05,0.0010568520946858252
