time,acc_x,acc_y,acc_z,mag_x,mag_y,mag_z,gyr_x,gyr_y,gyr_z
1589552744.8293278,-0.43,-4.13,8.91,0.4833333333333333,0.2822222222222222,-0.6233333333333333,0.04581489286485115,-0.007635815477475192,0.11562806294462433
1589552744.8393278,-0.41066251728907327,-4.149337482710927,8.813312586445367,0.4833333333333333,0.2822222222222222,-0.6233333333333333,0.01206461862953618,-0.10888663818342009,0.031252377356336916
1589552744.8493278,-0.41,-4.1380134344061075,8.867968653052415,0.4833333333333333,0.2822222222222222,-0.6233333333333333,-0.060175757068115066,-0.0822310554037608,-0.0271200148590547
1589552744.8593278,-0.3972403176146492,-4.132759682385351,8.967418570734079,0.4741180071661355,0.2822222222222222,-0.6233333333333333,-0.034712141050136786,-0.07658141182843739,0.02707968415066636
1589552744.8693278,-0.39569965364597803,-4.145699653645978,8.977201385416087,0.4688888888888889,0.2822222222222222,-0.6233333333333333,0.049761206727538226,-0.0003090596299355139,-0.05935900635899182
1589552744.8793278,-0.4058513796443861,-4.155851379644386,8.895634823911752,0.4688888888888889,0.2822222222222222,-0.6233333333333333,0.009233389499638908,0.01408630990874091,-0.058020157960289295
1589552744.8893278,-0.42114255174424253,-4.154428724127879,8.861142551744242,0.4688888888888889,0.2822222222222222,-0.6233333333333333,-0.007418582107963173,0.011811606023611754,-0.04734135637010574
1589552744.8993278,-0.434801112865629,-4.140397774268743,8.894005564328145,0.4688888888888889,0.2822222222222222,-0.6233333333333333,0.03429911885632626,0.006321962746139883,-0.0026902073843385887
1589552744.9093277,-0.43019289480988065,-4.139807105190119,8.91509644740494,0.4688888888888889,0.28494641810836646,-0.6200642982699602,0.05980631900054362,-0.03989782464028531,-0.013672472422298063
1589552744.9193277,-0.4021228448275862,-4.144040948275862,8.904040948275862,0.4688888888888889,0.2877777777777778,-0.6166666666666667,0.004809999527990827,-0.0422579381796849,-0.05787280468257599
1589552744.9293277,-0.396543735333364,-4.1661749413334555,8.828018911332995,0.4688888888888889,0.2877777777777778,-0.6166666666666667,-0.07210520466693099,-0.00014595941266735968,-0.04339185619135846
1589552744.9393277,-0.40698894023573395,-4.159033179292798,8.82494470117867,0.4688888888888889,0.2877777777777778,-0.6166666666666667,-0.005586861556876543,0.07974506002948689,-0.004435709117837236
1589552744.9493277,-0.421989095434701,-4.1440054522826495,8.863978190869403,0.4688888888888889,0.2877777777777778,-0.6166666666666667,0.018772994990887134,0.030831608775837543,0.1140110923311203
1589552744.9593277,-0.4236618399882989,-4.14,8.899014480035104,0.45621256886548683,0.2920032177855785,-0.6258217866835681,0.009525535815934242,0.020757375403476875,-0.008761300120723209
1589552744.9693277,-0.42,-4.14,8.927505155865788,0.4488888888888889,0.29444444444444445,-0.6311111111111111,-0.04219378806216401,0.04472406208235469,-0.036337029594200196
1589552744.9793277,-0.41374309020826483,-4.14,8.871173992290913,0.4488888888888889,0.29444444444444445,-0.6311111111111111,0.0074580791922702755,0.0338036943957496,0.0545777187097444
1589552744.9893277,-0.4028496074284742,-4.154300785143052,8.887203140572206,0.4488888888888889,0.29444444444444445,-0.6311111111111111,0.008985704981500864,0.07874990050051002,0.01645746761249691
1589552744.9993277,-0.3941919240452807,-4.148383848090561,8.927424227864158,0.4488888888888889,0.29444444444444445,-0.6311111111111111,-0.0324494431558146,-0.021111331524043347,-0.014147738341161106
1589552745.0093277,-0.40301609879097433,-4.14,8.926983901209026,0.4662436872768547,0.2864901618499601,-0.626049294914621,-0.05367589892152794,-0.04693929418154741,0.03715849083190262
1589552745.0193276,-0.41,-4.149082715977367,8.924541357988684,0.4755555555555556,0.2822222222222222,-0.6233333333333333,-0.024027770306428012,-0.06619625760057071,0.03493607813139258
1589552745.0293276,-0.40833388722720726,-4.16,8.91167275949928,0.4755555555555556,0.2822222222222222,-0.6233333333333333,0.00473043777684793,-0.09691270809030715,-0.006544259649593228
1589552745.0393276,-0.4,-4.164103791569583,8.824103791569582,0.4755555555555556,0.2822222222222222,-0.6233333333333333,-0.027404460452212804,0.023679091948465646,0.004034109891498015
1589552745.0493276,-0.4039816539655659,-4.166018346034434,8.857871577758962,0.4755555555555556,0.2822222222222222,-0.6233333333333333,0.04040279582081059,0.0074557037055981296,-0.002445887073753414
1589552745.0593276,-0.41,-4.16,8.918077412001928,0.4790706078892639,0.2797114705552877,-0.6168053789993035,0.07944134281908503,0.04879322000066655,-0.07862425973438336
1589552745.0693276,-0.41,-4.16,8.933629114162121,0.4833333333333333,0.2766666666666667,-0.6088888888888889,0.0011267336199869346,0.043949709683360025,-0.07473986001975248
1589552745.0793276,-0.41558099747692945,-4.16,8.885352020184564,0.4833333333333333,0.2766666666666667,-0.6088888888888889,-0.0061915665304219415,0.021793504349003866,-0.043076260258147384
1589552745.0893276,-0.4149993891264508,-4.154999389126451,8.885004276114843,0.4833333333333333,0.2766666666666667,-0.6088888888888889,-0.027275700623981644,-0.0087273126196433,0.01745915648505384
1589552745.0993276,-0.4205900621118012,-4.139409937888199,8.92,0.4833333333333333,0.2766666666666667,-0.6088888888888889,-0.002940500370207849,0.012388721029781174,-0.013103520082907744
1589552745.1093276,-0.41691050265631385,-4.1496342460155295,8.933089497343685,0.47024383598964714,0.2766666666666667,-0.6139792489669891,0.05311369646183295,0.0003013492476369381,-0.020078062298177518
1589552745.1193275,-0.41,-4.16,8.93282169947625,0.4633333333333333,0.2766666666666667,-0.6166666666666667,-0.019678985271479106,-0.07179023930818987,0.027184529509126622
1589552745.1293275,-0.40421691479750166,-4.154216914797502,8.86060297757002,0.4633333333333333,0.2766666666666667,-0.6166666666666667,-0.058089942200539944,-0.02206690211732755,0.015061494876175877
1589552745.1393275,-0.41317636710788835,-4.141215755261408,8.818784244738593,0.4633333333333333,0.2766666666666667,-0.6166666666666667,-0.10042460160049951,-0.002168579926664211,0.06111172762030243
1589552745.1493275,-0.4239292779901273,-4.1360707220098725,8.85428288803949,0.4633333333333333,0.2766666666666667,-0.6166666666666667,-0.06230386356768057,-0.01804051788807475,0.07377471515076985
1589552745.1593275,-0.4142534241448993,-4.154253424144899,8.9142534241449,0.4633333333333333,0.2778481733735832,-0.6180844747149664,0.08146152996880024,0.023331826224912408,-0.012976036723467414
1589552745.1693275,-0.42658448115288466,-4.163168962305769,8.93683103769423,0.4633333333333333,0.2822222222222222,-0.6233333333333333,-0.009344432587159723,-0.05845951498813478,0.13820089739543806
1589552745.1793275,-0.4193977360149467,-4.1506022639850535,8.941568304209254,0.4633333333333333,0.2822222222222222,-0.6233333333333333,0.1335835524255389,-0.10031938762086512,0.0146036334695047
1589552745.1893275,-0.41,-4.164826380658924,8.848611045271392,0.4633333333333333,0.2822222222222222,-0.6233333333333333,-0.08635358021400912,-0.03762971907850909,-0.04933372060651532
1589552745.1993275,-0.4146926335563265,-4.17,8.894692633556327,0.4633333333333333,0.2822222222222222,-0.6233333333333333,-0.14926056582710218,-0.07230092667869363,-0.011918783172295798
1589552745.2093275,-0.42605320707446015,-4.157893585851079,8.90907981061169,0.4650147797429056,0.28054077581264997,-0.6189615726684454,-0.08145929816075145,-0.012976275079860121,-0.034156837187682185
1589552745.2193274,-0.43233994191185754,-4.13,8.918509912867787,0.4688888888888889,0.2766666666666667,-0.6088888888888889,0.08909769184867569,-0.05707239326888232,0.05635238158810079
1589552745.2293274,-0.4154153644520617,-4.1437539066438145,8.858738280068556,0.4688888888888889,0.2766666666666667,-0.6088888888888889,0.023541775694794723,-0.034983566746484784,0.03580595132068667
1589552745.2393274,-0.40624521665184954,-4.1562452166518495,8.840038266785204,0.4688888888888889,0.2766666666666667,-0.6088888888888889,0.002984131181647566,0.01963077982621149,0.018573343113512764
1589552745.2493274,-0.3958488014553182,-4.154151198544682,8.906604794178728,0.4688888888888889,0.2766666666666667,-0.6088888888888889,-0.03647196417847561,0.044972935238649106,0.038610180062642066
1589552745.2593274,-0.3951342573532775,-4.16,8.927432871323361,0.4706003080066481,0.2780928492647994,-0.6125969636440338,-0.040305700923317436,0.041312203266016125,0.0035689392473938295
1589552745.2693274,-0.41586848776922547,-4.148263024461549,8.896526048923098,0.4755555555555556,0.2822222222222222,-0.6233333333333333,0.0581875743067906,0.012643377293110533,-0.004793695898796635
1589552745.2793274,-0.4311647281832861,-4.151164728183286,8.835341087266857,0.4755555555555556,0.2822222222222222,-0.6233333333333333,0.092900307085272,0.07008904961141155,0.05500619714600182
1589552745.2893274,-0.42918536230864807,-4.16,8.832443913074055,0.4755555555555556,0.2822222222222222,-0.6233333333333333,0.04473308904782862,0.04501512418157345,-0.03636700996401092
1589552745.2993274,-0.4162573882758736,-4.152514776551747,8.882455670344758,0.4755555555555556,0.2822222222222222,-0.6233333333333333,-0.06192736379607545,0.019667191519946264,-0.06955320667325857
1589552745.3093274,-0.41,-4.14,8.923674355059068,0.4743307705358658,0.28324287640529705,-0.6247622491896381,-0.125103641726887,-0.0016236660710935357,0.07536086384959884
1589552745.3193274,-0.4043568670423711,-4.145643132957629,8.934356867042371,0.4688888888888889,0.2877777777777778,-0.6311111111111111,0.004580646858203911,-0.01307625146997304,0.11200268991272216
1589552745.3293273,-0.41002183492794475,-4.15,8.869868990432332,0.4688888888888889,0.2877777777777778,-0.6311111111111111,0.03281543267872939,-0.03379669968816156,0.02607037500685066
1589552745.3393273,-0.42,-4.15,8.846167832167833,0.4688888888888889,0.2877777777777778,-0.6311111111111111,0.06628589627679163,-0.00043099258189545006,-0.01709400489857558
1589552745.3493273,-0.42,-4.154293191633331,8.898586383266663,0.4688888888888889,0.2877777777777778,-0.6311111111111111,0.02768769803929249,0.06129782113120397,-0.03776214891049486
1589552745.3593273,-0.4174827350686803,-4.16,8.91503452986264,0.4688888888888889,0.2877777777777778,-0.6255171890415117,-0.035072316483049516,0.06079272717055816,-0.04505477992223276
1589552745.3693273,-0.4089983592780823,-4.158998359278082,8.928998359278083,0.4688888888888889,0.2877777777777778,-0.6088888888888889,-0.10034569348983426,-0.07692057279074632,0.0445001687259409
1589552745.3793273,-0.4097700225960332,-4.146743325801323,8.887433258013223,0.4688888888888889,0.2877777777777778,-0.6088888888888889,-0.05139851503540828,-0.13286855719241103,-0.003961936839544751
1589552745.3893273,-0.4287251088086893,-4.140637445595655,8.821274891191312,0.4688888888888889,0.2877777777777778,-0.6088888888888889,-0.06490230981010803,-0.05855282007453138,-0.05074310525534867
1589552745.3993273,-0.42032030899479156,-4.146559897001736,8.860640617989583,0.4688888888888889,0.2877777777777778,-0.6088888888888889,0.019006028844363764,-0.04065562479564444,-0.15658906418252944
1589552745.4093273,-0.43123506676036544,-4.142921644413211,8.9,0.47310904193019443,0.28031135316623723,-0.6153814320293589,-0.04640591924103159,0.05168337849760001,-0.005218049990480242
1589552745.4193273,-0.40506598157495644,-4.169736073700174,8.924670092125218,0.4833333333333333,0.26222222222222225,-0.6311111111111111,-0.08004810057387368,0.044061894538386055,0.10482612463936358
1589552745.4293272,-0.4,-4.170574946626285,8.891724839878854,0.4833333333333333,0.26222222222222225,-0.6311111111111111,-0.05647233289851818,0.08324808268276476,0.02888012543857854
1589552745.4393272,-0.39507952332375035,-4.15492047667625,8.854602383381248,0.4833333333333333,0.26222222222222225,-0.6311111111111111,-0.06437636546518556,-0.0020927400906523286,0.006126426560639581
1589552745.4493272,-0.39705497059548545,-4.16,8.897637426488714,0.4833333333333333,0.26222222222222225,-0.6311111111111111,-0.03864169228027327,-0.07206194019063436,0.05405468525514079
1589552745.4593272,-0.41119597572513095,-4.157608048549738,8.93,0.4833333333333333,0.26527860463089026,-0.6336359487530542,-0.0033700295393156087,-0.06987453670523702,-0.030470920777175965
1589552745.4693272,-0.41422126647144947,-4.123819546120059,8.92190977306003,0.4833333333333333,0.2877777777777778,-0.6522222222222223,-0.07106311362465062,-0.11859380904443695,0.012267454231852529
1589552745.4793272,-0.35359836169404213,-3.9070573829329054,8.85179918084702,0.4833333333333333,0.2877777777777778,-0.6522222222222223,-0.052012956246915,-0.06437421585306652,0.0757313750049503
1589552745.4893272,-0.3153763440860215,-3.5981720430107527,8.843440860215054,0.4833333333333333,0.2877777777777778,-0.6522222222222223,-0.0744814566543279,-0.12198537782756066,0.03457816286881239
1589552745.4993272,-0.34278096296149346,-3.310711012359395,8.96520641974329,0.4833333333333333,0.2877777777777778,-0.6522222222222223,-0.0054604080060832,-0.14621073213634955,0.04784143559617146
1589552745.5093272,-0.3738071184498164,-3.0008831207419826,9.002680136681029,0.473821762845682,0.28286858010673194,-0.6402560528990481,-0.058548282342844565,-0.08133615110709105,0.09706069550300708
1589552745.5193272,-0.39293336236933796,-2.6213777584204414,8.908088704994194,0.4488888888888889,0.27,-0.6088888888888889,-0.07309057179925113,-0.1281557904667598,0.1366544280712292
1589552745.5293272,-0.38537181139701787,-2.6924461736764216,9.204760267977912,0.4488888888888889,0.27,-0.6088888888888889,0.024398531446757986,0.05094458012361335,0.25093588247970866
1589552745.5393271,-0.4438803680981595,-2.774079754601227,9.241330521472392,0.4488888888888889,0.27,-0.6088888888888889,0.03653195636687325,-0.005899186102887276,0.44599503260641715
1589552745.5493271,-0.30752549019607844,-2.8303348039215686,9.015385784313725,0.4488888888888889,0.27,-0.6088888888888889,0.03843788233773296,-0.001922856614635907,0.41477450229901025
1589552745.5593271,-0.2526980392156863,-2.7823607843137252,8.857756862745097,0.4488888888888889,0.27,-0.6088888888888889,0.0683416179653466,0.027980879012977723,0.44467823792662386
1589552745.569327,-0.2209488212910634,-2.893795285164254,8.95569292774638,0.4688888888888889,0.2877777777777778,-0.6311111111111111,3.1782024014374854e-05,-0.056698737864531085,0.5963254288717608
1589552745.579327,-0.281385929840896,-3.0264353588739494,9.02485171290084,0.4688888888888889,0.2877777777777778,-0.6311111111111111,-0.015919491896724987,-0.12318860133000842,0.7205101165551837
1589552745.589327,-0.35,-3.133329160363744,8.959996870272807,0.4688888888888889,0.2877777777777778,-0.6311111111111111,0.001069322565096023,-0.004003582072283908,0.6512287083525938
1589552745.599327,-0.34893617021276596,-3.157872340425532,8.96404255319149,0.4688888888888889,0.2877777777777778,-0.6311111111111111,0.12820743069171114,0.023278793081786067,0.6287827140296592
1589552745.609327,-0.3328826808871652,-3.1364413404435827,8.854910616894921,0.4764016146191034,0.2838237116039807,-0.6283432647894531,0.061637425755404825,0.061804401792041955,0.6551883198218424
1589552745.619327,-0.32,-3.1507908650463383,8.912474519027803,0.49,0.2766666666666667,-0.6233333333333333,0.024693787921909086,0.045547640090666155,0.7275979254752275
1589552745.629327,-0.3254861717302902,-3.1607983989439843,8.883367540292532,0.49,0.2766666666666667,-0.6233333333333333,-0.052208082333310334,-0.03628544587123486,0.6567861972806626
1589552745.639327,-0.34,-3.11,8.753241592844242,0.49,0.2766666666666667,-0.6233333333333333,0.02040220394640142,-0.07253413317981816,0.6707652986407023
1589552745.649327,-0.35524502390975604,-3.0947549760902437,8.73,0.49,0.2766666666666667,-0.6233333333333333,0.039190727417442055,-0.08390293022043499,0.7032928502592162
1589552745.659327,-0.39628155698743,-3.0830323756205766,8.776064751241154,0.4869755466356818,0.2766666666666667,-0.6277536882504137,0.03378043793386261,-0.11432081165750932,0.7198576059233639
1589552745.669327,-0.409784264499383,-3.1725539338751543,8.99852474362793,0.4755555555555556,0.2766666666666667,-0.6444444444444445,-0.057743432194827075,-0.007549295389880051,0.8158002267523788
1589552745.679327,-0.37738275140849054,-3.178691375704245,9.108593016901887,0.4755555555555556,0.2766666666666667,-0.6444444444444445,-0.027440732060582965,-0.07461546879005289,0.7691842055963044
1589552745.689327,-0.36157637881328786,-3.170788189406644,8.918916545759455,0.4755555555555556,0.2766666666666667,-0.6444444444444445,0.09670222800189625,-0.09703016991244495,0.6053844666249777
1589552745.699327,-0.39123459683900347,-3.17,8.975555518349854,0.4755555555555556,0.2766666666666667,-0.6444444444444445,0.03811172231227137,0.030529747062943775,0.6368835467136472
1589552745.709327,-0.44039093892311815,-3.17,8.912354507098849,0.4755555555555556,0.2766666666666667,-0.6444444444444445,0.004406935906382178,-0.05066814746033471,0.5932205279605636
1589552745.719327,-0.459620998271297,-3.1464931398936518,8.949383575132936,0.4755555555555556,0.23555555555555555,-0.6088888888888889,-0.031546418531822384,-0.07693196341783891,0.7034977031515419
1589552745.729327,-0.5244592924000706,-3.2544592924000706,8.818513569199977,0.4755555555555556,0.23555555555555555,-0.6088888888888889,-0.11350560818374408,-0.054644926277340564,0.5959251846107827
1589552745.739327,-0.5726356172074201,-3.2903616458864535,8.822093148377741,0.4755555555555556,0.23555555555555555,-0.6088888888888889,-0.0054117189645000695,0.01842577496284775,0.6400809726462356
1589552745.749327,-0.5601985388550856,-3.248357369939154,8.896119123313051,0.4755555555555556,0.23555555555555555,-0.6088888888888889,0.06118500335314774,0.028389182882116067,0.6853725151574911
1589552745.759327,-0.6024599821481702,-3.3163100267777446,8.91754001785183,0.47979219147740426,0.23555555555555555,-0.6124421964362459,0.00257865776051498,-0.014647640695376541,0.6943978853695402
1589552745.769327,-0.6169416642135217,-3.2869416642135216,8.924466686291826,0.51,0.23555555555555555,-0.6377777777777778,0.006580387725231972,-0.033073976480655715,0.5944391419889569
1589552745.779327,-0.6209617431469023,-3.296442614720353,8.971778692639823,0.51,0.23555555555555555,-0.6377777777777778,-0.07429603660929879,-0.0080870441642482,0.5731159431004637
1589552745.789327,-0.6436817425915324,-3.31946566342248,8.926306534718247,0.51,0.23555555555555555,-0.6377777777777778,0.06027561970657906,-0.05523714782778549,0.5725279232872986
1589552745.799327,-0.61,-3.229965488181709,8.857678076969382,0.51,0.23555555555555555,-0.6377777777777778,-0.02789268187538251,-0.11156696284615485,0.7009065144596318
1589552745.809327,-0.6116906907709999,-3.2991546546145,9.050701200759502,0.5093425091446111,0.23555555555555555,-0.6365567233320556,-0.016661212788273094,0.0015183181273659002,0.49000102413388064
1589552745.8193269,-0.6341128623623223,-3.29,8.927379257007226,0.5022222222222222,0.23555555555555555,-0.6233333333333333,-0.19903308290238408,-0.08656271863461602,0.561518592673287
1589552745.8293269,-0.6580961656926894,-3.296072124269517,8.799519171536554,0.5022222222222222,0.23555555555555555,-0.6233333333333333,-0.02399827721492203,-0.07653960575701924,0.46669412392621584
1589552745.8393269,-0.6860288363884588,-3.3170216272913438,8.659855818057707,0.5022222222222222,0.23555555555555555,-0.6233333333333333,-0.02399827721492203,-0.06587516979572053,0.4773585598875146
1589552745.8493268,-0.712498821378059,-3.3309364687058016,8.983124705344515,0.5022222222222222,0.23555555555555555,-0.6233333333333333,-0.023999305756597315,0.051271103860684,0.48279605982088913
1589552745.8593268,-0.760435732959984,-3.372881266339986,8.995108933239996,0.5022222222222222,0.23555555555555555,-0.6233333333333333,0.01783354126050237,-0.03239459017351537,0.4350804686920098
1589552745.8693268,-0.770587320846288,-3.34293660423144,8.943523925077727,0.49594710278641424,0.22928043611974758,-0.6641216096660852,-0.0554486484264726,0.06693864443392866,0.46283767289765565
1589552745.8793268,-0.7526760236386661,-3.3080280709159986,8.95338011819333,0.4955555555555556,0.2288888888888889,-0.6666666666666666,0.03234591848668227,-0.033539155671047524,0.34955755307978137
1589552745.8893268,-0.7354868333900216,-3.2476815667460306,8.852071033458047,0.4955555555555556,0.2288888888888889,-0.6666666666666666,0.00612014241675255,0.0032455052161918596,0.39567819151320793
1589552745.8993268,-0.7730291258659888,-3.300240776212384,8.934664076905175,0.4955555555555556,0.2288888888888889,-0.6666666666666666,-0.026641688205863483,0.017988328996369072,0.42352574754243155
1589552745.9093268,-0.7307850760243441,-3.241009383459871,8.872130920637504,0.49571755537010276,0.2285898123081864,-0.6666417436182748,-0.05839103119843596,-0.00962173187813566,0.4230485967501896
1589552745.9193268,-0.7905463168393414,-3.3178452645077248,9.03434000284964,0.5080492399827212,0.2058236253310446,-0.6647445613701796,-0.019277390549726395,0.005278702654706079,0.32526449512841576
1589552745.9293268,-0.8039181147345871,-3.2721637705308257,8.96779734983734,0.51,0.20222222222222225,-0.6644444444444444,0.05215578496400932,0.12409747290485945,0.3280062295933162
1589552745.9393268,-0.8288782432754106,-3.222243513449179,8.82635662143934,0.51,0.20222222222222225,-0.6644444444444444,-0.018635134059227426,0.025171701449310677,0.3189304707441833
1589552745.9493268,-0.8058275904757976,-3.225629307143152,8.917482771427393,0.51,0.20222222222222225,-0.6644444444444444,-0.03146857522500815,-0.0074627806271505785,0.34054046293592893
1589552745.9593267,-0.8396823428689516,-3.199682342868952,9.01968234286895,0.51,0.2024516412613127,-0.664585625391577,0.06278171858821925,0.044308249870162256,0.49449217837321285
1589552745.9693267,-0.8220317700096773,-3.1718729199612907,8.989841149951614,0.51,0.21666666666666667,-0.6733333333333333,-0.07993165740567335,0.01987391366414525,0.40865937248182926
1589552745.9793267,-0.8356332599118942,-3.1550220264317184,9.015721365638766,0.51,0.21666666666666667,-0.6733333333333333,0.018148877347107885,0.0556089434753163,0.27703798147819825
1589552745.9893267,-0.8420116967833846,-3.1872939941516085,9.149552373097398,0.51,0.21666666666666667,-0.6733333333333333,0.030006720713741455,0.13624842073860438,0.3878352866816501
1589552745.9993267,-0.7401111402817887,-3.016291677605671,8.424499868731951,0.51,0.21666666666666667,-0.6733333333333333,-0.09812331704306158,-0.09781579001358645,0.4037028980734294
1589552746.0093267,-0.6911709110002626,-2.9979390916250988,8.64473090049882,0.51,0.21666666666666667,-0.6733333333333333,-0.0006947638430917086,0.044323126641164085,0.3016031128707213
1589552746.0193267,-0.7599525822080199,-2.9736449850530877,8.650047417791981,0.5081827761170097,0.21030638307620064,-0.6905969602217411,-0.010286036146752477,0.10937869665261261,0.296685282924184
1589552746.0293267,-0.8050164098570396,-3.041704956333092,8.885082049285197,0.5077777777777778,0.2088888888888889,-0.6944444444444444,0.057080844158249495,-0.019960376874418796,0.3721270580374353
1589552746.0393267,-0.8283478889692384,-3.0961450742615564,9.001739444846192,0.5077777777777778,0.2088888888888889,-0.6944444444444444,0.048597278952662935,0.03433444044133517,0.3322543015711784
1589552746.0493267,-0.8959664861205145,-3.1513072669826223,8.97335195215527,0.5077777777777778,0.2088888888888889,-0.6944444444444444,0.06078913641622317,0.03498093189078118,0.3358271873071192
1589552746.0593266,-0.9574034378159757,-3.254157735085945,8.903894843276037,0.5077777777777778,0.2088888888888889,-0.6944444444444444,0.06952992908387319,-0.07430642229588447,0.297356721233043
1589552746.0693266,-0.9362039643211101,-3.23620396432111,8.963456095143707,0.5139471203611937,0.19919420768637813,-0.722647153397203,0.024820259831916783,0.0012515256165006872,0.38018389039976963
1589552746.0793266,-0.9285808805558465,-3.1529044027792326,9.048845536119549,0.5155555555555555,0.19666666666666666,-0.73,-0.004010415129894621,0.06474079361094666,0.3469274929992198
1589552746.0893266,-0.9212586851017772,-3.1162934255088857,8.836501867951538,0.5155555555555555,0.19666666666666666,-0.73,-0.03595951991691243,0.010427315473016383,0.31338093297285113
1589552746.0993266,-0.9680581354129741,-3.1977674583481033,8.968447713576746,0.5155555555555555,0.19666666666666666,-0.73,0.01838558355737646,-0.0029338359847419756,0.4025152440213551
1589552746.1093266,-0.9531900035448422,-3.257239985820631,9.109694966324,0.5155555555555555,0.19666666666666666,-0.73,0.05893212335731342,-0.033749206232694055,0.23546350004561492
1589552746.1193266,-0.9356870386005932,-3.1982366694810676,8.849416120023381,0.5011111111111111,0.20222222222222225,-0.7333333333333333,-0.10330749163857356,-0.019056205194748925,0.4309193447907758
1589552746.1293266,-1.022264920674893,-3.3447151850919163,9.294516242760011,0.5011111111111111,0.20222222222222225,-0.7333333333333333,-0.034123472374376414,0.11330042619005229,0.2580544676552014
1589552746.1393266,-1.0395158668299744,-3.2648562520877404,8.850680770515533,0.5011111111111111,0.20222222222222225,-0.7333333333333333,0.009043510678786563,0.04751963023982617,0.2931050773883606
1589552746.1493266,-0.9629494345508904,-3.154915724251484,8.794255600329302,0.5011111111111111,0.20222222222222225,-0.7333333333333333,0.05668950068773937,0.061751448965958654,0.291541388439486
1589552746.1593266,-1.0174704276615105,-3.2457840461025174,9.057773733697301,0.5011111111111111,0.20222222222222225,-0.7333333333333333,-0.024590508667960753,-0.06710710245161469,0.1557442996378895
1589552746.1693265,-0.9758979843867155,-3.1882571781414017,8.981795968773431,0.506991379859549,0.18654150555972104,-0.7607745874927104,-0.059150615513618304,-0.05191821449877411,0.03687148049141689
1589552746.1793265,-1.0243624075490947,-3.172181203774547,8.673266173595172,0.5077777777777778,0.18444444444444444,-0.7644444444444445,-0.15615110969067375,-0.14641171472921066,0.15574472584330531
1589552746.1893265,-1.0778474878857436,-3.198923743942872,8.958519935390632,0.5077777777777778,0.18444444444444444,-0.7644444444444445,0.0023478410058017096,-0.04236639126588018,0.42023377240429505
1589552746.1993265,-1.1429956378005124,-3.2629956378005125,8.820385360223783,0.5077777777777778,0.18444444444444444,-0.7644444444444445,-0.025632144177926544,-0.03646113786548104,0.19723838410839245
1589552746.2093265,-1.220365457724006,-3.29724727363543,8.883483641812582,0.5077777777777778,0.18444444444444444,-0.7644444444444445,-0.008567185245952964,-0.05292988711848323,0.16051158604099772
1589552746.2193265,-1.263814062659455,-3.3938140626594553,8.99660312276763,0.5077777777777778,0.13666666666666666,-0.7555555555555555,0.06787160483396472,0.05821968382167608,0.11086948481144104
1589552746.2293265,-1.289496071027656,-3.419496071027656,8.637055005612819,0.5077777777777778,0.13666666666666666,-0.7555555555555555,0.05479806636792769,0.0021902332529459972,0.22572985847733773
1589552746.2393265,-1.2341388124611699,-3.4248328747670187,8.458303186296263,0.5077777777777778,0.13666666666666666,-0.7555555555555555,-0.0025620727046560925,0.04727776984695507,0.2332826487974676
1589552746.2493265,-1.2564746605130026,-3.5588479630780157,9.15071447590308,0.5077777777777778,0.13666666666666666,-0.7555555555555555,-0.1105786017339114,-0.05667798741428312,0.11470811317136778
1589552746.2593265,-1.162640256583728,-3.2967716555162996,8.419165852314014,0.5077777777777778,0.13666666666666666,-0.7555555555555555,-0.03783738815407048,-0.044121206492419046,0.1153027461495838
1589552746.2693264,-1.33,-3.5032158443548655,9.553891128360597,0.5077777777777778,0.10444444444444444,-0.7566666666666667,0.1526361788943616,0.07681782491393296,0.23186006754811894
1589552746.2793264,-1.33,-3.46129659859413,8.960035146750176,0.5077777777777778,0.10444444444444444,-0.7566666666666667,0.037557056363003105,-0.06188681283909517,0.4040976946480329
1589552746.2893264,-1.3850669892072942,-3.494071455154447,8.57679010048381,0.5077777777777778,0.10444444444444444,-0.7566666666666667,-0.03166819384078938,0.11969482787341416,0.2650475221835015
1589552746.2993264,-1.2679949758094529,-3.3691946408634164,8.943615742463715,0.5077777777777778,0.10444444444444444,-0.7566666666666667,0.027927825618038672,0.0660584103604689,0.30761610751123586
1589552746.3093264,-1.25,-3.3592447129909364,8.519274924471299,0.5077777777777778,0.10444444444444444,-0.7566666666666667,-0.04358709344198829,0.0779828664840291,0.3958430471564329
1589552746.3193264,-1.1598724855899305,-3.4091073991295144,9.178724855899306,0.5166666666666667,0.07111111111111111,-0.75,0.05094109179393095,0.040302944553540915,0.5150786185625589
1589552746.3293264,-1.1500047053287847,-3.3400329373014936,9.08004705328785,0.5166666666666667,0.07111111111111111,-0.75,-0.05885250853650977,-0.1329987187131351,0.36222870437704335
1589552746.3393264,-1.2920246035274938,-3.3666296131614053,9.008987698236254,0.5166666666666667,0.07111111111111111,-0.75,-0.12377962619090993,-0.10693779387837755,0.42315746348993355
1589552746.3493264,-1.5034955485136563,-3.5727096222524017,9.350134802072331,0.5166666666666667,0.07111111111111111,-0.75,-0.02243467627813854,-0.0031189716730049416,0.5163116188506347
1589552746.3593264,-1.3833233181540774,-3.425987981784893,8.596387024083375,0.5166666666666667,0.07111111111111111,-0.75,-0.04092031399393212,-0.07406111638458815,0.37450764379129176
1589552746.3693264,-1.4144403220976276,-3.467137556982664,8.94535736864872,0.49973702015328475,0.037957220022404856,-0.7535270096902879,-0.07964462142934077,-0.0748870413546414,0.42437914441694347
1589552746.3793263,-1.4686886657101865,-3.4713113342898136,8.874424677187948,0.49,0.01888888888888889,-0.7555555555555555,-0.04402636859191435,-0.055256761029558635,0.4207385974309522
1589552746.3893263,-1.539474720664412,-3.539212080996618,8.909124534440688,0.49,0.01888888888888889,-0.7555555555555555,0.10386026881665676,-0.02763366377923489,0.4098732805001183
1589552746.3993263,-1.4856072605847852,-3.458410890877178,8.819345434307976,0.49,0.01888888888888889,-0.7555555555555555,0.015719843372023062,-0.06484851007808023,0.4931170156422723
1589552746.4093263,-1.5659331406831458,-3.5046847258892746,8.895933140683146,0.49,0.01888888888888889,-0.7555555555555555,-0.030950421342530895,-0.055087646192727775,0.45661723903955137
1589552746.4193263,-1.6093312003937736,-3.510334399803113,8.842675198424907,0.4663729772964992,-0.03158702325040848,-0.6739349316707343,-0.028799328663583902,-0.11453025213374052,0.49774015302900354
1589552746.4293263,-1.62795670805406,-3.51,9.01058872651357,0.4655555555555556,-0.03333333333333333,-0.6711111111111111,0.07741214110251379,0.039982945454244606,0.6337764481824208
1589552746.4393263,-1.7175788649706458,-3.6365028049575994,8.97161409001957,0.4655555555555556,-0.03333333333333333,-0.6711111111111111,0.07246435139918385,-0.014367002781171256,0.6639051167552261
1589552746.4493263,-1.7351615772309517,-3.6475807886154756,8.924515268307145,0.4655555555555556,-0.03333333333333333,-0.6711111111111111,-0.005737129582415401,0.005137867963688467,0.7428748435252591
1589552746.4593263,-1.74,-3.6067203535845382,8.938853097610307,0.4655555555555556,-0.03333333333333333,-0.6711111111111111,-0.04313280072738028,-0.10681463398250189,0.6994892535574602
1589552746.4693263,-1.74,-3.5346274227638617,8.943078427845482,0.4701699369919004,-0.0033398539970919336,-0.6518845217930076,-0.037426184872659245,-0.11572001609935696,0.8482087168908047
1589552746.4793262,-1.7984540976664365,-3.5081964472775087,9.065877593777165,0.4722222222222222,0.01,-0.6433333333333333,0.011965757488501254,0.04784020047789197,0.9883488995368619
1589552746.4893262,-1.7423643212160385,-3.442758374752045,8.916304856576103,0.4722222222222222,0.01,-0.6433333333333333,-0.02882387900179126,-0.07656819081750019,0.9903883813613764
1589552746.4993262,-1.7558797604695746,-3.4161803592956383,8.798841676712978,0.4722222222222222,0.01,-0.6433333333333333,0.09330997859310725,0.009994988468841656,1.0199219741228818
1589552746.5093262,-1.774696570535985,-3.4320448558039773,8.939010561163826,0.4722222222222222,0.01,-0.6433333333333333,0.04288346156751123,-0.11928479892843522,1.1325687356841385
1589552746.5193262,-1.8411046701799019,-3.484439760130838,9.055549700163548,0.47654275445716476,0.027899347830476304,-0.6272856421749753,0.019149501679642036,-0.11333164907361884,1.2110602959595838
1589552746.5293262,-1.8833129327162146,-3.4397551925945757,9.059877596297287,0.48,0.042222222222222223,-0.6144444444444445,0.05025832903092286,-0.03226339728106767,1.125376858873956
1589552746.5393262,-1.88,-3.4090361642050393,8.976746850564727,0.48,0.042222222222222223,-0.6144444444444445,-0.027415534464258776,0.007294160831871399,1.18215854030696
1589552746.5493262,-1.9863665327607702,-3.5075026550307062,8.961136122269936,0.48,0.042222222222222223,-0.6144444444444445,0.026727091884696713,0.05042723789947116,0.9836757100044129
1589552746.5593262,-2.0285866510176978,-3.5371519906106186,9.062911943663712,0.48,0.042222222222222223,-0.6144444444444445,0.0012287302294111818,-0.08095004126849771,1.081391391843745
1589552746.5693262,-1.9010433122449744,-3.347844495189608,8.79420768914012,0.4870931756073822,0.039266732385812984,-0.6298129915937725,-0.011231477622916004,-0.11768464628228274,1.2345965872021656
1589552746.5793262,-1.9280363426708285,-3.351449134177618,8.993375017395971,0.4933333333333334,0.03666666666666667,-0.6433333333333333,0.08108757493329344,-0.06127266272129395,1.2539791115621073
1589552746.5893261,-2.0695008569729616,-3.420998286054077,8.81160936024345,0.4933333333333334,0.03666666666666667,-0.6433333333333333,0.03153553674741179,-0.09596681964323636,1.256201476972908
1589552746.5993261,-2.0922111122930187,-3.442738893025565,8.833694465127824,0.4933333333333334,0.03666666666666667,-0.6433333333333333,-0.04250967907489141,-0.09067591313608009,1.2626996562603399
1589552746.6093261,-2.1364115806422213,-3.445725612905186,9.000342983868517,0.4933333333333334,0.03666666666666667,-0.6433333333333333,0.007368086890672365,-0.14384282514519212,1.1153645168849837
1589552746.619326,-2.0603046514126113,-3.286687936405629,9.138388226447525,0.5016412790489491,0.029051049760685597,-0.634333058808083,-0.014787067258336416,-0.07737017013300225,1.1236511375525362
1589552746.629326,-2.053217011995638,-3.2380121514254556,9.073156254868358,0.5066666666666667,0.024444444444444446,-0.6288888888888889,0.05108534400807365,-0.10570964284485712,1.2611990418621701
1589552746.639326,-1.9885218080888183,-3.1051498810467884,8.731246629659001,0.5066666666666667,0.024444444444444446,-0.6288888888888889,-0.07687234178277408,-0.13328792992203006,1.2168581565710244
1589552746.649326,-1.98,-3.072170113874041,8.913958633511504,0.5066666666666667,0.024444444444444446,-0.6288888888888889,-0.08992156956777478,-0.127246538874187,1.2437677678991235
1589552746.659326,-1.98,-2.974347974851375,8.93202899790428,0.5066666666666667,0.024444444444444446,-0.6288888888888889,0.07054014177699998,-0.1265363707695889,1.1913928212291462
1589552746.669326,-2.0357470441727976,-2.9685823480575992,9.19015287280639,0.5107960773461331,0.01825032842524469,-0.642309473597155,-0.0063024043646580374,-0.15288762722356913,1.3938975251272057
1589552746.679326,-1.856102086201419,-2.8278970666101872,8.842204172402838,0.5111111111111111,0.017777777777777778,-0.6433333333333333,-0.07727573256481078,-0.14577972087775254,1.381265801010336
1589552746.689326,-1.8107618533027152,-2.827714440091855,8.936286640551128,0.5111111111111111,0.017777777777777778,-0.6433333333333333,0.17356822587037668,0.08879492237370484,1.2999582057984087
1589552746.699326,-2.0236409556313992,-2.9101153583617747,8.789769283276451,0.5111111111111111,0.017777777777777778,-0.6433333333333333,-0.060121008273273796,-0.0803867082666419,1.1878835236336664
1589552746.709326,-2.1269824738144267,-2.969488733166417,8.813989985036814,0.5111111111111111,0.017777777777777778,-0.6433333333333333,-0.05444092263492187,-0.07843646869231205,1.1544308600838034
1589552746.719326,-2.22925963661063,-3.029629818305315,9.00703854644252,0.518090602064112,0.004691232240901115,-0.6376624969340201,0.027392466934477985,-0.034688196605082156,1.1257453325089435
1589552746.729326,-2.236335043497658,-2.9705584058294296,9.017451855156517,0.5288888888888889,-0.015555555555555557,-0.6288888888888889,0.04055677865801939,0.01930308435843501,1.142316876130356
1589552746.739326,-2.307249163879599,-2.9594996140982763,8.958999228196554,0.5288888888888889,-0.015555555555555557,-0.6288888888888889,-0.04036045831671605,-0.03136089388438067,0.957314722405676
1589552746.749326,-2.3943282171238143,-2.999240098692643,8.82210346705973,0.5288888888888889,-0.015555555555555557,-0.6288888888888889,0.01579544504449447,-0.01665558231364574,0.9519384846288802
1589552746.759326,-2.5373163327261685,-3.0543469409621773,9.099265330904675,0.5288888888888889,-0.015555555555555557,-0.6288888888888889,0.0011398030419913704,-0.037940878187255125,0.9164970968634965
1589552746.769326,-2.4843815130212796,-2.95438151302128,9.0759537825532,0.5212756472538149,-0.037126406854931744,-0.6453842457648825,0.0012124636828022561,-0.0786880492934235,0.8276607230408108
1589552746.779326,-2.3513875360302157,-2.8986124639697843,9.084545605141967,0.5155555555555555,-0.05333333333333334,-0.6577777777777778,0.14511970658897555,-0.07634771015042228,0.7169811034832596
1589552746.789326,-2.3831101433055157,-3.28418383980925,8.962036446801783,0.5155555555555555,-0.05333333333333334,-0.6577777777777778,0.05471052089149889,-0.05269611597698391,0.4090282619636703
1589552746.799326,-2.165389142900447,-2.874148078914795,9.268321418647535,0.5155555555555555,-0.05333333333333334,-0.6577777777777778,0.04360936842927845,0.18960034399056488,0.1794574942277664
1589552746.809326,-2.364558696924825,-2.9749588484451945,9.401439787871483,0.5155555555555555,-0.05333333333333334,-0.6577777777777778,0.06398371087620228,0.15244625953072333,0.16316201256416352
1589552746.819326,-2.256313722281319,-2.8388482939203015,8.64613002209312,0.5230209839165735,-0.08236555473729192,-0.6577777777777778,-0.009440358962438042,-0.11767373885401353,-0.04506561056359379
1589552746.829326,-2.2286260582442265,-2.499808796145208,8.7437181086944,0.5255555555555556,-0.09222222222222222,-0.6577777777777778,-0.12018219926863807,-0.0581161035008298,-0.30938571061452835
1589552746.839326,-2.227245625819659,-2.4391315612705116,9.155657806352558,0.5255555555555556,-0.09222222222222222,-0.6577777777777778,-0.019718729944859265,-0.02034685698789738,-0.507626197850348
1589552746.849326,-2.5564670278713333,-2.6182335139356665,8.979785717772245,0.5255555555555556,-0.09222222222222222,-0.6577777777777778,-0.05090703386718585,0.05024833968988984,-0.8674804775953986
1589552746.859326,-2.5756567697808177,-2.648114410073061,8.816112233794497,0.5255555555555556,-0.09222222222222222,-0.6577777777777778,-0.05005341396531461,0.03786707231357004,-0.9338574689372252
1589552746.8693259,-2.424985892785167,-2.6922039500201533,8.942039500201531,0.5378237269918044,-0.11266917461597026,-0.66084482063684,0.031162498537900776,0.05764590019813778,-0.9951683083600397
1589552746.8793259,-2.3610787654320986,-2.744963950617284,9.248921234567902,0.5522222222222222,-0.13666666666666666,-0.6644444444444444,0.06882458111580404,0.07646039659327922,-1.0981601687933766
1589552746.8893259,-2.498028464853511,-2.8000474414225183,8.775440191214283,0.5522222222222222,-0.13666666666666666,-0.6644444444444444,-0.0415136704117235,0.03823082795142443,-1.1041800972703661
1589552746.8993258,-2.5680207409428943,-2.8410984512519613,8.851202155966433,0.5522222222222222,-0.13666666666666666,-0.6644444444444444,-0.0687822505192123,0.03698085294866456,-1.1666825572040653
1589552746.9093258,-2.6780067508584064,-2.893146714776232,9.034703195018333,0.5522222222222222,-0.13666666666666666,-0.6644444444444444,-0.058061996614396275,0.050712045713163956,-1.3576091846520384
1589552746.9193258,-2.7284113850736387,-2.926462022174417,8.90902531855039,0.6028642874216265,-0.17427216062662032,-0.6644444444444444,-0.045389607853505515,0.12043255609486853,-1.4137125423517138
1589552746.9293258,-2.5981443443513617,-2.926209821585054,9.044275298818746,0.6644444444444444,-0.22,-0.6644444444444444,-0.015992682758249416,0.07249560667222434,-1.4430202730490342
1589552746.9393258,-2.489758732822826,-2.9601608447847827,9.06935662086087,0.6644444444444444,-0.22,-0.6644444444444444,-0.03969099883174035,0.11263040472431694,-1.4184427120917424
1589552746.9493258,-2.5007214909813626,-3.025811677354033,8.949278509018637,0.6644444444444444,-0.22,-0.6644444444444444,-0.06719864500031004,0.12551757482445605,-1.3824914533250254
1589552746.9593258,-2.344628962142561,-3.0258839591934814,8.891093125368636,0.6644444444444444,-0.22,-0.6644444444444444,0.011364637629993443,0.08160914064975763,-1.5286263295252107
1589552746.9693258,-2.285467849223947,-3.0792397846056385,9.117719353816915,0.957631647485306,-0.41721901946292195,-0.6811728434167459,0.047090719149707,-0.010015257067777256,-1.5683276008605347
1589552746.9793258,-2.3546000154285274,-3.1709800200570855,9.005279950628712,1.0344444444444445,-0.4688888888888889,-0.6855555555555556,0.0515701170830972,0.031110514112693985,-1.5749720300596772
1589552746.9893258,-2.4097476832022426,-3.2738645744100925,8.903864574410091,1.0344444444444445,-0.4688888888888889,-0.6855555555555556,0.06198469015134386,0.0384368977615584,-1.6120639393566838
1589552746.9993258,-2.4837402175518037,-3.489973913471477,8.92167101442142,1.0344444444444445,-0.4688888888888889,-0.6855555555555556,-0.013622579586461125,0.03926137137337604,-1.6633318183113752
1589552747.0093257,-2.4487579384465072,-3.5110063507572056,8.873254763067903,1.0344444444444445,-0.4688888888888889,-0.6855555555555556,-0.03196342020758179,0.050152503935601285,-1.6896128183078511
1589552747.0193257,-2.3607165913492576,-3.5095700451904452,9.076703679793415,1.1773663295315975,-0.5773123879205222,-0.7791940319919661,0.0018377224080069407,0.05759516109968473,-1.581258302437843
1589552747.0293257,-2.153447914277288,-3.455702723072386,8.91861978569322,1.3244444444444443,-0.6888888888888889,-0.8755555555555555,-0.044756053875464594,-0.010986625164298366,-1.5464539322701771
1589552747.0393257,-1.9755753076329292,-3.284980020887254,8.389364755028833,1.3244444444444443,-0.6888888888888889,-0.8755555555555555,-0.02372981683980825,0.10689946019298899,-1.6370859792170185
1589552747.0493257,-1.967536909081871,-3.2437684545409353,8.920885817964905,1.3244444444444443,-0.6888888888888889,-0.8755555555555555,0.03275713272502058,0.18980455615438327,-1.518939054520296
1589552747.0593257,-2.004454885654886,-3.3050234927234925,8.8776316008316,1.3244444444444443,-0.6888888888888889,-0.8755555555555555,0.044967038402597255,0.0917697341030658,-1.5244642077833428
1589552747.0693257,-1.9649606439012843,-3.4087991951233945,8.9214369414689,0.952164355276742,-0.38235025283909696,-0.8021697474239345,-0.07351187209915944,0.054968846276941166,-1.4486072042979319
1589552747.0793257,-1.96479684106614,-3.5329881539980255,9.095792892398816,0.7833333333333333,-0.2433333333333333,-0.7688888888888888,-0.018754342439023117,0.02055710990813331,-1.2464022043230685
1589552747.0893257,-2.1388102528212753,-3.8034012772285886,9.045632053188697,0.7833333333333333,-0.2433333333333333,-0.7688888888888888,0.004687776341471071,0.04650015713299102,-1.148693481950491
1589552747.0993257,-2.4282764301172515,-4.215468845892955,9.308178881746827,0.7833333333333333,-0.2433333333333333,-0.7688888888888888,-0.017947564757963268,0.09611667691919312,-1.2293881726162925
1589552747.1093256,-2.2821008968609866,-4.1433811659192825,8.95354932735426,0.7833333333333333,-0.2433333333333333,-0.7688888888888888,-0.05115849621372616,-0.010131274328105525,-1.1953079133703228
1589552747.1193256,-1.9660428933682899,-3.8915107233420723,8.547736278849873,0.7479613472586353,-0.18768140857580834,-0.7585131063069774,-0.1049159143148274,-0.13512958751965445,-1.1011859626482399
1589552747.1293256,-1.8759004959996959,-3.851024876000076,9.546398016001216,0.6166666666666667,0.01888888888888889,-0.72,-0.03070607494967057,0.008570342425000377,-1.147272864312791
1589552747.1393256,-1.8961522011651057,-3.7970739620971905,8.95981786003982,0.6166666666666667,0.01888888888888889,-0.72,-0.008495143347795199,0.14799873387426954,-1.072198980884679
1589552747.1493256,-1.8440849146885139,-3.7111273720327707,8.749714539131247,0.6166666666666667,0.01888888888888889,-0.72,-0.04630680171151995,0.06942985291172976,-1.1062853006794406
1589552747.1593256,-1.8864258251570476,-3.864920057986848,9.1169884656596,0.6166666666666667,0.01888888888888889,-0.72,0.00845951338183272,0.04254240051736178,-1.081663697007583
1589552747.1693256,-1.8630803913611975,-3.96176022363497,9.056221425672934,0.5970156704790819,0.06828193336038595,-0.7173444599746507,-0.045528573761180864,-0.022112943503508682,-1.003385539523667
1589552747.1793256,-1.7619070546368014,-3.8076282185472055,8.750669876491521,0.5755555555555556,0.12222222222222222,-0.7144444444444444,-0.1128670759253309,-0.017947671553668415,-0.9854250621955906
1589552747.1893256,-1.6205551966321405,-3.7370635433382655,8.862196194485547,0.5755555555555556,0.12222222222222222,-0.7144444444444444,-0.019957954392497423,0.0006520705111048852,-0.9405181972233934
1589552747.1993256,-1.585421161186316,-3.8154977359474644,8.899463976671962,0.5755555555555556,0.12222222222222222,-0.7144444444444444,0.011840431404877373,-0.03494835009319808,-0.9718985219688252
1589552747.2093256,-1.6692354168736956,-3.8841764881248135,8.888470833747391,0.5755555555555556,0.12222222222222222,-0.7144444444444444,0.005852047529716849,0.007931184225974282,-1.028448052956215
1589552747.2193255,-1.6844623257693083,-3.8559497676924113,8.965743720961552,0.5802847544871651,0.1515432555982014,-0.7144444444444444,-0.02024886316042644,0.052981499060891606,-1.0014725631784085
1589552747.2293255,-1.677978860965874,-3.8612945784374357,8.871400273608065,0.5866666666666667,0.19111111111111112,-0.7144444444444444,-0.010671992841256278,-0.004560736088261866,-0.9839293658118032
1589552747.2393255,-1.6780365567787305,-3.92,8.89385834248242,0.5866666666666667,0.19111111111111112,-0.7144444444444444,0.0031330837785978616,-0.006360714209095449,-0.8871742517213643
1589552747.2493255,-1.5858631362537559,-3.8415344644511213,8.967205792648487,0.5866666666666667,0.19111111111111112,-0.7144444444444444,-0.029742519217700172,0.03496935407955897,-0.7738621651757599
1589552747.2593255,-1.5368434335211176,-3.7694696994366472,8.85,0.5866666666666667,0.19111111111111112,-0.7144444444444444,0.04501054325272279,0.05298242796179781,-0.7662397484496569
1589552747.2693255,-1.5300143280471523,-3.789957015858543,8.85,0.5866666666666667,0.19111111111111112,-0.7144444444444444,0.04799030263988934,0.09916869846287937,-0.677591906681452
1589552747.2793255,-1.4203683962181717,-3.778894811345485,8.978263050278743,0.5911111111111111,0.2533333333333333,-0.7411111111111112,0.02592719530261922,0.03782304803287492,-0.7016451363349587
1589552747.2893255,-1.395368720521075,-3.8330530807816126,8.863370142996182,0.5911111111111111,0.2533333333333333,-0.7411111111111112,-0.06783902524895138,-0.016845115770879052,-0.5633843722443317
1589552747.2993255,-1.3345162038110252,-3.763010802540683,8.81290277713385,0.5911111111111111,0.2533333333333333,-0.7411111111111112,0.03702958075538737,0.0025805387675312576,-0.672831496890158
1589552747.3093255,-1.284830609804703,-3.758961737744121,8.91381426863292,0.5911111111111111,0.2533333333333333,-0.7411111111111112,-0.011273077464866714,-0.018923240258333297,-0.5758621348505504
1589552747.3193254,-1.2435636836351818,-3.8105453954560224,8.908472242739386,0.5856323389895051,0.25150707595946464,-0.7557211701020606,-0.04465680165032023,0.020694007777837083,-0.5014011893843644
1589552747.3293254,-1.245441679770604,-3.8705300157247247,9.14491166404588,0.5777777777777777,0.2488888888888889,-0.7766666666666666,0.042561672432953015,0.03255147623457258,-0.6207250932747679
1589552747.3393254,-1.1290519172486493,-3.7635986295954673,8.921757807352748,0.5777777777777777,0.2488888888888889,-0.7766666666666666,0.011891191062638924,0.025883262704664886,-0.6434882511412461
1589552747.3493254,-0.968607862370784,-3.561264619331472,8.771902210820192,0.5777777777777777,0.2488888888888889,-0.7766666666666666,-0.040264520648231064,0.00785607226265293,-0.675253226857228
1589552747.3593254,-1.0081323808135296,-3.5180378230895797,8.980283673171849,0.5777777777777777,0.2488888888888889,-0.7766666666666666,-0.015065338002935975,-0.015465041957207944,-0.5804767414411016
1589552747.3693254,-1.0307229266870719,-3.568554146625856,9.103734878297624,0.5606426014996194,0.2435341463019644,-0.7584605418711234,0.03125299352527231,0.01549501198532606,-0.4596206996080756
1589552747.3793254,-0.8779953215890037,-3.449298652369222,9.191654004595607,0.5422222222222223,0.23777777777777775,-0.7388888888888889,0.032194490720203014,0.07416820590362995,-0.48800619580938076
1589552747.3893254,-0.7718955116287893,-3.3786269302272642,9.051701255833365,0.5422222222222223,0.23777777777777775,-0.7388888888888889,-0.0015109477636825464,0.07185966249290383,-0.42256504931278105
1589552747.3993254,-0.7054519912902999,-3.35330125728735,8.8197534592962,0.5422222222222223,0.23777777777777775,-0.7388888888888889,-0.022517376929462207,-0.003526562367490646,-0.4575647055174772
1589552747.4093254,-2.084820076739604,-6.536693974904075,9.823311210204293,0.5422222222222223,0.23777777777777775,-0.7388888888888889,0.022138333242526884,-0.38757343266982264,-1.7360066815860435
1589552747.4193254,-8.681683086176502,-21.38326039614228,13.72343461578347,0.5422222222222223,0.23777777777777775,-0.7388888888888889,-0.4562811227307275,-1.5721558211788065,-6.708405919866744
1589552747.4293253,-10.525672474790472,-13.155423311954898,0.3403244603363791,0.5044444444444445,0.3022222222222222,-0.7055555555555556,-0.8189232193102058,0.3684185055588959,-7.993508522527981
1589552747.4393253,-0.7812670034243325,-2.0064903418657885,15.226728910078133,0.5044444444444445,0.3022222222222222,-0.7055555555555556,-0.5003845336532148,1.208910526681011,-7.085500149554656
1589552747.4493253,-1.4260203335769819,-3.0265452854010233,3.9562050634593664,0.5044444444444445,0.3022222222222222,-0.7055555555555556,1.3783812862361788,1.1551900886048148,-5.634177234227676
1589552747.4593253,-2.697338346453609,-1.7026628284964556,6.614666705831669,0.5044444444444445,0.3022222222222222,-0.7055555555555556,-0.2713310734140725,0.39654636108054964,-4.260996768595731
1589552747.4693253,-2.958308416956789,-1.5715707556829817,7.249799117532069,0.4940999178762849,0.32747503707978826,-0.7073810602440543,-0.6335323131534871,-0.2421978818235866,-3.18949974905073
1589552747.4793253,-2.404427601215714,-5.266778357284904,8.765664327792578,0.4666666666666667,0.3944444444444444,-0.7122222222222222,0.24255941015228652,0.5474325543360585,-2.326078171207371
1589552747.4893253,-4.0768412805422445,-17.399523167465336,7.084868902938979,0.4666666666666667,0.3944444444444444,-0.7122222222222222,0.1290057311771494,0.03157305482396719,0.4871469645469846
1589552747.4993253,1.8144826247330617,1.1638982721801592,6.850838672102505,0.4666666666666667,0.3944444444444444,-0.7122222222222222,-0.04610925411270013,-0.2713487631583249,0.48554570176665685
1589552747.5093253,2.279617954752375,-0.05984505179255495,9.68050761857317,0.4666666666666667,0.3944444444444444,-0.7122222222222222,-0.05886056417757808,-0.0038885804114427505,0.3158772587247368
1589552747.5193253,1.6923706896551725,-3.320398706896552,10.214525862068966,0.44432231800766286,0.4152298850574712,-0.7085847701149425,0.0011072872813703248,-0.0162096513907609,0.5787527315740706
1589552747.5293252,-0.79,-10.53,10.0,0.3711111111111111,0.4833333333333333,-0.6966666666666667,0.02617993877991494,0.10581058590215622,1.2348204457859882
1589552747.5393252,0.8669687100151215,-2.7225881121321382,7.116687216470861,0.3711111111111111,0.4833333333333333,-0.6966666666666667,-0.04121733993092344,-0.23730283298938457,0.8406484824165396
1589552747.5493252,0.7853209284232365,-3.1678935425311203,9.280641856846474,0.3711111111111111,0.4833333333333333,-0.6966666666666667,0.07853981633974483,0.07434264499388407,1.0772487463939497
1589552747.5593252,0.23106728235631735,-3.9788763663875195,8.323032793300461,0.3711111111111111,0.4833333333333333,-0.6966666666666667,0.05869045827068798,-0.05774334133472846,1.1826077255133745
1589552747.5693252,0.36623416922244273,-4.051537434602201,9.043765830777557,0.3803416521338224,0.4821187884619239,-0.7032252089722774,-0.009477455857911477,-0.21054415598139228,1.1021237050934412
1589552747.5793252,0.4570362619520116,-4.195307414757352,8.952963738047988,0.41229053661274473,0.47791498787259207,-0.7259257321546696,-0.004524969964685912,-0.1313043816897832,1.0468209459524223
1589552747.5893252,0.10443506144316755,-4.1838379573383255,8.966162042661674,0.4133333333333333,0.4777777777777778,-0.7266666666666667,0.07320891290086494,-0.023819213156499527,1.2336574636157192
1589552747.5993252,-0.1709772180162579,-4.441351917105677,9.008045563967483,0.4133333333333333,0.4777777777777778,-0.7266666666666667,0.04522500774714905,-0.025525090185056887,1.2972783573616862
1589552747.6093252,2.9060702634880804,-7.673017147636972,8.108145545796738,0.4133333333333333,0.4777777777777778,-0.7266666666666667,0.03718040378516567,-0.24713152324217302,0.7288513387764376
1589552747.6193252,5.733133150624459,-9.474569867750658,7.730945058583332,0.4133333333333333,0.4782947171793347,-0.721755742351876,0.22125466006175482,-0.03826300596837515,0.3733320449798128
1589552747.6293252,-1.244476669862576,-0.2493092841163311,10.645323186321509,0.4133333333333333,0.48,-0.7055555555555556,0.14239838904641774,0.1689937516777844,0.23849839339625709
1589552747.6393251,-0.4197152675503191,-3.6421789746826563,8.263492180377305,0.4133333333333333,0.48,-0.7055555555555556,-0.12813490184579723,0.02310520206555226,0.008038938614326654
1589552747.6493251,0.06599238140119384,-3.9748472353125983,9.074732956330505,0.4133333333333333,0.48,-0.7055555555555556,-0.059246282351278025,-0.010775081162477756,0.1349507697167418
1589552747.6593251,0.027226612037849967,-4.256386693981075,8.745879426397424,0.4133333333333333,0.48,-0.7055555555555556,0.03499639688072426,0.004060793433893987,-0.005120339049084419
1589552747.669325,0.04939080772368779,-4.240609192276312,8.867478923035083,0.4251587949113105,0.4681745384220228,-0.7027730940077962,0.09335755251709946,0.0409659319891632,-0.14823135448565247
1589552747.679325,0.07,-4.22,8.84,0.4511111111111111,0.44222222222222224,-0.6966666666666667,0.03490658503988659,0.11890055529211367,-0.07853981633974483
1589552747.689325,0.10877172927588791,-4.239385864637944,9.03385864637944,0.4511111111111111,0.44222222222222224,-0.6966666666666667,0.007415877779794185,0.06814848035040463,0.0060469752297702545
1589552747.699325,0.04341386831571631,-4.206827736631432,8.766586131684283,0.4511111111111111,0.44222222222222224,-0.6966666666666667,0.029389968704658348,0.0191307837635422,-0.06084932871760341
1589552747.709325,0.08289933202642852,-4.262579866405286,8.776118129674,0.4511111111111111,0.44222222222222224,-0.6966666666666667,-0.08931399783564833,-0.022768053259028802,0.015201934368251997
1589552747.719325,0.11721699100230173,-4.268608495501151,8.878886796400922,0.4511111111111111,0.44222222222222224,-0.6966975889888634,-0.02526920121511878,-0.011881815522672739,0.005994433565583161
1589552747.729325,0.026754462896426856,-4.217298214841429,8.849456248054997,0.4511111111111111,0.44222222222222224,-0.6977777777777778,-0.00995928164952305,-0.06837386103332363,-0.0957845835648306
1589552747.739325,0.07,-4.204560988327785,8.882634070033292,0.4511111111111111,0.44222222222222224,-0.6977777777777778,-0.07930861773877595,0.04158462562550637,-0.08237220664993988
1589552747.749325,0.07109064484534454,-4.218909355154655,8.793271934536033,0.4511111111111111,0.44222222222222224,-0.6977777777777778,0.0310223162170854,0.08133483973962731,0.08941110946500316
1589552747.759325,0.08269585343846848,-4.234262680946216,8.825391706876937,0.4511111111111111,0.44222222222222224,-0.6977777777777778,-0.04435206443643095,0.08767111113760381,0.014703599578901662
1589552747.769325,0.08726315585372474,-4.293614030325358,8.844561406910458,0.45171929869917227,0.4433372328003344,-0.6971695901897167,0.0425845117378983,-0.017908753606348825,0.0365294216135207
1589552747.779325,0.06286539729320975,-4.23668592701749,8.885224337844651,0.45714102282373115,0.4532770603620256,-0.6917478660651577,0.14992694352019387,0.08499804049899239,-0.12404066229222721
1589552747.789325,0.07751601953203,-4.20993592187188,8.88770825391639,0.4577777777777778,0.4544444444444444,-0.6911111111111111,-0.004863304564719355,-0.1112996890119575,-0.04123118187868378
1589552747.799325,0.06982603071948262,-4.239826030719483,8.790869846402586,0.4577777777777778,0.4544444444444444,-0.6911111111111111,-0.026901068756223997,-0.09395342284520607,0.10997429669913808
1589552747.809325,0.06920375126933875,-4.239203751269339,8.842300937817335,0.4577777777777778,0.4544444444444444,-0.6911111111111111,-0.05457985275603408,-0.03383491107299577,0.04261010096434904
1589552747.819325,0.09898817061494271,-4.268988170614942,8.854047317540228,0.45710322485440624,0.4552314228550445,-0.6917856640344826,-0.006714116193515728,-0.006701212336157228,0.04563423886183216
1589552747.829325,0.07866348870056497,-4.245829360875706,8.895668255649717,0.4511111111111111,0.4622222222222222,-0.6977777777777778,0.03177988345905503,0.02613959113709485,-0.08791992108223952
1589552747.839325,0.05237484018150367,-4.2123748401815035,8.886251598184964,0.4511111111111111,0.4622222222222222,-0.6977777777777778,0.0468231093979575,2.660829680786736e-05,-0.06817762124577012
1589552747.849325,0.06726354260749018,-4.224842361738327,8.822105904345817,0.4511111111111111,0.4622222222222222,-0.6977777777777778,0.09300809690094844,0.026351895448247318,-0.045999199252601396
1589552747.859325,0.0862632294810218,-4.244982360691971,8.857508819654013,0.4511111111111111,0.4622222222222222,-0.6977777777777778,0.09335261865425722,0.018785082522766786,-0.09145542991903464
1589552747.869325,0.06096786682152536,-4.28,8.84016131113692,0.4509139530548744,0.4619892172466698,-0.6980107827533303,-0.0774488447867254,0.0782754492976067,-0.1644512218853497
1589552747.879325,0.11509485094850948,-4.28,8.849182475158084,0.4398880859178962,0.44895864699387733,-0.7110413530061226,-0.01643735165566701,-0.1195198752079213,-0.027667390510880074
1589552747.889325,0.054202590734041316,-4.2021012953670205,8.857392227797876,0.4388888888888889,0.4477777777777778,-0.7122222222222222,0.004932250768348896,0.030717229624611896,0.023851297028030877
1589552747.899325,0.07425852914892499,-4.214258529148925,8.816387793723388,0.4388888888888889,0.4477777777777778,-0.7122222222222222,0.02874310153798723,0.030522503841075466,-0.09914142552198082
1589552747.909325,0.0854853154220993,-4.234514684577901,8.8445146845779,0.4388888888888889,0.4477777777777778,-0.7122222222222222,0.04652889641931018,0.034170313768940405,0.038782317010147276
1589552747.9193249,0.07054937413073714,-4.250274687065368,8.859450625869263,0.4387362849636841,0.447625173852573,-0.7120390975119765,-0.06218949180154691,0.006832484602187468,-0.014971993848492734
1589552747.9293249,0.08691545253863134,-4.253830905077263,8.855422737306844,0.43333333333333335,0.44222222222222224,-0.7055555555555556,-0.028035940400040697,0.04217349262359035,0.016497936659793974
1589552747.9393249,0.08,-4.234794036877207,8.87438211063162,0.43333333333333335,0.44222222222222224,-0.7055555555555556,-0.034438128352333515,0.019192316721514405,0.03014170722796962
1589552747.9493248,0.08,-4.214225676735975,8.812677030207926,0.43333333333333335,0.44222222222222224,-0.7055555555555556,-0.02396771483815338,0.04761201054571762,-0.10073846169928208
1589552747.9593248,0.08627991172525205,-4.222480058849832,8.86,0.43333333333333335,0.44222222222222224,-0.7055555555555556,-0.038004255583739405,-0.028675637639371164,0.08495348407197038
1589552747.9693248,0.06813036391697558,-4.234579757388683,8.86,0.43333333333333335,0.44222222222222224,-0.7055555555555556,0.02139000072923781,-0.0035980627516696735,-0.0008382194912189139
1589552747.9793248,0.08421882082214706,-4.248072940274049,8.876145880548098,0.43333333333333335,0.45208914922383764,-0.7109375157382549,0.08322140145459625,0.01996451193613846,-0.16872122098583672
1589552747.9893248,0.06496665979239705,-4.241655553264133,8.846622213056529,0.43333333333333335,0.4544444444444444,-0.7122222222222222,0.018810750830610276,0.0010617359626979676,0.04887292339630009
1589552747.9993248,0.07822542634330278,-4.206450852686606,8.798872868283485,0.43333333333333335,0.4544444444444444,-0.7122222222222222,-0.029481316782712517,0.07575912798117601,-0.007455396983155352
1589552748.0093248,0.07075830396240522,-4.192274911887216,8.840758303962405,0.43333333333333335,0.4544444444444444,-0.7122222222222222,0.10243463763937723,0.06013013912541796,0.072160034896884
1589552748.0193248,0.0797176118765353,-4.219152835629606,8.849717611876535,0.43333333333333335,0.4544444444444444,-0.7122222222222222,0.04965995778135227,0.08749478794069016,-0.13209752233139777
1589552748.0293248,0.08,-4.253247320172673,8.886752679827328,0.46,0.4477777777777778,-0.7055555555555556,0.007534917466017621,0.020967421583912328,-0.0884651225103464
1589552748.0393248,0.08178508571015261,-4.2646447428695415,8.857504400028931,0.46,0.4477777777777778,-0.7055555555555556,-0.027276529186814485,0.03109347698815156,0.07106093090251257
1589552748.0493248,0.09,-4.232782630625674,8.809021711717909,0.46,0.4477777777777778,-0.7055555555555556,0.0598059474530879,-0.037932435638127274,0.06302154363554575
1589552748.0593247,0.09,-4.205114848828811,8.85,0.46,0.4477777777777778,-0.7055555555555556,0.0986608998213837,-0.03320355629434796,0.06303518365950628
1589552748.0693247,0.09,-4.239739139407698,8.85,0.46,0.4477777777777778,-0.7055555555555556,-0.0014275914403308332,0.1924676645693292,-0.13053218151645113
1589552748.0793247,0.08672317345528023,-4.25,8.87327682654472,0.4455555555555555,0.4477777777777778,-0.7055555555555556,0.055687845317314986,0.029575771687645747,-0.01581399531465765
1589552748.0893247,0.07045673118652895,-4.249086537626942,8.88588941932124,0.4455555555555555,0.4477777777777778,-0.7055555555555556,0.044301894189550675,-0.10955506778620881,0.035693240579622164
1589552748.0993247,0.07773786997656454,-4.2345242600468715,8.82035917021092,0.4455555555555555,0.4477777777777778,-0.7055555555555556,0.12452104645992884,-0.03013016454821063,0.013454267672982672
1589552748.1093247,0.051853718770615204,-4.201853718770615,8.861235812513742,0.4455555555555555,0.4477777777777778,-0.7055555555555556,0.03948999696659796,0.05616059778061394,-0.09617055637462019
1589552748.1193247,0.07313773913631827,-4.223137739136319,8.875425159424212,0.4455555555555555,0.4477777777777778,-0.7055555555555556,0.09211579670436285,-0.06302136044903003,-0.12325736506317564
1589552748.1293247,0.07,-4.249174092022302,8.866696368089208,0.4711111111111111,0.4544444444444444,-0.6911111111111111,-0.03242287174344737,0.02707114485769942,0.09042680815267375
1589552748.1393247,0.07139055882656752,-4.241390558826568,8.82443776469373,0.4711111111111111,0.4544444444444444,-0.6911111111111111,0.03635228230997672,0.04393004634450778,-0.000490642863268523
1589552748.1493247,0.08,-4.24979938847043,8.790150458647176,0.4711111111111111,0.4544444444444444,-0.6911111111111111,-0.009076779430816957,0.011517705497548715,-0.03000712049204389
1589552748.1593246,0.08,-4.218519650980684,8.813610261764486,0.4711111111111111,0.4544444444444444,-0.6911111111111111,-0.0636702202663738,-0.06354827565134193,0.05358908578740251
1589552748.1693246,0.08,-4.2273778612914255,8.872133583874275,0.4711111111111111,0.4544444444444444,-0.6911111111111111,0.01624171381345338,0.11030816656182921,-0.024110267187638187
1589552748.1793246,0.0725781187882643,-4.23,8.88,0.4579166556235809,0.4494965236366206,-0.7018316061947294,-0.01965204032681836,0.0805254197840545,-0.04250831476578978
1589552748.1893246,0.07848698315467076,-4.247730474732006,8.872434915773354,0.4533333333333333,0.4477777777777778,-0.7055555555555556,0.03094551620151661,0.07053782918152963,0.032962133231577435
1589552748.1993246,0.06337375011260246,-4.225060625168903,8.796868750563013,0.4533333333333333,0.4477777777777778,-0.7055555555555556,-0.008620835379276923,0.08867240698939334,-0.008252816331749152
1589552748.2093246,0.07868940220085259,-4.219344701100426,8.863276494497867,0.4533333333333333,0.4477777777777778,-0.7055555555555556,-0.047356136080092495,0.010395172892581721,0.17026844407749725
1589552748.2193246,0.062056904927133935,-4.211028452463567,8.904857737682166,0.4533333333333333,0.4477777777777778,-0.7055555555555556,0.016145203975769885,-0.09302129519839417,-0.008442470079715464
1589552748.2293246,0.08131465317113938,-4.241314653171139,8.878168121459746,0.4533333333333333,0.44222222222222224,-0.7266666666666667,0.07223935439608437,0.059708880207828,-0.04370378229252319
