time,acc_x,acc_y,acc_z,mag_x,mag_y,mag_z,gyr_x,gyr_y,gyr_z
1589551790.5010517,0.0,-4.12,9.07,0.4711111111111111,0.3088888888888889,-0.6555555555555556,0.004363323129985824,0.001090830782496456,-0.001090830782496456
1589551790.5110517,0.009670078849080095,-4.13934015769816,9.002309448056439,0.4711111111111111,0.3088888888888889,-0.6555555555555556,0.0033084811622113774,0.0032005147180453495,-0.001090830782496456
1589551790.5210516,0.007214325529542921,-4.1136071627647715,9.044428651059086,0.4711111111111111,0.3088888888888889,-0.6555555555555556,0.005847634330611052,0.008637035788081785,-0.002181661564992912
1589551790.5310516,0.02,-4.125457022822754,9.097285114113772,0.4777808056722556,0.3198029345343981,-0.6519175403403857,0.007735522390148026,0.007735522390148026,-0.003967468107746846
1589551790.5410516,0.0012558692794090026,-4.111255869279409,9.073139673198522,0.4833333333333333,0.3288888888888889,-0.6488888888888888,0.007193145651384788,0.009237813129500602,-0.00392065330389542
1589551790.5510516,-0.0169978961604929,-4.096004207679014,8.99898527312345,0.4833333333333333,0.3288888888888889,-0.6488888888888888,0.0031618028162126778,0.007197647218159988,-0.0018541828369543975
1589551790.5610516,-0.001627255588472933,-4.126745488823055,8.97511823323458,0.4833333333333333,0.3288888888888889,-0.6488888888888888,-0.003551648665703247,-0.001192481052020769,-0.001090830782496456
1589551790.5710516,0.012773540585215903,-4.144452918829568,9.004452918829568,0.4833333333333333,0.3288888888888889,-0.6488888888888888,-0.004849061223110932,-0.003455684095928801,-0.0007882844378107818
1589551790.5810516,0.005174605939214491,-4.134941798020262,8.99,0.4772933579752355,0.31571076083485733,-0.6521834209023968,-0.0016552927270748713,-0.0016298973226346217,-0.0005390665401381656
1589551790.5910516,-0.003948115419741811,-4.121844346259225,9.014207538321033,0.4711111111111111,0.3022222222222222,-0.6555555555555556,-0.0006601581992261276,-0.002181661564992912,-0.001090830782496456
1589551790.6010516,-0.004722454773777891,-4.114722454773778,8.96388563316711,0.4711111111111111,0.3022222222222222,-0.6555555555555556,0.0020000086392141002,-0.0011513817577560599,0.00045458892835882245
1589551790.6110516,-0.005784486127393513,-4.115784486127394,8.932155138726065,0.4711111111111111,0.3022222222222222,-0.6555555555555556,0.00315494776434228,-0.00045984122962799994,0.0008021378761089121
1589551790.6210515,0.004767538152135336,-4.11953507630427,9.013837690760676,0.4711111111111111,0.3022222222222222,-0.6555555555555556,-0.003640404161152848,-0.006291408155571952,-0.0021309462571115555
1589551790.6310515,0.01,-4.13,9.05820061436673,0.47667240994538956,0.30778352105650075,-0.6585889912833438,-0.009124849758343389,-0.011502793847171617,-0.0022798028269105696
1589551790.6410515,0.01,-4.124499777574863,9.091000444850273,0.4833333333333333,0.3144444444444445,-0.6622222222222223,-0.009708345438581345,-0.011508289018156167,-0.002290793168879671
1589551790.6510515,0.021364841210302576,-4.114317579394849,9.043175793948487,0.4833333333333333,0.3144444444444445,-0.6622222222222223,-0.007486934396933415,-0.00951971488138455,-0.004512204210527601
1589551790.6610515,0.03,-4.103669317598769,9.018992047203694,0.4833333333333333,0.3144444444444445,-0.6622222222222223,-0.0044732737237371985,-0.005564104506233654,-0.006835294559976638
1589551790.6710515,0.02486168947055324,-4.11541493158834,9.035138310529446,0.4833333333333333,0.3144444444444445,-0.6622222222222223,-0.0049540005361532235,-0.005484328589095061,-0.009317323666139047
1589551790.6810515,0.02,-4.123243191202585,9.029864786803875,0.47920417240157936,0.32082587497533693,-0.6618468439556991,-0.006544984694978735,-0.005807931192212362,-0.011645361327730933
1589551790.6910515,0.02,-4.1165581561835065,9.001255791755325,0.4711111111111111,0.3333333333333333,-0.6611111111111111,-0.005591139542793595,-0.004363323129985824,-0.013566891966050041
1589551790.7010515,0.020932352527101225,-4.138135294945798,8.965338237364495,0.4711111111111111,0.3333333333333333,-0.6611111111111111,-0.0020799576813228743,-0.0039565075953056725,-0.015068223187610308
1589551790.7110515,0.03,-4.12,8.935062839410396,0.4711111111111111,0.3333333333333333,-0.6611111111111111,-0.0005431304858077776,0.0021908011867547133,-0.012542269093268792
1589551790.7210515,0.015413412436167017,-4.115137804145389,8.964586587563833,0.4711111111111111,0.3333333333333333,-0.6611111111111111,0.0005303832908736336,0.005424089711733091,-0.013059905189208281
1589551790.7310514,-0.0044617550733066025,-4.1189235101466135,8.99338526521992,0.48300912463992873,0.3249055737504209,-0.6586323582926075,-0.0003692751508803161,0.007031686672770993,-0.013207396216869411
1589551790.7410514,-0.005114211378116486,-4.13,9.019771577243766,0.4977777777777778,0.3144444444444445,-0.6555555555555556,-0.0027146184275450595,0.004438074302162307,-0.011999138607461015
1589551790.7510514,0.003389766216135279,-4.13,9.009661402703188,0.4977777777777778,0.3144444444444445,-0.6555555555555556,-0.004751556881100127,-0.0018672982847250618,-0.011259606340655636
1589551790.7610514,0.02431430539237532,-4.13,9.002207187132845,0.4977777777777778,0.3144444444444445,-0.6555555555555556,-0.008806901848879542,-0.008416539725078094,-0.009817477042468105
1589551790.7710514,0.05,-4.1153722390402505,9.064875920319917,0.4977777777777778,0.3144444444444445,-0.6555555555555556,-0.011440188222761024,-0.012476879031450429,-0.011944998633653963
1589551790.7810514,0.05,-4.104097398566672,9.07,0.49185931318147336,0.3171760434888927,-0.6528239565111074,-0.009764354365119509,-0.012589889864140575,-0.016862541263263732
1589551790.7910514,0.04581972917619455,-4.101639458352389,9.019836750114335,0.4833333333333333,0.3211111111111111,-0.6488888888888888,-0.005176994266845094,-0.007814652641215886,-0.023917762533077824
1589551790.8010514,0.02782654629273915,-4.106231271609681,8.929710910487898,0.4833333333333333,0.3211111111111111,-0.6488888888888888,-0.0019445745441717941,-0.005659706159433686,-0.03190271448708805
1589551790.8110514,0.01,-4.135554315034326,8.933325890205953,0.4833333333333333,0.3211111111111111,-0.6488888888888888,-0.00060588178151251,-0.003151559566960804,-0.038300010167904526
1589551790.8210514,0.005632931621199873,-4.1487341367576,8.9643670683788,0.4833333333333333,0.3211111111111111,-0.6488888888888888,-0.00013808425912404136,0.0006765780051243317,-0.03688804186144138
1589551790.8310513,0.00531022868285765,-4.16,8.991240914731431,0.48185826981031726,0.3193410348834919,-0.6468237999566664,0.0013804588279642926,0.005232207266389334,-0.03062984575724393
1589551790.8410513,0.017006295729113493,-4.154012591458227,9.038025182916455,0.4777777777777778,0.3144444444444445,-0.6411111111111111,0.003161348996705145,0.009595190340899657,-0.018550990877555008
1589551790.8510513,0.01,-4.14,8.988591478696742,0.4777777777777778,0.3144444444444445,-0.6411111111111111,0.005921215393388782,0.012779615729734418,-0.00904006190133855
1589551790.8610513,0.017903786139080256,-4.13604810693046,8.98371135841724,0.4777777777777778,0.3144444444444445,-0.6411111111111111,0.0052517307121621015,0.00875288452027017,-0.006976069355917614
1589551790.8710513,0.03,-4.121649106376337,9.036701787247328,0.4777777777777778,0.3144444444444445,-0.6411111111111111,0.0028170217561870937,0.004998683321180006,-0.007180344886172917
1589551790.8810513,0.03,-4.1172668810289395,9.05273311897106,0.47535548410146483,0.3144444444444445,-0.6439371204001428,0.0017853146890376079,0.002777935626164608,-0.006544984694978735
1589551790.8910513,-0.03509319691891574,-4.044565179043923,8.917950255777033,0.4711111111111111,0.3144444444444445,-0.6488888888888888,-0.00024052539744585824,-0.002662712359884628,-0.00698877008829284
1589551790.9010513,-0.08437805762756004,-3.9851742033892,8.822553990959653,0.4711111111111111,0.3144444444444445,-0.6488888888888888,-0.005973343020012867,-0.013891367514079898,-0.008346755750291434
1589551790.9110513,0.0794648337952715,-4.219235476850388,9.119031604010491,0.4711111111111111,0.3144444444444445,-0.6488888888888888,-0.01959047593104138,-0.04027456252919764,-0.010899968171109279
1589551790.9210513,-0.02609274498192881,-4.110781451003614,8.830940314050599,0.4711111111111111,0.3144444444444445,-0.6488888888888888,0.007942597017657,0.015407926333181159,-0.001312369241702748
1589551790.9310513,0.05310746020584287,-4.133378507958831,9.066214920411685,0.4711111111111111,0.31932451149608987,-0.6462611604764644,0.005807908598898218,0.010186015090508364,0.001813123516952653
1589551790.9410512,0.02329478781858256,-4.136705212181417,8.996705212181418,0.4711111111111111,0.3288888888888889,-0.6411111111111111,0.005441539922277085,0.01090830782496456,0.0007314251850660355
1589551790.9510512,0.029805047651569244,-4.130194952348431,8.99019495234843,0.4711111111111111,0.3288888888888889,-0.6411111111111111,0.007572017470638718,0.01090830782496456,2.1266002278824518e-05
1589551790.9610512,0.01,-4.127216987421663,8.955566025156672,0.4711111111111111,0.3288888888888889,-0.6411111111111111,0.010728215779025493,0.010671611265999819,0.001090830782496456
1589551790.9710512,0.012283316452032992,-4.124566632904066,8.99283316452033,0.4711111111111111,0.3288888888888889,-0.6411111111111111,0.0120936846411342,0.01704969617920484,0.000841759595290638
1589551790.9810512,0.02,-4.134082470546233,9.067041235273116,0.4711111111111111,0.3288888888888889,-0.6434123725653536,0.006467388110397365,0.009417129293661836,0.0003227511642248975
1589551790.9910512,0.02,-4.124524546332285,9.064524546332287,0.4711111111111111,0.3288888888888889,-0.6488888888888888,0.00158438222410528,0.0022853894642717197,0.0005972793408876319
1589551791.0010512,0.02,-4.121691392171654,9.007685441287403,0.4711111111111111,0.3288888888888889,-0.6488888888888888,0.0003690045292226716,0.0006376665235538958,-0.0004531642589425601
1589551791.0110512,0.023879727079362447,-4.11,8.939398635396813,0.4711111111111111,0.3288888888888889,-0.6488888888888888,-0.0030280867101636377,-0.0008464251451707259,-0.002360468500252545
1589551791.0210512,0.026332208793653146,-4.117335582412694,8.988338956031734,0.4711111111111111,0.3288888888888889,-0.6488888888888888,-0.005563604995481711,-0.004582225295984687,-0.0023628533541593453
1589551791.0310512,0.02238968217411331,-4.1323896821741135,9.022389682174113,0.47270423256051997,0.32543712574850303,-0.6504820103382978,-0.007635815477475192,-0.008987320147562233,0.0008301568949058704
1589551791.0410511,0.07798657718120805,-4.181131351869607,9.125973154362416,0.4777777777777778,0.3144444444444445,-0.6555555555555556,-0.008009710017017361,-0.010939160661094613,-0.0003738945395421697
1589551791.0510511,0.15094143693005113,-4.240941436930051,9.259177165146804,0.4777777777777778,0.3144444444444445,-0.6555555555555556,-0.010112624077761673,-0.017074655616103794,-0.0016105724641677156
1589551791.0610511,0.06250540298350113,-4.1525054029835005,9.023347741289337,0.4777777777777778,0.3144444444444445,-0.6555555555555556,-0.01654387395181489,-0.0355644990040068,-0.004022291166937673
1589551791.0710511,-0.06035541104386724,-4.074500808179529,8.710862684659624,0.4777777777777778,0.3144444444444445,-0.6555555555555556,0.00686430374616436,0.01890221168433433,-0.0011609682126156224
1589551791.081051,0.05789159117392778,-4.129682742547833,9.08925309175657,0.4777777777777778,0.3144444444444445,-0.6555555555555556,-0.002594777384022787,-0.003455616441562559,-0.002020884678996272
1589551791.091051,0.028507605865424147,-4.121492394134576,9.058507605865424,0.4711111111111111,0.3088888888888889,-0.6555555555555556,-0.006821840746668942,-0.005568215018011236,-0.0018560716726704121
1589551791.101051,0.020296207834922374,-4.129703792165078,9.050296207834924,0.4711111111111111,0.3088888888888889,-0.6555555555555556,-0.0023432178771678894,-0.0001938675746099728,-6.462252486999108e-05
1589551791.111051,0.020748964172556665,-4.136417011942481,8.95358298805752,0.4711111111111111,0.3088888888888889,-0.6555555555555556,-0.0033541916649305475,-0.006935828061624614,-0.0033541916649305475
1589551791.121051,0.04629102117286811,-4.111126936481396,8.97572755293217,0.4711111111111111,0.3088888888888889,-0.6555555555555556,-0.004767909957612131,-0.007292693500040117,-0.005111031935047205
1589551791.131051,0.05840292065028843,-4.0747912380491345,9.008402920650289,0.4741278165494552,0.3088888888888889,-0.6544908359890812,-0.0030982780158138883,-0.005151270041574897,-0.005408609120038703
1589551791.141051,0.05,-4.100112924464307,9.0,0.49,0.3088888888888889,-0.6488888888888888,-0.0021939797131692216,0.0021200708241113633,-0.010957580417669798
1589551791.151051,0.041457649049467506,-4.112847450316845,8.960135695564182,0.49,0.3088888888888889,-0.6488888888888888,-0.003272492347489368,-0.003272492347489368,-0.016824674183571836
1589551791.161051,0.020584254006170997,-4.11980524866461,8.862726518695464,0.49,0.3088888888888889,-0.6488888888888888,-0.003272492347489368,-0.003272492347489368,-0.020619564491644628
1589551791.171051,0.04306974801614924,-4.09693025198385,9.003767228177642,0.49,0.3088888888888889,-0.6488888888888888,-0.004277065036646274,-0.002430261034705664,-0.02399827721492203
1589551791.181051,0.05482592139262886,-4.092412960696314,9.084825921392628,0.49187674720824454,0.3102294226090636,-0.6435267540081901,-0.006544984694978735,-0.005717367092931666,-0.024261490395371416
1589551791.191051,0.07,-4.103114962229417,9.09065511331175,0.4977777777777778,0.3144444444444445,-0.6266666666666667,-0.0058654053577464485,-0.004846036351898017,-0.02780742534634763
1589551791.201051,0.07,-4.109771313400622,9.070686059798135,0.4977777777777778,0.3144444444444445,-0.6266666666666667,-0.0044132148064149924,-0.0012155599735693776,-0.033616187551673456
1589551791.211051,0.06867507432626835,-4.11,8.96,0.4977777777777778,0.3144444444444445,-0.6266666666666667,-0.0006572498696685513,0.0008671618256558093,-0.03657552370615358
1589551791.221051,0.0571633731617647,-4.107163373161765,8.96472771139706,0.4977777777777778,0.3144444444444445,-0.6266666666666667,0.002181661564992912,0.006544984694978735,-0.04025759628991545
1589551791.231051,0.03651129201680672,-4.086511292016807,8.999147846638655,0.4977777777777778,0.3144444444444445,-0.6266666666666667,0.002181661564992912,0.006544984694978735,-0.03950666542873096
1589551791.241051,0.0492799167533819,-4.097119667013527,8.989279916753382,0.4777777777777778,0.3333333333333333,-0.6644444444444444,0.0026441011703925545,0.003036845656078063,-0.04043928784950597
1589551791.251051,0.04315432060307769,-4.050537038190766,8.954765435175378,0.4777777777777778,0.3333333333333333,-0.6644444444444444,-0.006486402915992258,-0.0027526640093599435,-0.042139735737205315
1589551791.261051,0.05500325043184309,-4.0316677501439475,8.916677501439477,0.4777777777777778,0.3333333333333333,-0.6644444444444444,-0.00927241621833096,-0.009636262857237168,-0.043997077938764444
1589551791.271051,0.07837459833949367,-4.039458199446498,8.994581994464978,0.4777777777777778,0.3333333333333333,-0.6644444444444444,-0.0118218347909409,-0.013885293811587065,-0.045696690320504406
1589551791.281051,0.0720740011485766,-3.969629994257117,9.022074001148576,0.4770864440615856,0.3313745544707888,-0.6635226661561882,-0.017041177026186943,-0.021065142511802713,-0.059696696758338746
1589551791.291051,0.0892792681926327,-3.8836036590368366,9.039279268192631,0.4713513550469002,0.315125135595847,-0.6558758808032743,-0.02267158750000541,-0.023880347748711946,-0.06626550897779361
1589551791.301051,-0.03520259013070885,-3.588784459215747,9.066418130914961,0.4711111111111111,0.3144444444444445,-0.6555555555555556,-0.03831167231786028,-0.03536713555369682,-0.09549542352148621
1589551791.311051,-0.04961079335634909,-3.5023352398619054,9.167275553494443,0.4711111111111111,0.3144444444444445,-0.6555555555555556,-0.04774181927725613,-0.04872651041284095,-0.11828494534002618
1589551791.321051,-0.18075622213799702,-3.44649466673886,8.89896800043316,0.4711111111111111,0.3144444444444445,-0.6555555555555556,-0.03550634804741221,-0.01824424179867694,-0.1500435802095401
1589551791.3310509,-0.11753759398496241,-3.458843984962406,9.146845238095239,0.4719573238652186,0.3144444444444445,-0.6555555555555556,-0.0364085277996209,-0.017226719584857095,-0.15064366271496718
1589551791.3410509,0.08410228078222075,-3.081680565400492,9.0230479923279,0.4833333333333333,0.3144444444444445,-0.6555555555555556,-0.028510763483430856,-0.014180800172453925,-0.135378022059521
1589551791.3510509,0.14,-3.1311265272313107,9.059670739283495,0.4833333333333333,0.3144444444444445,-0.6555555555555556,-0.03191577958114709,-0.0179552237683813,-0.1464019602301575
1589551791.3610508,0.08830280597014925,-3.0198395223880596,8.979541253731343,0.4833333333333333,0.3144444444444445,-0.6555555555555556,-0.03490658503988659,-0.02134626244136181,-0.2072102819397872
1589551791.3710508,0.0,-2.9,9.03,0.4833333333333333,0.3144444444444445,-0.6555555555555556,-0.03490658503988659,-0.01308996938995747,-0.2574360646691636
1589551791.3810508,-0.03601504283028066,-2.755939828678877,8.945964900062679,0.4833333333333333,0.3144444444444445,-0.6555555555555556,-0.02246591787835709,0.003934101462661847,-0.24303108164002418
1589551791.3910508,0.008451581643247733,-2.7883467155810897,9.035459610991902,0.4662204379225214,0.3306066234435446,-0.6431962422033025,0.024087109665645853,0.02833872211917958,-0.040231510954567035
1589551791.4010508,0.041583177783703476,-2.838777570378271,9.06,0.4633333333333333,0.3333333333333333,-0.6411111111111111,0.006999667199343376,0.0038605212379357254,0.1116517310560156
1589551791.4110508,0.06959320325437397,-3.0165422276621787,9.020813593491251,0.4633333333333333,0.3333333333333333,-0.6411111111111111,-0.0053875919506300406,-0.01616277585189012,0.2735839573449227
1589551791.4210508,0.12344328072594087,-2.9754947632667337,8.98959772834832,0.4633333333333333,0.3333333333333333,-0.6411111111111111,0.009629675212036453,-0.006393163064640539,0.38779253161760807
1589551791.4310508,0.14033863753315126,-3.048645449867395,9.17458179946958,0.4640106083996358,0.33291944301503734,-0.6420893973179924,0.008689706635444643,-0.011203824821180597,0.4436160901841012
1589551791.4410508,0.1486399081660927,-3.015440367335629,9.041761469342516,0.4806131496655187,0.3227734455747756,-0.6660708458131568,0.0077841784814200055,-0.018448050053377702,0.461726653264594
1589551791.4510508,0.0827759786566438,-3.0527759786566437,9.007508096045102,0.4833333333333333,0.3211111111111111,-0.67,0.0057879539524236835,-0.02272505254099518,0.4792979442185578
1589551791.4610507,0.09685151937178046,-3.0668515193717805,8.944168162826987,0.4833333333333333,0.3211111111111111,-0.67,0.0019494456793353694,-0.027331262468701153,0.48697496076473445
1589551791.4710507,0.09189900836628843,-3.1116201983267424,9.055697025098866,0.4833333333333333,0.3211111111111111,-0.67,-0.00020714967821657232,-0.03373025840861594,0.5073522231669868
1589551791.4810507,0.0502235647145327,-3.1199552870570937,8.930670694143597,0.4833333333333333,0.3211111111111111,-0.67,0.004338936002736594,-0.016455132820993913,0.5191720459374649
1589551791.4910507,0.0393062368605466,-3.0978037841625787,9.104913805185705,0.4833333333333333,0.3211111111111111,-0.6488888888888888,0.007875385461521715,-0.019237760199452565,0.5307617193714627
1589551791.5010507,0.0025656972669936967,-3.1933291871058165,9.259224071478625,0.4833333333333333,0.3211111111111111,-0.6488888888888888,-0.0025448195425643912,-0.03286418212787286,0.5403803701444653
1589551791.5110507,0.012486996024985804,-3.073147756956275,8.912643043725156,0.4833333333333333,0.3211111111111111,-0.6488888888888888,0.010160844060840299,-0.013361258571957553,0.5656706755880326
1589551791.5210507,-0.02386116369536727,-3.115842399783653,9.224953090220716,0.4833333333333333,0.3211111111111111,-0.6488888888888888,0.01397573188218702,-0.013608165636116054,0.5827844296007851
1589551791.5310507,-0.04993185335766592,-3.020095405299268,8.920272586569336,0.4833621063600966,0.3210853668240071,-0.6488979751078667,-0.0021712544612674614,-0.03924760723331788,0.5847016534382404
1589551791.5410507,-0.0014865208251518894,-3.087918870844787,9.114053916699392,0.5038168023182692,0.3027837967561685,-0.6553573527788686,0.0052271379379966,-0.02339390923489489,0.5963276986370839
1589551791.5510507,-0.04419953002489472,-3.002598590074684,9.181206579651475,0.5044444444444445,0.3022222222222222,-0.6555555555555556,-0.007930673019901933,-0.0455972393716637,0.6123483579315611
1589551791.5610507,-0.061863596061412104,-3.0518635960614118,8.995408325166832,0.5044444444444445,0.3022222222222222,-0.6555555555555556,0.003882352732467612,-0.028768173934893348,0.6293894578728497
1589551791.5710506,-0.07688272506082726,-3.0586234549878344,9.112833284671533,0.5044444444444445,0.3022222222222222,-0.6555555555555556,0.006094511393150126,-0.030843577444453176,0.6452418971129472
1589551791.5810506,-0.11770316301703163,-3.0504593673965936,8.89240291970803,0.5044444444444445,0.3022222222222222,-0.6555555555555556,0.003422819976493259,-0.03262470505555776,0.6550380989740225
1589551791.5910506,-0.1497982484755715,-3.2486549898371435,9.138251486788286,0.5044444444444445,0.3022222222222222,-0.6699028603771271,0.0011055025673806017,-0.034891913255002446,0.6913446316521646
1589551791.6010506,-0.1431519349164468,-3.2,9.003368984797085,0.5044444444444445,0.3022222222222222,-0.67,0.0018378388018643567,-0.033946146157842146,0.6924404395534592
1589551791.6110506,-0.09704045734388742,-3.2,8.891383967835155,0.5044444444444445,0.3022222222222222,-0.67,0.006867820718118628,-0.02747902655122951,0.6981889903148928
1589551791.6210506,-0.12028938659278073,-3.3203183252520585,9.050260447933503,0.5044444444444445,0.3022222222222222,-0.67,-0.002159564538751623,-0.03923518427149325,0.6762582642231822
1589551791.6310506,-0.18485184330023857,-3.3913370276302626,9.108366658970215,0.5044444444444445,0.3022222222222222,-0.67,0.002770305523154665,-0.03148824560278337,0.6635814554925661
1589551791.6410506,-0.21189850341289693,-3.381391020477382,9.091391020477381,0.5143462736064593,0.3022222222222222,-0.67,0.010756571029383481,-0.0246195610039608,0.6443078244567636
1589551791.6510506,-0.23,-3.39,9.02,0.5166666666666667,0.3022222222222222,-0.67,0.004363323129985824,-0.031634092692397225,0.6108652381980153
1589551791.6610506,-0.24848275703934697,-3.3272709346051546,8.89484728973677,0.5166666666666667,0.3022222222222222,-0.67,0.006677174016392424,-0.02099016351026004,0.5786701475321105
1589551791.6710505,-0.3107017680051235,-3.3764911599743823,8.946842432122965,0.5166666666666667,0.3022222222222222,-0.67,0.0071765093921792675,-0.023137099475073537,0.5495681779190384
1589551791.6810505,-0.31884177227472976,-3.3357911386263512,9.142202534593514,0.5166666666666667,0.3022222222222222,-0.67,0.0018488890560158355,-0.02580090964315525,0.534473253633242
1589551791.6910505,-0.22818239456265374,-3.119433187086303,8.999205193882986,0.5244444444444445,0.2877777777777778,-0.6844444444444444,0.012730388894639346,-0.014230540573329599,0.508252534042035
1589551791.7010505,-0.2987127544497984,-3.270691316746976,9.074851017799194,0.5244444444444445,0.2877777777777778,-0.6844444444444444,0.0001404167070791485,-0.032552003893677794,0.47578554596020295
1589551791.7110505,-0.2904635657390107,-3.146953486085161,9.041854262956042,0.5244444444444445,0.2877777777777778,-0.6844444444444444,0.001040263604714095,-0.02445338181496328,0.45598891421223414
1589551791.7210505,-0.329137916365338,-3.222298889692432,8.983448334538648,0.5244444444444445,0.2877777777777778,-0.6844444444444444,0.015052207236269374,-0.010814269088386983,0.43221347202189486
1589551791.7310505,-0.3023737610073595,-3.2936699706470414,9.090504955970562,0.5244444444444445,0.2877777777777778,-0.6844444444444444,0.00824000217880262,-0.007894752635186946,0.40593782394309447
1589551791.7410505,-0.32596788803840754,-3.3259678880384076,9.134623850717878,0.5177120290270796,0.28296890962251714,-0.702718143434435,0.00858003453176574,-0.005747377368894095,0.3715039416778101
1589551791.7510505,-0.3137480162228884,-3.3406193792981838,9.015622024334332,0.5166666666666667,0.2822222222222222,-0.7055555555555556,0.008999786748623556,-0.011385293829707212,0.3258869946498996
1589551791.7610505,-0.3507282666196438,-3.445396755422324,9.071092399929466,0.5166666666666667,0.2822222222222222,-0.7055555555555556,0.0009319476531820369,-0.016091533302048096,0.30168347736357504
1589551791.7710505,-0.3994296494377083,-3.5515018865159895,9.04849811348401,0.5166666666666667,0.2822222222222222,-0.7055555555555556,0.003950630345575281,-0.00730815466878363,0.264993081718012
1589551791.7810504,-0.42134860466636165,-3.5075826743350107,9.03,0.5166666666666667,0.2822222222222222,-0.7055555555555556,0.003450132867866176,-0.002653521982066856,0.23839509328941427
1589551791.7910504,-0.43,-3.506732882661732,9.000791948336417,0.5199120057403981,0.2737843406305206,-0.7211331831094662,0.0004536099454688046,-0.009191090772297076,0.20432007440938504
1589551791.8010504,-0.4098689691079486,-3.533289656369316,9.12091721624436,0.5222222222222223,0.2677777777777778,-0.7322222222222222,0.0029279397573915636,-0.003933011021583456,0.16418508327720713
1589551791.8110504,-0.2862444688307551,-3.274050054869199,8.80133526850508,0.5222222222222223,0.2677777777777778,-0.7322222222222222,0.01263585880189565,0.01143150037238374,0.09992213081757095
1589551791.8210504,-0.27266035580218706,-3.2306414232087484,8.985510037538763,0.5222222222222223,0.2677777777777778,-0.7322222222222222,-0.0005207573100705284,-0.004814112021985336,0.04744481873620011
1589551791.8310504,-0.3328464441051934,-3.2749906385920444,9.075711611026298,0.5222222222222223,0.2677777777777778,-0.7322222222222222,-0.004597218464977431,-0.0023389533499160696,-0.011680470352828442
1589551791.8410504,-0.32793335039017524,-3.2679333503901753,9.050577800520234,0.5173185223089278,0.2628740778644834,-0.7281358056278102,0.000450873002206224,0.008023660220320078,-0.05259498924760987
1589551791.8510504,-0.3289366207835426,-3.2063802752987445,9.00425351686583,0.5155555555555555,0.2611111111111111,-0.7266666666666667,0.0031564956692114966,0.00895863961652739,-0.10226154955353782
1589551791.8610504,-0.3795558476285436,-3.3386675428856307,9.04944480953568,0.5155555555555555,0.2611111111111111,-0.7266666666666667,-0.0075631412156396734,0.0011998421752497331,-0.1541705116411779
1589551791.8710504,-0.3415373110652859,-3.224611933195858,9.001921638831607,0.5155555555555555,0.2611111111111111,-0.7266666666666667,-0.0013423727173393924,0.010530994922700154,-0.18527435413267931
1589551791.8810503,-0.34,-3.4019036075273235,9.124025186950448,0.5155555555555555,0.2611111111111111,-0.7266666666666667,-0.001992767394032631,0.013614117659573082,-0.21539403537605156
1589551791.8910503,-0.34082330677756234,-3.395763147442936,8.962469920332687,0.5077777777777778,0.2677777777777778,-0.7466666666666667,0.00037236008137410273,0.0281052985627999,-0.26176001360671064
1589551791.9010503,-0.3466505838532744,-3.455813229816593,8.986650583853274,0.5077777777777778,0.2677777777777778,-0.7466666666666667,-0.00754447432156922,0.01322698112381643,-0.299349603271934
1589551791.9110503,-0.2939161388674975,-3.389895173584372,8.933916138867497,0.5077777777777778,0.2677777777777778,-0.7466666666666667,-0.0061063654243604356,0.015384144469629605,-0.32379745452448333
1589551791.9210503,-0.3065347678820482,-3.4878716875871687,8.95566845985256,0.5077777777777778,0.2677777777777778,-0.7466666666666667,-0.003461491440627228,0.022340449153011997,-0.3697566434838753
1589551791.9310503,-0.32284072196570984,-3.4678981950857253,9.03704433179426,0.5077777777777778,0.2677777777777778,-0.7466666666666667,-0.005373550565940575,0.019405682735006896,-0.3947750625377837
1589551791.9410503,-0.29702114350056297,-3.384042287001126,9.055265857625423,0.4977009049585054,0.27419033320822384,-0.7594917775275588,-0.003846908306894796,0.022849445296111173,-0.4365587221401014
1589551791.9510503,-0.2443960635359116,-3.317881215469613,8.997881215469613,0.4955555555555556,0.27555555555555555,-0.7622222222222222,-0.0025618326660887935,0.026840915940524325,-0.46632906717978007
1589551791.9610503,-0.16699878197320342,-3.298833536337799,8.890498172959806,0.4955555555555556,0.27555555555555555,-0.7622222222222222,-0.012781144256122805,0.0245072430026788,-0.5193454656093492
1589551791.9710503,-0.20540082006673419,-3.4167449658858877,8.977287471571573,0.4955555555555556,0.27555555555555555,-0.7622222222222222,-0.02054825029694518,0.016923332632153967,-0.5529893847118675
1589551791.9810503,-0.2710851077856154,-3.5690177335355,9.02315248203573,0.4955555555555556,0.27555555555555555,-0.7622222222222222,-0.016528793835799683,0.022053349444904287,-0.5877434944663716
1589551791.9910502,-0.28350132466281314,-3.681485428709056,9.078488078034681,0.5128853564547207,0.27988800578034684,-0.775219572896596,-0.018052237962235273,0.02547104326958954,-0.6122801392527202
1589551792.0010502,-0.28,-3.7013334349283755,9.054000304785127,0.5222222222222223,0.2822222222222222,-0.7822222222222223,-0.02174388805661272,0.0322158303216789,-0.6359542630781844
1589551792.0110502,-0.2683317607095679,-3.690417059822608,8.932919418758257,0.5222222222222223,0.2822222222222222,-0.7822222222222223,-0.008999611275557665,0.042337676755672266,-0.6547941815980918
1589551792.0210502,-0.18991909385113268,-3.71,9.069029126213593,0.5222222222222223,0.2822222222222222,-0.7822222222222223,-0.02181661564992912,0.032751399950197,-0.6688646049974506
1589551792.0310502,-0.18211806718000223,-3.71,8.975416806160027,0.5222222222222223,0.2822222222222222,-0.7822222222222223,-0.02181661564992912,0.03530427995858047,-0.6867347650561351
1589551792.0410502,-0.18877462523691918,-3.7363238757107577,9.05529550284303,0.5222222222222223,0.26954776354667226,-0.8007464310557183,-0.01990228938726878,0.036954578953713214,-0.7049869999413755
1589551792.0510502,-0.17488000642106108,-3.626600048157958,9.062440003210531,0.5222222222222223,0.2677777777777778,-0.8033333333333333,-0.017985618642230673,0.044510256097054404,-0.7167543597139366
1589551792.0610502,-0.20986801242236025,-3.6458152173913043,8.996211180124224,0.5222222222222223,0.2677777777777778,-0.8033333333333333,-0.027020928661140864,0.03994744281738574,-0.7286461674851133
1589551792.0710502,-0.17898906343209386,-3.66,9.021010936567906,0.5222222222222223,0.2677777777777778,-0.8033333333333333,-0.02870683126028295,0.03817907738737596,-0.7345846236082323
1589551792.0810502,-0.1383202279012428,-3.66,8.987968546962982,0.5222222222222223,0.2677777777777778,-0.8033333333333333,-0.02363180779234142,0.041016952918915814,-0.7353648196745944
1589551792.0910501,-0.09966253144790492,-3.6944582285069836,8.995808102715364,0.5306453447461515,0.2566745708144164,-0.8033333333333333,-0.023091506974800488,0.04096525244578323,-0.7356326404747434
1589551792.1010501,-0.020319956788358268,-3.7003199567883582,8.952434149906269,0.5466666666666666,0.23555555555555555,-0.8033333333333333,-0.0328857424254476,0.03753580158516028,-0.7375624279181582
1589551792.1110501,-0.03988962560846137,-3.7796688768253843,8.92,0.5466666666666666,0.23555555555555555,-0.8033333333333333,-0.029464471105793272,0.034918625018275556,-0.7479980791671805
1589551792.1210501,-0.09889231602859347,-3.7549961444678326,9.127792343121522,0.5466666666666666,0.23555555555555555,-0.8033333333333333,-0.025694938177331123,0.03981574413443778,-0.7482490814305872
1589551792.13105,-0.11098045088216076,-3.5868631561751254,8.904968416467,0.5466666666666666,0.23555555555555555,-0.8033333333333333,-0.01777414432083932,0.05469835644489417,-0.7219232939728097
1589551792.14105,-0.11800000000000001,-3.474,9.096,0.5626666666666666,0.24422222222222223,-0.812,-0.0370882466048795,0.021816615649929115,-0.6850417314077744
1589551792.15105,-0.16729356306892068,-3.403383046163849,8.977740978543562,0.5733333333333334,0.25,-0.8177777777777778,-0.04727475673676093,0.019028232656131384,-0.6179018680575206
1589551792.16105,-0.1610250150240385,-3.4139610877403848,8.954986102764423,0.5733333333333334,0.25,-0.8177777777777778,-0.04625304432173281,0.01952920610380552,-0.6023895026844382
1589551792.17105,-0.09013277493990385,-3.5242379056490387,8.994370680588942,0.5733333333333334,0.25,-0.8177777777777778,-0.04109761514013926,0.010077585937550688,-0.5095917774157543
1589551792.18105,-0.08658653669976914,-3.6124519036974605,9.00658653669977,0.5733333333333334,0.25,-0.8177777777777778,-0.02599114498806728,0.01878536203498276,-0.4604040211251335
1589551792.19105,-0.09,-3.5706320926009987,8.974725374489333,0.5488370656175922,0.1686723911837393,-0.7981807636051849,-0.01662019093503622,0.021112378663816732,-0.3936881577259764
1589551792.20105,-0.06617479184141077,-3.814135553691618,9.09706777684581,0.5455555555555556,0.15777777777777774,-0.7955555555555556,-0.03282233302800423,-0.001798249530172196,-0.3473947130827871
1589551792.21105,-0.03488947230244159,-3.88,9.08814912050407,0.5455555555555556,0.15777777777777774,-0.7955555555555556,-0.029783890184285743,-0.002157548162029876,-0.2941536178204166
1589551792.22105,-0.03,-3.851910127079785,8.658651906196777,0.5455555555555556,0.15777777777777774,-0.7955555555555556,0.006365204120580652,0.03159322047913979,-0.23268608171391256
1589551792.23105,0.0015135945193748696,-3.8710090630129166,8.861099693142084,0.5455555555555556,0.15777777777777774,-0.7955555555555556,-0.003877886695271778,0.013763088192230138,-0.20501126504606376
1589551792.24105,-0.00399924807566733,-4.031663533648614,9.120998872113502,0.5304447786330367,0.16659239764924708,-0.7395197578012149,-0.018980373593217515,-0.009926437087386521,-0.1585346205376237
1589551792.25105,-0.07828281206086643,-4.099764323282611,9.015151563817401,0.5188888888888888,0.17333333333333334,-0.6966666666666667,-0.006016102351483848,-0.0036471246401570782,-0.08695796249806212
1589551792.26105,-0.08086566649422314,-4.1174030005173305,8.815581996896018,0.5188888888888888,0.17333333333333334,-0.6966666666666667,-0.00816006886440701,-0.0050764356487725225,-0.005424809266496869
1589551792.27105,-0.07437249585171395,-4.108744991703428,8.850647537334575,0.5188888888888888,0.17333333333333334,-0.6966666666666667,-0.009954377210687032,-0.008216548551591894,0.021655324206979153
1589551792.28105,-0.07346596858638743,-4.085386387434555,8.977306806282723,0.5188888888888888,0.17333333333333334,-0.6966666666666667,-0.010445932640928364,-0.014096503510937448,0.09327231417496921
1589551792.29105,-0.077722256991337,-4.196833229025989,9.018416614512994,0.48033491807298584,0.22354315579125356,-0.675148171327558,-0.003272492347489368,-0.016189741174468465,0.19965530535023565
1589551792.30105,-0.14302570329892736,-4.095856304391823,9.073815421979356,0.4711111111111111,0.23555555555555555,-0.67,-0.0016793186460509091,-0.01984305307210098,0.2636935610328396
1589551792.31105,-0.15539628804246128,-4.01105676811323,9.060792576084921,0.4711111111111111,0.23555555555555555,-0.67,0.0020952049259025116,-0.020194778916032836,0.32447464282716854
1589551792.32105,-0.15425890046015986,-3.950988132719787,8.887410995398401,0.4711111111111111,0.23555555555555555,-0.67,0.009083431673331168,-0.01652414457563716,0.4044751138407412
1589551792.33105,-0.18599675761316115,-4.004651535528086,8.937957848971095,0.4711111111111111,0.23555555555555555,-0.67,0.00494675009849114,-0.02879474945207111,0.4829392493709322
1589551792.34105,-0.27495527287648747,-4.11769881001231,9.004160032827246,0.4658112433319655,0.26281201841973284,-0.6503147768203164,0.0015348620242840987,-0.03585265805666317,0.5742882541781861
1589551792.35105,-0.32415689847989065,-4.168313796959781,8.992470695439671,0.4633333333333333,0.27555555555555555,-0.6411111111111111,0.01022174363843327,-0.03349706250722078,0.6697681350326591
1589551792.36105,-0.3164765467486093,-4.220570359754172,8.915335827240265,0.4633333333333333,0.27555555555555555,-0.6411111111111111,0.008664429662276851,-0.04192924375813794,0.7637772067583276
1589551792.37105,-0.3396067880794702,-4.232598302980133,8.92921357615894,0.4633333333333333,0.27555555555555555,-0.6411111111111111,0.006544984694978735,-0.04904449244564467,0.8654594313221754
1589551792.3810499,-0.41810337130990044,-4.155705413116473,8.999529724589017,0.4633333333333333,0.27555555555555555,-0.6411111111111111,0.009246412106492385,-0.0522042865534722,0.9427957530416242
1589551792.3910499,-0.4553117254127631,-4.11,9.020623450825525,0.46697976912340644,0.2812856689399562,-0.6411111111111111,0.012953953519586111,-0.05140506264770478,1.0232753933754382
1589551792.4010499,-0.4760119940029985,-4.136011994002999,9.030809595202399,0.4711111111111111,0.2877777777777778,-0.6411111111111111,0.014704137279498703,-0.05476232196685731,1.1237078008180847
1589551792.4110498,-0.478375058469423,-4.16,8.995937646173557,0.4711111111111111,0.2877777777777778,-0.6411111111111111,0.012411613780610972,-0.06412379461827197,1.2079688510956614
1589551792.4210498,-0.46936313281571246,-4.155318433592144,8.959363132815712,0.4711111111111111,0.2877777777777778,-0.6411111111111111,0.014993745223357304,-0.06763150851478028,1.273166513184307
1589551792.4310498,-0.47495601840149637,-4.155043981598504,8.959912036802992,0.4711111111111111,0.2877777777777778,-0.6411111111111111,0.019084741045536865,-0.0692821476329783,1.3315748642037246
1589551792.4410498,-0.41978739803455584,-4.131307084591175,9.014559059669857,0.4846605433875008,0.2981391083420758,-0.6466902891072716,0.016196689649876243,-0.07559886816739665,1.373899653979415
1589551792.4510498,-0.4675946888576149,-4.052405311142385,9.026481062228477,0.49,0.3022222222222222,-0.6488888888888888,0.018958349321908208,-0.07744898555724837,1.3787797396203387
1589551792.4610498,-0.5198655551884515,-4.0398655551884515,8.900806668869292,0.49,0.3022222222222222,-0.6488888888888888,0.024337444719256834,-0.07094799782396487,1.377719278293024
1589551792.4710498,-0.46107631858549003,-3.958101758113987,8.93764188200389,0.49,0.3022222222222222,-0.6488888888888888,0.026806472724330996,-0.07013764429244447,1.3745866085709437
1589551792.4810498,-0.45733762523332444,-3.949172031541656,9.01,0.49,0.3022222222222222,-0.6488888888888888,0.02641014724949821,-0.0707038981753963,1.3619376566255832
1589551792.4910498,-0.5504739336492891,-4.029763033175356,9.037298578199051,0.49265402843601896,0.2931226961558715,-0.6462348604528699,0.025833561232866304,-0.06723343282638108,1.3401295597170442
1589551792.5010498,-0.6166142576380204,-4.0055642903936635,9.07669287118099,0.4977777777777778,0.27555555555555555,-0.6411111111111111,0.025819186988169197,-0.06532673788345236,1.3213739802094724
1589551792.5110497,-0.65,-3.96372919226902,8.992639928499608,0.4977777777777778,0.27555555555555555,-0.6411111111111111,0.02738958980740459,-0.0625841463743875,1.3077476812199265
1589551792.5210497,-0.65,-3.9206148071447062,8.967540771421175,0.4977777777777778,0.27555555555555555,-0.6411111111111111,0.029519496183278735,-0.05839297939149761,1.2968883078602216
1589551792.5310497,-0.6588033007963011,-3.930541035191369,9.015868867197534,0.4977777777777778,0.27555555555555555,-0.6411111111111111,0.027721406245162467,-0.05781403147231216,1.283920335062975
1589551792.5410497,-0.68,-3.961305203938115,9.039347398030943,0.4977777777777778,0.26361165807157366,-0.6509778090326613,0.025160295829075075,-0.05883367442315203,1.2590919676737127
1589551792.5510497,-0.6916230271512366,-3.8876963778194353,9.05,0.4977777777777778,0.25,-0.6622222222222223,0.02399827721492203,-0.058727817457068975,1.2292463710678834
1589551792.5610497,-0.7933244737653955,-3.9633225752865515,8.96334156007499,0.4977777777777778,0.25,-0.6622222222222223,0.01963536826876876,-0.05781403147231216,1.2006426689724572
1589551792.5710497,-0.8696182773815634,-4.039745518254375,8.964427416072345,0.4977777777777778,0.25,-0.6622222222222223,0.01637634156353237,-0.05781403147231216,1.1825854866609282
1589551792.5810497,-0.9,-4.02817349781138,9.027681390104789,0.4977777777777778,0.25,-0.6622222222222223,0.01720037141531353,-0.058199779564384796,1.166856869802601
1589551792.5910497,-0.8830464555537695,-3.9191393666613084,9.07695354444623,0.5298011395095465,0.23430227366089768,-0.6747804032935041,0.021342233139244996,-0.05643906916755928,1.142718767466372
1589551792.6010497,-0.9186048235361195,-3.939405895433035,9.117002679742289,0.5544444444444444,0.2222222222222222,-0.6844444444444444,0.018281973137195293,-0.05630886038118971,1.1110744971549182
1589551792.6110497,-0.9740776005712926,-3.980614932952472,9.008609061334603,0.5544444444444444,0.2222222222222222,-0.6844444444444444,0.01629538295807409,-0.05474277546294105,1.0771442880130313
1589551792.6210496,-1.008019769357496,-3.97,8.90504942339374,0.5544444444444444,0.2222222222222222,-0.6844444444444444,0.016961879542227224,-0.05274328571048165,1.0419972355839962
1589551792.6310496,-1.1709008642978502,-4.1982594001625175,8.906457671566818,0.5544444444444444,0.2222222222222222,-0.6844444444444444,0.015440267737108132,-0.0548489371249357,1.0114882744131828
1589551792.6410496,-1.4638937960409175,-4.72455608700206,8.784927207345598,0.5550367939422857,0.21878659513474302,-0.6806534076582604,0.015648735532273986,-0.051561605589997526,1.0051132211555083
1589551792.6510496,-0.8943289445945687,-4.26,8.972684221621725,0.56,0.19,-0.6488888888888888,0.03469502085661623,-0.030103200046477735,1.181515281894643
1589551792.6610496,-0.8480670957675054,-4.205108640530525,9.036015993758532,0.56,0.19,-0.6488888888888888,0.021642363570571876,-0.06067772290981739,1.2220016202909427
1589551792.6710496,-0.8647135747047917,-3.989876711883153,8.938607722585472,0.56,0.19,-0.6488888888888888,-0.003272492347489368,-0.0725983884834988,1.1230233311549875
1589551792.6810496,-0.9460238825238018,-3.895541794416653,9.148553735678554,0.56,0.19,-0.6488888888888888,-0.0009856554730658233,-0.07287531180840129,1.0290824903489482
1589551792.6910496,-0.84,-3.7656056855045246,8.9271094416937,0.5870899493483581,0.16718741107506688,-0.664097281505511,0.018228812304528448,-0.03351320096967194,0.8308804245775566
1589551792.7010496,-0.7863233776286931,-3.6984889046574634,9.018315701199844,0.6233333333333333,0.13666666666666666,-0.6844444444444444,0.01274140596065182,-0.03259368883359863,0.6368246816704246
1589551792.7110496,-0.8062891425226807,-3.6072168568920104,8.956494000585309,0.6233333333333333,0.13666666666666666,-0.6844444444444444,0.009217738256969126,-0.018067929004159426,0.3789634034815119
1589551792.7210495,-0.9622532108566441,-3.6175493578286715,8.964189908142483,0.6233333333333333,0.13666666666666666,-0.6844444444444444,0.004652183137271452,-0.0059327384057962715,0.1625464364023679
1589551792.7310495,-1.1245487843384907,-3.582459109567414,9.051926113040732,0.6233333333333333,0.13666666666666666,-0.6844444444444444,-0.0063527201724686245,-0.00593250749338884,-0.01784181702978098
1589551792.7410495,-1.3820388383856248,-3.7058349545470626,9.074598705387146,0.6629428271609304,0.08445415207574311,-0.6844444444444444,-0.007787260803827234,-0.0006530862659451381,-0.1789979192682564
1589551792.7510495,-1.5298078552306076,-3.8152882171540887,9.050384289538785,0.6966666666666667,0.04,-0.6844444444444444,-0.0022026213079078018,0.009177742808102868,-0.2617264907744084
1589551792.7610495,-1.5322040467744056,-3.784408093548811,9.026102023387201,0.6966666666666667,0.04,-0.6844444444444444,-0.004067253797579826,0.009928767293763397,-0.30217797045568606
1589551792.7710495,-1.5606271009620958,-3.7961129786329737,8.99742938835439,0.6966666666666667,0.04,-0.6844444444444444,-0.006756988822947407,0.005734564143769669,-0.3107123648441869
1589551792.7810495,-1.5980000885798438,-3.8310000664348824,8.999999778550391,0.6966666666666667,0.04,-0.6844444444444444,-0.0030543358535520936,0.009381139898188513,-0.29539705803181737
1589551792.7910495,-1.57,-3.792802696180411,9.078598651909795,0.8041498155390974,-0.04598651909794458,-0.650527539689144,-0.0037518696764702935,0.009032372986729412,-0.248799920056038
1589551792.8010495,-1.5652370222536964,-3.770952595549261,9.086189617802956,0.9466666666666668,-0.16,-0.6055555555555555,-0.007999261876089753,0.006752808804659277,-0.21582739788540592
1589551792.8110495,-1.520232837614541,-3.7799534324770914,9.050186270091634,0.9466666666666668,-0.16,-0.6055555555555555,-0.0011263888837134799,0.00871648680248107,-0.16280809194421753
1589551792.8210495,-1.5730699175331662,-3.9304144854786665,8.960414485478667,0.9466666666666668,-0.16,-0.6055555555555555,0.0013352801331813914,0.008704039584020305,-0.0932815593262025
1589551792.8310494,-1.4903569379705988,-3.8702595912513447,8.900259591251345,0.9466666666666668,-0.16,-0.6055555555555555,0.00543645577949269,0.011984980101069343,-0.051449567733827244
1589551792.8410494,-1.4039150743099786,-3.9140212314225056,9.06,1.1785576786978063,-0.21629723991507432,-0.45900401037980654,-0.009638682697651274,-0.01312470922379494,0.0024530954667096507
1589551792.8510494,-1.1936936936936937,-3.739515765765766,8.955202702702703,1.5233333333333334,-0.3,-0.2411111111111111,0.002137438695432245,0.010117209825045954,0.03142526247502741
1589551792.8610494,-1.0283379742429517,-3.6507083188304907,8.861907413853116,1.5233333333333334,-0.3,-0.2411111111111111,0.02939889574963473,0.03776294423818831,0.03405058852086875
1589551792.8710494,-0.9583666842860379,-3.6881375066072644,8.954670769463112,1.5233333333333334,-0.3,-0.2411111111111111,0.023995105955756726,0.027877097840743832,-0.002516167629156473
1589551792.8810494,-0.7965839596007793,-3.474099566583164,8.928944292019564,1.5233333333333334,-0.3,-0.2411111111111111,-0.0026762634741267577,0.010515332880059479,-0.0829640809484935
1589551792.8910494,-0.7173890412666749,-3.394078356813365,8.91528986410672,1.3596077310947652,-0.06506289046807687,-0.4663098948593276,0.0030919225218492144,0.01586916714128548,-0.16072808833557042
1589551792.9010494,-0.74,-3.48,9.06,1.2244444444444444,0.1288888888888889,-0.6522222222222223,0.006544984694978735,0.016362461737446838,-0.19525871006686565
1589551792.9110494,-0.9259724810090296,-3.652294682528307,9.050455783287946,1.2244444444444444,0.1288888888888889,-0.6522222222222223,-0.03183468548212676,-0.034730851372189016,-0.2944728732165053
1589551792.9210494,-1.156687552213868,-3.920062656641604,9.050812149421173,1.2244444444444444,0.1288888888888889,-0.6522222222222223,-0.02191204218812818,-0.026998029320219004,-0.3698053048249765
1589551792.9310493,-1.2173653846153847,-4.044211538461538,8.875769230769231,1.2244444444444444,0.1288888888888889,-0.6522222222222223,-0.00373189992704076,0.0063142320294506385,-0.4110974112715802
1589551792.9410493,-1.2565790177974039,-4.009474106784424,9.156579017797403,1.085704610672495,0.14675401816911252,-0.6757889885067726,-0.004793860450067893,0.016965389149075583,-0.4619090324276788
1589551792.9510493,-1.2288195245569908,-3.960586455358663,9.121759366075988,0.8188888888888889,0.1811111111111111,-0.7211111111111111,-0.006993616368994858,0.012513393004383526,-0.5077513934413382
1589551792.9610493,-1.1644768928584663,-3.9350365044657747,9.029440388392691,0.8188888888888889,0.1811111111111111,-0.7211111111111111,0.0016322641542481156,0.027873247090912476,-0.540709695294725
1589551792.9710493,-1.2451436602123673,-4.02,8.99942535915053,0.8188888888888889,0.1811111111111111,-0.7211111111111111,-0.00679418604332232,0.019354410940218586,-0.6010806359745701
1589551792.9810493,-1.258242660836977,-4.02,8.947029356652092,0.8188888888888889,0.1811111111111111,-0.7211111111111111,-0.004650867078132649,0.01863997128515536,-0.6289437825220358
1589551792.9910493,-1.2188762809008278,-4.093112371909917,9.084438140450414,0.7718574911390288,0.18871913133535317,-0.7211111111111111,-0.002181661564992912,0.02986424769271777,-0.6542092316709858
1589551793.0010493,-1.1647426993217171,-4.15528512245644,9.094228097965152,0.6677777777777778,0.20555555555555555,-0.7211111111111111,-0.00419188534464526,0.026753421321185973,-0.6668435185612195
1589551793.0110493,-1.148233086324704,-4.189437975170821,9.107349629487056,0.6677777777777778,0.20555555555555555,-0.7211111111111111,-0.0060411932480342176,0.02536509626872858,-0.6757762309079264
1589551793.0210493,-0.9933634970444428,-3.9658096767131283,8.877950083923228,0.6677777777777778,0.20555555555555555,-0.7211111111111111,-6.670920205298329e-05,0.03060997111195375,-0.6867996542108006
1589551793.0310493,-1.0975922010805732,-4.14277660324172,9.105922010805733,0.6677777777777778,0.20555555555555555,-0.7211111111111111,-0.005333462980239895,0.0290478218237722,-0.7174045820859408
1589551793.0410492,-1.0910237256283768,-4.123071176885131,9.040237256283767,0.6677777777777778,0.20555555555555555,-0.7211111111111111,-0.013931577241033666,0.019016688519512798,-0.7431989248683221
1589551793.0510492,-0.9648719533551723,-3.9474359766775864,9.008460349836207,0.6022222222222222,0.26222222222222225,-0.7355555555555555,-0.009006337816684432,0.026963142561343932,-0.7724478712292642
1589551793.0610492,-0.9537403311385284,-3.9269088410151505,9.08072652304545,0.6022222222222222,0.26222222222222225,-0.7355555555555555,-0.010837494128127307,0.022295436181030054,-0.7937707411732337
1589551793.0710492,-0.9341615206483983,-3.8381435739096874,8.969730798919336,0.6022222222222222,0.26222222222222225,-0.7355555555555555,-0.012231008562482213,0.02397870035989074,-0.8228914193472764
1589551793.0810492,-0.8631679343950559,-3.773167934395056,9.046534347516046,0.6022222222222222,0.26222222222222225,-0.7355555555555555,-0.00616694065388536,0.031644918027593144,-0.8378013422980618
1589551793.0910492,-0.852717663919742,-3.81572554639914,9.032620924399856,0.5954910625422987,0.26586826704884753,-0.7341532306222381,-0.0043738757746033105,0.0343664459709471,-0.8525422960663764
1589551793.1010492,-0.929365132125644,-4.061851974959836,9.057513157165808,0.5755555555555556,0.2766666666666667,-0.73,-0.00797634129096849,0.03565689000888974,-0.8752503258210781
1589551793.1110492,-0.95,-4.1239893478341845,9.016010652165816,0.5755555555555556,0.2766666666666667,-0.73,-0.00891739640052887,0.03509733518044381,-0.8859453455276795
1589551793.1210492,-0.95,-4.19,8.95,0.5755555555555556,0.2766666666666667,-0.73,-0.009817477042468105,0.035997415822383035,-0.8868454261696187
1589551793.1310492,-0.8865245417034467,-4.150327838564654,8.95793443228707,0.5755555555555556,0.2766666666666667,-0.73,-0.0037588909562099463,0.035997415822383035,-0.8686696679108443
1589551793.1410491,-0.8890327695560254,-4.20561310782241,9.083419661733615,0.5740932581630256,0.2822721400046982,-0.7326808785529716,-0.005559662386687804,0.033710245783184614,-0.8368574713577754
1589551793.1510491,-0.7526675201850207,-4.17261920003304,9.01133376009251,0.5688888888888889,0.3022222222222222,-0.7422222222222222,-0.007163145414495746,0.03021081159253927,-0.8044722384999128
1589551793.1610491,-0.60429726505545,-4.12628109397782,8.97258913975169,0.5688888888888889,0.3022222222222222,-0.7422222222222222,-0.005673496062932568,0.0283916749443104,-0.7843403471992318
1589551793.171049,-0.7407396257599905,-4.082073962575999,9.100224898176023,0.5688888888888889,0.3022222222222222,-0.7422222222222222,-0.014286013412439715,0.02152550851530504,-0.8089597799104341
1589551793.181049,-0.8473759843234023,-4.0954751968646805,8.967489567079145,0.5688888888888889,0.3022222222222222,-0.7422222222222222,-0.002778912893015067,0.03619236961284627,-0.828720379076663
1589551793.191049,-0.9187022745735175,-4.105457961007311,9.118702274573517,0.5689609847459157,0.30279898907843666,-0.7427268932214098,-0.005000342609081794,0.03346185454678126,-0.8173028592175505
1589551793.201049,-0.9,-4.0914829344841115,9.076598666143585,0.57,0.3111111111111111,-0.75,-0.01086230378058701,0.029893214064231042,-0.7695952392230121
1589551793.211049,-0.9,-4.242317575519811,9.008037465672812,0.57,0.3111111111111111,-0.75,-0.0011397769459911729,0.03438053414173682,-0.7105121915358528
1589551793.221049,-0.8927588235294118,-4.359947058823529,8.957135294117647,0.57,0.3111111111111111,-0.75,-0.0026475104756355163,0.0272707695624114,-0.5644863216520968
1589551793.231049,-0.7846537141858076,-4.297722971348645,8.996038857442576,0.57,0.3111111111111111,-0.75,0.0025920134293876823,0.02526194544683823,-0.43157005719568753
1589551793.241049,-0.6480836849507735,-4.192063994374121,9.079017229254571,0.5566776058759181,0.3114441709642132,-0.7456702219096734,0.0096003848403257,0.01876390039047437,-0.28605771539048935
1589551793.251049,-0.41,-4.01,9.03,0.5255555555555556,0.31222222222222223,-0.7355555555555555,0.006544984694978735,0.014180800172453925,-0.16689710972195776
1589551793.261049,-0.3925677817155041,-3.9838516725732562,9.169457746275967,0.5255555555555556,0.31222222222222223,-0.7355555555555555,0.006544984694978735,0.014180800172453925,-0.16689710972195776
1589551793.271049,-0.2957807826677055,-3.772717721868952,8.888498504536656,0.5255555555555556,0.31222222222222223,-0.7355555555555555,0.0055172124692908315,0.014180800172453925,-0.16381379304489405
1589551793.281049,-0.21648175509290352,-3.4594452652787107,9.266211775240652,0.5255555555555556,0.31222222222222223,-0.7355555555555555,0.006282228052496939,0.011726027985758744,-0.23732575549105353
1589551793.291049,-0.20538499212873887,-3.4297449711387094,8.869749868812313,0.5291455503080481,0.31740777019804484,-0.7355555555555555,0.015467434794201365,0.034039377429873216,-0.2826375185061367
1589551793.301049,-0.23,-3.52,9.28,0.5455555555555556,0.3411111111111111,-0.7355555555555555,0.016362461737446838,0.025089107997418484,-0.3130684345764829
1589551793.311049,-0.8017380352644836,-7.031057934508817,9.697808564231737,0.5455555555555556,0.3411111111111111,-0.7355555555555555,-0.14914981495081267,0.16341579334557735,-0.6121099393175894
1589551793.321049,-0.32005094735440043,-1.0043075488661717,15.80509506842929,0.5455555555555556,0.3411111111111111,-0.7355555555555555,-1.5685651563105691,-0.817396798653634,-5.822943128345142
1589551793.331049,-0.7907791959462689,-1.7244074764568098,3.0122008700224674,0.5455555555555556,0.3411111111111111,-0.7355555555555555,-0.7123069735519083,0.23530219606829472,-6.490874607352282
1589551793.341049,-1.4390687891390601,-3.67595965390315,8.960424972513028,0.5455555555555556,0.3411111111111111,-0.7355555555555555,-0.12761239224273835,1.206390952058088,-5.801926503440604
1589551793.351049,-7.846831885026738,-7.66891895053476,10.004351771390374,0.4933333333333334,0.3688888888888889,-0.7088888888888889,1.3808378621462516,0.6953040173059192,-3.6706139008829943
1589551793.361049,-0.17877673796791527,2.82384024064171,8.413265374331552,0.4933333333333334,0.3688888888888889,-0.7088888888888889,1.3510190803130346,0.6134935133019648,-1.8707828127959996
1589551793.371049,0.15012272857006942,0.18897250499476737,6.176591190181714,0.4933333333333334,0.3688888888888889,-0.7088888888888889,-0.3226426514767978,-0.1201404140456562,-0.7219669397518507
1589551793.381049,1.7642829811836434,-0.6606832755177126,10.705902028802692,0.4933333333333334,0.3688888888888889,-0.7088888888888889,-0.16358008056421702,-0.23161916281318268,-0.44788670270737946
1589551793.391049,0.7062510200750776,-0.9781295903378489,6.251181246939774,0.4907811508260342,0.37654543641078647,-0.7081596938868034,0.20727396099451856,0.2675676429370306,-0.36711512072922325
1589551793.401049,0.9800750775257059,-2.2103378488656764,8.766939774767422,0.4641593674627786,0.4564107865005531,-0.7005534700687304,-0.0428836968467311,-0.05913079081086997,-0.2140335689159212
1589551793.411049,-0.7270760584616967,-10.297914946113119,10.388218049106454,0.4622222222222222,0.4622222222222222,-0.7,-0.01680598613592945,0.03389253462944941,0.5498309728787683
1589551793.4210489,0.8683432996932987,-1.6883996710244507,6.097833558932886,0.4622222222222222,0.4622222222222222,-0.7,0.10313585155349836,-0.010007745832040497,1.0099999841447427
1589551793.4310489,0.2506421831511778,-4.820917113570022,9.501019957911888,0.4622222222222222,0.4622222222222222,-0.7,-0.024437356783506156,-0.07612419374988615,1.045233596678006
1589551793.4410489,0.1936969655827846,-3.8528484149073385,7.415401364469487,0.4622222222222222,0.4622222222222222,-0.7,-0.009684427676610357,0.024040430186406378,1.1710217290631177
1589551793.4510489,0.38516213202497773,-4.050487957181089,9.299592328278322,0.4222222222222222,0.49,-0.7233333333333334,0.03267169560352654,-0.07067778240895932,1.3482181684770427
1589551793.4610488,0.12164052532833022,-4.09328105065666,8.724424015009381,0.4222222222222222,0.49,-0.7233333333333334,0.019992861190457744,-0.04082523230020263,1.4195629740652742
1589551793.4710488,0.06195143709403139,-3.9758543112820943,8.847317889102618,0.4222222222222222,0.49,-0.7233333333333334,0.006544984694978735,-0.0648113622933993,1.488984261386251
1589551793.4810488,0.14500865176640232,-4.257081326604181,9.145008651766403,0.4222222222222222,0.49,-0.7233333333333334,0.005561538220371296,-0.08355877045280229,1.578763732809154
1589551793.4910488,0.17524873828406634,-4.5413381398702235,9.175248738284067,0.4222222222222222,0.49,-0.7233333333333334,-0.0003760888826170195,-0.08751718852146116,1.5939376687390125
1589551793.5010488,-1.0142790407972595,0.20402055434444044,11.455191529118656,0.4604533028824527,0.45070694487698537,-0.6893501505242396,-0.1127445463822357,-0.1321943547878008,0.8173111636178522
1589551793.5110488,0.15361393980538585,-5.370673126375774,8.67958011890802,0.4622222222222222,0.4488888888888889,-0.6877777777777778,0.12527142087249657,0.09812896850266915,0.28268111463427464
1589551793.5210488,-0.9242977418726883,-3.429764940626825,8.090350642398286,0.4622222222222222,0.4488888888888889,-0.6877777777777778,0.010563216064130503,0.01849732715027065,0.024087808367086728
1589551793.5310488,0.12752947843333842,-4.2629853316187525,9.199735402454175,0.4622222222222222,0.4488888888888889,-0.6877777777777778,-0.051806461807684764,-0.06831010079031948,-0.034807133302496754
1589551793.5410488,-0.018737603801137703,-4.180710097861859,8.962051393823153,0.4622222222222222,0.4488888888888889,-0.6877777777777778,-0.006932282998129653,0.000496973384331717,-0.02084627767285739
1589551793.5510488,0.041485667208855284,-4.1272979995352665,9.021485667208855,0.45734240736437654,0.4254657775712297,-0.7170566669248517,-0.0017542376611392862,0.0020489801892643457,-0.005395394359146427
1589551793.5610487,-0.009523098298020144,-4.22888971865231,8.9341281695033,0.4566666666666666,0.4222222222222222,-0.7211111111111111,-0.00010404381134891541,-0.0013159875009745798,-0.0036187619730967007
1589551793.5710487,-0.053228898923237226,-4.17789961792289,8.86128516846127,0.4566666666666666,0.4222222222222222,-0.7211111111111111,0.009431082727779014,0.0026569818903287253,-0.005207949729618022
1589551793.5810487,0.09153680362777385,-4.099941721123506,9.061536803627774,0.4566666666666666,0.4222222222222222,-0.7211111111111111,-0.0009295487513585159,-0.0056154359436202195,-0.001090830782496456
1589551793.5910487,-0.0024782316326706633,-4.150565201648361,8.967521768367329,0.4566666666666666,0.4222222222222222,-0.7211111111111111,-0.005662833111954635,-0.0008821515830241006,-0.001090830782496456
1589551793.6010487,0.06300243440627537,-4.155248174195294,9.032506086015688,0.4566666666666666,0.4355555555555555,-0.7144444444444444,-0.003600007134768531,-0.0012275165709712957,-0.002372490563797235
1589551793.6110487,0.03132898633682586,-4.177342027326348,8.95,0.4566666666666666,0.4355555555555555,-0.7144444444444444,0.0011597593645814837,0.0026926126651986263,-0.002982552506343997
1589551793.6210487,0.03735891857719269,-4.154717837154386,8.95396162213421,0.4566666666666666,0.4355555555555555,-0.7144444444444444,0.008150451676956097,-0.0009467821367425684,-0.0006586848452347931
1589551793.6310487,0.021761216786597495,-4.1235224335731955,8.977358174820104,0.4566666666666666,0.4355555555555555,-0.7144444444444444,0.004747561027079832,-9.60594742735021e-05,0.0018934831421724056
1589551793.6410487,0.03982575797943198,-4.139825757979432,9.019651515958863,0.4566666666666666,0.4355555555555555,-0.7144444444444444,-0.0006828711910816434,0.0007208849030096382,-0.0007018780470456408
1589551793.6510487,0.032851245872110475,-4.175723131191834,8.979979360552386,0.4671464608559325,0.44127180693151874,-0.7144444444444444,-0.004207811791697621,0.0001555113382882031,-0.002181661564992912
1589551793.6610487,0.05519723957847617,-4.145763312505828,9.018473374988343,0.4688888888888889,0.44222222222222224,-0.7144444444444444,0.0013003907388466098,0.002076881586817835,-0.0008812708261463022
1589551793.6710486,0.010741632948990809,-4.194066936408074,8.9181579624389,0.4688888888888889,0.44222222222222224,-0.7144444444444444,0.003353391952496648,0.001090830782496456,0.0009290315724818964
1589551793.6810486,0.019517670411525162,-4.121929318353899,9.019517670411524,0.4688888888888889,0.44222222222222224,-0.7144444444444444,0.004100253148777222,0.0011960587749798967,-0.0010382167862547356
1589551793.6910486,0.010934577526756297,-4.1562616898929745,9.010934577526756,0.4688888888888889,0.44222222222222224,-0.7144444444444444,-0.0005810978150888688,0.0030685991605263335,-0.00010194659348151751
1589551793.7010486,0.040801433928056366,-4.144599283035972,9.025400716964027,0.47830043814468387,0.44222222222222224,-0.7101664675099921,-0.001090830782496456,-0.0009274016867299589,0.0008399788068438654
1589551793.7110486,0.010221652184908864,-4.188891739075456,8.968670086890548,0.4811111111111111,0.44222222222222224,-0.7088888888888889,-0.0009699382693433632,0.003272492347489368,0.0
1589551793.7210486,0.01779847173799158,-4.151007641310042,8.92320916957205,0.4811111111111111,0.44222222222222224,-0.7088888888888889,0.0031625757316184715,0.003272492347489368,0.0
1589551793.7310486,0.0038973237921199597,-4.174543746691032,8.965456253308968,0.4811111111111111,0.44222222222222224,-0.7088888888888889,0.004193270299513813,8.502641523600542e-05,0.0010058043672604505
1589551793.7410486,0.03971359281334859,-4.124400970061312,9.015599029938688,0.4811111111111111,0.44222222222222224,-0.7088888888888889,0.002630490749012597,0.0008664161904866135,0.00022441459200984244
1589551793.7510486,0.029530866484508866,-4.169061732969018,9.028592599453527,0.4811111111111111,0.4355555555555555,-0.7088888888888889,-0.006340286583059334,-0.0008861326705770544,0.0
1589551793.7610486,0.02,-4.150376786487658,8.998116067561716,0.4811111111111111,0.4355555555555555,-0.7088888888888889,-0.002099459505159918,0.0032519418325311195,0.0
1589551793.7710485,0.020277268288035062,-4.169168195135895,8.903049951168386,0.4811111111111111,0.4355555555555555,-0.7088888888888889,0.002211906843352786,0.0021211710082731637,0.0
1589551793.7810485,0.03,-4.140184426900776,9.010368853801552,0.4811111111111111,0.4355555555555555,-0.7088888888888889,0.003272492347489368,0.0,0.0
1589551793.7910485,0.03,-4.14705424705998,9.02410849411996,0.4811111111111111,0.4355555555555555,-0.7088888888888889,0.003272492347489368,0.0,0.0
1589551793.8010485,0.02065126624263472,-4.15,9.020651266242634,0.4759173701347971,0.4480205338987093,-0.7286251045988822,-0.0018264509324595326,-0.0010197886559897798,0.0
1589551793.8110485,0.02,-4.16910667267595,9.029553336337974,0.4755555555555556,0.4488888888888889,-0.73,-0.002181661564992912,0.0009933838881045008,-0.0010421073353004784
1589551793.8210485,0.02,-4.17,8.946313430568216,0.4755555555555556,0.4488888888888889,-0.73,0.00196778779944875,0.002750610528273121,-0.0019207206553847882
1589551793.8310485,0.03,-4.149924882983543,8.960450702098747,0.4755555555555556,0.4488888888888889,-0.73,0.004355129134601678,-0.0010826367871123101,0.0
1589551793.8410485,0.03,-4.142008719613468,9.007947682319191,0.4755555555555556,0.4488888888888889,-0.73,0.0034916096662669194,-0.00021911731877755135,0.0
1589551793.8510485,0.03623791777109034,-4.14623791777109,9.02623791777109,0.47139694370816204,0.44057166519410174,-0.7202965723560817,-0.0014906665588815485,0.0,0.0006804512723387024
1589551793.8610485,0.04,-4.1786902442058125,8.943929267382561,0.4688888888888889,0.4355555555555555,-0.7144444444444444,-0.005406529847887198,0.002086413435802749,4.762406459508147e-05
1589551793.8710485,0.04,-4.18,8.89000960581239,0.4688888888888889,0.4355555555555555,-0.7144444444444444,-0.003117108449240401,0.0014026464105789524,-0.0007790151544139596
1589551793.8810484,0.04965715148769068,-4.151028545536929,8.947257211901524,0.4688888888888889,0.4355555555555555,-0.7144444444444444,0.0020320656806088635,3.73989710960121e-05,-0.001090830782496456
1589551793.8910484,0.037962392560650066,-4.137962392560651,8.992131626037724,0.4688888888888889,0.4355555555555555,-0.7144444444444444,0.002181661564992912,0.0013130992742451252,-0.001090830782496456
1589551793.9010484,0.0356626874808693,-4.146988062442608,9.02,0.4688888888888889,0.4393306805428017,-0.7144444444444444,0.0015639581834139577,0.0034170683281508204,-0.001090830782496456
1589551793.9110484,0.031036431792889355,-4.16,9.03792713641422,0.4688888888888889,0.44222222222222224,-0.7144444444444444,-0.0028202636660326873,0.0024077759057212524,-0.00011305717036417021
1589551793.9210484,0.020150435193779445,-4.169849564806221,8.930451305581338,0.4688888888888889,0.44222222222222224,-0.7144444444444444,6.563973605817452e-05,0.00319044267741665,1.640993401454363e-05
1589551793.9310484,0.027495840703315177,-4.1625041592966845,8.952487522109946,0.4688888888888889,0.44222222222222224,-0.7144444444444444,0.0032706775119464328,-0.0008158545424436729,0.0008176693779866082
1589551793.9410484,0.03,-4.152985536665821,9.002086780005074,0.4688888888888889,0.44222222222222224,-0.7144444444444444,0.004363323129985824,-0.0006513430594698453,-0.0004394877230266107
1589551793.9510484,0.03,-4.15,9.02,0.4876942730728485,0.44222222222222224,-0.7207129058390976,0.0033376485327590664,0.0010256745972267575,-0.001090830782496456
1589551793.9610484,0.03,-4.169965083798883,8.980069832402235,0.4888888888888889,0.44222222222222224,-0.7211111111111111,-0.0021721396482462596,0.001090830782496456,-0.001090830782496456
1589551793.9710484,0.03974062529077882,-4.17,8.90207499767377,0.4888888888888889,0.44222222222222224,-0.7211111111111111,-0.002181661564992912,-0.00103424399909255,-2.8293391701952973e-05
1589551793.9810483,0.03062610492480771,-4.17,8.94686947537596,0.4888888888888889,0.44222222222222224,-0.7211111111111111,0.0019084717549717584,0.0019767692074770466,-0.0010225333299911676
1589551793.9910483,0.03,-4.162256688715569,8.996459867706585,0.4888888888888889,0.44222222222222224,-0.7211111111111111,0.0038709900264947785,0.0013369973342419786,0.0005984976790054106
1589551794.0010483,0.044744624305387774,-4.152627687847306,9.032116936458081,0.4741442645835011,0.4315733268905533,-0.7211111111111111,0.002754934123119583,0.00028663627906333553,0.0018950252859295763
1589551794.0110483,0.03215924426450742,-4.15,9.004318488529014,0.4688888888888889,0.42777777777777776,-0.7211111111111111,0.0012085992880291369,0.0009730622769637751,0.0002355370110653618
1589551794.0210483,0.03,-4.15598160854717,8.952147131622647,0.4688888888888889,0.42777777777777776,-0.7211111111111111,-0.002171630583551589,0.001090830782496456,0.0
1589551794.0310483,0.03,-4.16,8.92,0.4688888888888889,0.42777777777777776,-0.7211111111111111,-0.0014086175963506334,0.001090830782496456,0.0007386763834087976
1589551794.0410483,0.03,-4.147956443598689,8.98623956020721,0.4688888888888889,0.42777777777777776,-0.7211111111111111,0.001970622307992329,-0.0002229174228317633,0.001090830782496456
1589551794.0510483,0.02299739639835105,-4.147002603601649,9.03,0.4642204864877896,0.42777777777777776,-0.7164427087100118,0.003272492347489368,-0.0003269652258665336,0.001090830782496456
1589551794.0610483,0.02,-4.15,9.03,0.4622222222222222,0.42777777777777776,-0.7144444444444444,0.0004888390904272109,0.0018557688380414382,-0.0007649380555449822
1589551794.0710483,0.038334605403755155,-4.177501908105633,8.901657762173715,0.4622222222222222,0.42777777777777776,-0.7144444444444444,-0.0029999927939012975,-0.0008183312289083856,-0.002090828380463555
1589551794.0810483,0.03131304054812984,-4.18,8.959495675614962,0.4622222222222222,0.42777777777777776,-0.7144444444444444,-0.0013772917922096665,0.0017519700504230959,-0.0012340612873530613
1589551794.0910482,0.03,-4.172701429466831,8.984597141066338,0.4622222222222222,0.42777777777777776,-0.7144444444444444,-0.00029468024191623657,0.002181661564992912,-0.0018869813230766755
1589551794.1010482,0.024191240727568335,-4.164191240727568,9.007426277817295,0.4589951337375379,0.42777777777777776,-0.7234802922015604,0.003168186711240088,0.0009143868804968769,-0.0009143868804968769
1589551794.1110482,0.03478040833304447,-4.152609795833478,8.990439183333912,0.4566666666666666,0.42777777777777776,-0.73,0.0014234228155942698,0.0,0.0
1589551794.1210482,0.025467981335641744,-4.157266009332179,8.929137934674745,0.4566666666666666,0.42777777777777776,-0.73,-0.0015851973290895017,0.0015851973290895017,0.0007925986645447509
1589551794.1310482,0.027943779281624153,-4.167943779281624,8.933831337844872,0.4566666666666666,0.42777777777777776,-0.73,-0.0013151296680175908,0.00044859777104227,0.001090830782496456
