time,acc_x,acc_y,acc_z,mag_x,mag_y,mag_z,gyr_x,gyr_y,gyr_z
1589551830.3160243,-0.19,-4.13,8.96,0.4577777777777778,0.3333333333333333,-0.6711111111111111,0.004363323129985824,0.004363323129985824,-0.002181661564992912
1589551830.3260243,-0.20432007495102633,-4.098799931862703,8.931359850097946,0.4577777777777778,0.3333333333333333,-0.6711111111111111,6.981094029195434e-05,0.00041015088769345495,-0.001090830782496456
1589551830.3360243,-0.26054175883801495,-4.04362076881339,8.818916482323969,0.4577777777777778,0.33383780625234777,-0.6711111111111111,-0.0026769266950900134,-0.0021521132041331013,-0.0008078221367266838
1589551830.3460243,-0.09312090320712972,-4.1632393871094475,9.145678129070946,0.4577777777777778,0.3411111111111111,-0.6711111111111111,-0.0027662905646315804,-0.00511371618372938,0.0023910940377598025
1589551830.3560243,-0.17738953294566467,-4.108313270861884,8.926345420200748,0.4577777777777778,0.3411111111111111,-0.6711111111111111,0.0033951547518620943,0.006198895710836188,0.001090830782496456
1589551830.3660243,-0.14699220913488167,-4.138913340471883,9.03927556031459,0.4577777777777778,0.3411111111111111,-0.6711111111111111,0.003430540569271154,0.003430540569271154,0.0005256593635255048
1589551830.3760242,-0.18989087428206763,-4.115054562858966,9.040218251435865,0.4577777777777778,0.3411111111111111,-0.6711111111111111,0.005430346374025752,0.007084448201612832,-0.0011027345517247197
1589551830.3860242,-0.18,-4.109762886398389,9.065118556800806,0.4651712487122742,0.3411111111111111,-0.6676987399105743,0.003272492347489368,0.00431159296686877,-0.0016233136329654207
1589551830.3960242,-0.1497511214006656,-4.112099551439734,9.039751121400666,0.4722222222222222,0.3411111111111111,-0.6644444444444444,0.003272492347489368,0.0015217334067498672,-0.001090830782496456
1589551830.4060242,-0.15285766914107832,-4.102856748144191,8.985713496288383,0.4722222222222222,0.3411111111111111,-0.6644444444444444,0.0026491461196091796,0.0004674845546162675,-0.001090830782496456
1589551830.4160242,-0.19193938682015743,-4.0826868710599475,8.879555581659423,0.4722222222222222,0.3411111111111111,-0.6644444444444444,-0.0018070315170945444,-0.008775124780592402,-0.0002930921660789648
1589551830.4260242,-0.13641919166955002,-4.1320206613612775,9.098543159837213,0.4722222222222222,0.3411111111111111,-0.6644444444444444,-0.0013809677228658608,-0.007585581150006166,-0.0006305082082078356
1589551830.4360242,-0.09633229934082978,-4.157335401318341,9.210344707250872,0.4722222222222222,0.3411111111111111,-0.6510762569471371,-0.002072240113487742,-0.002981829720993996,-0.001090830782496456
1589551830.4460242,-0.1491678964695198,-4.106978090589171,9.053226245884892,0.4722222222222222,0.3411111111111111,-0.6433333333333333,-0.0012612227857562047,0.0005000311839846398,0.0002500155919923199
1589551830.4560242,-0.1727880854477986,-4.101635743656605,8.965576170895599,0.4722222222222222,0.3411111111111111,-0.6433333333333333,0.0007866978394275414,0.002181661564992912,0.0018775286219239974
1589551830.4660242,-0.1948585801297068,-4.085141419870293,8.926855226493725,0.4722222222222222,0.3411111111111111,-0.6433333333333333,-0.0007169361784794724,0.0012777780845049478,-0.0005299888764709808
1589551830.4760242,-0.14775019597596029,-4.13224980402404,9.037562059054089,0.4722222222222222,0.3411111111111111,-0.6433333333333333,-0.004653061695548313,-0.006746077226217631,-0.00037838459988608455
1589551830.4860241,-0.1354218935692592,-4.139437475240988,9.135984418328272,0.45851387238288066,0.3411111111111111,-0.65075868949631,-0.00542347294632993,-0.00922604020199135,-0.0022430234972976117
1589551830.4960241,-0.17756166094286607,-4.106219169528567,9.01152044957852,0.4455555555555555,0.3411111111111111,-0.6577777777777778,-0.0028600677213253944,-0.00011953843417304277,-0.0028600677213253944
1589551830.5060241,-0.16057351268152312,-4.09264337817038,8.910573512681523,0.4455555555555555,0.3411111111111111,-0.6577777777777778,0.0010282702537807052,6.2560528715751e-05,-0.0005766956556061034
1589551830.516024,-0.16431500332984494,-4.111472504994768,8.971575016649224,0.4455555555555555,0.3411111111111111,-0.6577777777777778,0.002181661564992912,0.0004706938458769552,-0.0007807623141867056
1589551830.526024,-0.15824350280271254,-4.102365254204069,9.023512994394574,0.4455555555555555,0.3411111111111111,-0.6577777777777778,0.002822879016849635,-0.00019160412121698952,-0.001090830782496456
1589551830.536024,-0.17219670971165751,-4.09,9.03260109676278,0.4496660573540106,0.3411111111111111,-0.6520230752599406,0.0016583020659150971,0.0005233594990778148,-0.0018979259232835915
1589551830.546024,-0.16612335773743858,-4.1108149633938424,9.016123357737438,0.4511111111111111,0.3411111111111111,-0.65,0.001090830782496456,0.001090830782496456,-0.0006679547112235845
1589551830.556024,-0.14529191245382878,-4.115097304151276,8.97077843321021,0.4511111111111111,0.3411111111111111,-0.65,0.001090830782496456,0.0021604330922975457,0.0005348011549005449
1589551830.566024,-0.14015658515658516,-4.104921707421707,8.960469755469756,0.4511111111111111,0.3411111111111111,-0.65,0.0016447865691889398,0.003272492347489368,0.001090830782496456
1589551830.576024,-0.15561006690028673,-4.094389933099713,9.012440267601146,0.4511111111111111,0.3411111111111111,-0.65,0.003405588298332357,0.0026605289808196457,0.001090830782496456
1589551830.586024,-0.16,-4.104143029786024,9.06535757446506,0.4511111111111111,0.3411111111111111,-0.6555000671390093,0.0028205579051498965,0.0006388963401569843,-0.0012233170547574352
1589551830.596024,-0.16,-4.11,9.068159910068152,0.4511111111111111,0.3411111111111111,-0.6577777777777778,0.0015358848367335754,-0.001291553456518673,-0.0008901081084742388
1589551830.606024,-0.1669361055518494,-4.103063894448151,9.018383366688903,0.4511111111111111,0.3411111111111111,-0.6577777777777778,0.0018474425271566433,0.0008447854136478371,0.0
1589551830.616024,-0.14700826107735374,-4.115327825948431,9.01532782594843,0.4511111111111111,0.3411111111111111,-0.6577777777777778,0.0005096551276632811,-0.0003263480910015342,0.0008360032186648154
1589551830.626024,-0.1580710795033182,-4.113976306832227,9.026023693167772,0.4511111111111111,0.3411111111111111,-0.6577777777777778,0.0,-0.0004337477893244479,0.0004337477893244479
1589551830.636024,-0.163104262295082,-4.123791475409836,9.016208524590164,0.4557082695810565,0.3411111111111111,-0.6524144262295082,0.0007522082956546054,0.0,-0.0007522082956546054
1589551830.646024,-0.15288187975363304,-4.115763759507266,8.995763759507266,0.4577777777777778,0.3411111111111111,-0.65,0.001090830782496456,0.0,0.0004621021531532124
1589551830.656024,-0.1559049708801575,-4.104095029119843,8.954570174719056,0.4577777777777778,0.3411111111111111,-0.65,0.0017349631830785544,0.001288264801164197,-0.0008415664192498395
1589551830.666024,-0.16652919328480167,-4.119587579854405,8.962645966424008,0.4577777777777778,0.3411111111111111,-0.65,0.002181661564992912,0.0028938860669859923,-0.0014694370629998316
1589551830.676024,-0.15800816310356441,-4.118008163103565,8.991991836896435,0.4577777777777778,0.3411111111111111,-0.65,0.002181661564992912,0.0045805988300202365,0.0008713289412998484
1589551830.686024,-0.14351010779658993,-4.11,9.03893935322046,0.4628254717137634,0.3360634171751255,-0.6456734051977266,0.0014737241459365658,0.006162091331538625,0.0007657867268802199
1589551830.696024,-0.14707641819034223,-4.102923581809658,9.045847163619316,0.4655555555555556,0.3333333333333333,-0.6433333333333333,0.002634665740865093,0.0019134798198728268,0.0007719174791843181
1589551830.706024,-0.15720439044662282,-4.107204390446623,8.98956926687364,0.4655555555555556,0.3333333333333333,-0.6433333333333333,0.0017007381738294537,0.0,-0.00048092339116345803
1589551830.716024,-0.16623125944687284,-4.103768740553127,8.99492503778749,0.4655555555555556,0.3333333333333333,-0.6433333333333333,-0.00026861914117768857,0.0013594499236741445,0.00026861914117768857
1589551830.726024,-0.1651402565163426,-4.109719486967315,9.02943897393463,0.4655555555555556,0.3333333333333333,-0.6433333333333333,-0.001090830782496456,0.002181661564992912,0.001090830782496456
1589551830.736024,-0.16,-4.126242696465089,9.025029214139643,0.4697173531989483,0.3333333333333333,-0.6343161051059825,0.0002711143114837451,0.0042245792059632135,-0.000952086858473846
1589551830.746024,-0.16,-4.13,9.029828363818591,0.4722222222222222,0.3333333333333333,-0.6288888888888889,0.0005500960419999824,0.00545415391248228,-0.0011001920839999648
1589551830.756024,-0.16,-4.123068383974952,9.004944495837188,0.4722222222222222,0.3333333333333333,-0.6288888888888889,0.0,0.005076092905853874,-0.0007561220132568119
1589551830.7660239,-0.1645654867942065,-4.105434513205793,8.951958407559445,0.4722222222222222,0.3333333333333333,-0.6288888888888889,-0.0004980173532201502,0.0028692710703253728,-0.002181661564992912
1589551830.7760239,-0.16619119503760224,-4.096191195037602,9.005235219849592,0.4722222222222222,0.3333333333333333,-0.6288888888888889,-0.00025987844299470934,0.0019217831219982028,-0.0017661853952420387
1589551830.7860239,-0.17195338512763597,-4.105937846836848,9.026015538290787,0.4695659144160809,0.33643235910716485,-0.6288888888888889,-0.0006477186111382952,0.001533942953854617,-0.001090830782496456
1589551830.7960238,-0.09549507903370116,-4.172527214434834,9.218460334029228,0.4655555555555556,0.3411111111111111,-0.6288888888888889,-0.0058497142696752056,-0.0083070521646168,-0.001090830782496456
1589551830.8060238,-0.13709577341411783,-4.118554639024746,9.034218556098985,0.4655555555555556,0.3411111111111111,-0.6288888888888889,-0.0020870629103753634,-0.005849788100586057,-0.001644129394962813
1589551830.8160238,-0.16854536823545369,-4.10612403363624,8.89330598128306,0.4655555555555556,0.3411111111111111,-0.6288888888888889,0.0004949276651493653,0.0010475555886974306,-0.0005237777943487153
1589551830.8260238,-0.11244595914147312,-4.148043232686822,9.092798636772676,0.4655555555555556,0.3411111111111111,-0.6288888888888889,-0.0015562023480172591,0.0006788217674606029,-5.336255048494988e-05
1589551830.8360238,-0.17169561055654314,-4.115847805278272,9.044152194721729,0.4694540924077366,0.3411111111111111,-0.6288888888888889,-0.0012757932015167767,0.001996699145972591,-0.0017287273832548443
1589551830.8460238,-0.18686250575771535,-4.106274988484569,9.046862505757716,0.4722222222222222,0.3411111111111111,-0.6288888888888889,6.408819267960525e-05,-0.00040633572261855556,-0.001433078312435406
1589551830.8560238,-0.17737967914438504,-4.118930481283423,8.97427807486631,0.4722222222222222,0.3411111111111111,-0.6288888888888889,0.00040249905878211477,0.00028583266493222644,-0.001090830782496456
1589551830.8660238,-0.1603704546747852,-4.125185227337393,8.954073863313036,0.4722222222222222,0.3411111111111111,-0.6288888888888889,-0.0005252102231094586,0.0026664614518248316,-0.0016160410056059145
1589551830.8760238,-0.15343653687801434,-4.12,8.98687307375603,0.4722222222222222,0.3411111111111111,-0.6288888888888889,-0.001090830782496456,0.0032387190664691272,-0.00030732145913175035
1589551830.8860238,-0.1634985676921161,-4.123498567692116,9.010495703076348,0.4648363570944216,0.3434434895725218,-0.6362747540166895,-0.0007091962491756757,0.0007091962491756757,0.001745954214206247
1589551830.8960238,-0.17,-4.13,9.014707528957528,0.4511111111111111,0.3477777777777778,-0.65,0.00033362996307126163,0.00033362996307126163,-0.001090830782496456
1589551830.9060237,-0.17,-4.125740411300078,8.973610616950118,0.4511111111111111,0.3477777777777778,-0.65,0.001090830782496456,0.0008585062587640221,-0.001090830782496456
1589551830.9160237,-0.17,-4.113596074305203,8.971576445831216,0.4511111111111111,0.3477777777777778,-0.65,0.0014831016373224345,0.001176812564477936,-0.0018753724921484133
1589551830.9260237,-0.16611578947368422,-4.112231578947369,9.017768421052631,0.4511111111111111,0.3477777777777778,-0.65,0.0015461091038226084,0.003060641527099267,-0.0026369398863190646
1589551830.9360237,-0.15,-4.089739116697886,9.046753627767371,0.4532753592661967,0.34561352962269215,-0.6453107956639811,-0.001090830782496456,0.0014734130124343364,0.0
1589551830.9460237,-0.15410528833014484,-4.11,9.035894711669854,0.4577777777777778,0.3411111111111111,-0.6355555555555555,-0.0006430132943419085,-0.0004478174881545474,0.0004478174881545474
1589551830.9560237,-0.16578715424285045,-4.115787154242851,8.983702766057196,0.4577777777777778,0.3411111111111111,-0.6355555555555555,0.0006312805991156237,0.00017173041573479136,-0.00017173041573479136
1589551830.9660237,-0.16373683797977687,-4.12,8.981315810101115,0.4577777777777778,0.3411111111111111,-0.6355555555555555,-0.00027557920298796105,-0.00027557920298796105,-0.0017740357752386645
1589551830.9760237,-0.16520213046260399,-4.114797869537396,9.015606391387811,0.4577777777777778,0.3411111111111111,-0.6355555555555555,-0.001090830782496456,4.4098026137734565e-05,-0.0016141971606758168
1589551830.9860237,-0.17506761960506453,-4.115067619605065,9.040135239210128,0.4577777777777778,0.3411111111111111,-0.650195345525742,1.4752309340930296e-05,0.0005380392365777628,-0.0005380392365777628
1589551830.9960237,-0.16782849498955668,-4.1078284949895565,9.043914247494778,0.4577777777777778,0.3411111111111111,-0.6644444444444444,0.001090830782496456,0.0013277052334701414,0.0
1589551831.0060236,-0.16599084679044843,-4.105990846790449,8.992073225676412,0.4577777777777778,0.3411111111111111,-0.6644444444444444,0.00043733077327233363,0.0015281615557687896,-0.0006535000092241223
1589551831.0160236,-0.17598103155832676,-4.11,8.983924126233308,0.4577777777777778,0.3411111111111111,-0.6644444444444444,0.000652429333490558,-0.0002140278844846601,0.0008664572179752186
1589551831.0260236,-0.17593053395541733,-4.114069466044583,9.020347330222913,0.4577777777777778,0.3411111111111111,-0.6644444444444444,-0.00024089886643001044,-0.001090830782496456,0.0008499319160664455
1589551831.0360236,-0.16619458611220086,-4.116194586112201,9.0576108277756,0.4554522470685672,0.3387855804019005,-0.6604276186739898,-0.002389214695440453,-0.001090830782496456,-0.0008832776520489153
1589551831.0460236,-0.1550032507216602,-4.1,9.049973994226718,0.4455555555555555,0.3288888888888889,-0.6433333333333333,-0.002180952367542455,-0.001090830782496456,-0.0005457699899734563
1589551831.0560236,-0.14857523436125564,-4.122849531277488,8.958588554625651,0.4455555555555555,0.3288888888888889,-0.6433333333333333,0.00015541782165855904,-0.001090830782496456,-0.001090830782496456
1589551831.0660236,-0.16945779566710076,-4.12232532259974,8.94356623653368,0.4455555555555555,0.3288888888888889,-0.6433333333333333,0.001090830782496456,-0.001090830782496456,0.00019450802943011278
1589551831.0760236,-0.18079815895823978,-4.11,8.992206443646161,0.4455555555555555,0.3288888888888889,-0.6433333333333333,0.0005889482092968911,-8.706563609732617e-05,-0.001418582083501369
1589551831.0860236,-0.17,-4.112593032933064,9.040372131732255,0.4507416214216832,0.3337868399846762,-0.6433333333333333,-0.00028285601434131145,0.0008079747681551445,-0.003797611101303201
1589551831.0960236,-0.16636949516648766,-4.12,9.066369495166487,0.4655555555555556,0.3477777777777778,-0.6433333333333333,-0.0014868574253362006,0.0,-0.0017856349221531675
1589551831.1060236,-0.1575483494939861,-4.123774174746993,9.008484077783077,0.4655555555555556,0.3477777777777778,-0.6433333333333333,-0.0012139993512189666,-0.0004116985992540802,0.0004116985992540802
1589551831.1160235,-0.17,-4.122777597928132,8.956852271501024,0.4655555555555556,0.3477777777777778,-0.6433333333333333,0.0013938197146369413,-0.001090830782496456,0.0008282168323777991
1589551831.1260235,-0.17,-4.1,9.023103155511533,0.4655555555555556,0.3477777777777778,-0.6433333333333333,-0.001090830782496456,-0.001805497051487342,0.000357333134495443
1589551831.1360235,-0.17,-4.1,9.04948115654922,0.4655555555555556,0.3477777777777778,-0.6433333333333333,-0.001090830782496456,-0.0032441938271189586,0.0010766815223112512
1589551831.1460235,-0.17659193377516075,-4.103408066224839,9.009551602650964,0.4455555555555555,0.3477777777777778,-0.6644444444444444,-0.0036442547021734812,-0.002206117846548796,-0.001090830782496456
1589551831.1560235,-0.17,-4.118907592598023,8.956638611102965,0.4455555555555555,0.3477777777777778,-0.6644444444444444,-0.004363323129985824,-0.0048491569401788994,-0.002062498402882607
1589551831.1660235,-0.17,-4.124884160021324,8.960463359914703,0.4455555555555555,0.3477777777777778,-0.6644444444444444,-0.004921374702692367,-0.00545415391248228,-0.0010402860566631946
1589551831.1760235,-0.1661241890999495,-4.12,8.9877516218001,0.4455555555555555,0.3477777777777778,-0.6644444444444444,-0.004608583145100204,-0.005031368528791242,-0.0001775253685766579
1589551831.1860235,-0.16241555308092057,-4.117584446919079,9.007246659242762,0.4533390043718551,0.3461674090571641,-0.6574661799884517,-0.0035359883132315985,-0.006207794890181436,-0.001654669633508451
1589551831.1960235,-0.16069814988604372,-4.1162012334093045,9.039301850113956,0.4777777777777778,0.3411111111111111,-0.6355555555555555,-0.00503977275921727,-0.011999138607461015,0.00033822481461572305
1589551831.2060235,-0.14446670570520329,-4.125533294294796,9.015332942947968,0.4777777777777778,0.3411111111111111,-0.6355555555555555,-0.006544984694978735,-0.011999138607461015,0.001090830782496456
1589551831.2160234,-0.15,-4.12422176177104,8.985330570626244,0.4777777777777778,0.3411111111111111,-0.6355555555555555,-0.005623939155735156,-0.008775479220108488,-0.001211783065612492
1589551831.2260234,-0.15753591079957144,-4.126232044600214,9.027535910799571,0.4777777777777778,0.3411111111111111,-0.6355555555555555,-0.004363323129985824,-0.005185363477417823,-0.0031302626088378243
1589551831.2360234,-0.1661592706391981,-4.118079635319599,9.0419203646804,0.4754306653906211,0.3411111111111111,-0.6398230326231132,-0.004153843839285792,-0.006126026113578671,-0.001090830782496456
1589551831.2460234,-0.15319303244188306,-4.106806967558117,9.05,0.4655555555555556,0.3411111111111111,-0.6577777777777778,-0.003272492347489368,-0.005059934745408996,-0.001090830782496456
1589551831.2560234,-0.15328841618942202,-4.079865248568265,9.013086289041821,0.4655555555555556,0.3411111111111111,-0.6577777777777778,-0.0036385524584835348,-0.007643165027961236,-0.0018229510044847892
1589551831.2660234,-0.14,-4.0396228854649285,8.94131990087275,0.4655555555555556,0.3411111111111111,-0.6577777777777778,-0.004342754722816674,-0.009838045449637255,-0.0033753343833351174
1589551831.2760234,-0.14932815988093973,-4.035546933134899,9.01,0.4655555555555556,0.3411111111111111,-0.6577777777777778,-0.0019157664885323643,-0.008873219036529054,-0.013814368231060411
1589551831.2860234,-0.1582966054876926,-4.084629243140385,9.030480940396538,0.47108215851970076,0.3411111111111111,-0.6616789092818802,0.001090830782496456,-0.0024483596809270706,-0.030195677194908493
1589551831.2960234,-0.13,-4.129552716731832,9.060894566536335,0.4844444444444445,0.3411111111111111,-0.6711111111111111,0.0014381773647481756,0.002876354729496351,-0.0446264800108721
1589551831.3060234,-0.1293935108489232,-4.15,9.015754575942461,0.4844444444444445,0.3411111111111111,-0.6711111111111111,0.0018508730473705472,0.00449563853703477,-0.0488889121017671
1589551831.3160233,-0.13217175224619124,-4.133770997005079,8.95,0.4844444444444445,0.3411111111111111,-0.6711111111111111,-0.0023873375456849822,0.006102407294076542,-0.04138911885582922
1589551831.3260233,-0.14688868944590466,-4.11,8.971779173878668,0.4844444444444445,0.3411111111111111,-0.6711111111111111,-0.001430222115127787,0.00545415391248228,-0.0328702370440986
1589551831.3360233,-0.1379377456708807,-4.099688728354404,9.026186762987358,0.47894509956679304,0.34248594733052395,-0.6653826268635574,-0.0026315756657008947,0.00545415391248228,-0.027686729193845877
1589551831.3460233,-0.13476837725381416,-4.06,9.05317891816921,0.4577777777777778,0.3477777777777778,-0.6433333333333333,-0.004710089309386916,0.0038937061051773636,-0.02474234181801739
1589551831.3560233,-0.16413247663551403,-4.0682649532710276,9.00801285046729,0.4577777777777778,0.3477777777777778,-0.6433333333333333,-0.008348117783765166,-0.006617239490968863,-0.02380901297681879
1589551831.3660233,-0.0760388945752303,-4.107405322415558,9.123582395087,0.4577777777777778,0.3477777777777778,-0.6433333333333333,-0.014751895305767065,-0.014088129798915335,-0.02594323854870793
1589551831.3760233,0.004486851716581447,-4.1657231555880205,9.264424762600438,0.4577777777777778,0.3477777777777778,-0.6433333333333333,-0.020439929832209432,-0.021297494937879125,-0.030986885020313406
1589551831.3860233,-0.169590942293645,-4.207501826150475,8.79789627465303,0.4577777777777778,0.3477777777777778,-0.6433333333333333,-0.019680372167187706,-0.022816610267922584,-0.04086113466559588
1589551831.3960233,-0.16994880861281894,-4.136598411483759,8.946393645935034,0.4722222222222222,0.3288888888888889,-0.6288888888888889,-0.0014953912133481772,0.005027257025256245,-0.047985386201656904
1589551831.4060233,-0.1663801790343883,-4.101809910482806,8.848190089517194,0.4722222222222222,0.3288888888888889,-0.6288888888888889,-0.007625890587510689,-0.006680651537638683,-0.04318653121202039
1589551831.4160233,-0.1644284365636416,-4.075387678036367,8.922102368345442,0.4722222222222222,0.3288888888888889,-0.6288888888888889,0.005748006164894718,0.008811224487124946,-0.04294088978240379
1589551831.4260232,-0.13177551113893513,-4.0516822158769905,9.014860057107082,0.4722222222222222,0.3288888888888889,-0.6288888888888889,0.003629317985415519,0.0029054897752042157,-0.04455073773057112
1589551831.4360232,-0.17660625124062848,-4.05808660732009,8.957220534119191,0.4722222222222222,0.3288888888888889,-0.6288888888888889,0.0008348750536997813,0.0015082683093463464,-0.04804379139521579
1589551831.4460232,-0.16854274120145632,-3.9668846708131067,9.052914517597088,0.4577777777777778,0.3477777777777778,-0.6522222222222223,-0.002521491262460188,-0.0004987919730188022,-0.05579133218287077
1589551831.4560232,-0.16058935072815533,-3.895304156553398,9.06882129854369,0.4577777777777778,0.3477777777777778,-0.6522222222222223,-0.010329714100601867,-0.009174595126509559,-0.056658912498219846
1589551831.4660232,-0.2734310313972679,-3.7162937702571037,8.97561472231612,0.4577777777777778,0.3477777777777778,-0.6522222222222223,-0.019440803514573203,-0.014180800172453925,-0.06550988591512809
1589551831.4760232,-0.4778258609842164,-3.461303443936866,8.932501299340755,0.4577777777777778,0.3477777777777778,-0.6522222222222223,-0.02344106042929031,-0.014832995057510824,-0.0738800409892786
1589551831.4860232,-0.4467033366669697,-3.2295599599963634,9.119834984998636,0.4590812043519108,0.3453571284258165,-0.6533394450000506,-0.03181089772717271,-0.023803471835840417,-0.06287257451186251
1589551831.4960232,-0.47533142221962205,-2.8066571110981102,9.007348622243024,0.4655555555555556,0.3333333333333333,-0.6588888888888889,-0.027440523840855238,-0.012168892885904855,-0.026686074562748817
1589551831.5060232,-0.39243152025044026,-2.798335208374095,9.094863040500881,0.4655555555555556,0.3333333333333333,-0.6588888888888889,-0.03219922350010663,-0.01727646737744705,0.03153612921574571
1589551831.5160232,-0.26018770106695677,-2.981313907468697,9.01353831555072,0.4655555555555556,0.3333333333333333,-0.6588888888888889,-0.035722530605639895,-0.022968871462948726,0.07915101180375429
1589551831.5260231,-0.23463184681490135,-2.764845855408619,9.159430561928998,0.4655555555555556,0.3333333333333333,-0.6588888888888889,-0.024130427421103235,-0.01284901369376963,0.10246291719770703
1589551831.5360231,-0.21469943668492938,-2.604171360958922,8.738943848547985,0.463003432477929,0.3372596765296819,-0.6561404486514448,-0.013725775278564351,-0.007705372529454734,0.21062596443171772
1589551831.5460231,-0.16593556981954705,-2.8148128860360906,9.120587380404505,0.4511111111111111,0.3555555555555556,-0.6433333333333333,0.008726646259971648,-0.02836160034490785,0.5770494839406253
1589551831.5560231,-0.09177217519322782,-2.8530382775119616,8.91784873021715,0.4511111111111111,0.3555555555555556,-0.6433333333333333,0.008340017609421744,-0.03106800089875717,0.6232516076813387
1589551831.566023,-0.0987891056312109,-2.9442583732057415,9.107305852042694,0.4511111111111111,0.3555555555555556,-0.6433333333333333,0.00680916086534409,-0.041783998107300754,0.8061889885986183
1589551831.576023,0.0,-2.9224092441975795,9.051409442570918,0.4511111111111111,0.3555555555555556,-0.6433333333333333,0.010417423153253945,-0.03166882356734081,0.9093562265349313
1589551831.586023,0.0,-3.0234423442060816,9.283191260237482,0.4511111111111111,0.3555555555555556,-0.6433333333333333,0.0032861868535863977,-0.046579590375736585,0.922322110716145
1589551831.596023,0.0,-2.9990454153266923,8.955403168875991,0.4570239931672201,0.33584594870185897,-0.6640284205297147,0.009674930640111911,-0.03216586093408014,0.9311994750965176
1589551831.606023,-0.010740857304714546,-3.0626852143261787,9.183147856738215,0.4577777777777778,0.3333333333333333,-0.6666666666666666,0.005095601741134858,-0.04500179925836012,0.9111870812874341
1589551831.616023,-0.08110939154516576,-3.0814791887268878,9.010739594363443,0.4577777777777778,0.3333333333333333,-0.6666666666666666,0.009615783967916753,-0.032966955164355306,0.8920777177000945
1589551831.626023,-0.14358566476850707,-3.16,9.051195221589502,0.4577777777777778,0.3333333333333333,-0.6666666666666666,-0.0004389385316297017,-0.04555413596450445,0.8780840078216929
1589551831.636023,-0.16954691755384999,-3.16,9.059848972517951,0.4577777777777778,0.3333333333333333,-0.6666666666666666,0.004280950416774281,-0.043666180385142854,0.8620363853971195
1589551831.646023,-0.1456282526415392,-3.0787608421384642,8.930017347421543,0.46409637894478617,0.3179881590705988,-0.6594454081900857,0.009680413578352972,-0.038316140851491085,0.8431465016029152
1589551831.656023,-0.17885195206803248,-3.1377039041360653,8.901867027444917,0.4655555555555556,0.3144444444444445,-0.6577777777777778,0.00526103427646242,-0.036769894366462476,0.7962853882927162
1589551831.666023,-0.22,-3.2124956544515086,9.05,0.4655555555555556,0.3144444444444445,-0.6577777777777778,0.004363323129985824,-0.03933749256152077,0.7579865367420665
1589551831.676023,-0.2260191150170189,-3.198057345051057,9.054514336262764,0.4655555555555556,0.3144444444444445,-0.6577777777777778,0.004527469028584597,-0.034414147344090276,0.7179099495322947
1589551831.686023,-0.25828234072421685,-3.2948470221726502,9.078711755543162,0.4655555555555556,0.3144444444444445,-0.6577777777777778,0.005407312022185659,-0.031774618363287085,0.6835960727818533
1589551831.696023,-0.2659956062571134,-3.163704242873402,9.030278182155051,0.4722222222222222,0.31222222222222223,-0.6433333333333333,0.010534582575536695,-0.020288973271434974,0.6340250300167203
1589551831.706023,-0.33,-3.3039810596198906,9.131573483467847,0.4722222222222222,0.31222222222222223,-0.6433333333333333,0.006413671786086051,-0.025826327564591876,0.5852808757015534
1589551831.716023,-0.33,-3.2698566454048423,9.08379930356678,0.4722222222222222,0.31222222222222223,-0.6433333333333333,0.005669192556877368,-0.017637056043296358,0.557735144220832
1589551831.726023,-0.31112017970797456,-3.2,8.845600898539873,0.4722222222222222,0.31222222222222223,-0.6433333333333333,0.0095730917409908,-0.016056980110600208,0.508187145844307
1589551831.736023,-0.323682665668289,-3.2,8.908413328341444,0.4722222222222222,0.31222222222222223,-0.6433333333333333,0.006832382462952681,-0.01263109351305256,0.4821504077029448
1589551831.746023,-0.35434063582240555,-3.1756593641775943,8.931886454725865,0.4821387775572764,0.28607857633889777,-0.6721814943080362,0.001028901442379629,-0.02329901474125198,0.4416206711588396
1589551831.756023,-0.42,-3.2363650078489736,9.16730015697947,0.4844444444444445,0.28,-0.6788888888888889,-0.004661944478120671,-0.028660221693042706,0.4096571404681748
1589551831.766023,-0.4207625759621877,-3.2215251519243755,8.860208262997974,0.4844444444444445,0.28,-0.6788888888888889,0.008435501793230474,-0.015521183355014246,0.4017679015410006
1589551831.776023,-0.438463031735314,-3.256926063470628,9.32927034098582,0.4844444444444445,0.28,-0.6788888888888889,0.0016776310856903426,-0.021313643961477217,0.3843905197216117
1589551831.786023,-0.44,-3.1553119376807963,8.837835683210715,0.4844444444444445,0.28,-0.6788888888888889,0.005849037488233736,-0.007541995532717279,0.36575206051560183
1589551831.796023,-0.47043316235737465,-3.2008663247147493,9.125197948288497,0.4954341975179409,0.28,-0.6678991358153924,-9.450136664859894e-05,-0.019563061793440365,0.3524574857211754
1589551831.806023,-0.46902360631923007,-3.1870708189576904,9.185590157980753,0.4988888888888889,0.28,-0.6644444444444444,-0.00199439600810674,-0.021735858121324832,0.33054747759610376
1589551831.8160229,-0.46140729980025424,-3.1642218994007627,8.995182495006356,0.4988888888888889,0.28,-0.6644444444444444,0.007975325911686003,-0.012596946361514821,0.32223937599627644
1589551831.8260229,-0.45,-3.16523548865321,9.023176340897859,0.4988888888888889,0.28,-0.6644444444444444,0.0017918658919455126,-0.011471346019366358,0.2899091893860572
1589551831.8360229,-0.45,-3.069573497548181,9.086951001634546,0.4988888888888889,0.28,-0.6644444444444444,-0.0060344624539745775,-0.022776042519028712,0.2629518361945546
1589551831.8460228,-0.46210749911982163,-3.1414049994132145,9.093677502640535,0.5044444444444445,0.28,-0.6933333333333334,0.002028399904060538,-0.015271630954950384,0.22350304706278074
1589551831.8560228,-0.492077308677732,-3.1615579815082993,9.016231926033196,0.5044444444444445,0.28,-0.6933333333333334,0.00045319845008341117,-0.014591833279825267,0.1916041535391016
1589551831.8660228,-0.529455497382199,-3.189591623036649,9.128366492146597,0.5044444444444445,0.28,-0.6933333333333334,0.00860785421664219,-0.002359849629987096,0.16510152229778557
1589551831.8760228,-0.4961247822968958,-3.223875217703104,8.952155107058703,0.5044444444444445,0.28,-0.6933333333333334,0.0068790397482559,0.0005897482025807089,0.13977276024880225
1589551831.8860228,-0.49,-3.1658322474270673,9.167504188495599,0.5044444444444445,0.28,-0.6933333333333334,-0.005454356976479234,-0.017908126863978666,0.10326477257233926
1589551831.8960228,-0.5306149273724309,-3.2006149273724307,9.157508058102055,0.5044444444444445,0.27458467635034256,-0.6933333333333334,0.0005436573860941353,-0.001913348882254029,0.08617914782752821
1589551831.9060228,-0.5573526107267459,-3.237645516724814,8.975587684544577,0.5044444444444445,0.2733333333333333,-0.6933333333333334,0.008951120928713158,0.0036894905970653097,0.07193052094225597
1589551831.9160228,-0.532550410975105,-3.121901917883823,8.934250684958508,0.5044444444444445,0.2733333333333333,-0.6933333333333334,0.0008346200398983879,-0.0026233434275683993,0.0611085197571696
1589551831.9260228,-0.5746821142624507,-3.1865979101642012,9.057663183607003,0.5044444444444445,0.2733333333333333,-0.6933333333333334,-0.0013925893047001506,-0.006057670956889669,0.05581792512320462
1589551831.9360228,-0.590720457204572,-3.239279542795428,9.297031770317703,0.5044444444444445,0.2733333333333333,-0.6933333333333334,0.014014195921000727,0.023743658401637485,0.05851191380669936
1589551831.9460227,-0.5971912155296886,-3.326294586356263,9.439441879534394,0.5188268755038217,0.28372064465399466,-0.7125099080791696,0.012918311175945123,0.006568940621537775,0.0604737421074788
1589551831.9560227,-0.5003406178649643,-2.9920437071897865,8.927397138996318,0.5244444444444445,0.2877777777777778,-0.72,0.005008286169876673,0.011144558767466936,0.06657783337750095
1589551831.9660227,-0.5068552257583524,-3.031131354550114,8.686356646940963,0.5244444444444445,0.2877777777777778,-0.72,-0.0035193156213257594,-0.005200011332337724,0.06728846686010116
1589551831.9760227,-0.5781288161613342,-3.201397369247409,9.168019608527267,0.5244444444444445,0.2877777777777778,-0.72,-0.020021983784779426,-0.03538507234310509,0.06928299762242084
1589551831.9860227,-0.5386550747876632,-3.092255906596848,8.939349084258263,0.5244444444444445,0.2877777777777778,-0.72,0.005636364441054521,0.00907923333498447,0.08510846899898689
1589551831.9960227,-0.583030608223497,-3.1532346630468098,9.01292858081184,0.5044444444444445,0.2877777777777778,-0.7288888888888889,0.008605320771179733,9.906656053324209e-05,0.09654408898300101
1589551832.0060227,-0.5968052940403731,-3.2588405876428603,8.98078764723913,0.5044444444444445,0.2877777777777778,-0.7288888888888889,0.0030958419581489337,-0.004408688831946502,0.09904839753437865
1589551832.0160227,-0.6087717630694331,-3.358362350759244,8.957369421583401,0.5044444444444445,0.2877777777777778,-0.7288888888888889,-0.0024942812504738713,-0.008726646259971648,0.10126862295189556
1589551832.0260227,-0.5807396748351624,-3.3211095122527436,9.12765769635532,0.5044444444444445,0.2877777777777778,-0.7288888888888889,-0.009642657358634241,-0.008592169580099444,0.09704359663822291
1589551832.0360227,-0.6347887717188205,-3.402183157578231,8.956502222890402,0.5044444444444445,0.2877777777777778,-0.7288888888888889,0.003131666681511701,0.001234233527705124,0.09409567570588155
1589551832.0460227,-0.6860787452633285,-3.5635958175444284,9.131994771930534,0.5001778939570992,0.2928976383625921,-0.7433951605458626,0.007714264046789259,0.003019396794193771,0.09464918252389606
1589551832.0560226,-0.5995926270895632,-3.3506110593656553,8.968777881268691,0.4988888888888889,0.29444444444444445,-0.7477777777777778,-0.004252229402320919,0.005320841439284394,0.08372734530583133
1589551832.0660226,-0.5781620741774212,-3.377243111266132,8.91781118474596,0.4988888888888889,0.29444444444444445,-0.7477777777777778,0.001191074085657158,-0.001140952434076807,0.07000181113382332
1589551832.0760226,-0.5415129110571618,-3.3225215184286028,9.079327595085706,0.4988888888888889,0.29444444444444445,-0.7477777777777778,0.0030707853533155404,-0.00210831356711152,0.050975654785807865
1589551832.0860226,-0.6109396380489958,-3.4382327300816597,9.048471271978224,0.4988888888888889,0.29444444444444445,-0.7477777777777778,-0.0061854470937663655,0.001257589140918264,0.03751204395368873
1589551832.0960226,-0.6182725660988206,-3.47,9.169001772912972,0.4897675514101938,0.28597463107137044,-0.757550639362094,-0.007447381670061752,-0.0010164999097818286,0.017824946883516435
1589551832.1060226,-0.5433040221462303,-3.3699560332193457,8.934857107962872,0.4833333333333333,0.28,-0.7644444444444445,0.000730417876180659,0.016734864723198965,-0.009824671090129904
1589551832.1160226,-0.5617063365772768,-3.3817063365772766,8.901706336577277,0.4833333333333333,0.28,-0.7644444444444445,-0.008885937775386868,0.006891285691957936,-0.03799206790581198
1589551832.1260226,-0.5721312245537112,-3.4472126526777327,9.022294080801755,0.4833333333333333,0.28,-0.7644444444444445,-0.0041130777343771005,-0.0019491810302328624,-0.07639368449644926
1589551832.1360226,-0.5933045477038006,-3.5124352323335515,9.108261369259502,0.4833333333333333,0.28,-0.7644444444444445,-0.0042684955334293135,0.002902602036499661,-0.1038757268258875
1589551832.1460226,-0.5896883706974152,-3.461982939688799,9.034900767285354,0.4931130067012445,0.2754863045994256,-0.782499226046742,-0.011714846475025914,0.0080220880607065,-0.1447498641923496
1589551832.1560225,-0.6250340284442893,-3.525079399703342,9.107596413925487,0.4977777777777778,0.2733333333333333,-0.7911111111111111,-0.01090583320666381,0.010364129742866707,-0.18409811014725813
1589551832.1660225,-0.6045379518772521,-3.2763036150180174,8.928362199232826,0.4977777777777778,0.2733333333333333,-0.7911111111111111,-0.016587018440434313,0.01187538516753116,-0.2182210594086043
1589551832.1760225,-0.654122361868627,-3.348244723737254,9.008244723737254,0.4977777777777778,0.2733333333333333,-0.7911111111111111,-0.017453292519943295,0.006095304772689943,-0.23226234421052755
1589551832.1860225,-0.6747329047340737,-3.455763880771479,9.174695499707774,0.4977777777777778,0.2733333333333333,-0.7911111111111111,-0.020667513719846355,0.00866837511238534,-0.23263423215426585
1589551832.1960225,-0.6316231970386759,-3.4597644981491724,8.909503680381228,0.5004653779422958,0.2538482321405778,-0.7951425113578882,-0.005985343901235712,0.030266203051197087,-0.22970841138029624
1589551832.2060225,-0.6512586849996344,-3.55960359833248,9.22112996416295,0.5022222222222222,0.2411111111111111,-0.7977777777777778,-0.018934406648301864,0.011948318801386984,-0.25128136332004697
1589551832.2160225,-0.6969125297807166,-3.6076843973355373,8.996243496863908,0.5022222222222222,0.2411111111111111,-0.7977777777777778,-0.022907446432425576,0.01963121491198118,-0.2673340002275576
1589551832.2260225,-0.7090189601023612,-3.6821516808188903,8.861772478771664,0.5022222222222222,0.2411111111111111,-0.7977777777777778,-0.015036918987815109,0.024661048589737892,-0.26932818842470446
1589551832.2360225,-0.5969395828338528,-3.4261923599456563,8.970597778310557,0.5022222222222222,0.2411111111111111,-0.7977777777777778,-0.01500299872796542,0.02426690944190699,-0.2727239974986706
1589551832.2460225,-0.56,-3.357292074149759,9.01,0.5214356379441769,0.21229098752817915,-0.7795250328419209,-0.023759858004046217,0.02682768623128731,-0.27945734443934106
1589551832.2560225,-0.6258185255198487,-3.5104423440453685,9.160442344045368,0.5244444444444445,0.20777777777777776,-0.7766666666666666,-0.02611477762164105,0.021116751817076004,-0.2803435111015892
1589551832.2660224,-0.5662342893973574,-3.398265461576773,8.909140274807372,0.5244444444444445,0.20777777777777776,-0.7766666666666666,-0.02807696423427285,0.028946228502983583,-0.2809758529197085
1589551832.2760224,-0.5669392092957347,-3.3710209720844553,8.898368995323793,0.5244444444444445,0.20777777777777776,-0.7766666666666666,-0.033548649879870815,0.021081846750312154,-0.28399447860437715
1589551832.2860224,-0.6517400662530057,-3.5397544939380183,9.131740066253005,0.5244444444444445,0.20777777777777776,-0.7766666666666666,-0.03372754350501452,0.006937998539936093,-0.28540465116911407
1589551832.2960224,-0.6772042476276547,-3.625877993673746,9.04630772706733,0.5272879449716323,0.2106212783049656,-0.7795101671938545,-0.029292133716438268,0.01663617991798018,-0.2784980699056613
1589551832.3060224,-0.6314731524643561,-3.5971161085213863,8.982696651128318,0.5311111111111111,0.21444444444444444,-0.7833333333333333,-0.03116562117829004,0.017313021268183057,-0.2672603499628926
1589551832.3160224,-0.6656691813355685,-3.672627829002515,8.983454875663593,0.5311111111111111,0.21444444444444444,-0.7833333333333333,-0.028597809860536453,0.010576547750433296,-0.2579084837004208
1589551832.3260224,-0.6549099035686633,-3.676606602379109,8.979241747026114,0.5311111111111111,0.21444444444444444,-0.7833333333333333,-0.0272707695624114,0.01090830782496456,-0.2450471078113517
1589551832.3360224,-0.6354391321101461,-3.6763173963304383,9.059830453211607,0.5311111111111111,0.21444444444444444,-0.7833333333333333,-0.02667745228883017,0.007941721457058407,-0.2283080342069277
1589551832.3460224,-0.6231336932359479,-3.6225347729437916,9.036912670689107,0.5273630429413217,0.16634423626548112,-0.7727138068522635,-0.02495338633956453,0.008520535013358314,-0.2105353985414808
1589551832.3560224,-0.6176646361244278,-3.531676819377861,8.995329272248856,0.5244444444444445,0.1288888888888889,-0.7644444444444445,-0.023162195112806015,0.009236143620732527,-0.18951721191048454
1589551832.3660223,-0.679004111900744,-3.6464373826444514,9.016858317685926,0.5244444444444445,0.1288888888888889,-0.7644444444444445,-0.01922953205784289,-0.0004681396764850618,-0.1661321825578384
1589551832.3760223,-0.6646321734552243,-3.7038237687263678,9.02,0.5244444444444445,0.1288888888888889,-0.7644444444444445,-0.014854522491763467,0.00335273965102151,-0.13301698010656168
1589551832.3860223,-0.6117335638793907,-3.5720958967982592,8.992419179359652,0.5244444444444445,0.1288888888888889,-0.7644444444444445,-0.014932950376479062,0.005867623538036092,-0.10506269543133132
1589551832.3960223,-0.6157015575501584,-3.4928656282998944,8.92002969904963,0.5025505250498651,0.13555225566115217,-0.7035222339551801,-0.016206165959410948,0.0009377746682153404,-0.06499715793445356
1589551832.4060223,-0.662217955627414,-3.6082102757567593,9.129533369262553,0.4988888888888889,0.13666666666666666,-0.6933333333333334,-0.010836144268752521,-0.012894740760286747,-0.029600946959486316
1589551832.4160223,-0.6869180961584923,-3.672295240396231,9.03465523073206,0.4988888888888889,0.13666666666666666,-0.6933333333333334,-0.008894738038922177,-0.01065793593722075,0.011065804919823195
1589551832.4260223,-0.697302125038497,-3.672697874961503,8.95888512473052,0.4988888888888889,0.13666666666666666,-0.6933333333333334,-0.011912799367823938,-0.009817477042468105,0.050907900152392355
1589551832.4360223,-0.704470779976717,-3.7236493597206053,8.998120139697322,0.4988888888888889,0.13666666666666666,-0.6933333333333334,-0.011139223621808745,-0.011280536368579648,0.08375101595035607
1589551832.4460223,-0.7122529137113732,-3.794505827422747,9.072252913711374,0.4953843564489749,0.14592864525786792,-0.6895784771477113,-0.008726646259971648,-0.01284421462729004,0.12014204256967997
1589551832.4560223,-0.6963009441154049,-3.79420062941027,9.03260188823081,0.4833333333333333,0.17777777777777778,-0.6766666666666666,-0.006572341287053306,-0.011568277612877346,0.17540490324533284
1589551832.4660223,-0.6905123934166171,-3.800512393416617,8.968717826690463,0.4833333333333333,0.17777777777777778,-0.6766666666666666,-0.003272492347489368,-0.01613862836569841,0.2160682053274821
1589551832.4760222,-0.7690835066445768,-3.883968944975149,9.019083506644577,0.4833333333333333,0.17777777777777778,-0.6766666666666666,-0.0016737363923965238,-0.021308690477332734,0.255312445652945
1589551832.4860222,-0.7689649150658835,-3.8807578980790605,8.945101762184473,0.4833333333333333,0.17777777777777778,-0.6766666666666666,0.004476233380849086,-0.013815850689832397,0.29855693898217545
1589551832.4960222,-0.719204111369275,-3.8698267239002875,8.895051392115937,0.47975395668972637,0.20129939572148056,-0.6577471044076014,0.007896269422825328,-0.012482243517473818,0.3480051331271216
1589551832.5060222,-0.73,-3.891049905243209,9.097306380290588,0.4755555555555556,0.2288888888888889,-0.6355555555555555,-0.00765083765755,-0.03941447942582173,0.38581051631634633
1589551832.5160222,-0.7156170343675837,-3.8456170343675837,8.94582996396238,0.4755555555555556,0.2288888888888889,-0.6355555555555555,-0.004289063796150586,-0.037933072370219395,0.42185905377767025
1589551832.5260222,-0.7706625409537677,-3.8854969057153257,8.968576629049872,0.4755555555555556,0.2288888888888889,-0.6355555555555555,0.006617256701682178,-0.02693482386092177,0.45347507414906363
1589551832.5360222,-0.8027472570379915,-3.8617582288860253,9.057362656670962,0.4755555555555556,0.2288888888888889,-0.6355555555555555,0.006640881204556291,-0.028565383089777414,0.4735404355644684
1589551832.5460222,-0.8685976240478952,-3.8546494060119736,9.09,0.4861356821197589,0.2533045655755119,-0.6412525467824343,0.00785115736595473,-0.02814625845642832,0.5114184188249213
1589551832.5560222,-0.8703270193345765,-3.8731153204436155,9.030981058003729,0.49,0.26222222222222225,-0.6433333333333333,0.010872635549301804,-0.029416758851741557,0.5611357520237451
1589551832.5660222,-0.86,-3.9377960794632285,8.980734640178925,0.49,0.26222222222222225,-0.6433333333333333,0.010598122105547662,-0.03404580316468414,0.6220422856260982
1589551832.5760221,-0.8540069774817634,-3.8920907072629243,8.981986045036473,0.49,0.26222222222222225,-0.6433333333333333,0.007856265009542032,-0.04122731457685257,0.6701767488834444
1589551832.5860221,-0.8970087916581476,-3.908705157038831,9.015312426277465,0.49,0.26222222222222225,-0.6433333333333333,0.01246175050136374,-0.04235735575980069,0.7006347288005733
1589551832.5960221,-0.9821630269578434,-4.032703783697304,9.06,0.49,0.26222222222222225,-0.6433333333333333,0.022848459022700947,-0.038238064797100596,0.7267891107860812
1589551832.6060221,-1.0093713322874907,-4.023313772199949,9.063542889237503,0.49,0.26222222222222225,-0.6433333333333333,0.02065720785815597,-0.041202254489494335,0.7875176493190951
1589551832.616022,-1.0003141110178635,-3.92,9.014991407904727,0.49,0.26222222222222225,-0.6433333333333333,0.019294186621931178,-0.04397399876286326,0.8379655006421242
1589551832.626022,-1.0245903850650169,-3.8832769194798655,8.974265390910237,0.49,0.26222222222222225,-0.6433333333333333,0.019724318200946195,-0.044044600517091484,0.8947862567758771
1589551832.636022,-1.0266151256668474,-3.819690754001084,9.05,0.49,0.26222222222222225,-0.6433333333333333,0.02002105334943378,-0.04581489286485115,0.9358165801614468
1589551832.646022,-1.060463068293257,-3.831498450555054,9.20081689091123,0.49,0.25976991505293395,-0.6457856405026217,0.028123798121798608,-0.04180231464225651,0.9868272795428107
1589551832.656022,-1.141365267592448,-3.916211577469184,9.134195662349821,0.49,0.25555555555555554,-0.65,0.04741956638917266,-0.018376473385017533,1.0426556851596314
1589551832.666022,-1.0038477175049367,-3.61784411662214,8.589925659193867,0.49,0.25555555555555554,-0.65,0.04622650441055212,-0.017098446242050237,1.099153926534699
1589551832.676022,-0.8809520194351655,-3.4414272699665958,9.137136349832979,0.49,0.25555555555555554,-0.65,0.00810355099672359,-0.07698108440927502,1.1235036985517166
1589551832.686022,-0.935222437747394,-3.4546504549683807,9.203252274841905,0.49,0.25555555555555554,-0.65,-0.002716678015867717,-0.09103930826350257,1.1295726068423693
1589551832.696022,-1.0834575254325711,-3.545225632553691,9.047995826449874,0.504623414389087,0.24647895352094984,-0.6565553236916597,0.007820102427339605,-0.07706324442235461,1.141193285441157
1589551832.706022,-1.2473194318525234,-3.685850710184346,9.101211846479298,0.5222222222222223,0.23555555555555555,-0.6644444444444444,0.013328969788056574,-0.07021238315852907,1.163837657206276
1589551832.716022,-1.2886201056596143,-3.6771550264149035,9.009914815095675,0.5222222222222223,0.23555555555555555,-0.6644444444444444,0.014030277050145389,-0.06466006241190798,1.1857609372684002
1589551832.726022,-1.3223104325699746,-3.717184054283291,9.03462086513995,0.5222222222222223,0.23555555555555555,-0.6644444444444444,0.01851655183736902,-0.06136612438169333,1.207691419460115
1589551832.736022,-1.317533386327504,-3.6365003974562797,9.000133545310016,0.5222222222222223,0.23555555555555555,-0.6644444444444444,0.023714643869171166,-0.05360709254870411,1.2286426409756264
1589551832.746022,-1.31,-3.585284949079289,8.996424745396446,0.5504086173117646,0.21911349175332256,-0.6644444444444444,0.02617993877991494,-0.052546376296109476,1.2461639173289385
1589551832.756022,-1.281539544271525,-3.5672316354172198,9.08830509374834,0.5755555555555556,0.20444444444444448,-0.6644444444444444,0.01624536559831552,-0.06929240803201846,1.253364569088428
1589551832.766022,-1.3340962962962963,-3.544707407407407,9.087074074074074,0.5755555555555556,0.20444444444444448,-0.6644444444444444,0.009303978551892921,-0.07616665337071366,1.2481685784611365
1589551832.776022,-1.403187967158838,-3.5368120328411616,9.046375934317677,0.5755555555555556,0.20444444444444448,-0.6644444444444444,0.010860736855602644,-0.07169464934308317,1.2376352864381974
1589551832.786022,-1.4214344456745216,-3.548104538984659,9.063811481891507,0.5755555555555556,0.20444444444444448,-0.6644444444444444,0.013453766545198559,-0.06809868703114914,1.224275374433038
1589551832.796022,-1.4215528546297778,-3.544484567407644,9.042909963217657,0.5787284325745865,0.18096515450361605,-0.6606369920216074,0.021348777813290865,-0.05314039812388644,1.214092288409577
1589551832.806022,-1.1864456422478116,-3.231867385348687,9.179729380582222,0.5811111111111111,0.16333333333333333,-0.6577777777777778,0.01765699266205636,-0.06166810424701533,1.2055815548004052
1589551832.816022,-1.3569879868041579,-3.3002255327095047,9.183237545905348,0.5811111111111111,0.16333333333333333,-0.6577777777777778,0.004850606295891352,-0.0711051834011333,1.1316653154941132
1589551832.826022,-1.5100139643134212,-3.3440167571761052,8.918075407292475,0.5811111111111111,0.16333333333333333,-0.6577777777777778,0.013954103702310289,-0.04604615914587569,1.018642766328006
1589551832.836022,-1.512668045501551,-3.257662874870734,9.031013443640123,0.5811111111111111,0.16333333333333333,-0.6577777777777778,0.024325413644005766,-0.032216169924835864,0.963056933579609
1589551832.846022,-1.5504576433698722,-3.21,9.194885589157531,0.597590879381286,0.12298631446497418,-0.6685748673340992,0.007286367444791756,-0.04827112074123819,0.9222687487954503
1589551832.856022,-1.5852553571035304,-3.1693190477239193,9.15948928579294,0.6133333333333333,0.08444444444444445,-0.6788888888888889,0.0006846910857782173,-0.05167518647405167,0.8844409234933778
1589551832.8660219,-1.6104616204690831,-3.13,9.02538379530917,0.6133333333333333,0.08444444444444445,-0.6788888888888889,0.01386198219908356,-0.036786116714375684,0.8584501589258268
1589551832.8760219,-1.631745830179003,-3.059525018925981,9.059204131969034,0.6133333333333333,0.08444444444444445,-0.6788888888888889,0.002528231895899135,-0.04271533937887163,0.8304687958107092
1589551832.8860219,-1.6104954150057926,-2.9706605533410566,9.164752292497104,0.6133333333333333,0.08444444444444445,-0.6788888888888889,-0.003362561337227574,-0.05019622979278462,0.8186775091625641
1589551832.8960218,-1.5733622667245335,-2.926681133362267,9.093709467418934,0.6550035477848734,0.023967319045749197,-0.6693010519354372,0.010146369726160846,-0.04220877361860457,0.8257257628443659
1589551832.9060218,-1.6522416856168278,-2.9883271745309834,9.015658044343377,0.7388888888888889,-0.09777777777777777,-0.65,0.017608599475083406,-0.0339516042393632,0.8440118687151437
1589551832.9160218,-1.7198449812989578,-2.9823062266236975,9.161445743454635,0.7388888888888889,-0.09777777777777777,-0.65,0.002292435634952151,-0.045925666934810386,0.8647772402204355
1589551832.9260218,-1.6907525595000665,-2.890250853166689,8.927491468333113,0.7388888888888889,-0.09777777777777777,-0.65,0.014869875700660371,-0.031994802193270604,0.8974614340827377
1589551832.9360218,-1.6905566832217664,-2.8675404880155475,8.878608291945584,0.7388888888888889,-0.09777777777777777,-0.65,0.011358773121541155,-0.02903232819054781,0.9285045623232999
1589551832.9460218,-1.7037466533337635,-2.9037466533337635,9.178680687719751,0.9318644559852908,-0.3126823865896799,-0.5112988111494612,-0.010879524896024135,-0.06194709117077459,0.9554094593577231
1589551832.9560218,-1.8,-2.9321983649689907,9.101250234918249,1.13,-0.5333333333333333,-0.3688888888888889,0.006408605221561002,-0.058114978585393315,0.9796694676263334
1589551832.9660218,-1.67501347251395,-2.7595792756667303,8.968263212611122,1.13,-0.5333333333333333,-0.3688888888888889,0.01676578654271206,-0.03938905180317162,0.9877946370792019
1589551832.9760218,-1.6017466239191684,-2.6698416399494804,9.080954823666568,1.13,-0.5333333333333333,-0.3688888888888889,0.007046959734750689,-0.04399701112537047,0.9748734885298843
1589551832.9860218,-1.653804089893914,-2.7038040898939144,9.2666856853713,1.13,-0.5333333333333333,-0.3688888888888889,-0.004416749323566008,-0.05511677954112986,0.9486674689864677
1589551832.9960217,-1.6684408151870462,-2.7184408151870465,9.215457146845338,1.13,-0.5333333333333333,-0.3688888888888889,-0.000425201697392707,-0.044738755713079274,0.9263148022798974
1589551833.0060217,-1.8022415700891037,-2.669793256071283,9.21951759749966,1.318888888888889,-0.15444444444444444,-0.6,0.0019446616209457717,-0.05095687261944002,0.8646640144121037
1589551833.0160217,-1.6844520659807283,-2.5772260329903642,9.039126653601176,1.318888888888889,-0.15444444444444444,-0.6,0.01699940322938224,-0.03366445782720311,0.8211882536730193
1589551833.0260217,-1.6116588505747127,-2.502488275862069,9.100183908045977,1.318888888888889,-0.15444444444444444,-0.6,0.007384447942676467,-0.04213525733150862,0.7886002407371847
1589551833.0360217,-1.555079567647002,-2.4362698919117505,9.04460216176499,1.318888888888889,-0.15444444444444444,-0.6,0.0016275666898806296,-0.046256502472777516,0.7669061169981929
1589551833.0460217,-1.5375727073801473,-2.4281068231549634,9.158640938929778,1.2212851048781028,-0.12289149702716443,-0.6216663572265323,0.0031242417824204243,-0.037856037843731136,0.7407854411349661
1589551833.0560217,-1.5662348391632976,-2.4170715415714534,9.112091756020389,0.8033333333333333,0.012222222222222223,-0.7144444444444444,-0.0019991214164717963,-0.04554108264206948,0.696895144686584
1589551833.0660217,-1.4619771769806535,-2.340988588490327,9.126958157797866,0.8033333333333333,0.012222222222222223,-0.7144444444444444,0.002509325733942725,-0.03795925149407317,0.6350708932802138
1589551833.0760217,-1.4356887806857375,-2.351377561371475,9.034311219314263,0.8033333333333333,0.012222222222222223,-0.7144444444444444,0.0044134126749452544,-0.03262474438497482,0.6026784377259864
1589551833.0860217,-1.461202895027211,-2.44,8.967443474032653,0.8033333333333333,0.012222222222222223,-0.7144444444444444,0.007225726262952483,-0.027000117208960357,0.5454972785284535
1589551833.0960217,-1.4442553120739534,-2.4799148738070693,9.032638246932464,0.7535981334308738,0.027427888434439163,-0.7185626457102532,0.003434958050106387,-0.02711758968695891,0.4941788448659704
1589551833.1060216,-1.4354358639002833,-2.5556922894001546,9.23328200860036,0.6288888888888889,0.06555555555555556,-0.7288888888888889,-0.0034794698308415976,-0.02885947036021527,0.43033552140833603
1589551833.1160216,-1.3529437848662567,-2.4927100557860107,9.078363896438278,0.6288888888888889,0.06555555555555556,-0.7288888888888889,0.0015394273351609258,-0.027066802462013827,0.36665145939764726
1589551833.1260216,-1.3326843882045207,-2.5118781998256163,9.079528270249726,0.6288888888888889,0.06555555555555556,-0.7288888888888889,0.002269603075012859,-0.01627452022742689,0.2766762330735111
1589551833.1360216,-1.319856919521479,-2.6154805600870037,9.215194399129961,0.6288888888888889,0.06555555555555556,-0.7288888888888889,-0.006246066512567475,-0.02299668072053966,0.19801818867155366
1589551833.1460216,-1.241456124252311,-2.6297352501359432,9.072647498640565,0.6288888888888889,0.06555555555555556,-0.7288888888888889,-0.005468593777551011,-0.01755437157542442,0.13426542440020364
1589551833.1560216,-1.0409734197961946,-2.6021237440319247,9.087610453930022,0.5988888888888889,0.08444444444444445,-0.7422222222222222,0.007510334568856585,0.004643279451738905,-0.018196480747959612
1589551833.1660216,-1.0709279852749445,-2.7409279852749444,9.231184139888029,0.5988888888888889,0.08444444444444445,-0.7422222222222222,-0.004565778110708381,-0.0028169686408636143,-0.13846381354296758
1589551833.1760216,-1.0932319427619626,-2.7276805723803754,9.0241444579043,0.5988888888888889,0.08444444444444445,-0.7422222222222222,-0.005553693873157919,0.01218578893820314,-0.37627447200823155
1589551833.1860216,-1.1087891790514621,-2.677578358102924,9.008672387826433,0.5988888888888889,0.08444444444444445,-0.7422222222222222,0.0020495814887172333,0.02534052820363112,-0.5322704324061904
1589551833.1960216,-1.2065884239685085,-2.8677874742257305,9.122632828608918,0.5926012862257213,0.08324680584193633,-0.7482104152347628,0.00625103995784631,0.040746379543502416,-0.7581166702366503
1589551833.2060215,-1.3106689738483137,-3.157757680629469,8.984846387410624,0.5755555555555556,0.08,-0.7644444444444445,0.00545415391248228,0.06544984694978735,-0.9828385350293068
1589551833.2160215,-1.14,-3.184980520417488,9.000077918330048,0.5755555555555556,0.08,-0.7644444444444445,0.00545415391248228,0.0664037926612659,-1.0510456534000232
1589551833.2260215,-1.1768875450078577,-3.2410662635023573,8.96755018003143,0.5755555555555556,0.08,-0.7644444444444445,-0.000581556525311922,0.0636077015562508,-1.254310596636096
1589551833.2360215,-1.2356267522739433,-3.2534401284109147,9.178454146602462,0.5755555555555556,0.08,-0.7644444444444445,-0.00733045289566559,0.062447768576694054,-1.475986661360063
1589551833.2460215,-1.1872762850906902,-3.2054572138180175,9.023864303454504,0.5780552837777946,0.07659127969694689,-0.7610357241413913,0.0007690492477636446,0.08044903702630661,-1.5846028029700006
1589551833.2560215,-1.1701578581593144,-3.140981897607307,9.013769732269914,0.5877777777777777,0.06333333333333334,-0.7477777777777778,-0.023085960454977284,0.06376928814455991,-1.7056640859816021
1589551833.2660215,-1.3958277985750511,-3.2325866441251057,9.103311194300204,0.5877777777777777,0.06333333333333334,-0.7477777777777778,-0.02965173398622778,0.05566253537636787,-1.7709525127297052
1589551833.2760215,-5.084663738872404,-6.757465400593471,10.72002872403561,0.5877777777777777,0.06333333333333334,-0.7477777777777778,0.037551483919255266,0.15784511751655503,-1.7234404408257866
1589551833.2860215,-16.59538606883873,-14.101122289177136,10.456169951996731,0.5877777777777777,0.06333333333333334,-0.7477777777777778,0.09407591981767716,0.6109094500267888,-1.1226244351404073
1589551833.2960215,-28.43724514799113,-19.364671930302205,6.7545256893936445,0.5844201141750828,0.07004866053872316,-0.746413726939183,0.024205319112109352,1.2430151471060142,-0.23948260474636351
1589551833.3060215,2.5525184062877297,0.3633938590468976,3.7110511114793683,0.5522222222222222,0.13444444444444445,-0.7333333333333333,-0.8576926565180338,-0.64066293595173,-1.2627676228833993
1589551833.3160214,2.6507622810808584,-0.0792566524665062,12.016659052087835,0.5522222222222222,0.13444444444444445,-0.7333333333333333,0.12046302205471898,-0.666961566447041,-0.17010488092466852
1589551833.3260214,2.9787131642966416,1.2078456599704062,13.377601635191734,0.5522222222222222,0.13444444444444445,-0.7333333333333333,1.111451979144254,-0.012649730407389537,-0.2680912323433886
1589551833.3360214,-0.36311830160454106,2.9056204020574192,4.778701407815734,0.5522222222222222,0.13444444444444445,-0.7333333333333333,0.5659192947995055,0.5173944589728552,-0.3192493693908547
1589551833.3460214,0.3385695130732749,1.6686330792342263,5.524116653837559,0.5522222222222222,0.14113434145291717,-0.7312307942735276,-0.5812127505523601,-0.49443735546901096,-0.11121912714516453
1589551833.3560214,1.287036055882435,-0.1560723348484426,8.643409553554001,0.5522222222222222,0.17333333333333334,-0.7211111111111111,0.016213959579666877,0.012476219279853706,-0.05767340765514362
1589551833.3660214,-0.8036720517250592,-1.4122538873946886,7.650851575441283,0.5522222222222222,0.17333333333333334,-0.7211111111111111,0.11474475872087689,0.08766978029529848,-0.06924720798541878
1589551833.3760214,-1.0327511142215182,-2.0385855832627353,10.260551769862609,0.5522222222222222,0.17333333333333334,-0.7211111111111111,-0.1497655337321058,-0.11218432595479086,-0.015927358914372174
1589551833.3860214,-0.7710862737853316,-2.0087388945803872,9.169739180088339,0.5522222222222222,0.17333333333333334,-0.7211111111111111,0.03544715477770838,0.025539634685747138,-0.07418587307574892
1589551833.3960214,-1.1585146868649547,-2.1425778009169845,9.141562568228004,0.5522222222222222,0.17333333333333334,-0.7211111111111111,0.0938453943487564,0.04474958191306557,-0.13412090842498242
1589551833.4060214,-1.2695335990490177,-2.291287322564856,9.241259352492833,0.5466666666666666,0.17888888888888888,-0.7,-0.037751699940041676,0.008206669094439283,-0.1279558771581113
1589551833.4160213,-1.1232600628033116,-2.229905795032829,9.039874393377104,0.5466666666666666,0.17888888888888888,-0.7,-0.01497081949737357,0.01672835559112464,-0.11633587292710061
1589551833.4260213,-1.192780045032367,-2.303017168589924,8.999591190543203,0.5466666666666666,0.17888888888888888,-0.7,0.02047426133279708,0.01314170172512512,-0.13084796156440706
1589551833.4360213,-1.2482516431924882,-2.363006572769953,8.950789984350548,0.5466666666666666,0.17888888888888888,-0.7,0.008808040331504403,0.0024258437795911802,-0.13106248204264023
1589551833.4460213,-1.2331353565444052,-2.4030813628746976,9.47162167194191,0.5466666666666666,0.18019218436459172,-0.7048408117668963,0.003272492347489368,-0.011987359016065595,-0.11706679786609238
1589551833.4560213,-1.16156449044586,-2.275891719745223,9.39218152866242,0.5466666666666666,0.18666666666666668,-0.7288888888888889,-2.779186706997278e-05,0.00014677579796329703,-0.1054258422424063
1589551833.4660213,-6.7065418373317724,-10.594995056596922,9.164484372793124,0.5466666666666666,0.18666666666666668,-0.7288888888888889,-0.013840483682492863,-0.007818189195999144,-0.12495637079879955
1589551833.4760213,-14.548825643312435,-23.27759043097343,8.398619730871127,0.5466666666666666,0.18666666666666668,-0.7288888888888889,-0.032616592930536425,-0.052350435119355,-0.23812584469619527
1589551833.4860213,-1.354013413873901,-4.011274532986522,6.669465809669168,0.5466666666666666,0.18666666666666668,-0.7288888888888889,-0.039888051084754295,-0.04124596763032892,-0.6187874146358691
1589551833.4960213,-0.5194565979399974,-0.402197695529471,8.616487390124211,0.546949802168655,0.18567569240970763,-0.7288888888888889,0.14639062437226594,0.15728618678534462,-0.595156223923794
1589551833.5060213,-1.522210278441876,-1.4803463896029192,8.299828333123617,0.5486252469146898,0.1798116357985855,-0.7288888888888889,0.044409054325513966,0.09395892151437768,-0.37309957946715655
1589551833.5160213,-1.3167738687629487,-2.3785654539469863,9.738125738184213,0.5488888888888889,0.17888888888888888,-0.7288888888888889,-0.10036673898566324,-0.07077714877638519,-0.09729483176298978
1589551833.5260212,-2.4293633705733155,-4.4088382674695525,9.730004646930123,0.5488888888888889,0.17888888888888888,-0.7288888888888889,0.013025086005369196,0.03375593988722282,-0.027310814776336956
1589551833.5360212,-1.3400280485719172,-2.927468445356593,9.080406704292798,0.5488888888888889,0.17888888888888888,-0.7288888888888889,-0.005167295453243945,-0.023723657253944642,-0.09518607691186476
1589551833.5460212,-1.3974154267145544,-2.862907644946126,9.91252368736104,0.5488888888888889,0.17888888888888888,-0.7288888888888889,0.023785166901454317,-0.019811162341147583,-0.1178785474060877
1589551833.5560212,-2.016874526156179,-3.720279567854435,8.95088893100834,0.5488888888888889,0.2,-0.7066666666666667,0.004406327831039513,0.015022183013501944,-0.009525024399965974
1589551833.5660212,-1.76,-3.7,9.37,0.5488888888888889,0.2,-0.7066666666666667,-0.025089107997418484,-0.01963495408493621,-0.004363323129985824
1589551833.5760212,-1.9086296198421986,-3.5315530975121745,8.79529880327683,0.5488888888888889,0.2,-0.7066666666666667,-0.0023909409653722,0.013871863914751165,0.0021218674505988303
1589551833.5860212,-1.91,-3.594272629191712,8.90936345421318,0.5488888888888889,0.2,-0.7066666666666667,-0.0011800821022171955,0.0001586876935938987,0.00017850263944147902
1589551833.5960212,-1.8154838862671632,-3.5734193364794042,9.116580663520596,0.5481577040532671,0.19926881516437828,-0.7082509004771804,0.008592934189144164,-0.005946785500185628,0.00011963983895862147
1589551833.6060212,-1.8577817558368213,-3.5211091220815893,9.17221824416318,0.5422222222222223,0.19333333333333333,-0.7211111111111111,0.014668651426044822,-0.0008488578808675966,0.0007278714300531668
1589551833.6160212,-1.8470097380792478,-3.537009738079248,9.164764942914708,0.5422222222222223,0.19333333333333333,-0.7211111111111111,-0.0015089581626911185,0.001549617066941322,-0.0020287328035112897
1589551833.6260211,-1.8882753029275627,-3.5808623485362188,9.010862348536218,0.5422222222222223,0.19333333333333333,-0.7211111111111111,-0.017327869009470222,0.0041751878642762134,-0.001090830782496456
1589551833.6360211,-1.8415278896127663,-3.6083531586267474,9.035059475880242,0.5422222222222223,0.19333333333333333,-0.7211111111111111,-0.010574974020592152,-0.002181661564992912,-0.0009111882561132189
1589551833.6460211,-1.8952576678134836,-3.6006774760266453,9.012032428079936,0.5422222222222223,0.19333333333333333,-0.7211111111111111,0.0011470451790177583,-0.002181661564992912,-7.390117042679672e-05
1589551833.656021,-1.8082663247188795,-3.5411809035312687,9.238190964687314,0.5555555555555556,0.20555555555555555,-0.7211111111111111,0.00782493011382514,-0.005772085141138871,-0.00025763318461328804
1589551833.666021,-1.8661872164134938,-3.5494553166304987,9.15544683369501,0.5555555555555556,0.20555555555555555,-0.7211111111111111,0.0015067409528122773,-0.0003564944316992759,-0.00206283008775982
1589551833.676021,-1.8473810806650248,-3.56507927955665,9.059524322660097,0.5555555555555556,0.20555555555555555,-0.7211111111111111,-0.005488746144808984,0.00082244711591318,0.0002856797827466284
1589551833.686021,-1.9067605268926486,-3.62,8.92769374862996,0.5555555555555556,0.20555555555555555,-0.7211111111111111,-0.009287419494782853,0.004054122893836094,-0.0021374901026858075
1589551833.696021,-1.8398937845001098,-3.62,9.086502261812239,0.5555555555555556,0.20555555555555555,-0.7211111111111111,0.0016536256442734876,-0.0023281534372801057,-0.0012257363410977792
1589551833.706021,-1.855632648005945,-3.555632648005945,9.192721080009909,0.5488888888888889,0.19333333333333333,-0.7144444444444444,0.01400121975678706,-0.0020228601652224963,-0.001090830782496456
1589551833.716021,-1.8370244914315348,-3.5387806142894185,9.125414279989629,0.5488888888888889,0.19333333333333333,-0.7144444444444444,0.004246225249508515,-0.00013301434688386417,-0.001090830782496456
1589551833.726021,-1.8684239683436972,-3.58,9.013152063312607,0.5488888888888889,0.19333333333333333,-0.7144444444444444,-0.00706073984844399,0.00470715989896266,-0.0009189123980080377
1589551833.736021,-1.86,-3.5827972473049843,9.032797247304984,0.5488888888888889,0.19333333333333333,-0.7144444444444444,-0.009207212349161683,0.00603643078389005,-0.0002034215644354742
1589551833.746021,-1.86,-3.6078238991208877,9.057823899120889,0.5488888888888889,0.19333333333333333,-0.7144444444444444,-0.0037472439124399915,0.0014864570866219753,-0.002023411043342704
1589551833.756021,-1.8518331485114732,-3.5691657425573657,9.125334811908216,0.5434443212298711,0.18788876567431545,-0.7262410077056499,0.008308756552201316,0.00019996548252024942,-0.0012907962650167055
1589551833.766021,-1.8526078112286413,-3.5339117168429617,9.14913751017087,0.5422222222222223,0.18666666666666668,-0.7288888888888889,0.010292330149576,0.002323895603149997,-0.0012330648206535406
1589551833.776021,-1.8696716842961758,-3.5595075264442637,9.012626525630594,0.5422222222222223,0.18666666666666668,-0.7288888888888889,-0.0008759486568313685,0.0032545855036839443,-0.0021637547211874877
1589551833.786021,-1.8795120969365162,-3.6009758061269674,9.020487903063483,0.5422222222222223,0.18666666666666668,-0.7288888888888889,-0.005241266040273318,0.00545415391248228,-5.322196805224044e-05
1589551833.796021,-1.8710698039531422,-3.617860392093716,9.028930196046858,0.5422222222222223,0.18666666666666668,-0.7288888888888889,-0.0015576208158259242,0.00545415391248228,-0.0009741332741640889
1589551833.806021,-1.86,-3.583587934024277,9.055343388313103,0.5422222222222223,0.19333333333333333,-0.7288888888888889,0.006037027157958669,-0.002065086915897634,0.0008576814843059
1589551833.816021,-1.86,-3.532844295680929,9.097629753599225,0.5422222222222223,0.19333333333333333,-0.7288888888888889,0.010649754051357957,-0.0011425415372177765,-0.0009874092730538149
1589551833.826021,-1.8521864577371674,-3.545627084525665,9.076559373211502,0.5422222222222223,0.19333333333333333,-0.7288888888888889,0.0032373806463930456,-0.00023850554043295443,-0.0019431560245599575
1589551833.836021,-1.8601336281171768,-3.5801336281171765,9.029732743765646,0.5422222222222223,0.19333333333333333,-0.7288888888888889,-0.00983205360883043,0.0011054073488587814,0.0010616776497718052
1589551833.846021,-1.8669520759501903,-3.5869520759501903,9.016095848099619,0.5422222222222223,0.19333333333333333,-0.7288888888888889,-0.01057583088734018,0.0018491846273685328,-0.0004258769072476979
1589551833.856021,-1.8784760999853822,-3.5984760999853824,9.077808799883059,0.5375132777858987,0.20369301109324497,-0.7401903555360653,-0.0007377179674345653,-0.0024413338247934496,0.0007583673734180886
1589551833.866021,-1.8670358485061693,-3.5805537727592536,9.122410378734576,0.5366666666666666,0.20555555555555555,-0.7422222222222222,0.006747508989863661,-0.003272492347489368,-0.0010304235452662455
1589551833.876021,-1.8522750198141078,-3.5468250594423227,9.078200158512862,0.5366666666666666,0.20555555555555555,-0.7422222222222222,0.005604153951994816,-0.0015871631113000527,-0.0030243261830875698
1589551833.886021,-1.85,-3.569065693132916,9.052733576716772,0.5366666666666666,0.20555555555555555,-0.7422222222222222,-0.0011851836072107689,0.0028723883155011105,-0.0016872047082903414
