time,acc_x,acc_y,acc_z,mag_x,mag_y,mag_z,gyr_x,gyr_y,gyr_z
1589550436.1504798,0.25,-3.89,8.89,0.4988888888888889,0.3466666666666667,-0.6577777777777778,0.008726646259971648,0.011999138607461015,0.002181661564992912
1589550436.1604798,0.25081549935149156,-3.89,8.906523994811932,0.49834522265456116,0.3472103329009944,-0.6588651102464332,0.00563206827162486,0.015360588134521675,0.0020037472058503317
1589550436.1704798,0.26,-3.89,8.963516738138056,0.4922222222222222,0.3533333333333333,-0.6711111111111111,0.007378951914118629,0.01559187104737715,-0.00025686356335656276
1589550436.1804798,0.26,-3.89,8.912748824180385,0.4922222222222222,0.3533333333333333,-0.6711111111111111,0.0065878204382877935,0.013218476619884645,-0.0010479950391873978
1589550436.1904798,0.25705521750976296,-3.888220870039052,8.778834347470712,0.4922222222222222,0.3533333333333333,-0.6711111111111111,0.008853799226035967,0.01411388016577185,0.0023088145310572296
1589550436.2004797,0.24856070236771016,-3.8614392976322898,8.81295367869061,0.4922222222222222,0.3533333333333333,-0.6711111111111111,0.005916972629988324,0.007470622129990825,0.0
1589550436.2104797,0.2430065151755919,-3.866993484824408,8.862941363419674,0.4922222222222222,0.3533333333333333,-0.6711111111111111,0.0034935012856242773,0.0026236794412627298,0.0
1589550436.2204797,0.2479303380049464,-3.885860676009893,8.913791014014839,0.48252958688284325,0.3586202253366309,-0.6605373271045158,0.00045153020271349585,-0.003460262724558832,0.000865065681139708
1589550436.2304797,0.26,-3.89,8.908643006263048,0.48,0.36,-0.6577777777777778,-0.002181661564992912,-0.005591804560981021,0.0008155294854989741
1589550436.2404797,0.260105597061647,-3.89,8.830422388246587,0.48,0.36,-0.6577777777777778,-0.0021701427124543415,-0.006510428137363025,-0.0010793119299578858
1589550436.2504797,0.26885867523686297,-3.89,8.865434700947452,0.48,0.36,-0.6577777777777778,-0.0012153300009419903,-0.0036459900028259712,-0.00012449921844553437
1589550436.2604797,0.25043817543106917,-3.8704381754310693,8.879780912284467,0.48,0.36,-0.6577777777777778,0.00317689729782059,-7.169628725158363e-05,-0.0010669320200792614
1589550436.2704797,0.25,-3.885328935107533,8.910657870215067,0.5004385801433773,0.35489035496415566,-0.6518165252359595,0.0007643012057612425,0.00167212742781875,0.0005812966453222941
1589550436.2804797,0.25,-3.8623793370549424,8.848810331472528,0.5066666666666667,0.3533333333333333,-0.65,0.002753401527196175,0.003974005014765929,0.0012206034875697543
1589550436.2904797,0.24792792376017764,-3.88,8.844144152479645,0.5066666666666667,0.3533333333333333,-0.65,-0.0006387738732809095,0.00041274541867313626,0.0017296046557773656
1589550436.3004797,0.24146603964749286,-3.881466039647493,8.861466039647492,0.5066666666666667,0.3533333333333333,-0.65,0.0009309106649119074,-0.0023415816825774604,0.0001599201175845486
1589550436.3104796,0.24948404733230103,-3.889484047332301,8.8694840473323,0.5066666666666667,0.3533333333333333,-0.65,5.628170522371844e-05,-0.0032162106422656497,0.0010345490772727375
1589550436.3204796,0.25,-3.8716483495552465,8.91505495133426,0.4922222222222222,0.3533333333333333,-0.6711111111111111,0.001090830782496456,-0.005466142433872357,0.002001854521475182
1589550436.3304796,0.25,-3.879637340241138,8.891087979276586,0.4922222222222222,0.3533333333333333,-0.6711111111111111,0.001090830782496456,-0.00023736025712347338,0.0011303908253503683
1589550436.3404796,0.2516561947950245,-3.873312389590049,8.818280973975122,0.4922222222222222,0.3533333333333333,-0.6711111111111111,-0.003453155173911681,-0.005461007736444859,-0.002181661564992912
1589550436.3504796,0.2592948332695915,-3.888589666539183,8.856474166347956,0.4922222222222222,0.3533333333333333,-0.6711111111111111,-0.0042864013723536275,-0.0004615305457931788,-0.002181661564992912
1589550436.3604796,0.26915894820410424,-3.880841051795896,8.896635792816417,0.4922222222222222,0.3533333333333333,-0.6711111111111111,-0.0013660643390875694,0.0,-0.002181661564992912
1589550436.3704796,0.2526424379232506,-3.88,8.926036343115124,0.49800807624780535,0.3533333333333333,-0.6595394030599449,-0.00014412263137588614,0.004733540755602848,0.0006584628883687976
1589550436.3804796,0.24,-3.897149138528449,8.921469400434917,0.4988888888888889,0.3533333333333333,-0.6577777777777778,0.004207832757495768,0.008726646259971648,0.0009353404100064004
1589550436.3904796,0.24387482419127987,-3.88129160806376,8.81774964838256,0.4988888888888889,0.3533333333333333,-0.6577777777777778,0.0031315997640023667,0.008444861092997646,0.00028178516697400244
1589550436.4004796,0.2695381319622965,-3.889307197943445,8.870461868037703,0.4988888888888889,0.3533333333333333,-0.6577777777777778,0.0021312795776950895,0.006393838733085268,0.0021564705713440005
1589550436.4104795,0.25156769494430165,-3.8623515424164525,8.8884323050557,0.4988888888888889,0.3533333333333333,-0.6577777777777778,0.00017100899028082853,0.0005130269708424852,0.0011763352776368702
1589550436.4204795,0.25900870671316095,-3.871982586573678,8.916034826852643,0.4988888888888889,0.36,-0.65,0.00010813332317661209,-0.0018572615954630758,-0.000982697459319844
1589550436.4304795,0.25023345464348296,-3.89,8.87836581749562,0.4988888888888889,0.36,-0.65,0.0010653648313536624,0.0010653648313536624,0.0
1589550436.4404795,0.25878840567417993,-3.88878840567418,8.816057971629101,0.4988888888888889,0.36,-0.65,-0.00026432887730051314,0.00013216443865025657,0.00013216443865025657
1589550436.4504795,0.25,-3.88,8.860583152078066,0.4988888888888889,0.36,-0.65,-0.002192263568953452,0.0011014327864569962,0.0010802287785359158
1589550436.4604795,0.25,-3.88,8.909895949679619,0.4988888888888889,0.36,-0.65,-0.0030887955288666233,0.001997964746370167,0.0001836968186227449
1589550436.4704795,0.24057110384997868,-3.870571103849979,8.91,0.5066666666666667,0.37333333333333335,-0.65,-0.003210194581533469,0.002057066033081113,0.001994768267125214
1589550436.4804795,0.2480194274754937,-3.8780194274754938,8.91,0.5066666666666667,0.37333333333333335,-0.65,-0.002397708512662733,0.0004320938953396424,-0.0004426899394869921
1589550436.4904795,0.23197601848650815,-3.887035972270238,8.834940046216271,0.5066666666666667,0.37333333333333335,-0.65,-0.003811367795455648,-0.0029360871921457043,0.000875280603309944
1589550436.5004795,0.24723939664113248,-3.864140905038301,8.873098491602832,0.5066666666666667,0.37333333333333335,-0.65,-0.007973808479442698,-0.008763504149727574,-0.000789695670284876
1589550436.5104795,0.25832090094453863,-3.884962702833616,8.888320900944539,0.5066666666666667,0.37333333333333335,-0.65,-0.010541985237652962,-0.01707883295319336,-0.00018316129365579872
1589550436.5204794,0.26,-3.903392754676562,8.903392754676561,0.5014583731813371,0.3554763270979177,-0.6596725450441835,-0.010177846371783716,-0.01708320039607806,0.0
1589550436.5304794,0.26,-3.87491485049952,8.85737227574928,0.4988888888888889,0.3466666666666667,-0.6644444444444444,-0.0059902809341067335,-0.012535265629085468,0.0009567990270903425
1589550436.5404794,0.25084770334198075,-3.899152296658019,8.795086220051884,0.4988888888888889,0.3466666666666667,-0.6644444444444444,-0.002181661564992912,-0.009355126592539231,-0.0011833008724822305
1589550436.5504794,0.26,-3.8910847716845094,8.855423858422547,0.4988888888888889,0.3466666666666667,-0.6644444444444444,-0.002181661564992912,-0.0047183138336188745,-0.0018266708613598618
1589550436.5604794,0.26,-3.898721324011361,8.893606620056806,0.4988888888888889,0.3466666666666667,-0.6644444444444444,-0.002181661564992912,-0.007217369738701289,0.0006723850437225535
1589550436.5704794,0.25114977652102527,-3.8822995530420505,8.883449329563076,0.4922222222222222,0.3533333333333333,-0.65,-0.0033979135097019727,-0.0066704058571913395,-0.001090830782496456
1589550436.5804794,0.25921081135544977,-3.896843245421799,8.902897302199047,0.4922222222222222,0.3533333333333333,-0.65,-0.004277236003318618,-0.007635815477475192,-0.0009186565291620447
1589550436.5904794,0.2605812609155536,-3.801803064964455,8.825290630457777,0.4922222222222222,0.3533333333333333,-0.65,-0.0037053310396510863,-0.008501492861798628,0.001090830782496456
1589550436.6004794,0.3328226477935054,-3.3955370524562865,8.86940882597835,0.4922222222222222,0.3533333333333333,-0.65,-0.008597672095846337,-0.016233487573321527,0.0001671214521060349
1589550436.6104794,0.3505803073709762,-3.2416373361182065,8.928601024569922,0.4922222222222222,0.3533333333333333,-0.65,-0.02151140655731174,-0.029147222034786924,-0.005644059055553397
1589550436.6204793,0.2791311132098715,-3.04678355849382,8.943826222641974,0.4859324199163234,0.3479420742139914,-0.6616810614252407,-0.04424016913514863,-0.054522412744330624,-0.03430878486647068
1589550436.6304793,0.17334417964350204,-2.926678347308387,8.95333166467023,0.4844444444444445,0.3466666666666667,-0.6644444444444444,-0.055267849531947986,-0.06908467539775412,-0.06144749474847023
1589550436.6404793,-0.3358979191507366,-2.8262425477902995,8.843525520212316,0.4844444444444445,0.3466666666666667,-0.6644444444444444,-0.06965558092561122,-0.091768578307436,-0.09154159286440719
1589550436.6504793,-0.44909114867663114,-2.88647754226121,8.874318361507473,0.4844444444444445,0.3466666666666667,-0.6644444444444444,-0.07896130635596264,-0.098645830590911,-0.08897706399847942
1589550436.6604793,-0.17603897270114943,-2.9351966594827585,8.982387751436782,0.4844444444444445,0.3466666666666667,-0.6644444444444444,-0.07631525033125934,-0.10127260838233641,-0.06711058196114197
1589550436.6704793,0.08291483757682178,-3.0921861281826164,8.737901668129938,0.5032328553311872,0.369212759730758,-0.6700809677104672,-0.07342277606680492,-0.07101222200223636,-0.059579089533893355
1589550436.6804793,0.24481795918367347,-2.924817959183674,9.137402915451895,0.5066666666666667,0.37333333333333335,-0.6711111111111111,-0.07304528578698682,-0.06549022359006308,-0.05995465490197758
1589550436.6904793,0.1076570719185288,-2.7844872280435973,9.322695577157766,0.5066666666666667,0.37333333333333335,-0.6711111111111111,-0.06993520743344343,-0.06452615478106313,-0.0829818428900307
1589550436.7004793,-0.04237259605268694,-2.4314762445819134,8.854956024071036,0.5066666666666667,0.37333333333333335,-0.6711111111111111,0.06195306477343472,0.06447405307091991,0.1913842708250078
1589550436.7104793,0.13717963894643387,-2.6383002860806943,8.982573739765217,0.5066666666666667,0.37333333333333335,-0.6711111111111111,0.024074894706994393,0.0015610814009742596,0.3813526982975987
1589550436.7204792,0.3447635682363732,-2.8106545539704535,9.187381784118186,0.4844444444444445,0.3655555555555556,-0.6788888888888889,-0.018960585170825967,-0.0439068916442893,0.5527061456192945
1589550436.7304792,0.27928006869499034,-2.818839991413126,9.154640034347496,0.4844444444444445,0.3655555555555556,-0.6788888888888889,0.01675512335184053,-0.006405397695489472,0.5893147468550277
1589550436.7404792,0.2880609070840859,-2.865152267710215,8.71653822998194,0.4844444444444445,0.3655555555555556,-0.6788888888888889,0.0099957796056516,-0.01882208484891273,0.6171593788787672
1589550436.7504792,0.2680344575625889,-2.833390762604315,8.809115102103602,0.4844444444444445,0.3655555555555556,-0.6788888888888889,-0.001656319339511117,-0.033504819451411455,0.6275787810729737
1589550436.7604792,0.19786870703038367,-2.877351962741184,8.912572632512752,0.4844444444444445,0.3655555555555556,-0.6788888888888889,-0.0007620574328817556,-0.03505101306764228,0.645619169828331
1589550436.7704792,0.14347392182487823,-2.94,8.916104312700487,0.4879376834360796,0.3655555555555556,-0.6694072401973079,0.007302876867491421,-0.029184464577809224,0.6832010867608055
1589550436.7804792,0.1809189784153872,-2.9243107661884595,8.902297446038467,0.4922222222222222,0.3655555555555556,-0.6577777777777778,0.0023511582272583258,-0.03587804165731534,0.7318590742165797
1589550436.7904792,0.16375917659645112,-2.8737591765964514,8.835237392555428,0.4922222222222222,0.3655555555555556,-0.6577777777777778,-0.004136400387428642,-0.03879417121961332,0.7724395427983591
1589550436.8004792,0.10488372965268923,-2.8909689820718625,8.742441864826345,0.4922222222222222,0.3655555555555556,-0.6577777777777778,-0.0013571969144236626,-0.0393756077170399,0.8032742541060616
1589550436.8104792,0.04905742821473159,-2.963319600499376,8.91565543071161,0.4922222222222222,0.3655555555555556,-0.6577777777777778,-0.0006750621958595422,-0.04254240051736178,0.8402436643582926
1589550436.8204792,0.005471495751175646,-2.977735747875588,8.962546613315732,0.4922222222222222,0.3492032193896727,-0.6659539458607192,0.004929369901226405,-0.03652219983363892,0.889994715205398
1589550436.8304791,-0.0015859366496135847,-2.9952421900511594,9.046210950255796,0.4922222222222222,0.3388888888888889,-0.6711111111111111,0.003219654674885588,-0.03914974699082742,0.952319139124335
1589550436.8404791,-0.008712751895740093,-2.9564362405213,8.878319458293717,0.4922222222222222,0.3388888888888889,-0.6711111111111111,0.004082489158618441,-0.04416239413961992,1.0084021922343323
1589550436.8504791,-0.0016216962887927074,-2.9835132148448293,8.958917948245695,0.4922222222222222,0.3388888888888889,-0.6711111111111111,-0.0020341949853166248,-0.05843302947228851,1.0585182229926597
1589550436.860479,-0.02869098756551228,-2.9469635186517316,8.822199568389683,0.4922222222222222,0.3388888888888889,-0.6711111111111111,0.003769335446264498,-0.05560954664688185,1.0809161608690416
1589550436.870479,-0.05808714065708419,-3.1018278362423,9.004176398870635,0.5093045217316906,0.3338646831508099,-0.6711111111111111,0.011477487144001387,-0.06134271226076258,1.1052109686727563
1589550436.880479,-0.12178000271825307,-3.2082571467403618,8.985871426629819,0.5111111111111111,0.3333333333333333,-0.6711111111111111,0.008148194109873292,-0.05062452110953482,1.1225970222242534
1589550436.890479,-0.21040417051475235,-3.0413240655227725,8.801324065522772,0.5111111111111111,0.3333333333333333,-0.6711111111111111,0.009584867571665988,-0.04616380707105433,1.156805896307994
1589550436.900479,-0.323486370766035,-3.1155258807071093,8.907367840942811,0.5111111111111111,0.3333333333333333,-0.6711111111111111,0.008949122282464778,-0.05189337618487442,1.1892996596563385
1589550436.910479,-0.29461907515688923,-2.9946250722868344,8.815392919103001,0.5111111111111111,0.3333333333333333,-0.6711111111111111,0.009481786479746498,-0.05118528768300178,1.2336432391675798
1589550436.920479,-0.3181874490311056,-3.0049582540483866,8.931333152110598,0.523009246674347,0.3267893587735536,-0.6788448992272145,0.008649380315065682,-0.052514409449641815,1.2752061563800905
1589550436.930479,-0.3673255128387582,-3.132266859129445,8.99575660235428,0.5333333333333333,0.3211111111111111,-0.6855555555555556,0.014028531399147552,-0.04974700218356853,1.3145777691728848
1589550436.940479,-0.3885546378653113,-3.24,8.854277318932656,0.5333333333333333,0.3211111111111111,-0.6855555555555556,0.021823026186611513,-0.046117400893161,1.358991848293017
1589550436.950479,-0.43388291762389236,-3.1891756235641617,8.84870569412537,0.5333333333333333,0.3211111111111111,-0.6855555555555556,0.010061186610956604,-0.058519965817318796,1.3955835342397418
1589550436.960479,-0.443904826014913,-3.128539768019884,8.979491507870753,0.5333333333333333,0.3211111111111111,-0.6855555555555556,-0.002074284321956159,-0.07906958549410659,1.4327628526288463
1589550436.970479,-0.39084400143327147,-3.016025603439852,9.006025603439852,0.5368138665392648,0.30457857838293684,-0.6916464886659356,5.2446862600239764e-05,-0.08161534868764536,1.480322646161103
1589550436.980479,-0.3721268714996541,-3.0136193855010376,8.92488810049758,0.5377777777777778,0.3,-0.6933333333333334,0.004758136841811136,-0.07596334106292661,1.490469662601984
1589550436.990479,-0.47452843119469473,-3.1833256737417104,8.975330269496684,0.5377777777777778,0.3,-0.6933333333333334,0.006879439292397727,-0.06885353978263595,1.4876024662228666
1589550437.000479,-0.5684458808539731,-3.308445880853973,8.787013891046957,0.5377777777777778,0.3,-0.6933333333333334,0.02860479062532768,-0.030221968701395173,1.4957766338311422
1589550437.010479,-0.5852191602637787,-3.257370076834654,8.772191602637788,0.5377777777777778,0.3,-0.6933333333333334,0.03376794090498414,-0.023050886489643558,1.498232173082679
1589550437.020479,-0.5818045917760418,-3.1180459177604187,8.78312066299219,0.5487049887430553,0.28406448400897033,-0.6983416383590856,0.024232110087366455,-0.03824867359376942,1.493687752763016
1589550437.030479,-0.6047461689923808,-3.086865422480952,9.031133464600634,0.5644444444444444,0.2611111111111111,-0.7055555555555556,0.006313810000854091,-0.07395176208416379,1.4796810460045116
1589550437.040479,-0.6596977170471588,-3.031209131811365,8.811958673554408,0.5644444444444444,0.2611111111111111,-0.7055555555555556,0.01271009634058885,-0.05811079706729695,1.4688531095639754
1589550437.050479,-0.751135878586673,-3.103590230021342,8.814158169314679,0.5644444444444444,0.2611111111111111,-0.7055555555555556,0.008396965483995423,-0.06215743665820213,1.4521214650901029
1589550437.060479,-0.7168387197685103,-2.9904516393923397,9.016129000723405,0.5644444444444444,0.2611111111111111,-0.7055555555555556,0.0014708631150536795,-0.06762447048404095,1.4471735301324575
1589550437.070479,-0.7050638194416305,-2.899914907411159,8.969446898172535,0.567234040637339,0.2415839377608493,-0.7133664248956603,0.0038387926021732936,-0.06434045184423695,1.4442506738637806
1589550437.080479,-0.7043658675627831,-2.8330976026883494,8.902536529748868,0.57,0.2222222222222222,-0.7211111111111111,0.00417886148126699,-0.07079668188672864,1.436962036584272
1589550437.090479,-0.7296832427148878,-2.8138099456289325,8.872696866027246,0.57,0.2222222222222222,-0.7211111111111111,0.004328770270267795,-0.08678175628311266,1.4132142282286684
1589550437.100479,-0.7159458597274757,-2.6917112518798705,8.673602971334823,0.57,0.2222222222222222,-0.7211111111111111,-0.001542911862386297,-0.08748266016035436,1.3837728099908848
1589550437.1104789,-0.8074681688725079,-2.847974325682694,9.381897302730776,0.57,0.2222222222222222,-0.7211111111111111,-0.02225843501172054,-0.11536565774277861,1.3496200831499616
1589550437.1204789,-0.85,-2.7721595106885486,8.862645794222733,0.5866147883485738,0.20560743387364838,-0.7312645928796839,0.011141760013261205,-0.0442571577057614,1.328296578053011
1589550437.1304789,-0.9457763005897493,-2.8873481547534605,8.778408892852077,0.59,0.20222222222222225,-0.7333333333333333,0.02284959214391873,-0.04495127888681528,1.2983221484995933
1589550437.1404788,-1.0101259017758046,-2.9500419672586013,8.8049790163707,0.59,0.20222222222222225,-0.7333333333333333,0.017425825013419556,-0.05291215982770905,1.2745785453751843
1589550437.1504788,-1.0346073277091739,-2.9492146554183476,8.880890084362392,0.59,0.20222222222222225,-0.7333333333333333,0.010320058531489682,-0.052776791244398165,1.246294152229031
1589550437.1604788,-1.03,-2.8428425329501534,8.968217025071846,0.59,0.20222222222222225,-0.7333333333333333,0.00650552842348818,-0.05126904677733343,1.213195533565816
1589550437.1704788,-0.9544098254244816,-2.6212606333914112,8.851496703221619,0.5883202183427663,0.16694680742031365,-0.7602098398490732,0.0035387622371732593,-0.061988338383896766,1.1768261557473498
1589550437.1804788,-1.0584594889573702,-2.7878226117103235,9.016652221366204,0.5877777777777777,0.15555555555555556,-0.7688888888888888,0.0014447415015094145,-0.066668347513774,1.154139341786368
1589550437.1904788,-1.192827528707318,-2.992827528707318,8.933793534695115,0.5877777777777777,0.15555555555555556,-0.7688888888888888,0.009549141020594282,-0.04733958384601743,1.1218079046050267
1589550437.2004788,-1.1992464710766675,-2.964657256204447,8.76458921487222,0.5877777777777777,0.15555555555555556,-0.7688888888888888,0.012170955274442941,-0.041107936400901476,1.062752884704907
1589550437.2104788,-1.2785319172474832,-2.94,8.81794225024892,0.5877777777777777,0.15555555555555556,-0.7688888888888888,0.002229571712205114,-0.04650470244032961,1.0066753417732717
1589550437.2204788,-1.3530715977409364,-2.916928402259064,8.939976923544059,0.5826507560575697,0.14530151211513936,-0.7586348454484727,0.004529594172924192,-0.03599993307323232,0.9514639179047142
1589550437.2304788,-1.3715176341292836,-2.9349548739467815,8.983437239817498,0.5811111111111111,0.14222222222222222,-0.7555555555555555,0.005916795202491017,-0.033143716469885495,0.9338486913845888
1589550437.2404788,-1.3967503024564727,-2.970250907369418,8.914451633264951,0.5811111111111111,0.14222222222222222,-0.7555555555555555,0.0027652626322051286,-0.03490658503988659,0.8818278685131995
1589550437.2504787,-1.334902104151434,-2.854902104151434,8.910391583394263,0.5811111111111111,0.14222222222222222,-0.7555555555555555,0.0066483458374478,-0.03490658503988659,0.8278551336707344
1589550437.2604787,-1.2780902333759592,-2.7502255834398976,8.956817055626598,0.5811111111111111,0.14222222222222222,-0.7555555555555555,0.008657205185942042,-0.02678468204420416,0.7736363362821511
1589550437.2704787,-1.267773226229718,-2.745168496175633,8.933697634972956,0.5797945758348357,0.12181592543995334,-0.7680626406801719,0.0024657935373018905,-0.020927459569979535,0.707554765378823
1589550437.2804787,-1.436625256948789,-2.915300205559031,8.996987577084635,0.5788888888888889,0.10777777777777778,-0.7766666666666666,-0.006216380330381134,-0.028081176208454836,0.6475989087410539
1589550437.2904787,-1.5542994287259575,-2.988879085961532,9.029719771490383,0.5788888888888889,0.10777777777777778,-0.7766666666666666,-0.004179913999331821,-0.024844562489879814,0.5922093142353136
1589550437.3004787,-1.462480956229946,-2.882480956229946,8.952480956229946,0.5788888888888889,0.10777777777777778,-0.7766666666666666,0.012492920753866996,0.008679167721247365,0.5377433723830367
1589550437.3104787,-1.4383504134156282,-2.816598346337487,8.773867765226505,0.5788888888888889,0.10777777777777778,-0.7766666666666666,0.011077070919706208,0.01298323006714477,0.49836939161490484
1589550437.3204787,-1.45635035595243,-2.7715875889881074,8.573175177976216,0.5788888888888889,0.10566099246030113,-0.7788716513723715,0.001142587002084885,0.0016621242835388984,0.4597583091696772
1589550437.3304787,-1.5519738393308258,-2.811973839330826,8.829738393308258,0.5788888888888889,0.0811111111111111,-0.8044444444444444,-0.01090830782496456,-0.00795878418274024,0.3837402621323636
1589550437.3404787,-1.5871824842986741,-2.8415474528960223,9.09448185624564,0.5788888888888889,0.0811111111111111,-0.8044444444444444,-0.009371591396377874,-0.010185337458128543,0.338646437249448
1589550437.3504786,-1.6312940799743827,-2.862745066645319,8.91541167994236,0.5788888888888889,0.0811111111111111,-0.8044444444444444,-0.007319259292345332,-0.0018651053798630515,0.2916026068425997
1589550437.3604786,-1.6893217488789236,-2.895084080717489,8.998811659192825,0.5788888888888889,0.0811111111111111,-0.8044444444444444,-0.009040932707394955,-0.002810234459839524,0.25763906681030085
1589550437.3704786,-1.652106553095745,-2.828527863714894,8.902208204427659,0.5816723139628841,0.062024767746572555,-0.8020586515238771,-0.011929934468863167,0.000390374453762543,0.22219722087391902
1589550437.3804786,-1.6119021342205633,-2.7657064026616895,9.03692972490465,0.5866666666666667,0.027777777777777776,-0.7977777777777778,-0.018309943895226055,-0.0015591895969238477,0.19824364550475992
1589550437.3904786,-1.6406463149827564,-2.828712479243837,8.96999489079065,0.5866666666666667,0.027777777777777776,-0.7977777777777778,-0.005594600639874849,0.010380935936888293,0.18283711662066024
1589550437.4004786,-1.6110525478972892,-2.835157802687018,8.786947293107561,0.5866666666666667,0.027777777777777776,-0.7977777777777778,-0.008749626636580405,0.021173598696895394,0.16237301067411292
1589550437.4104786,-1.554427458445356,-2.7640457640755933,8.94206134584061,0.5866666666666667,0.027777777777777776,-0.7977777777777778,-0.023157264813251244,0.008268645895124585,0.1289761351809927
1589550437.4204786,-1.5608091174891103,-2.713988603138612,9.062774926904947,0.5866666666666667,0.0017663809163898612,-0.7977777777777778,-0.02434510529682026,0.004104756074465377,0.08926538608834095
1589550437.4304786,-1.5418779481132077,-2.630093918463612,8.90652585916442,0.5866666666666667,-0.022222222222222227,-0.7977777777777778,-0.017852752326791625,0.018631182110257757,0.06308382285404315
1589550437.4404786,-1.547773594552511,-2.6036084965953195,8.791669804085616,0.5866666666666667,-0.022222222222222227,-0.7977777777777778,-0.021513036700374282,0.015303015567856343,0.04996673744809906
1589550437.4504786,-1.59,-2.608859482782312,8.886843103306125,0.5866666666666667,-0.022222222222222227,-0.7977777777777778,-0.041107205725781394,-0.013508740247700431,0.03844456773859449
1589550437.4604785,-1.7492653673163419,-2.757432822050513,9.024502364202514,0.5866666666666667,-0.022222222222222227,-0.7977777777777778,-0.04053220733623954,-0.020988585640657795,0.03827040977673041
1589550437.4704785,-1.942799445043934,-2.962799445043934,8.948398335131802,0.5915750732233698,-0.026872291591730473,-0.794419394344244,-0.014968823257774416,0.0029399630007363644,0.05233272029585991
1589550437.4804785,-1.764251729374051,-2.778057477082279,8.846352848546202,0.6077777777777778,-0.042222222222222223,-0.7833333333333333,-0.013986203960650385,0.013072669222325507,0.09298981202840113
1589550437.4904785,-1.752766814256807,-2.8083004427704203,9.345810510287901,0.6077777777777778,-0.042222222222222223,-0.7833333333333333,-0.022303821200270583,-0.0018798489489154162,0.12302675554849773
1589550437.5004785,-1.5867802135115312,-2.6878844429956805,8.71166164126803,0.6077777777777778,-0.042222222222222223,-0.7833333333333333,0.00689283090571206,0.04724005781513908,0.15791604591659414
1589550437.5104785,-1.5576315157818938,-2.713661239348722,8.787619714365723,0.6077777777777778,-0.042222222222222223,-0.7833333333333333,-0.004529302042704363,0.018695177859131024,0.16395786253470898
1589550437.5204785,-1.680501768479108,-2.845495873548748,9.494492336590532,0.5894969215363676,-0.06789321183781948,-0.7736094736304556,-0.037197715505418984,-0.0435784968495885,0.14344231878683478
1589550437.5304785,-1.7824976196823703,-2.8107605590890046,9.252178466694597,0.5555555555555556,-0.11555555555555555,-0.7555555555555555,-0.02227958621930645,-0.014063021855495503,0.12647696230636118
1589550437.5404785,-1.94261740019099,-2.83,9.049910201209604,0.5555555555555556,-0.11555555555555555,-0.7555555555555555,-0.004058218003182252,0.005544561523281755,0.1341721862470641
1589550437.5504785,-1.989057736355738,-2.8329057736355736,9.049580601848195,0.5555555555555556,-0.11555555555555555,-0.7555555555555555,-0.024912055848454722,-0.028250199649720434,0.1468510155616663
1589550437.5604784,-2.109515765998307,-2.8796126127986454,8.879031531996613,0.5555555555555556,-0.11555555555555555,-0.7555555555555555,-0.009393551642864921,-0.01091887217206413,0.21399434313271803
1589550437.5704784,-2.197173688683827,-2.9306210539096647,9.00124210781933,0.5437543845448168,-0.10139415034266903,-0.722512276725487,-0.005996125690284063,-0.017348229198159017,0.2983927474177738
1589550437.5804784,-2.12368127847414,-2.8586974482449308,9.126318721525859,0.5333333333333333,-0.08888888888888889,-0.6933333333333334,-0.020320691982834444,-0.03354922003106951,0.40105591204154606
1589550437.5904784,-2.0306404944167427,-2.78259779478896,9.138131540136245,0.5333333333333333,-0.08888888888888889,-0.6933333333333334,-0.021009160319673297,-0.036707807973944934,0.4483120696137706
1589550437.6004784,-1.8166732535162153,-2.6197326514006742,8.792237591537836,0.5333333333333333,-0.08888888888888889,-0.6933333333333334,0.007060159107309678,-0.022878283224245385,0.5837197436342214
1589550437.6104784,-1.8050795759601161,-2.6450795759601164,8.949772229222594,0.5333333333333333,-0.08888888888888889,-0.6933333333333334,0.00514851750589802,-0.03346042597573625,0.6367221797899777
1589550437.6204784,-1.6729521174601434,-2.5129521174601437,8.967006245548678,0.5333333333333333,-0.08888888888888889,-0.6933333333333334,0.0007619918858390983,-0.03283377945858498,0.6611613939588774
1589550437.6304784,-1.599142694389063,-2.415485616633438,8.883027627456565,0.5644444444444444,-0.05666666666666665,-0.6577777777777778,0.005547671447523986,-0.023025819126282356,0.6963613921111282
1589550437.6404784,-1.6389632583309597,-2.4393779549985757,9.113986898319567,0.5644444444444444,-0.05666666666666665,-0.6577777777777778,0.0012039217551050316,-0.03779456808050681,0.7076551413114176
1589550437.6504784,-1.7867691946466306,-2.5428973937544024,8.863204977694295,0.5644444444444444,-0.05666666666666665,-0.6577777777777778,-0.0006656654622466049,-0.02652954761253003,0.7340256426506083
1589550437.6604784,-1.6858429266785135,-2.4572286177856757,8.824057019238198,0.5644444444444444,-0.05666666666666665,-0.6577777777777778,0.023447404719975536,-0.013316702567166088,0.7532887759358408
1589550437.6704783,-1.5473725957171978,-2.3591131652774133,8.979523482753748,0.5621236850308237,-0.052025147839425176,-0.6577777777777778,0.024754133319724907,-0.02134375425475971,0.7565117216893109
1589550437.6804783,-1.4446918123275068,-2.262526360484042,8.762376335715802,0.5511111111111111,-0.03,-0.6577777777777778,0.006100423483712931,-0.03177520363078825,0.736760202628933
1589550437.6904783,-1.6109422577051615,-2.3736717415521724,9.381835870776085,0.5511111111111111,-0.03,-0.6577777777777778,-0.033417882539563494,-0.0964911117952768,0.6848388158190288
1589550437.7004783,-1.7099859717276358,-2.4809873745548723,9.38392144167476,0.5511111111111111,-0.03,-0.6577777777777778,-0.023007501052596288,-0.09259607793791569,0.6702070448646753
1589550437.7104783,-1.6034029534623757,-2.3601670883097015,8.853444725539802,0.5511111111111111,-0.03,-0.6577777777777778,0.02983730564659189,0.005096619154037392,0.6658053217223969
1589550437.7204783,-1.602544408783247,-2.3175512409037466,9.042831357844229,0.5594558313119437,-0.03,-0.6558306763975835,0.005980937585353953,-0.028949496054054634,0.6373018613957505
1589550437.7304783,-1.6926458153839987,-2.3748436153799917,9.490540984591957,0.5844444444444444,-0.03,-0.65,-0.02929106536837946,-0.10211762024136332,0.6001330491982197
1589550437.7404783,-1.650242582452566,-2.2634681013625366,8.791778937985484,0.5844444444444444,-0.03,-0.65,-0.004847480864914058,-0.05140135498060962,0.5974057781826356
1589550437.7504783,-1.6136499932160464,-2.2631099905024645,8.671639907738228,0.5844444444444444,-0.03,-0.65,0.013221963318706476,-0.05001785484163247,0.5833872152270169
1589550437.7604783,-1.7062317356132026,-2.3311678755826835,9.061167875582683,0.5844444444444444,-0.03,-0.65,0.005524817692974273,-0.06511046014473965,0.5555165267060947
1589550437.7704782,-1.714959209360869,-2.2879292340683417,9.041689431728125,0.5808144142464221,-0.025709964311428114,-0.6585800713771438,0.014180800172453925,-0.028956062693860515,0.5340107149897196
1589550437.7804782,-1.4309817180065114,-2.0011453376742634,8.725896708128113,0.5722222222222222,-0.015555555555555557,-0.6788888888888889,0.015969104581580417,-0.017453292519943295,0.5182160142338987
1589550437.7904782,-1.4089509926153256,-1.9691873021962214,8.450945238323582,0.5722222222222222,-0.015555555555555557,-0.6788888888888889,0.03228984655360795,0.004134465220732041,0.5079291645471776
1589550437.8004782,-1.6340943142196294,-2.2272075119964097,8.834226188421306,0.5722222222222222,-0.015555555555555557,-0.6788888888888889,0.041846749706264424,0.019208932451961366,0.4930390572706831
1589550437.8104782,-1.676651041251097,-2.310754807308705,9.497122995292427,0.5722222222222222,-0.015555555555555557,-0.6788888888888889,0.010295982981546527,-0.03414510107626563,0.45162968505334317
1589550437.8204782,-1.5569340288432034,-2.1969340288432035,9.159200981896287,0.5798220994851863,-0.01921475571920494,-0.6788888888888889,0.031444912711339534,0.00612304505569827,0.4293657233776655
1589550437.8304782,-1.4318889930230136,-2.09077892325315,9.189678225554514,0.6022222222222222,-0.03,-0.6788888888888889,0.027305869709427055,-0.003068479842505134,0.3730992277608036
1589550437.8404782,-1.4858677992049185,-2.1249586409540977,9.236858934788513,0.6022222222222222,-0.03,-0.6788888888888889,-0.05389243838091845,-0.11290996873032652,0.2463699730291946
1589550437.8504782,-1.5275352814212186,-2.1140137805080523,8.678729868836129,0.6022222222222222,-0.03,-0.6788888888888889,-0.018859165664410957,-0.04974038046160018,0.19095696463338463
1589550437.8604782,-1.5860446604826899,-2.1753760268302518,9.055542866846384,0.6022222222222222,-0.03,-0.6788888888888889,0.007924482399539749,-0.029965928065771655,0.14535698173677336
1589550437.8704782,-1.5930993836931262,-2.427101000235746,8.605300575893308,0.5964222020154395,-0.03,-0.67663332547514,0.0202349055047641,0.007308599305997204,0.09674573911735844
1589550437.8804781,-0.9521633456904541,-2.9100798192771085,8.806996756255792,0.5822222222222222,-0.03,-0.6711111111111111,0.018207813297636946,0.03186137016717941,0.04202386414690097
1589550437.8904781,-0.5342882298424467,-2.467909638554217,8.39883966635774,0.5822222222222222,-0.03,-0.6711111111111111,0.02191806594559503,0.03451155063000661,-0.007269492461685012
1589550437.9004781,-0.1727885677466863,-1.7790003681885125,8.958710879970544,0.5822222222222222,-0.03,-0.6711111111111111,0.005496124389938416,-0.0014694436482087653,-0.06080959899486364
1589550437.910478,-0.381544410876133,-1.2787927492447129,9.767688217522657,0.5822222222222222,-0.03,-0.6711111111111111,-0.027067103875528378,-0.05830559739230362,-0.24872378705635714
1589550437.920478,-1.1427282315978458,-1.5257874775583482,9.200080116696588,0.5888799870337124,-0.0339028276481149,-0.6711111111111111,-0.031759895641033875,-0.03442729024880719,-0.6196040755201433
1589550437.930478,-1.242592356687898,-1.8722197452229299,8.961605095541401,0.6144444444444445,-0.048888888888888885,-0.6711111111111111,0.01850347769684992,0.10442342433702617,-0.9324713343383941
1589550437.940478,-1.3268214055448098,-2.3863650691310268,8.745892972275952,0.6144444444444445,-0.048888888888888885,-0.6711111111111111,0.05379657961128038,0.11919836717778558,-1.0819110391046305
1589550437.950478,-1.2185140948097035,-2.214714719304758,8.54008777867546,0.6144444444444445,-0.048888888888888885,-0.6711111111111111,0.003091254899097215,0.10059442970084943,-1.2670078259916857
1589550437.960478,-1.0884785005512678,-2.0313634693127525,8.867912532157295,0.6144444444444445,-0.048888888888888885,-0.6711111111111111,-0.044534840425118995,0.04251914870354892,-1.4925367349009309
1589550437.970478,-1.4616306414490143,-2.3528880216151307,9.303477434203943,0.624485917920322,-0.06219384124442665,-0.6776380688704315,-0.03254704808611372,0.0036282431250492554,-1.6764140278784125
1589550437.980478,-1.65975673671199,-2.3171179233621753,8.84008108776267,0.6588888888888889,-0.10777777777777778,-0.7,-0.01775883300858816,0.042698919228402805,-1.8080469251518339
1589550437.990478,-1.9166480688839664,-2.5220252152623956,8.982667921323051,0.6588888888888889,-0.10777777777777778,-0.7,-0.017308570270665832,0.07763789114951387,-1.8693122361245513
1589550438.000478,-1.9725320187199173,-2.696662558499742,9.730115750378895,0.6588888888888889,-0.10777777777777778,-0.7,-0.042454542521189825,0.05630191469452382,-1.8936962092159684
1589550438.010478,-1.788996459547626,-2.778996459547626,8.685791036007483,0.6588888888888889,-0.10777777777777778,-0.7,0.028478152833858753,0.13839448609350086,-1.8330194253063021
1589550438.020478,-1.8927499574836504,-2.8827499574836506,9.314796617244632,0.6588888888888889,-0.10777777777777778,-0.7,0.00937944813268346,0.07543949652296009,-1.8033103291044739
1589550438.030478,-1.916976240965941,-2.7621465356818278,9.163364348465832,0.8711111111111111,-0.33555555555555555,-0.6144444444444445,-0.09098025352143775,0.0027141184133842016,-1.7210642034654382
1589550438.040478,-2.0349619163024193,-2.798449820400744,8.88201389189423,0.8711111111111111,-0.33555555555555555,-0.6144444444444445,-0.024649013222249785,0.06706532168871582,-1.587411704355134
1589550438.050478,-1.5603175152485185,-2.478899511182247,9.026063503049704,0.8711111111111111,-0.33555555555555555,-0.6144444444444445,-0.01807201351402097,0.04133959406990603,-1.382081421738381
1589550438.060478,-1.7950754986640154,-2.6550754986640155,9.108526274363594,0.8711111111111111,-0.33555555555555555,-0.6144444444444445,-0.038699785898600576,0.017469763773292367,-1.2599879560455756
1589550438.070478,-1.87,-2.739767357920987,9.268974274839218,0.9099251870324189,-0.33638546178413614,-0.6092734902509808,-0.011673850835071992,0.03669874599537935,-1.1496625910162905
1589550438.080478,-1.7942371199929457,-2.798011507682811,8.713376689226427,1.5466666666666666,-0.35,-0.5244444444444445,0.024366616870033213,0.08081533634137017,-0.9885521643533351
1589550438.090478,-1.6003405450692425,-2.5596594549307574,8.742476960228672,1.5466666666666666,-0.35,-0.5244444444444445,0.005413619369581371,0.057543837025866594,-0.8805908494331953
1589550438.100478,-1.5931167008031666,-2.638801923917796,9.15660920995098,1.5466666666666666,-0.35,-0.5244444444444445,-0.017793271837535856,0.006765370017960725,-0.7820282687201753
1589550438.110478,-1.6663591038875465,-2.8054364155501865,9.093915220733583,1.5466666666666666,-0.35,-0.5244444444444445,-0.016996284016184894,0.0071026428828414095,-0.6912711586189784
1589550438.120478,-1.7100541158078286,-2.9401082316156573,9.274693043112261,1.418239298766026,-0.2839632146126043,-0.5602987727069262,0.005532927754691302,0.015332695440459627,-0.6011147287599563
1589550438.130478,-1.7100366076876143,-2.9850549115314218,9.322772563007462,0.8422222222222222,0.012222222222222223,-0.7211111111111111,-0.02458718351290188,-0.030256795319416,-0.5177791598403737
1589550438.140478,-1.54,-2.73,8.95,0.8422222222222222,0.012222222222222223,-0.7211111111111111,-0.017453292519943295,0.003272492347489368,-0.4614214209960009
1589550438.150478,-1.656939065062372,-3.0515824289215234,8.797979215418916,0.8422222222222222,0.012222222222222223,-0.7211111111111111,0.010610068486262815,0.04026510458294287,-0.39190082213971755
1589550438.1604779,-1.2988567716791166,-2.697060734004547,7.784080870412471,0.8422222222222222,0.012222222222222223,-0.7211111111111111,0.05804112550660259,0.12411432963787826,-0.22221771246831662
1589550438.1704779,-1.0009703723838,-2.5136613210111447,8.672704539276978,0.8281708495666092,0.02168539156171665,-0.7215890489565402,0.01704189602341874,0.023984786374855814,-0.10823849236110492
1589550438.1804779,-1.33,-3.184591833585383,10.605445202308571,0.6788888888888889,0.12222222222222222,-0.7266666666666667,-0.08809014908854579,-0.18809038868666353,-0.09588685714061898
1589550438.1904778,-1.289322343486004,-3.0952541211927485,8.534914151331112,0.6788888888888889,0.12222222222222222,-0.7266666666666667,-0.005768566620784836,-0.010335296641511067,-0.01501290795005123
1589550438.2004778,-1.1783408232967822,-3.146672658637426,8.961668164659358,0.6788888888888889,0.12222222222222222,-0.7266666666666667,0.02762784359709162,0.030350508600680195,0.031453104590250136
1589550438.2104778,-1.2160390077296424,-3.176831206183714,8.96920780154593,0.6788888888888889,0.12222222222222222,-0.7266666666666667,-0.005270028421782265,-0.024753427030933563,0.035565338592609366
1589550438.2204778,-1.1639698322631138,-3.447920631814867,8.775198420462832,0.6779185170691601,0.122591887677357,-0.7272673730312607,-0.001705331411850638,-0.015568578148876381,0.028817324256547948
1589550438.2304778,-0.9476111279104928,-3.373314182038101,8.961714544904748,0.6431021738400027,0.13585525652655983,-0.7488203474112153,0.015385101105896488,0.012915476047368833,0.00603008089955177
1589550438.2404778,-0.8376975617504566,-3.365079024700183,8.680820162549969,0.6322222222222222,0.14,-0.7555555555555555,0.006651691065701856,0.013124450420172195,-0.07151628461655152
1589550438.2504778,-0.6964673001676914,-3.3453269983230856,8.681168250419228,0.6322222222222222,0.14,-0.7555555555555555,-0.0072535064217875015,-0.01726671106692825,-0.17493962398754093
1589550438.2604778,-0.6696560128273651,-3.5203439871726347,8.615864029930519,0.6322222222222222,0.14,-0.7555555555555555,-0.013955661094437447,-0.030544591195942505,-0.3090039675978106
1589550438.2704778,-0.6427358794735762,-3.591788551162177,8.619363367236275,0.6322222222222222,0.13863163688353478,-0.7548187446466896,0.01678738600099222,0.0452064422451921,-0.4460687698692052
1589550438.2804778,-0.7172526151791676,-3.5071217449365677,9.368675272646339,0.6322222222222222,0.12555555555555556,-0.7477777777777778,0.002684711060059161,0.026329785376611313,-0.6352595454980493
1589550438.2904778,-0.40801903392896977,-2.708014572851867,8.536054425140648,0.6322222222222222,0.12555555555555556,-0.7477777777777778,0.004798747070675504,0.04537784683075271,-0.8172574296898706
1589550438.3004777,-0.9220654357396247,-3.102065435739625,9.752147711245032,0.6322222222222222,0.12555555555555556,-0.7477777777777778,-0.025492860383468808,0.015815950713280347,-1.0465260214630554
1589550438.3104777,-0.904967825804355,-3.0724517387065324,8.709258368540787,0.6322222222222222,0.12555555555555556,-0.7477777777777778,-0.04105631344613234,-0.016944261788854383,-1.2155877673103872
1589550438.3204777,-0.7918737367221433,-2.852909302025545,7.998735647013288,0.631992096599244,0.12555555555555556,-0.7478928405892669,0.017866347396298228,0.04311077903887415,-1.3225952403153105
1589550438.3304777,-7.889697888444504,-10.022884143981422,12.787737711263063,0.6159586098806845,0.12555555555555556,-0.7559095839485467,-0.029356168934754637,0.006710089367020888,-1.3580121275636006
1589550438.3404777,-20.46818344716545,-13.248929545277482,3.6923003609733294,0.6144444444444445,0.12555555555555556,-0.7566666666666667,-0.2113648023498862,0.8514189918636352,-2.5849086492026947
1589550438.3504777,2.9360625487602183,-0.5504453715952647,-1.0690325972660357,0.6144444444444445,0.12555555555555556,-0.7566666666666667,-1.3052241541544436,-1.226596349089731,-7.301419952409135
1589550438.3604777,-0.06586174146060131,0.8082454801397511,-0.18695057833859097,0.6144444444444445,0.12555555555555556,-0.7566666666666667,-1.2982404283718674,-0.5297757098949366,-5.79060727477855
1589550438.3704777,-2.1170933739622524,-1.4864049625322595,9.829307235471534,0.6143509564724701,0.1261249822939447,-0.7563947016572868,0.4640256306748068,1.3747945452817785,-4.993234848213979
1589550438.3804777,-1.8018928771192162,-0.5770790981156094,5.586705691746871,0.6022222222222222,0.2,-0.7211111111111111,1.6717907371018814,0.5812918724873605,-4.4553572933581975
1589550438.3904777,-2.050671394706424,1.2645826068216994,9.91204063240797,0.6022222222222222,0.2,-0.7211111111111111,0.5749550366934304,0.0342493895728621,-3.708239741135308
1589550438.4004776,1.1047293458456595,-0.5678506357384949,10.602284544403737,0.6022222222222222,0.2,-0.7211111111111111,-0.5024652568496435,-0.18804697714817148,-2.7724437457451505
1589550438.4104776,0.17690244135950217,-0.7622774533269506,8.305530493058878,0.6022222222222222,0.2,-0.7211111111111111,0.14467476141621258,0.2563019975109894,-2.2115180578050917
1589550438.4204776,0.24115213020584012,-1.1558067975107706,8.450092292963141,0.6022222222222222,0.2,-0.7211111111111111,0.23228168436546837,0.1949771514465104,-1.9005134813352333
1589550438.4304776,0.2720763960806182,-2.0605343344220506,8.390625746833427,0.5488888888888889,0.31222222222222223,-0.7333333333333333,-0.12255446475201226,-0.020026342744568486,-1.1622312317185122
1589550438.4404776,0.1385885008630992,-2.100613464347364,8.875705749568452,0.5488888888888889,0.31222222222222223,-0.7333333333333333,-0.016396210717970233,0.034712347345114615,-0.7616083187274755
1589550438.4504776,0.19779041929820562,-2.183713946966415,8.853626621674001,0.5488888888888889,0.31222222222222223,-0.7333333333333333,0.05488951362214166,0.076725180695482,-0.44462597462387293
1589550438.4604776,-0.18302773434285244,-2.5701378487367297,9.12022919924286,0.5488888888888889,0.31222222222222223,-0.7333333333333333,-0.012904812737097711,0.04074608922262367,-0.20989008053784225
1589550438.4704776,0.05859929223932189,-2.302622212163608,9.301449469179492,0.5488888888888889,0.31222222222222223,-0.7333333333333333,-0.030790204776739064,-0.024206123973968596,0.04991877224852678
1589550438.4804776,-0.0073057876818322515,-2.220424791086351,9.201771897245434,0.5162486674232264,0.34915720967020875,-0.7230258949757556,-0.009708934146592952,-0.03401697219188963,0.19204175521975406
1589550438.4904776,-0.21237639040699544,-2.3618819520349774,9.040789558284576,0.5066666666666667,0.36,-0.72,0.030780743619508756,0.010314182732794079,0.36216795337882995
1589550438.5004776,-0.23118875847959514,-2.4516345429094435,8.756686766447723,0.5066666666666667,0.36,-0.72,0.015811349641886015,-0.002716564481272535,0.5184429645508474
1589550438.5104775,-0.29140626682459353,-2.534433616883816,9.095410250888339,0.5066666666666667,0.36,-0.72,-0.0121056728509976,-0.029812498077306637,0.6440695657688237
1589550438.5204775,-0.24520927114261085,-2.356371995019634,8.700185805957284,0.5066666666666667,0.36,-0.72,-0.007600293739514383,-0.02000532044102757,0.8555107608330912
1589550438.5304775,6.737930695453268,-21.658734901079498,6.853822986476183,0.5111111111111111,0.3622222222222222,-0.7055555555555556,-0.1522484197939473,-0.19293326930908367,-0.06269155837398205
1589550438.5404775,-0.6748725170471391,-8.39716572783872,11.532685294989623,0.5111111111111111,0.3622222222222222,-0.7055555555555556,-0.26139246878578565,-0.13513567797809062,-1.7662505326245903
1589550438.5504775,-0.9702019715386896,-2.7703624369997044,8.664880855321671,0.5111111111111111,0.3622222222222222,-0.7055555555555556,0.29220453736957497,0.4676322720624322,-1.6458664975954
1589550438.5604775,-1.426763963963964,-2.155607207207207,8.124749549549549,0.5111111111111111,0.3622222222222222,-0.7055555555555556,0.013551066509910035,0.014430413702863024,-1.002134250568191
1589550438.5704775,-0.7634012012012013,-2.474693093093093,10.551481681681683,0.5111111111111111,0.3622222222222222,-0.7055555555555556,-0.2117776224895137,-0.11838527696752904,-0.5221658235938085
1589550438.5804775,-0.4830008754798303,-3.182995487911644,7.956012526096033,0.5333333333333333,0.38333333333333336,-0.7266666666666667,0.023235085013470373,0.06228659194983468,-0.46153087872823334
1589550438.5904775,-0.574801501784632,-2.7098691831099737,9.269467640918581,0.5333333333333333,0.38333333333333336,-0.7266666666666667,0.06406096423165324,0.07846288371552977,-0.5008161587306357
1589550438.6004775,-0.24841816519353857,-5.220106674794271,8.544932947272175,0.5333333333333333,0.38333333333333336,-0.7266666666666667,0.04759293706625043,0.041393055191214195,-0.20864690414804504
1589550438.6104774,-0.12058213959158792,-4.117520953977445,8.48900468607132,0.5333333333333333,0.38333333333333336,-0.7266666666666667,-0.029103172444986593,-0.00741355995230028,-0.06745633891144961
1589550438.6204774,-0.10777421849110792,-3.7689671931956257,8.59661327736662,0.5333333333333333,0.38333333333333336,-0.7266666666666667,-0.0007458569030877119,0.013561582300892088,-0.009106563354549284
1589550438.6304774,0.12990545821252994,-3.9099527291062652,8.920047270893734,0.5133333333333333,0.3955555555555556,-0.7144444444444444,0.0032467100744882228,-0.004342697311584908,-0.0010753614186957687
1589550438.6404774,0.11228160847094415,-3.901140804235472,8.928859195764527,0.5133333333333333,0.3955555555555556,-0.7144444444444444,-0.001559449376565273,-0.0004977697507421116,0.0018083342519363288
1589550438.6504774,0.1322966536394724,-3.77365229604299,8.922567782120176,0.5133333333333333,0.3955555555555556,-0.7144444444444444,0.014032922526072512,-0.000810729204553271,0.00056020315588637
1589550438.6604774,0.0891224504968898,-3.8317550990062204,8.869122450496889,0.5133333333333333,0.3955555555555556,-0.7144444444444444,0.0037781549032276686,0.002873369012930679,0.0015856799181708538
1589550438.6704774,0.09085384771025831,-3.87,8.856951282570085,0.5133333333333333,0.3955555555555556,-0.7144444444444444,-0.009006067269745812,-0.0009445479737108763,0.0006651269639367117
1589550438.6804774,0.07216741522348835,-3.8922660678212093,8.826600898268186,0.5133333333333333,0.3887520348324083,-0.7144444444444444,-0.008355861779781676,-0.003272492347489368,0.0006072128046132233
1589550438.6904774,0.05713921807509137,-3.8957215638498175,8.8,0.5133333333333333,0.38333333333333336,-0.7144444444444444,0.0015547570428560073,-0.00015742081178346263,0.001090830782496456
