time,acc_x,acc_y,acc_z,mag_x,mag_y,mag_z,gyr_x,gyr_y,gyr_z
1589551955.6048956,-0.21,-4.15,8.89,0.4622222222222222,0.3944444444444444,-0.6411111111111111,-0.030543261909900768,0.15271630954950385,-0.015271630954950384
1589551955.6148956,-0.19498725938660855,-4.139974518773217,8.91007644368035,0.4622222222222222,0.3944444444444444,-0.6411111111111111,0.01963495408493621,0.010872173406448804,0.05802172902897085
1589551955.6248956,-0.19824261474805147,-4.146485229496103,8.931757385251949,0.45581129964040434,0.3944444444444444,-0.6292051120305924,0.00884539661041566,-0.06980809677369941,-0.05619389741889143
1589551955.6348956,-0.18376852882261296,-4.1581157355886935,8.938115735588694,0.4544444444444444,0.3944444444444444,-0.6266666666666667,-0.01824311907271816,-0.05389412996288088,-0.11344484755879725
1589551955.6448956,-0.1876363511941422,-4.16,8.878909190446862,0.4544444444444444,0.3944444444444444,-0.6266666666666667,-0.005672349928169486,-0.10021751211790045,0.023145200216196954
1589551955.6548955,-0.1587169708526287,-4.183462271860529,8.922566058294741,0.4544444444444444,0.3944444444444444,-0.6266666666666667,0.020474694698211875,-0.045057462283379215,0.04421980170700833
1589551955.6648955,-0.11264455047526017,-4.20867772476237,9.10809952286133,0.4544444444444444,0.3944444444444444,-0.6266666666666667,0.05334558827030082,-0.008789718303186964,0.027580269283244446
1589551955.6748955,-0.20605378879612518,-4.15500987827417,8.954681664648525,0.4611497744637761,0.38516014134075444,-0.64007732670533,0.047532442116801785,0.026409839831327584,0.0005486480489109713
1589551955.6848955,-0.2832847195898091,-4.110025736687748,8.780102946750992,0.4688888888888889,0.3744444444444445,-0.6555555555555556,-0.01603129297226422,0.02797428283725489,-0.05238420868156704
1589551955.6948955,-0.19094568637868325,-4.152545261351097,8.939708202215048,0.4688888888888889,0.3744444444444445,-0.6555555555555556,-0.07106640621355635,-0.0074689966950115955,-0.054247399539923066
1589551955.7048955,-0.2102214845036872,-4.133185676997542,8.86252122348648,0.4688888888888889,0.3744444444444445,-0.6555555555555556,-0.0356015919462885,-0.06691596266432231,0.007723195830316512
1589551955.7148955,-0.18768905112642287,-4.146155474436789,8.955399269931098,0.4688888888888889,0.3744444444444445,-0.6555555555555556,-0.0505174085979175,-0.060316413356361204,-0.02383329898438787
1589551955.7248955,-0.19378187076642056,-4.15,8.971624172311438,0.4719515268369824,0.38005928068261585,-0.6458572020532596,-0.043871173382409034,-0.035111567245684885,-0.018516310811981095
1589551955.7348955,-0.19477610261026101,-4.15,8.939850735073508,0.4755555555555556,0.38666666666666666,-0.6344444444444445,-0.01621592123853811,0.0007001379392305856,-0.014327340671362654
1589551955.7448955,-0.18509190526687874,-4.160183810533757,8.879080947331213,0.4755555555555556,0.38666666666666666,-0.6344444444444445,0.04455555976635931,0.016911925811344843,-0.06732265186692603
1589551955.7548954,-0.19,-4.154961802362594,8.850050930183206,0.4755555555555556,0.38666666666666666,-0.6344444444444445,0.005229151255499928,0.009873033254068693,-0.0347176939204446
1589551955.7648954,-0.19,-4.151130566882546,8.886695850323818,0.4755555555555556,0.38666666666666666,-0.6344444444444445,0.021514319376471622,0.004922649731740829,0.0016310567253111294
1589551955.7748954,-0.1962772447099193,-4.153722755290081,8.925108978839678,0.47137072574894273,0.39573379791432783,-0.6253773131967832,-0.02538106829835736,0.03156942057445421,-0.02425315328960205
1589551955.7848954,-0.2,-4.143042377368046,8.960872867895864,0.4688888888888889,0.4011111111111111,-0.62,-0.05548264212710089,-0.03563312760581286,-0.05369288919763511
1589551955.7948954,-0.20691609485975682,-4.1469160948597565,8.914671241121946,0.4688888888888889,0.4011111111111111,-0.62,0.01639458130039359,0.02666220495684965,-0.17098827011210946
1589551955.8048954,-0.1954107513958787,-4.157294624302061,8.904589248604122,0.4688888888888889,0.4011111111111111,-0.62,-0.006881856095647537,0.0858171836039577,-0.12715895740638516
1589551955.8148954,-0.19,-4.143248332257371,8.921167778495086,0.4688888888888889,0.4011111111111111,-0.62,-0.0118161206603798,0.05886534790539604,-0.07553821246288187
1589551955.8248954,-0.1937842267432967,-4.137568453486593,8.93,0.46342278359301586,0.3956450058152381,-0.6120110768752626,0.03414430740690935,-0.02397556001609072,-0.05365621198463971
1589551955.8348954,-0.22601564909034844,-4.131789045636756,8.862359312365093,0.4544444444444444,0.38666666666666666,-0.5988888888888889,0.049540720761865525,-0.12031948883483257,-0.04712730390574093
1589551955.8448954,-0.2634919060607134,-4.098883496865148,8.737980588714533,0.4544444444444444,0.38666666666666666,-0.5988888888888889,-0.06344963632009973,-0.09455525702736695,-0.05475405619130045
1589551955.8548954,-0.1246307752663186,-4.177895102151673,8.985948939252195,0.4544444444444444,0.38666666666666666,-0.5988888888888889,-0.010196142174829417,0.05438119157551115,-0.018371727466729403
1589551955.8648953,-0.24080839068070642,-4.11378741397894,8.785404195340352,0.4544444444444444,0.38666666666666666,-0.5988888888888889,-0.012978905614076063,-0.009520281954889681,-0.007436569957714002
1589551955.8748953,-0.23864844691967618,-4.111351553080324,8.852433541941782,0.4626427883357894,0.3841440993154836,-0.6228532787251281,0.020519543507453282,0.007459386108795596,-0.007606817679215103
1589551955.8848953,-0.23603570225665207,-4.132071404513304,8.851714381946783,0.4688888888888889,0.38222222222222224,-0.6411111111111111,-0.030441857633723934,0.016736481857548356,0.06842216794352138
1589551955.8948953,-0.16640262379237816,-4.174634059391821,8.967194752415244,0.4688888888888889,0.38222222222222224,-0.6411111111111111,-0.04779706200839005,0.039096898075710824,0.07390393134192835
1589551955.9048953,-0.12169087878066207,-4.19243153131698,9.060064301024052,0.4688888888888889,0.38222222222222224,-0.6411111111111111,0.014270425468943877,0.015048476955863824,-0.04390730285868981
1589551955.9148953,-0.17306692603782955,-4.154079922188651,8.959172840528124,0.4688888888888889,0.38222222222222224,-0.6411111111111111,0.07675961445431645,-0.04628935752663069,-0.0623405886859086
1589551955.9248953,-0.16836635785170287,-4.143129801193498,8.979389403580495,0.4796369684114895,0.38222222222222224,-0.6452909198143446,0.06160613488259237,0.03261332649760686,-0.016903687296966445
1589551955.9348953,-0.219665489299813,-4.124832744649907,8.89550176605028,0.4888888888888889,0.38222222222222224,-0.6488888888888888,0.006041838146642539,0.034180648826228545,-0.026544833348753356
1589551955.9448953,-0.23942399813062273,-4.120576001869377,8.799896015889708,0.4888888888888889,0.38222222222222224,-0.6488888888888888,-0.009834937472097974,-0.030548487293950575,-0.01938362585697932
1589551955.9548953,-0.17309534568459106,-4.167678490736557,8.934305241753277,0.4888888888888889,0.38222222222222224,-0.6488888888888888,0.030543261909900768,0.007332670004707317,-0.08132308611532829
1589551955.9648952,-0.14571681415929205,-4.179044247787611,9.02332743362832,0.4888888888888889,0.38222222222222224,-0.6488888888888888,0.1054070750463301,0.09189428806103328,-0.08144354996253184
1589551955.9748952,-0.14866633583524597,-4.165666832082377,9.035334656659016,0.4926667769438069,0.3847408142588342,-0.6407034647698998,0.17467840539187557,0.08799278091863694,-0.07708609705861127
1589551955.9848952,-0.15309060277049794,-4.17,9.004546986147512,0.4955555555555556,0.38666666666666666,-0.6344444444444445,0.0678125308825607,-0.01846285212096585,-0.06886180717905228
1589551955.9948952,-0.18481250713226066,-4.151390619650805,8.883156225037087,0.4955555555555556,0.38666666666666666,-0.6344444444444445,0.03932786672428646,-0.04323098200275005,-0.050481602139205384
1589551956.0048952,-0.2121193400857218,-4.146059670042861,8.860298350214306,0.4955555555555556,0.38666666666666666,-0.6344444444444445,0.0038426037736213475,-0.054108346381779825,0.019426206638303745
1589551956.0148952,-0.2555729467828445,-4.104263354136343,8.813935955974717,0.4955555555555556,0.38666666666666666,-0.6344444444444445,-0.059369139045492514,-0.05430940072948085,0.0959744690578697
1589551956.0248952,-0.18811373209772536,-4.142479359730412,8.96347598989048,0.4858521014696247,0.3845103435364598,-0.6344444444444445,-0.10473142618194933,-0.08852169913367765,0.09957741155637803
1589551956.0348952,-0.12582686335403725,-4.199448757763975,9.088162525879918,0.4755555555555556,0.38222222222222224,-0.6344444444444445,-0.060499468278341545,-0.10130116936380035,-0.023500289248999717
1589551956.0448952,-0.19743163538873995,-4.14256836461126,8.873415549597855,0.4755555555555556,0.38222222222222224,-0.6344444444444445,0.0007480818074064167,-0.03219149844881498,-0.09698860161669023
1589551956.0548952,-0.22900413591760604,-4.064804963101127,8.704589246614225,0.4755555555555556,0.38222222222222224,-0.6344444444444445,-0.017056803705804206,0.012504259341225898,-0.06224343607132116
1589551956.0648952,-0.13974615349495503,-3.99734359068012,8.954433334855194,0.4755555555555556,0.38222222222222224,-0.6344444444444445,-0.06036657450729783,-0.04008383537063667,-0.0032003280867105993
1589551956.0748951,-0.1205967219102406,-4.0484087415726915,9.037414205055622,0.4755555555555556,0.38222222222222224,-0.6344444444444445,-0.00605572196351524,-0.019195045930720293,0.0845325875609382
1589551956.0848951,-0.20361340122858068,-4.039084020368574,8.89457989815713,0.4811111111111111,0.3944444444444444,-0.6266666666666667,0.02952755138497682,0.07447900213432619,-0.0009826470312740872
1589551956.0948951,-0.14,-4.027404628777691,8.941869912945007,0.4811111111111111,0.3944444444444444,-0.6266666666666667,-0.027395610200481806,0.03343235375729265,-0.03213824196054797
1589551956.104895,-0.2077964234806272,-3.993064014513412,8.833924452507452,0.4811111111111111,0.3944444444444444,-0.6266666666666667,0.03573986837056128,0.00485664947842597,-0.13672928471218795
1589551956.114895,-0.23383992203203996,-3.9017865627093866,8.898391301699458,0.4811111111111111,0.3944444444444444,-0.6266666666666667,0.07152745613620301,0.09109363944329406,-0.11746932577058275
1589551956.124895,-0.20907735321528426,-3.7863839701770736,8.998014911463187,0.47949570259915086,0.39218287252770007,-0.6289282385834111,0.029368051859047173,0.09315471226627703,-0.11537187528647978
1589551956.134895,-0.30255711344249436,-3.6348857731150113,8.927519037814164,0.4755555555555556,0.38666666666666666,-0.6344444444444445,-0.05373795296155613,-0.039098958939488046,-0.16911025161446464
1589551956.144895,-0.37559588720984577,-3.542202056395077,8.904404112790154,0.4755555555555556,0.38666666666666666,-0.6344444444444445,-0.10161191126483146,-0.11891540360799166,-0.1338465216823645
1589551956.154895,-0.5263501483679525,-3.3870623145400596,8.913175074183975,0.4755555555555556,0.38666666666666666,-0.6344444444444445,-0.06968693150257033,-0.10867738846307916,-0.15242175286936385
1589551956.164895,-0.6985747279819339,-3.2071417573393552,9.010002566208172,0.4755555555555556,0.38666666666666666,-0.6344444444444445,0.012776783832716396,-0.04066944563142274,-0.1882517850728529
1589551956.174895,-0.722581208771617,-3.165627741130326,9.043906935282582,0.4755555555555556,0.38903619183455157,-0.6344444444444445,-0.0022678545054105326,0.03336946463719529,-0.272895406423056
1589551956.184895,-0.4920963639084244,-2.751805576337972,9.063580727218314,0.4755555555555556,0.3944444444444444,-0.6344444444444445,-0.026503776618082373,0.06411613778866532,-0.2311029666966342
1589551956.194895,-0.41631115233016464,-2.813498029214004,9.01116438673777,0.4755555555555556,0.3944444444444444,-0.6344444444444445,-0.10838449635668629,0.12478965047439869,-0.19688961969307708
1589551956.204895,-0.3556912327399767,-3.0360805190484115,9.087248377973713,0.4755555555555556,0.3944444444444444,-0.6344444444444445,-0.07980486065596222,0.14467635496828224,0.1183296430243157
1589551956.214895,-0.25699068173450024,-2.9349534086725013,8.985346248619253,0.4755555555555556,0.3944444444444444,-0.6344444444444445,-0.016955811644769593,0.09942465173167099,0.44617410487453457
1589551956.224895,-0.23323165377970376,-2.8161582688985187,8.593322287365112,0.4755555555555556,0.3944444444444444,-0.6344444444444445,-0.00010971025883380059,0.08776196615679237,0.5777032810801102
1589551956.234895,0.02653477849100285,-2.860857974674664,8.95996667718966,0.4688888888888889,0.38666666666666666,-0.6488888888888888,0.03153686721909674,0.008434969840070201,0.6405121202720206
1589551956.244895,0.15678358888188756,-2.8103507666456626,8.798674181427804,0.4688888888888889,0.38666666666666666,-0.6488888888888888,-0.02936941403991753,-0.04734802321128359,0.6903129982437448
1589551956.254895,0.18652292263610315,-2.85,8.966091690544413,0.4688888888888889,0.38666666666666666,-0.6488888888888888,-0.05748178129414777,-0.03653449630793885,0.7360922473764844
1589551956.264895,0.1816741938039775,-2.9187217732350845,8.992511290705966,0.4688888888888889,0.38666666666666666,-0.6488888888888888,0.018423251196479744,-0.07411359390685417,0.8184205134970362
1589551956.274895,0.15412886867629896,-3.038162353604057,8.992291222280356,0.4688888888888889,0.39090692817822853,-0.646605671151894,0.09063005141252077,-0.09713596340671381,0.8153555543051187
1589551956.284895,0.1374244707300535,-3.13,9.049395765840428,0.4688888888888889,0.4011111111111111,-0.6411111111111111,0.03537125446234081,-0.06113349208561912,0.6353784404688955
1589551956.294895,0.09605376584025274,-3.166557482941266,8.979555004873925,0.4688888888888889,0.4011111111111111,-0.6411111111111111,-0.024470880448932558,-0.1259474679379002,0.5462635148399321
1589551956.304895,0.03201639517540254,-3.2355208051957205,8.959851198515508,0.4688888888888889,0.4011111111111111,-0.6411111111111111,-0.021246852672716213,-0.08779647258600679,0.5355167555858776
1589551956.314895,-0.023521372724942324,-3.2767203922071264,8.95,0.4688888888888889,0.4011111111111111,-0.6411111111111111,0.00015823477801722372,-0.1064760143506879,0.4850592745498837
1589551956.324895,-0.07113533151680292,-3.290189221919467,8.950378443838934,0.4688888888888889,0.40060651932586533,-0.6413844316614525,0.04009554454778375,-0.1770942143709895,0.395641319495049
1589551956.334895,-0.16465315835015865,-3.3154014037111814,8.935346841649842,0.4688888888888889,0.3744444444444445,-0.6555555555555556,0.07282294431264341,-0.0024681868700386043,0.41463898083916617
1589551956.344895,-0.22,-3.364610832497492,8.871796389167503,0.4688888888888889,0.3744444444444445,-0.6555555555555556,0.024507696284461,-0.04539683224098766,0.5076772961546185
1589551956.3548949,-0.23944168865435356,-3.411665013192612,8.875553350923482,0.4688888888888889,0.3744444444444445,-0.6555555555555556,-0.03538947481657293,-0.03466405795530537,0.5610502717319312
1589551956.3648949,-0.2719200863292337,-3.431920086329234,8.913440604304636,0.4688888888888889,0.3744444444444445,-0.6555555555555556,-0.05043973287087953,-0.02887615229425538,0.5625369582055898
1589551956.3748949,-0.27812026963103126,-3.4381202696310313,8.95684188741722,0.4688888888888889,0.3744444444444445,-0.6555555555555556,-0.03014968046271573,-0.005880759565003061,0.5544209372423242
1589551956.3848948,-0.28164380149851603,-3.4227396691641934,8.997808264668645,0.4811111111111111,0.38222222222222224,-0.6133333333333333,0.09076325208844808,-0.0444549598495087,0.6404673215010138
1589551956.3948948,-0.30775969780618917,-3.4662661630103155,8.96298706959175,0.4811111111111111,0.38222222222222224,-0.6133333333333333,-0.026987245478452937,-0.14416304246664263,0.4695391798716414
1589551956.4048948,-0.30102102462885094,-3.4220420492577017,8.89469218227066,0.4811111111111111,0.38222222222222224,-0.6133333333333333,-0.07820486304823802,-0.005498375011053575,0.5366887449882564
1589551956.4148948,-0.2722263794730971,-3.364452758946194,8.973877456448983,0.4811111111111111,0.38222222222222224,-0.6133333333333333,-0.1261052431413502,-0.01963291339918503,0.5366887449882564
1589551956.4248948,-0.27315854208519535,-3.3631585420851953,8.931054897298184,0.4844451277565951,0.3780108327752951,-0.6189485192625694,-0.05672185900954533,-0.05253013678614139,0.3993026083761672
1589551956.4348948,-0.2893264813517091,-3.3803367593241456,8.988989722027563,0.5022222222222222,0.3555555555555556,-0.6488888888888888,-0.025306416302099417,-0.0005030748831835637,0.427888333159552
1589551956.4448948,-0.3007773510907754,-3.4319691151237848,8.93481853092573,0.5022222222222222,0.3555555555555556,-0.6488888888888888,-0.08790495378033975,-0.011106259877250255,0.3763138746376648
1589551956.4548948,-0.3761712558215541,-3.53477898521121,8.873132608873274,0.5022222222222222,0.3555555555555556,-0.6488888888888888,0.004056546469036998,-0.07839516249874542,0.30678200859545324
1589551956.4648948,-0.39100335695635957,-3.512006713912719,8.931995524058188,0.5022222222222222,0.3555555555555556,-0.6488888888888888,0.07046742442451555,-0.019191053904517093,0.3160284472369311
1589551956.4748948,-0.3720185786377809,-3.47,8.955962842724439,0.5033436547987672,0.35645270161679155,-0.6515803270725966,0.03588321711907581,-0.04628294275445756,0.2282443586132338
1589551956.4848948,-0.38,-3.466669845285589,8.949990464143232,0.5077777777777778,0.36,-0.6622222222222223,-0.08510560504692258,0.03308922720279913,0.24180533098935755
1589551956.4948947,-0.37595272017307796,-3.4438108806923116,8.939645401298085,0.5077777777777778,0.36,-0.6622222222222223,-0.044100508187215434,0.0228042978512302,0.20210490934074807
1589551956.5048947,-0.3686722452606635,-3.408907484202212,8.84601673578199,0.5077777777777778,0.36,-0.6622222222222223,-0.012917749956583471,0.0025061212541981435,0.09583174065077468
1589551956.5148947,-0.39,-3.4653517403904335,8.907907391484347,0.5077777777777778,0.36,-0.6622222222222223,0.07301281531567709,0.04137483188579891,0.13721446504735418
1589551956.5248947,-0.39,-3.4186014776599474,8.90122878252285,0.5077777777777778,0.36,-0.6622222222222223,0.020559143191574078,0.05157415702104114,0.1678124404530809
1589551956.5348947,-0.44605717734027306,-3.5252327072490006,8.989640944406728,0.5066666666666667,0.3555555555555556,-0.6555555555555556,0.03374178149783185,0.06203665002071324,0.13177946780969407
1589551956.5448947,-0.5044903395086269,-3.6077548302456863,9.11141905859903,0.5066666666666667,0.3555555555555556,-0.6555555555555556,-0.056633085942021016,0.04837518381530866,0.09389865651404801
1589551956.5548947,-0.5209055227616899,-3.5963779089532406,8.852677318663659,0.5066666666666667,0.3555555555555556,-0.6555555555555556,-0.029538363929103587,0.04673385804394904,0.05873758153215982
1589551956.5648947,-0.5250174167479449,-3.552526125121917,9.007404207886303,0.5066666666666667,0.3555555555555556,-0.6555555555555556,-0.04207108015279142,-0.018551722792355427,0.2587074593320566
1589551956.5748947,-0.49649356884239165,-3.517337720789742,9.073116961052989,0.506197693362583,0.35593073419882254,-0.6573376541110734,0.027525742611429642,-0.0016858769995891,0.3175310193581575
1589551956.5848947,-0.3622518053249585,-3.3914860674921483,8.905314756656198,0.5015365210182277,0.3596596720743067,-0.6750501090196235,0.08426932368873213,0.10081865655940894,0.11252195224016143
1589551956.5948946,-0.365765839076642,-3.249219463588807,8.852673088100971,0.5011111111111111,0.36,-0.6766666666666666,0.10371086119059238,-0.003947225940860838,0.047832680722985924
1589551956.6048946,-0.3866624595200532,-3.318874865066844,8.971087270613635,0.5011111111111111,0.36,-0.6766666666666666,0.11586802216649511,0.0173278057669689,0.023518358771180508
1589551956.6148946,-0.42,-3.395254829950577,8.87780312945635,0.5011111111111111,0.36,-0.6766666666666666,-0.10192079213570376,-0.07159415787001505,0.013419726698061093
1589551956.6248946,-0.42,-3.3706745326326892,8.607419858959583,0.5011111111111111,0.36,-0.6766666666666666,-0.1439277392354224,-0.07516921719765068,0.13944056799721696
1589551956.6348946,-0.5172468518979043,-3.481403024890919,9.072468518979043,0.4866666666666667,0.3555555555555556,-0.6911111111111111,0.04047119564928749,0.0596816349807615,0.09605520530149234
1589551956.6448946,-0.5301376847348512,-3.5326608867272857,9.179679753765184,0.4866666666666667,0.3555555555555556,-0.6911111111111111,0.034416184057948024,0.14831805297442643,0.029832803290723547
1589551956.6548946,-0.49,-3.3557548746518107,8.715601671309193,0.4866666666666667,0.3555555555555556,-0.6911111111111111,0.05189680621929378,0.09533192563330586,-0.02089047296885692
1589551956.6648946,-0.49311609984922095,-3.4340224493214944,8.835580499246104,0.4866666666666667,0.3555555555555556,-0.6911111111111111,0.05448598332688698,0.06989083854728215,-0.030827619875651226
1589551956.6748946,-0.505892109231027,-3.491514491539621,8.899460546155135,0.4866666666666667,0.3555555555555556,-0.6911111111111111,0.03636857972240823,-0.04160087594181784,-0.014103862702286224
1589551956.6848946,-0.5151819244042282,-3.461400233689302,8.881764082497758,0.4866666666666667,0.35,-0.7055555555555556,0.0457475477509186,0.024863003891310416,-0.01970229919886876
1589551956.6948946,-0.55831831155175,-3.534774673276251,9.029639477242002,0.4866666666666667,0.35,-0.7055555555555556,0.06565942672608494,0.004929958678411957,0.032862567737669254
1589551956.7048945,-0.5504425792398979,-3.416638688598468,8.84062190175755,0.4866666666666667,0.35,-0.7055555555555556,-0.01509683093433628,-0.07926273547819739,0.10502773415762012
1589551956.7148945,-0.54,-3.5355890944498536,8.911933509528447,0.4866666666666667,0.35,-0.7055555555555556,-0.026674294975404366,0.008716783413836963,0.0921092717879425
1589551956.7248945,-0.5394502503444336,-3.648625625861084,9.010549749655565,0.4868499165518555,0.35,-0.7062885550963108,0.05776546294558722,-0.0846536224838816,0.16331337559301815
1589551956.7348945,-0.5173772542058337,-3.581640779440836,9.016886271029168,0.4933333333333334,0.35,-0.7322222222222222,0.025464013691374486,-0.07823814025897617,0.17887930517973302
1589551956.7448945,-0.5109099071627025,-3.5354594429762143,8.977270278511893,0.4933333333333334,0.35,-0.7322222222222222,0.03866653985231957,0.010813949520847414,0.16205318016518488
1589551956.7548945,-0.5180155180592262,-3.5780931083553567,8.95595344582232,0.4933333333333334,0.35,-0.7322222222222222,-0.034193039634761,0.05266945263044689,0.2945956066789166
1589551956.7648945,-0.5358797700648579,-3.596815264207545,8.861982436441034,0.4933333333333334,0.35,-0.7322222222222222,0.09593490099276444,0.08101067082146687,-0.0342677792943106
1589551956.7748945,-0.5007333791415978,-3.4843468132531132,8.622986978162865,0.4933333333333334,0.35,-0.7322222222222222,0.0023883141176641587,-0.00026751121755469454,0.10145144920481033
1589551956.7848945,-0.5127275658825848,-3.6090918862752828,9.10091026353034,0.48,0.3533333333333333,-0.7411111111111112,-0.052954940125032005,0.039368029980705904,0.028560189040723417
1589551956.7948945,-0.5352698901807629,-3.6842329672692093,9.191079560723052,0.48,0.3533333333333333,-0.7411111111111112,-0.057872912375726095,-0.04095885011396415,0.04823207804349976
1589551956.8048944,-0.501832605431964,-3.541832605431964,8.683559437696193,0.48,0.3533333333333333,-0.7411111111111112,0.058825100743723255,0.08975086804299608,-0.0768613073587965
1589551956.8148944,-0.4588992766480142,-3.4988992766480145,8.912537191210593,0.48,0.3533333333333333,-0.7411111111111112,0.0010644048968825454,0.07413986916547156,0.09251803046234448
1589551956.8248944,-0.4788519611246095,-3.5188519611246094,8.98885196112461,0.48,0.3533333333333333,-0.7411111111111112,0.0835095141653808,0.11496565112443079,-0.1388408738428893
1589551956.8348944,-0.47144517922581186,-3.5371096415483763,8.972890358451624,0.47524732179211776,0.3533333333333333,-0.7515670031684522,0.01074519551807511,0.05326223322039379,-0.0813212257756752
1589551956.8448944,-0.52831354207057,-3.60831354207057,8.930047499030632,0.4744444444444445,0.3533333333333333,-0.7533333333333333,0.03307212615755432,-0.0007591721212614668,-0.1776706762591561
1589551956.8548944,-0.5600266748969378,-3.630053349793876,8.858257754458675,0.4744444444444445,0.3533333333333333,-0.7533333333333333,0.07597223620158328,0.06400219539282202,-0.10555652123830236
1589551956.8648944,-0.5091051386145062,-3.5317897227709873,8.983892495061111,0.4744444444444445,0.3533333333333333,-0.7533333333333333,0.10453418861266627,0.040531480978328954,-0.23072649407085796
1589551956.8748944,-0.5000036543029417,-3.5500054814544124,8.820010962908825,0.4744460685790853,0.3533329949719498,-0.7533351604848042,-0.030543926280923665,-0.06871489834182026,-0.12543843121714746
1589551956.8848944,-0.5581377039793874,-3.6381377039793876,8.99255081591755,0.5011111111111111,0.3477777777777778,-0.7833333333333333,-0.04145156973486533,0.05020038862167843,-0.061544341720500016
1589551956.8948944,-0.5505347407204562,-3.6219788891931586,8.948770444870423,0.5011111111111111,0.3477777777777778,-0.7833333333333333,-0.04098492042404307,0.02958098779857705,-0.2803264299553772
1589551956.9048944,-0.5592031208728692,-3.485578153889916,8.761156307779832,0.5011111111111111,0.3477777777777778,-0.7833333333333333,-0.024206172713221744,-0.08503708259039101,-0.05772194130222313
1589551956.9148943,-0.550681065485503,-3.545232541601479,8.880465083202958,0.5011111111111111,0.3477777777777778,-0.7833333333333333,0.06689580668423012,-0.09619242700640553,0.04825383064991473
1589551956.9248943,-0.6240232270214658,-3.7451521439656825,8.957293842746788,0.5011111111111111,0.3477777777777778,-0.7833333333333333,0.024260280514102575,-0.07065770939154294,-0.0688013930007321
1589551956.9348943,-0.5722218398320543,-3.720302508861892,8.98202016725746,0.5268239055037417,0.3052186698175617,-0.7780134448383063,0.141885749274202,-0.054332172594417624,-0.20815068786970514
1589551956.9448943,-0.534838499527162,-3.5838694966901334,8.90419249763581,0.5333333333333333,0.29444444444444445,-0.7766666666666666,-0.052081559255105936,0.002780638501335246,-0.0617703877244655
1589551956.9548943,-0.6150667524529516,-3.537093453434132,8.89695994852823,0.5333333333333333,0.29444444444444445,-0.7766666666666666,-0.06501365500426923,0.028096832184897058,-0.09029138180355095
1589551956.9648943,-0.6617507876691172,-3.595331232882354,8.882839109573526,0.5333333333333333,0.29444444444444445,-0.7766666666666666,-0.13236044707506456,-0.004927663686165855,0.06782765633695771
1589551956.9748943,-0.6876623216161116,-3.526233809023702,9.072857025184819,0.5333333333333333,0.29444444444444445,-0.7766666666666666,-0.040969960789894594,-0.029424082690438218,-0.058423118531215235
1589551956.9848943,-0.6108522836770091,-3.498295432645982,8.78852283677009,0.5188888888888888,0.2877777777777778,-0.7677777777777778,-0.028460824112365616,-0.03376614237366124,0.17645422948477238
1589551956.9948943,-0.62,-3.476374597520038,8.875468246900049,0.5188888888888888,0.2877777777777778,-0.7677777777777778,-0.07299665924428295,-0.005071836293570733,0.1377445692522337
1589551957.0048943,-0.62,-3.4451149106518435,8.833580437456291,0.5188888888888888,0.2877777777777778,-0.7677777777777778,-0.03435994641977238,0.03975264952298675,0.1337145145092033
1589551957.0148942,-0.618960534742235,-3.5368816042267053,8.901039465257766,0.5188888888888888,0.2877777777777778,-0.7677777777777778,0.05048685683703467,-0.01131881018715763,0.20321892807051548
1589551957.0248942,-0.6021725904578931,-3.4865177713736792,8.917827409542108,0.5188888888888888,0.2877777777777778,-0.7677777777777778,-0.050233578364041485,-0.0003311263470402292,0.15560563143000677
1589551957.0348942,-0.5763048986486486,-3.4819092530030034,8.955604354354353,0.5522222222222222,0.2488888888888889,-0.7977777777777778,-0.024915287551784196,0.031022752467822448,0.2383150478912397
1589551957.0448942,-0.6610123413412974,-3.6440493653651895,9.01835807457508,0.5522222222222222,0.2488888888888889,-0.7977777777777778,-0.03278150352470387,0.0161712585377919,0.261384595190126
1589551957.0548942,-0.6794334402037859,-3.7177337608151437,8.806515437656463,0.5522222222222222,0.2488888888888889,-0.7977777777777778,0.045586273053086324,-0.10640398175054662,0.2935354778887066
1589551957.0648942,-0.6450544774676037,-3.5627451486042165,8.896100186964091,0.5522222222222222,0.2488888888888889,-0.7977777777777778,-0.03396069670099307,-0.012968797225800341,0.42508411830805115
1589551957.0748942,-0.6456963464910203,-3.5684817324551013,8.955570771928162,0.5522222222222222,0.2488888888888889,-0.7977777777777778,-0.04208664280474883,0.009790080922735216,0.5657576304394002
1589551957.0848942,-0.628472242566281,-3.541562545774132,9.119166544602315,0.5312924580505509,0.20344140097325977,-0.7624961753169605,-0.02752833792646359,0.06919952783278656,0.42763618507454987
1589551957.0948942,-0.5780019199720732,-3.448803071955317,8.775627263603438,0.5133333333333333,0.16444444444444445,-0.7322222222222222,0.013262659274274669,0.001446682374325381,0.3048609051517822
1589551957.1048942,-0.6603107879957275,-3.5392230300106813,9.246814423043793,0.5133333333333333,0.16444444444444445,-0.7322222222222222,0.04383664156740021,-0.003730165449458818,0.6027862010686575
1589551957.1148942,-0.6892140715983874,-3.4669648210040314,8.950555766116528,0.5133333333333333,0.16444444444444445,-0.7322222222222222,0.06275379644880415,-0.04629376393261766,0.46011932467140293
1589551957.1248941,-0.7159523087191311,-3.455952308719131,8.76821461076391,0.5133333333333333,0.16444444444444445,-0.7322222222222222,-0.003272161411629129,-0.11177097240003525,0.5626212430254759
1589551957.1348941,-0.6438544569611807,-3.466922322094438,8.950747340738705,0.49948868914445715,0.17828908863332069,-0.6745362047685712,-0.0006735859744174816,-0.0616807283807579,0.5077500666009382
1589551957.1448941,-0.6788114724930611,-3.397622944986122,8.918531421251156,0.4933333333333334,0.18444444444444444,-0.6488888888888888,-0.015347634323825483,-0.0641716278816706,0.6503217971335853
1589551957.154894,-0.7683631058287667,-3.576726211657533,8.903606149028539,0.4933333333333334,0.18444444444444444,-0.6488888888888888,0.07256947611505565,0.09293950466188551,0.5746153964778822
1589551957.164894,-0.8546994043295075,-3.7124277204707252,8.927728316141216,0.4933333333333334,0.18444444444444444,-0.6488888888888888,0.013153045178339512,-0.011260739830502187,0.6763030722212716
1589551957.174894,-0.8676422590484332,-3.6282928914188024,9.00642259048433,0.4933333333333334,0.18444444444444444,-0.6488888888888888,-0.07181728263274512,-0.03457842241740573,0.7753321643611905
1589551957.184894,-0.8111769068533154,-3.4729422671332886,9.024115465733422,0.4811111111111111,0.23555555555555555,-0.6344444444444445,0.013088351359269827,-0.04889805034015668,0.8499533910673455
1589551957.194894,-0.8342841424838399,-3.5300983358547655,8.930612020354834,0.4811111111111111,0.23555555555555555,-0.6344444444444445,-0.056456156432788646,-0.18140218863686333,1.0125794639692185
1589551957.204894,-0.9688832347682574,-3.8473676248108926,8.94984046210975,0.4811111111111111,0.23555555555555555,-0.6344444444444445,-0.04806616596650729,-0.05450358283435769,1.090186875782321
1589551957.214894,-1.04568843509907,-3.8079508693894053,8.832262434290335,0.4811111111111111,0.23555555555555555,-0.6344444444444445,-0.10303873768654451,-0.06262440555177641,1.0743181275194456
1589551957.224894,-1.1038652044073731,-3.9140495314591703,8.897730408814747,0.4811111111111111,0.23555555555555555,-0.6344444444444445,0.009048357655406708,0.0026303051799955735,1.0424861192626824
1589551957.234894,-1.13174051188086,-3.88651897623828,9.004208884817059,0.4964099898420867,0.2411919845617044,-0.61350913670732,0.07202936331453422,0.015161167885710619,1.113569100295054
1589551957.244894,-1.1128559812658558,-3.7704719313081374,9.049048006244716,0.5022222222222222,0.2433333333333333,-0.6055555555555555,-0.025042063125968864,-0.08036200683571236,1.1973709541727375
1589551957.254894,-1.0010841259396623,-3.5577276624593726,8.917745010069591,0.5022222222222222,0.2433333333333333,-0.6055555555555555,0.0019489266370211408,-0.04301543969619636,1.239677623732759
1589551957.264894,-0.9208242383128155,-3.4016484766256307,8.775501506414734,0.5022222222222222,0.2433333333333333,-0.6055555555555555,-0.04591670867124231,-0.07907168313341321,1.3593885372406609
1589551957.274894,-0.9255323892360348,-3.332893522152793,8.972939680346657,0.5022222222222222,0.2433333333333333,-0.6055555555555555,-0.03329056480821069,-0.07451487099417456,1.2829357526987322
1589551957.284894,-0.9608046924932478,-3.208851617425726,8.77782054718265,0.4955555555555556,0.2677777777777778,-0.6266666666666667,0.04744429084418991,-0.06884670880487842,1.293160247664939
1589551957.294894,-0.9694521988330619,-3.3039741871636807,9.184253345153909,0.4955555555555556,0.2677777777777778,-0.6266666666666667,-0.005380319356703543,0.02359635904668514,1.21675322219579
1589551957.304894,-1.131929002009377,-3.451687876758205,9.02108283098906,0.4955555555555556,0.2677777777777778,-0.6266666666666667,0.013352996236373227,-0.042674401027322284,1.3473348066644777
1589551957.314894,-1.2510017825311943,-3.52,8.954601069518716,0.4955555555555556,0.2677777777777778,-0.6266666666666667,0.04009963956293282,-0.17137359925397797,1.421571064637361
1589551957.324894,-1.292662727131886,-3.5281656817829714,9.066153863178629,0.4955555555555556,0.2677777777777778,-0.6266666666666667,0.11934593621581274,-0.1385419554257613,1.506372777712978
1589551957.334894,-1.3656849477427,-3.5226484215063034,9.167465790324318,0.5133333333333333,0.2344444444444445,-0.62,0.011471153472116701,-0.14835298641951802,1.464046834242283
1589551957.344894,-1.067415580217649,-3.161109794203211,8.48958086413102,0.5133333333333333,0.2344444444444445,-0.62,0.06865588571205707,-0.14835298641951802,1.3762978485637536
1589551957.354894,-1.2629822038468452,-3.379604979327701,9.346300107855475,0.5133333333333333,0.2344444444444445,-0.62,0.02359325996141736,0.02879676594153832,1.438936493954733
1589551957.364894,-1.29,-3.2747521702604314,8.823539624754972,0.5133333333333333,0.2344444444444445,-0.62,0.03828140959463899,-0.056342891441927695,1.5022062556938733
1589551957.374894,-1.3548368407032498,-3.312040934114722,8.804081868229444,0.5133333333333333,0.2344444444444445,-0.62,0.1355770594824596,-0.11149853423847537,1.481677621515933
1589551957.384894,-1.453775766716943,-3.3277040388805093,8.853852019440254,0.5201644228441614,0.22556402808036796,-0.6070209299294267,0.08474778971454051,-0.030295279346392062,1.4816710461297495
1589551957.394894,-1.536681460717901,-3.329170365179475,8.932533286615277,0.5244444444444445,0.22,-0.5988888888888889,0.13157675981740313,-0.05275576343363009,1.4050466575818648
1589551957.4048939,-1.4852881355932204,-3.30264406779661,9.058542372881357,0.5244444444444445,0.22,-0.5988888888888889,0.11187116777507722,-0.0898363859686488,1.485881621407613
1589551957.4148939,-1.4480962430698625,-3.210669480595615,8.680774165452323,0.5244444444444445,0.22,-0.5988888888888889,0.026951301927084018,-0.14353095271174957,1.445019899826061
1589551957.4248939,-1.4660017704337562,-3.141999114783122,8.832018294482149,0.5244444444444445,0.22,-0.5988888888888889,-0.030107444595206107,-0.1435519147311978,1.502732702515731
1589551957.4348938,-1.5286549239391514,-3.0175788630904723,8.981883106485189,0.5366666666666666,0.18666666666666668,-0.6411111111111111,0.0060066435465953765,0.013134510919106645,1.3278102328723784
1589551957.4448938,-1.4866783426741392,-2.942021016813451,9.040650320256205,0.5366666666666666,0.18666666666666668,-0.6411111111111111,0.05729071217297519,-0.08760205245413943,1.3021681985591886
1589551957.4548938,-1.654936695643094,-2.994450361552719,8.856648915341843,0.5366666666666666,0.18666666666666668,-0.6411111111111111,0.0915629240418306,-0.14480723821307767,1.300097329408632
1589551957.4648938,-1.7355189980002106,-3.032759499000105,9.044746868750657,0.5366666666666666,0.18666666666666668,-0.6411111111111111,0.016981046948470344,-0.06705570233223357,1.2207597621449149
1589551957.4748938,-1.9512562699023872,-3.3037151122858868,9.1524588423835,0.5366666666666666,0.18666666666666668,-0.6411111111111111,0.0,0.044783408798392044,1.3046273724277697
1589551957.4848938,-1.8521055354371443,-2.9502638385928606,8.635106052767718,0.5450175317583491,0.13760533425303215,-0.6275409553371272,-0.053289877109521634,-0.12185984997572023,1.258150003664512
1589551957.4948938,-1.5214373947220663,-2.827085906793936,9.05129702414374,0.5455555555555556,0.13444444444444445,-0.6266666666666667,-0.07844181918915559,-0.09110182608090278,1.0930038693107724
1589551957.5048938,-1.7597158172716882,-2.8480367348547553,8.880284182728312,0.5455555555555556,0.13444444444444445,-0.6266666666666667,0.07011748998354166,-0.026047814583209587,1.1059893791158586
1589551957.5148938,-1.7822890425398867,-2.8259207446713477,8.932685319183149,0.5455555555555556,0.13444444444444445,-0.6266666666666667,0.01490344072888826,-0.09066304277111739,1.1477436717036475
1589551957.5248938,-1.7805122172458756,-2.755300754010998,8.942138159759624,0.5455555555555556,0.13444444444444445,-0.6266666666666667,0.013293986100170962,-0.06543293316674903,1.1461279070002992
1589551957.5348938,-1.6938967178023545,-2.6544902782732787,9.02296780235462,0.549369177864986,0.10317274150711539,-0.6510738494470211,0.03503607984647799,-0.048662319239389476,0.9557126323091303
1589551957.5448937,-1.470640546501654,-2.517508883715231,9.035836294571743,0.5511111111111111,0.08888888888888889,-0.6622222222222223,0.020318176918502025,-0.021773910045835544,0.892070547053574
1589551957.5548937,-1.4568632075471697,-2.5252948113207547,8.987841981132076,0.5511111111111111,0.08888888888888889,-0.6622222222222223,-0.05060785925115044,-0.10097902880421201,0.8882141100759586
1589551957.5648937,-1.6415273561856814,-2.5213558401816343,9.20474815527751,0.5511111111111111,0.08888888888888889,-0.6622222222222223,0.05365532828699095,0.05300878740934192,0.7878376121733487
1589551957.5748937,-1.782761415666378,-2.4824128614445407,8.939302891556325,0.5511111111111111,0.08888888888888889,-0.6622222222222223,-0.0895499269385162,0.005828473150183394,0.8149494500802354
1589551957.5848937,-1.9126273405603267,-2.5289446712656622,9.03367534844432,0.5997638556478484,0.0009396968417100804,-0.6687716301406292,-0.059310572062101205,-0.06998305280701485,0.717886564874921
1589551957.5948937,-2.0307778107974244,-2.6479762258543835,9.127587320455671,0.6088888888888889,-0.015555555555555557,-0.67,-0.07033089057953515,-0.05764433948015442,0.8195360125925765
1589551957.6048937,-1.787565959422982,-2.447913679505413,8.98053957565379,0.6088888888888889,-0.015555555555555557,-0.67,0.044274121692546645,-0.05084788661511917,0.5256731999456238
1589551957.6148937,-1.6011423696086575,-2.2869900536608365,8.670589371112957,0.6088888888888889,-0.015555555555555557,-0.67,0.003299212668639445,-0.030524476862859414,0.35321063510023376
1589551957.6248937,-1.5890558340132883,-2.3044636126976727,9.000172514279054,0.6088888888888889,-0.015555555555555557,-0.67,-0.044372997413923324,-0.11170031769674271,0.4735519492536052
1589551957.6348937,-1.7327633966950042,-2.381630209825835,9.075109370522494,0.746569448424449,-0.23682788338056268,-0.6290236429953691,-0.022467217178815148,-0.025470813677669263,0.4203515569413864
1589551957.6448936,-1.747459083667262,-2.3511886255008934,9.057964402388194,0.7955555555555556,-0.31555555555555553,-0.6144444444444445,-0.008726646259971648,0.02172422532487917,0.3583662540945078
1589551957.6548936,-1.8153069865913902,-2.3716692266179584,9.01711818672423,0.7955555555555556,-0.31555555555555553,-0.6144444444444445,0.00472749188555212,-0.00862869835916465,0.35544591310829715
1589551957.6648936,-1.9298375739537583,-2.408617836013212,8.942926754019817,0.7955555555555556,-0.31555555555555553,-0.6144444444444445,0.04382846510583588,0.0006475459129515956,0.20819723567100593
1589551957.6748936,-1.905852378762881,-2.345852378762881,8.831549779568874,0.7955555555555556,-0.31555555555555553,-0.6144444444444445,0.005310029595480818,0.015423780208333505,0.13834553671027972
1589551957.6848936,-1.807457616745211,-2.261638411163474,9.10579105208397,1.2178281004549443,-0.5487508415447702,-0.44427491142528786,-0.0072228900603908755,0.02092300098417754,0.19581337204991114
1589551957.6948936,-1.8198891883797546,-2.3172506738544474,9.09560946391135,1.3911111111111112,-0.6444444444444445,-0.3744444444444445,-0.003212053984278271,-0.07054137068300309,0.3112908933103663
1589551957.7048936,-1.9621163143425915,-2.4354173381363164,9.172116314342592,1.3911111111111112,-0.6444444444444445,-0.3744444444444445,0.010488892747345298,-0.03797583272883043,0.11367549755923337
1589551957.7148936,-1.7835791901467055,-2.3093142639750814,8.825589557029746,1.3911111111111112,-0.6444444444444445,-0.3744444444444445,-0.09169893366859798,-0.026928505420750717,0.012426968784536863
1589551957.7248936,-1.9956675013308622,-2.4672251030185928,9.295471125219345,1.3911111111111112,-0.6444444444444445,-0.3744444444444445,-0.0826247269521452,-0.04216546287478143,-0.05927607894492256
1589551957.7348936,-1.8868934735171594,-2.350194405871851,9.245340210275739,1.0166382331547974,-0.2691696973704512,-0.6174107871013247,-0.1155185687220607,0.021763599672600886,-0.14583591765101994
1589551957.7448936,-1.7270962375223957,-2.25,9.184410033273611,0.8722222222222222,-0.12444444444444445,-0.7111111111111111,0.019185373775871734,0.06000755899795419,-0.19529430794881297
1589551957.7548935,-1.8250539365641605,-2.3420431492513285,9.030573176622122,0.8722222222222222,-0.12444444444444445,-0.7111111111111111,0.01764086413090872,-0.057798576133580915,-0.13555614157890628
1589551957.7648935,-1.602723712835388,-2.289601160261059,8.881561276287163,0.8722222222222222,-0.12444444444444445,-0.7111111111111111,0.020620736043708565,-0.06508375812735127,-0.2502607870318403
1589551957.7748935,-1.5641314656109975,-2.307125331709227,8.904550398051072,0.8722222222222222,-0.12444444444444445,-0.7111111111111111,0.02456004059436228,-0.058623980565088496,-0.30001747257779926
1589551957.7848935,-1.641058344640434,-2.479647218453189,9.088744911804612,0.8384569576360621,-0.09532413689130108,-0.7141481984019298,0.01780407528175016,-0.051653871748092016,-0.4193289696752184
1589551957.7948935,-1.4716572167512185,-2.5997025763453694,9.022662886700488,0.6622222222222223,0.05666666666666665,-0.73,0.009230340330632004,0.016078170814325315,-0.6640965433928028
1589551957.8048935,-1.373360371602884,-2.6954485579589575,8.964404464780921,0.6622222222222223,0.05666666666666665,-0.73,-0.0003096132295854481,0.053482773806259966,-0.6783170591130167
1589551957.8148935,-1.2372814771523541,-2.6118444314570626,8.70618018774884,0.6622222222222223,0.05666666666666665,-0.73,-0.011550964423236297,0.03741628875092521,-0.7395975548893756
1589551957.8248935,-1.22,-2.592794339159982,8.568383017479945,0.6622222222222223,0.05666666666666665,-0.73,-0.04561168278668826,-0.014957874288572887,-0.8831957838651027
1589551957.8348935,-1.4313134203191673,-2.8202246997015514,9.315242088646622,0.6256989150065637,0.08340694516384525,-0.7267389904271734,-0.04657395159350443,0.04757179687457506,-1.193231926918525
1589551957.8448935,-1.2876798143851507,-2.6851567612588494,9.082891903147123,0.6,0.10222222222222224,-0.7244444444444444,0.06755908498254956,0.042566541694772024,-1.4997575376920864
1589551957.8548934,-1.2675315943369732,-2.7882910148183635,9.119208696083128,0.6,0.10222222222222224,-0.7244444444444444,0.06703088753150492,0.13275334756965082,-1.6001624400552177
1589551957.8648934,-1.2068146285893862,-2.8461444789252464,9.050165376910083,0.6,0.10222222222222224,-0.7244444444444444,0.00803170602229527,0.11552363765425454,-1.6207856174285353
1589551957.8748934,-1.1879249621666241,-2.8664499518484305,8.897049979363613,0.6,0.10222222222222224,-0.7244444444444444,0.014688022229470963,0.09524313455821429,-1.812529775048515
1589551957.8848934,-1.3955754004787333,-3.0924743754986803,8.864808199840422,0.5931010249800528,0.1321177806419935,-0.7397755000443271,-0.007084809687261856,0.10170184351546155,-1.950675351599805
1589551957.8948934,-1.4959156305325492,-3.163521092366863,8.930704706863922,0.59,0.14555555555555555,-0.7466666666666667,-0.043786974487818806,0.12092874004486875,-2.0545418757865304
1589551957.9048934,-1.4831969977156532,-3.206905253997607,9.107314260850647,0.59,0.14555555555555555,-0.7466666666666667,-0.020918368176471254,0.13598280159679904,-2.1063942410006566
1589551957.9148934,-1.4952234796404018,-3.261529349550502,8.90515346377578,0.59,0.14555555555555555,-0.7466666666666667,-0.044259417778449224,0.10981206009864422,-2.179995656990063
1589551957.9248934,-1.3581086869495596,-3.137908126501201,8.696103082465973,0.59,0.14555555555555555,-0.7466666666666667,-0.05907988426346538,0.06497159319758955,-2.19799273848954
1589551957.9348934,-1.238601912404575,-3.0972275344571534,8.815853156509732,0.5928594009188574,0.1560400255913661,-0.7433306989279997,0.029827277202033563,0.07732751371533728,-2.1161677505795224
1589551957.9448934,-1.3270362149964858,-3.3362941589908632,9.175923130988052,0.5966666666666667,0.17,-0.7388888888888889,0.06242140241691488,0.1368790267649735,-2.064255358695293
1589551957.9548934,-1.4012698356095994,-3.528174589023999,9.212500089148808,0.5966666666666667,0.17,-0.7388888888888889,-0.014094250998290876,0.1586812397343165,-2.124773862524428
1589551957.9648933,-13.796200731128398,-13.741493269114155,14.289663369081238,0.5966666666666667,0.17,-0.7388888888888889,-0.5442541050323881,-0.08980631671518072,-3.502442439801195
1589551957.9748933,-26.908591977766093,-24.351684443776758,16.692984301059113,0.5966666666666667,0.17,-0.7388888888888889,-1.4154237750530265,-0.45383845505316933,-4.876687900465127
1589551957.9848933,-1.2768986535484,0.18506399074926927,-3.383134272778943,0.5780763577210277,0.20113876748394516,-0.7300584921397104,0.25677294610732504,0.07574762903820663,-2.24806913584297
1589551957.9948933,0.2572971421542499,2.5347226208536635,2.7770392390011893,0.5522222222222222,0.24444444444444444,-0.7177777777777777,1.5525953439969185,0.3454150179148749,-2.3757147212071628
1589551958.0048933,0.14261402055392602,0.35076483890468624,9.199142466918927,0.5522222222222222,0.24444444444444444,-0.7177777777777777,-0.07926153341255171,-0.05453440743665833,-1.711362706494722
1589551958.0148933,-0.21844936517228153,1.0237974606891262,8.35011081730284,0.5522222222222222,0.24444444444444444,-0.7177777777777777,-0.5450178427575239,-0.3824633365239151,-1.1802023915127189
1589551958.0248933,0.2334081357545001,0.5421572436761558,7.834234002061692,0.5522222222222222,0.24444444444444444,-0.7177777777777777,-0.034061582588518075,-0.18841020263651456,-0.9682203559137323
1589551958.0348933,0.8729521777331493,-0.6065691812058073,9.12558554035396,0.5496660762683104,0.2781855710360794,-0.7044858188174368,0.09325158698722341,0.02740426523367212,-0.7872027053960731
1589551958.0448933,0.9060647491962526,-0.9017423168665953,7.96865886541985,0.5466666666666666,0.31777777777777777,-0.6888888888888889,-0.1497886165679963,-0.12468261458950275,-0.5494112702898312
1589551958.0548933,0.8115641043192552,-1.7274221370388116,9.534543774385654,0.5466666666666666,0.31777777777777777,-0.6888888888888889,0.02876719914089118,-0.010887774012575867,-0.3671443415047386
1589551958.0648932,-0.2833736016816062,-2.296187876005702,9.506714102780933,0.5466666666666666,0.31777777777777777,-0.6888888888888889,0.06783602775593546,0.020476197597620836,-0.2166913777393271
1589551958.0748932,-0.7255947482248465,-2.3751622040613216,9.191730176654097,0.5466666666666666,0.31777777777777777,-0.6888888888888889,0.01876824373441165,0.060128536848077056,-0.1942032667209963
1589551958.0848932,-0.7756918095951623,-2.3684590479758114,9.147515050972627,0.5485814179577057,0.3397974176247261,-0.6922397036482071,0.030810796091057288,0.11136418220556152,-0.13775663640910732
1589551958.0948932,-0.7004960815249722,-2.2972283578615214,9.061779479088536,0.5511111111111111,0.3688888888888889,-0.6966666666666667,0.007970798119292447,0.08075412129028331,-0.04257504390290735
1589551958.1048932,-0.6712180392327244,-2.249593986922425,8.907819607672756,0.5511111111111111,0.3688888888888889,-0.6966666666666667,-0.03510013979042275,0.02908171975162227,-0.015875281018020673
1589551958.1148932,-0.7351878005568211,-2.300321943811693,8.966851176917237,0.5511111111111111,0.3688888888888889,-0.6966666666666667,0.04696025138198266,0.04060656930638933,0.014280302934795545
1589551958.1248932,-0.812696088862408,-2.402696088862408,9.172423713665575,0.5511111111111111,0.3688888888888889,-0.6966666666666667,0.07692434502130795,0.10946273582887937,0.11190107711453547
1589551958.1348932,-0.8699693570767808,-2.5197854995374653,9.059877428307123,0.544464873059924,0.362796504008634,-0.6966666666666667,-0.11259513585657718,0.028145433456204877,0.27955241281757875
1589551958.1448932,-0.8304896324960297,-2.534988480551144,8.96247120137786,0.5377777777777778,0.3566666666666667,-0.6966666666666667,-0.0944957327375814,-0.010021066906452492,0.3227690377636675
1589551958.1548932,-3.2462478925231157,-10.405007010133636,9.047584609650913,0.5377777777777778,0.3566666666666667,-0.6966666666666667,-0.0903700462461697,-0.17031609285921678,-0.32720439892640385
1589551958.1648932,-6.8466678779069765,-20.3969949127907,8.698891715116279,0.5377777777777778,0.3566666666666667,-0.6966666666666667,-0.11955901753625724,-0.17469020777737432,-1.269432839471671
1589551958.1748931,-3.576965593184321,-7.964553638699457,7.690879199428163,0.5377777777777778,0.3566666666666667,-0.6966666666666667,0.09844657722553567,0.39752857309058826,-1.0103501332566405
1589551958.1848931,-0.4596267696267696,-0.7802423852423852,8.325662448162449,0.547811978645312,0.3576223048445271,-0.6995335812002479,-0.13559878326141006,-0.08183469310269083,-0.599918323105974
1589551958.1948931,-0.8503113830496153,-1.8395232325680015,8.852562549221542,0.5611111111111111,0.3588888888888889,-0.7033333333333334,-0.09219942051162022,0.014698097280673603,-0.2076456232567274
1589551958.204893,-0.8002123995407577,-2.4436165327210104,10.407089552238807,0.5611111111111111,0.3588888888888889,-0.7033333333333334,0.1605143093970517,0.15193189659875342,-0.02742084750588919
1589551958.214893,-1.8879452646558077,-6.0292336035372145,8.545941605468451,0.5611111111111111,0.3588888888888889,-0.7033333333333334,-0.04921663949889506,-0.11377670249020058,-0.46113358558712625
1589551958.224893,-2.223803006556147,-7.58520540385422,8.623523542526655,0.5611111111111111,0.3588888888888889,-0.7033333333333334,0.04004334550533491,0.04172831678643664,-0.5276027826660253
1589551958.234893,-0.6603230164090746,-3.1449394095911636,9.177353093090707,0.5592393199747485,0.3652529787525219,-0.7033333333333334,0.08261635702752877,0.07874975651656603,-0.3542836265812939
1589551958.244893,-1.004873903508772,-3.0458388157894736,9.534950657894736,0.5555555555555556,0.37777777777777777,-0.7033333333333334,-0.1153057176640511,-0.07374949037055809,-0.10020452901886578
1589551958.254893,-1.3545294763822775,-4.714717685829367,8.897662394727206,0.5555555555555556,0.37777777777777777,-0.7033333333333334,-0.08629617840460832,-0.04294773741889141,-0.013226413108485768
1589551958.264893,-0.9948272444066837,-4.36396842254319,9.06138204474653,0.5555555555555556,0.37777777777777777,-0.7033333333333334,0.0017110843943789998,0.006374841660863773,0.008182852749665959
1589551958.274893,-1.0945150034891835,-4.008813677599442,8.863921842288903,0.5555555555555556,0.37777777777777777,-0.7033333333333334,0.0005967978600678464,0.04780244288096996,-0.059927944300639205
1589551958.284893,-1.1795231630748346,-3.817429153232649,8.920286780926522,0.5545396609913834,0.3799788826668175,-0.7023174387691612,-0.023208243992506473,0.031115054933340703,0.0400806732856597
1589551958.294893,-1.055842304335176,-3.9417893511783535,9.11536805353506,0.5488888888888889,0.3922222222222223,-0.6966666666666667,0.03252941816153382,0.07320594897557973,0.1172641504289913
1589551958.304893,-1.142529945383371,-3.884940109233258,8.914460983099318,0.5488888888888889,0.3922222222222223,-0.6966666666666667,-0.06232425277265129,-0.01712663906019335,0.03803534986508598
1589551958.314893,-1.1335617555881872,-3.9028764888236256,8.809588839941263,0.5488888888888889,0.3922222222222223,-0.6966666666666667,0.04426078381072176,0.022041046652821604,0.023699273182519676
1589551958.324893,-1.1,-3.945895339329518,8.903143908421914,0.5488888888888889,0.3922222222222223,-0.6966666666666667,0.05364604108260985,-0.051869315883318806,-0.0050059589262153315
1589551958.334893,-1.1,-3.8985916485747314,8.968186483209745,0.5488888888888889,0.3922222222222223,-0.6966666666666667,0.043325976682407105,-0.027359162932837286,-0.14755184845401575
1589551958.344893,-1.0878105828220859,-3.885325920245399,9.007515337423314,0.5244444444444445,0.4,-0.7244444444444444,-0.1477586342178587,-0.05161787840026366,0.04078067534256306
