time,acc_x,acc_y,acc_z,mag_x,mag_y,mag_z,gyr_x,gyr_y,gyr_z
1590515215.4008865,-0.21,-4.13,8.58,0.4533333333333333,0.2,-0.5733333333333334,-0.00545415391248228,-0.017453292519943295,0.002181661564992912
1590515215.4108865,-0.1618196985809101,-4.184968281324484,8.627088482270544,0.4508350954819731,0.20428269345947467,-0.571191986603596,0.006591604301043772,-0.008831905370533764,-0.0033121920120278052
1590515215.4208865,-0.06947283299318419,-4.278105433401363,8.782421733605451,0.4455555555555555,0.21333333333333332,-0.5666666666666667,-0.017189122363559906,-0.04879986021306491,-0.0021241565651377906
1590515215.4308865,-0.07725591600062687,-4.280914694666458,8.755457347333229,0.4455555555555555,0.21333333333333332,-0.5666666666666667,-0.014772742405571682,-0.07268991360082794,-0.008330897433537031
1590515215.4408865,-0.061293268014443764,-4.210947123898894,8.675300489891672,0.4455555555555555,0.21333333333333332,-0.5666666666666667,3.775846564219899e-05,-0.06924887545570385,-0.009817477042468105
1590515215.4508865,-0.04026229649409942,-4.199562839176501,8.6992131105177,0.4455555555555555,0.21333333333333332,-0.5666666666666667,0.009798402303141135,-0.05896208647278953,-0.012520710574550533
1590515215.4608865,-0.04483543351514012,-4.226776377656574,8.79,0.45716736672726893,0.21720393705723778,-0.5705372703905711,0.0024992478074801257,-0.03272676990653604,-0.008938370421629791
1590515215.4708865,-0.06502378090210631,-4.219952438195787,8.799952438195787,0.4655555555555556,0.22,-0.5733333333333334,-0.004906144427228742,-0.012573089032767649,-0.0027348592382570687
1590515215.4808865,-0.0785009527842473,-4.23,8.749871903451197,0.4655555555555556,0.22,-0.5733333333333334,-0.005958689132546541,-0.007049519915042997,-8.176034236793256e-05
1590515215.4908864,-0.1315118912797282,-4.204790486976218,8.698907134767838,0.4655555555555556,0.22,-0.5733333333333334,-0.00517001905407437,-0.007635815477475192,0.0004033479620442728
1590515215.5008864,-0.17011985678454497,-4.184970035803864,8.715029964196138,0.4655555555555556,0.22,-0.5733333333333334,-0.003814639151985778,-0.007635815477475192,0.0016460519340001378
1590515215.5108864,-0.18670921255790016,-4.1767092125579,8.7167092125579,0.4615334820152113,0.2134184251158003,-0.5711394750386001,-0.003631461571538897,-0.0069178770293761346,0.006862184587984653
1590515215.5208864,-0.12796372538110604,-4.19428359482215,8.699592745076222,0.4533333333333333,0.2,-0.5666666666666667,-0.0032280677267712524,-0.004697316977005899,0.01834340331757402
1590515215.5308864,-0.02449758060869172,-4.2455024193913085,8.65248790304346,0.4533333333333333,0.2,-0.5666666666666667,0.001310052597601338,-0.0008716089673915742,0.03218214723015943
1590515215.5408864,-0.01431869122761819,-4.261362617544763,8.641362617544765,0.4533333333333333,0.2,-0.5666666666666667,0.002652757698111245,0.00047109613311833293,0.03460930800736701
1590515215.5508864,-0.03360374210240162,-4.260558503159039,8.706648981045763,0.4533333333333333,0.2,-0.5666666666666667,0.002181661564992912,-0.000514953769348146,0.029635200858804805
1590515215.5608864,-0.06,-4.241211985973861,8.77,0.4533333333333333,0.2058586760174264,-0.5759429036942585,0.0007437261324843543,-0.001090830782496456,0.02378337972573401
1590515215.5708864,-0.06948019850150822,-4.239480198501508,8.774740099250753,0.4533333333333333,0.21333333333333332,-0.5877777777777777,-0.001090830782496456,-5.670154753426157e-05,0.019691655632470467
1590515215.5808864,-0.06206792906522393,-4.236550946798918,8.739652840396753,0.4533333333333333,0.21333333333333332,-0.5877777777777777,-0.00011278803401826906,0.0006018094082573625,0.018055101928200656
1590515215.5908864,-0.02431301263577921,-4.235686987364221,8.695228995788073,0.4533333333333333,0.21333333333333332,-0.5877777777777777,0.0028020156526489546,0.0017111848701524988,0.015742107649790796
1590515215.6008863,-0.016306183895622633,-4.246846908052189,8.718918551686867,0.4533333333333333,0.21333333333333332,-0.5877777777777777,0.004019374154314395,0.004304339274503657,0.013836851196782496
1590515215.6108863,-0.029258550142824052,-4.240370724928588,8.757775650428473,0.4533333333333333,0.21333333333333332,-0.5877777777777777,0.003312932163883624,0.006423665245795967,0.013130409206351727
1590515215.6208863,-0.08563305822842582,-4.24,8.745917354428936,0.4655555555555556,0.2,-0.5733333333333334,0.004839682580966096,0.011215543490722651,0.0056232776977044605
1590515215.6308863,-0.1,-4.241514589919692,8.699397870562159,0.4655555555555556,0.2,-0.5733333333333334,0.0034377084782152385,0.011173057953831663,0.003272492347489368
1590515215.6408863,-0.1,-4.246474180273464,8.654103278906147,0.4655555555555556,0.2,-0.5733333333333334,0.003594108591737958,0.005391162887606937,0.002118670540117569
1590515215.6508863,-0.09400169096359305,-4.236001127309062,8.68199943634547,0.4655555555555556,0.2,-0.5733333333333334,0.002399766236320891,0.003708701690145326,0.0004362093426559577
1590515215.6608863,-0.07,-4.222439890710382,8.69975956284153,0.45715148755312696,0.20623527625986643,-0.576857619914997,0.0027401907689268896,0.0038572491767948454,0.0011170584078679555
1590515215.6708863,-0.06669090082926275,-4.226690900829263,8.726690900829263,0.4311111111111111,0.2255555555555556,-0.5877777777777777,7.930611164349774e-06,-0.0014517975062738246,-0.0007377946698834373
1590515215.6808863,-0.06425916827513599,-4.228518336550272,8.694444990349185,0.4311111111111111,0.2255555555555556,-0.5877777777777777,-0.0012524551925227776,-0.0031108679374630462,0.0012524551925227776
1590515215.6908863,-0.07331346070966815,-4.233373078580664,8.693134607096681,0.4311111111111111,0.2255555555555556,-0.5877777777777777,0.0010843274816095716,-0.0032789956483762523,0.0007228849877397144
1590515215.7008862,-0.08444590576395242,-4.22,8.782229528819762,0.4311111111111111,0.2255555555555556,-0.5877777777777777,0.003272492347489368,-0.001090830782496456,0.002181661564992912
1590515215.7108862,-0.09,-4.22,8.818243626062323,0.437064841045011,0.21822788794460185,-0.5818240478438779,0.0037221124008979638,-0.0001915906756792641,0.0012824214581757202
1590515215.7208862,-0.08445181089818676,-4.22,8.807807243592746,0.4455555555555555,0.20777777777777776,-0.5733333333333334,0.0013372554003012005,0.00048561723655953133,0.0
1590515215.7308862,-0.07444686516581941,-4.231106269668361,8.70114984265311,0.4455555555555555,0.20777777777777776,-0.5733333333333334,0.00012067530079905124,0.0024230121665910144,0.0
1590515215.7408862,-0.06527035974398587,-4.24,8.667837122048114,0.4455555555555555,0.20777777777777776,-0.5733333333333334,0.001090830782496456,0.005395170566264749,0.0005159237181394627
1590515215.7508862,-0.05383165433653392,-4.2430841728317334,8.7192525184952,0.4455555555555555,0.20777777777777776,-0.5733333333333334,0.0031094171805326537,0.008563571093014932,0.0007543997161570898
1590515215.7608862,-0.04449190082644628,-4.25,8.737754049586776,0.4455555555555555,0.20902552800734617,-0.5765774839302112,0.009105786585497853,0.014804935682650577,0.0002449951846704437
1590515215.7708862,-0.06328266775573983,-4.24671733224426,8.73,0.4455555555555555,0.21333333333333332,-0.5877777777777777,0.015255050683454795,0.02108386837109962,0.001806997789830369
1590515215.7808862,-0.07326415618427841,-4.236735843815722,8.713679219078609,0.4455555555555555,0.21333333333333332,-0.5877777777777777,0.017987388826646352,0.021460551445460413,0.0029164281430206626
1590515215.7908862,-0.10071208437489299,-4.216429305208369,8.633570694791631,0.4455555555555555,0.21333333333333332,-0.5877777777777777,0.021504789626154833,0.01768744218813078,0.001480333161857542
1590515215.8008862,-0.12119396493135788,-4.208806035068642,8.649551719450864,0.4455555555555555,0.21333333333333332,-0.5877777777777777,0.021995756842183058,0.01405055880241928,0.0020514201949582665
1590515215.8108861,-0.12577807250221043,-4.202110963748895,8.72422192749779,0.4455555555555555,0.21333333333333332,-0.5922342568032223,0.013429467564527545,0.011017535575731777,0.0008605603586936011
1590515215.8208861,-0.10765927977839336,-4.212340720221607,8.744681440443214,0.4455555555555555,0.21333333333333332,-0.6088888888888889,0.004757653925320415,0.002251160479113185,0.0002553329670940458
1590515215.8308861,-0.09045986454979461,-4.215229932274897,8.72660952592428,0.4455555555555555,0.21333333333333332,-0.6088888888888889,-0.0026518317952369157,-0.0016111644534099424,0.0016111644534099424
1590515215.840886,-0.08,-4.214570533850283,8.721993736951983,0.4455555555555555,0.21333333333333332,-0.6088888888888889,-0.0038647552283527136,-0.0006859578600935808,0.0026802294666260222
1590515215.850886,-0.0723867790510465,-4.23141983142343,8.782839662846861,0.4455555555555555,0.21333333333333332,-0.6088888888888889,0.0008798755350433113,0.006073672241535669,0.0028572555592361
1590515215.860886,-0.06975588307713954,-4.246748038974287,8.816748038974287,0.44808485857555463,0.2089973852990491,-0.6020236378346056,0.010828420748769208,0.017018671524715274,0.002891129403058249
1590515215.870886,-0.10025110915929104,-4.209246672522127,8.738242235884963,0.4533333333333333,0.2,-0.5877777777777777,0.01577595870609039,0.022348335161141274,0.0038042118587015223
1590515215.880886,-0.11454238274257071,-4.189084765485141,8.647288086287146,0.4533333333333333,0.2,-0.5877777777777777,0.011207817619567842,0.019339130189190715,0.003272492347489368
1590515215.890886,-0.11141046656717148,-4.2,8.637179066865656,0.4533333333333333,0.2,-0.5877777777777777,0.004356410860941061,0.011209111625750348,0.003272492347489368
1590515215.900886,-0.0932292367258648,-4.206770763274135,8.666770763274135,0.4533333333333333,0.2,-0.5877777777777777,0.00036928785002115854,0.003255459579922348,0.0021646287974258923
1590515215.910886,-0.0835870442729357,-4.218206477863532,8.685380566409403,0.4533333333333333,0.2023913628486238,-0.5877777777777777,0.0006995449513868673,0.0005039020358320729,0.00019564291555479435
1590515215.920886,-0.1,-4.212640153330139,8.725840919980834,0.4533333333333333,0.21333333333333332,-0.5877777777777777,-0.0022428149917068964,-0.002757653669598132,0.0008028347301938459
1590515215.930886,-0.1,-4.219339242932438,8.766035457594633,0.4533333333333333,0.21333333333333332,-0.5877777777777777,-0.005165844252863187,-0.004219168300176278,7.207741490477312e-05
1590515215.940886,-0.10626710768348044,-4.221643856422027,8.716267107683482,0.4533333333333333,0.21333333333333332,-0.5877777777777777,-0.002588856949653317,0.0006836353978360512,0.003728249279380069
1590515215.950886,-0.127501560997013,-4.193331252003983,8.737501560997014,0.4533333333333333,0.21333333333333332,-0.5877777777777777,-0.0002725374172647963,0.002999954930224572,0.005272462300972416
1590515215.960886,-0.11261283420321155,-4.197387165796789,8.743919251304817,0.4523172311431955,0.21333333333333332,-0.5877777777777777,-0.004840080335621885,0.006972508691742149,0.005311645913561142
1590515215.970886,-0.12938768572399864,-4.180612314276001,8.769081528585998,0.4457936777740005,0.21333333333333332,-0.5877777777777777,-0.01490426876149701,0.009717287353344458,0.00439671969302704
1590515215.980886,-0.1267511437731907,-4.215299542490724,8.760253431319573,0.4455555555555555,0.21333333333333332,-0.5877777777777777,-0.01658615690763889,0.00015834513628262782,0.004074277925884355
1590515215.990886,-0.09086929905111724,-4.230434649525559,8.651738598102234,0.4455555555555555,0.21333333333333332,-0.5877777777777777,-0.014275625988869289,-0.0055489797288976435,0.002988014898243277
1590515216.000886,-0.10031219623763508,-4.2303121962376355,8.709375607524729,0.4455555555555555,0.21333333333333332,-0.5877777777777777,-0.016010203252154416,-0.006579040021597929,-0.001863458406319684
1590515216.010886,-0.07817138136341624,-4.2081713813634165,8.746342762726833,0.4429142175249345,0.2123174340907868,-0.5826982815650451,-0.01487268825530393,-0.002767552331400005,0.001090830782496456
1590515216.020886,-0.07634326037555317,-4.193656739624447,8.704626958497787,0.4311111111111111,0.20777777777777776,-0.56,-0.015165796493670499,0.00920691970531622,0.003512629070161653
1590515216.030886,-0.09687625109069445,-4.193752502181389,8.660314376636041,0.4311111111111111,0.20777777777777776,-0.56,-0.024510491217574027,0.02676073912494533,0.01097689416734295
1590515216.040886,-0.11384348152668888,-4.243060889160133,8.726121778320266,0.4311111111111111,0.20777777777777776,-0.56,-0.031719460276755776,0.04329555052525697,0.018206442527838484
1590515216.050886,-0.1229802203637329,-4.268079118545068,8.782118677817603,0.4311111111111111,0.20777777777777776,-0.56,-0.022835042955557362,0.04539582154073795,0.022907446432425576
1590515216.060886,-0.12482621022786937,-4.243880342329098,8.745173789772132,0.4339854387622948,0.2093586579859288,-0.5617245965907103,-0.009253104127907563,0.039128814941232284,0.022907446432425576
1590515216.070886,-0.09998918918918918,-4.262508108108108,8.787491891891891,0.4533333333333333,0.22,-0.5733333333333334,-0.004909328159494861,0.03736183875789483,0.022090207802944448
1590515216.080886,-0.13,-4.2327194089867675,8.76267615841399,0.4533333333333333,0.22,-0.5733333333333334,-0.0012870191494891436,0.03490658503988659,0.01963495408493621
1590515216.0908859,-0.15667183662918444,-4.200948688122011,8.676189737624401,0.4533333333333333,0.22,-0.5733333333333334,-0.0015590547748282036,0.0319971389978035,0.01963495408493621
1590515216.1008859,-0.2,-4.176948632318592,8.697794529274367,0.4533333333333333,0.22,-0.5733333333333334,-0.011046717390691433,0.022343911243321274,0.021529899592278565
1590515216.1108859,-0.19277243257645282,-4.182772432576453,8.742772432576453,0.4533333333333333,0.21839387390587842,-0.5733333333333334,-0.016927688984731706,0.013352771157563266,0.02824272920868803
1590515216.1208858,-0.19605461436595278,-4.148833736700306,8.71255582446687,0.4533333333333333,0.21333333333333332,-0.5733333333333334,-0.015271630954950384,0.01580486733682282,0.046705430000312666
1590515216.1308858,-0.24241116878348382,-4.125177662433033,8.685532987299096,0.4533333333333333,0.21333333333333332,-0.5733333333333334,-0.016586719520359724,0.019070158728603487,0.06660989579452077
1590515216.1408858,-0.24941135237077958,-4.111177295258441,8.643531885775323,0.4533333333333333,0.21333333333333332,-0.5733333333333334,-0.020404727390434065,0.020597361876633222,0.08264552884883299
1590515216.1508858,-0.6460381809376513,-3.72556091921701,8.457350924059927,0.4533333333333333,0.21333333333333332,-0.5733333333333334,-0.03917619805015943,-0.012769763325326259,0.1335734230598963
1590515216.1608858,-0.6329332458483699,-3.8762676727437473,8.680134820577713,0.4533333333333333,0.21333333333333332,-0.5733333333333334,-0.07134054789567346,-0.04779316649044153,0.18932496279212063
1590515216.1708858,-0.6524290023643232,-3.888762670869908,8.862905671658016,0.4722222222222222,0.20777777777777776,-0.5877777777777777,-0.038574031827009636,-0.030995193189058266,0.3404581381036027
1590515216.1808858,-0.6863762098622307,-3.6270297376722116,8.66013615162708,0.4722222222222222,0.20777777777777776,-0.5877777777777777,-0.02105573096079299,-0.04322902601354535,0.45408584793470497
1590515216.1908858,-0.9284146117379001,-3.5368020285913784,8.449498732130388,0.4722222222222222,0.20777777777777776,-0.5877777777777777,-0.03376107441514527,-0.07825158461999365,0.5258321505038313
1590515216.2008858,-0.9664541661699845,-3.9222424603647634,8.27503135057814,0.4722222222222222,0.20777777777777776,-0.5877777777777777,-0.0075135082377545855,-0.08639044317169423,0.5964665319312346
1590515216.2108858,-0.7750268440400941,-3.9337835550501175,8.79372986696993,0.4689067849156183,0.2099880693155137,-0.5859819159033673,-0.011834234512019218,-0.058244322687062755,0.7399081454484072
1590515216.2208858,-0.7217876288659794,-3.88739823269514,8.77316818851252,0.4455555555555555,0.2255555555555556,-0.5733333333333334,-0.05277689943688501,-0.025718512539342583,0.8747323527770403
1590515216.2308857,-0.35343171609322455,-3.3655765386514895,8.426316408362927,0.4455555555555555,0.2255555555555556,-0.5733333333333334,-0.076217776466579,-0.010272526463223075,0.9746710418404128
1590515216.2408857,0.14529727439627171,-2.5761756814009322,8.547445276090947,0.4455555555555555,0.2255555555555556,-0.5733333333333334,-0.133955437354115,0.02281748100706503,1.0555467740111355
1590515216.2508857,0.13154867506638795,-2.584788971128312,9.417889711283124,0.4455555555555555,0.2255555555555556,-0.5733333333333334,-0.1765452827269369,0.03908501115040862,1.1367689400409495
1590515216.2608857,0.008139952517197298,-2.6158443416326778,9.559446642722348,0.4483259944671036,0.21939902464100433,-0.5744107262433799,-0.10433849226352637,-0.051811540359704214,1.1979206890560776
1590515216.2708857,-0.2152442996742671,-2.6531107491856676,8.530211726384366,0.4655555555555556,0.1811111111111111,-0.5811111111111111,0.028528600497277026,-0.11934470463352105,1.2731913956888523
1590515216.2808857,-0.29149695975291956,-2.84,9.341437699063796,0.4655555555555556,0.1811111111111111,-0.5811111111111111,-0.08540492265206347,-0.08920641686710729,1.334484414478429
1590515216.2908857,-0.33197857349676674,-2.84,8.839465688640093,0.4655555555555556,0.1811111111111111,-0.5811111111111111,-0.03506412959957462,-0.1121688838735057,1.4042549873055625
1590515216.3008857,-0.45553389982548564,-2.7693686493892,8.47980509842937,0.4655555555555556,0.1811111111111111,-0.5811111111111111,-0.010685829085788232,-0.13454288332898953,1.5049545222999037
1590515216.3108857,-0.4965787027220981,-2.9130254595273435,8.849208324498884,0.4655555555555556,0.1811111111111111,-0.5811111111111111,-0.0494890389520962,-0.12111100299065217,1.5586820436532536
1590515216.3208857,-0.5914488419233709,-2.9521732628850565,8.757606420097698,0.48,0.16,-0.5666666666666667,-0.025563240408113783,-0.13534203909800976,1.6485133349090775
1590515216.3308856,-0.6359385039008719,-3.004061496099128,8.921399724644333,0.48,0.16,-0.5666666666666667,-0.036235706530262035,-0.13809246888025808,1.7324810775873671
1590515216.3408856,-0.6754635157358805,-3.0001854062943525,8.822360945279236,0.48,0.16,-0.5666666666666667,-0.03302291203216129,-0.1407373956313576,1.7919625935561787
1590515216.3508856,-0.751853045170199,-3.0392652258509947,8.794440864489404,0.48,0.16,-0.5666666666666667,-0.03830106183268515,-0.14318111980432838,1.8451664570213788
1590515216.3608856,-0.7624123388360043,-3.08,8.773618508254007,0.4811391600058909,0.15839177410933045,-0.56793984549678,-0.043304299617342584,-0.14008684451506828,1.888348944713982
1590515216.3708856,-0.7961055548861309,-3.08,8.824158332329196,0.4970498453628951,0.13592963007591277,-0.5857223761899023,-0.03871009996374489,-0.14651872403010507,1.920508342289166
1590515216.3808856,-0.8262184314541293,-3.026764510089453,8.711890784272937,0.4988888888888889,0.13333333333333333,-0.5877777777777777,-0.03926990816987242,-0.15675424423367695,1.9663233765182824
1590515216.3908856,-0.8151581819237245,-2.9682806060254254,8.718280606025425,0.4988888888888889,0.13333333333333333,-0.5877777777777777,-0.03926990816987242,-0.16452789136949433,1.9838805897284388
1590515216.4008856,-0.8762689700677824,-2.927013776418131,8.716717253514085,0.4988888888888889,0.13333333333333333,-0.5877777777777777,-0.04018169290647054,-0.162989678960271,1.9918570088385283
1590515216.4108856,-0.9042841720146344,-2.854280573382115,8.782142086007317,0.4988888888888889,0.12960451695022557,-0.5888091525220416,-0.043477454409489136,-0.16432600593104207,1.9914675666126056
1590515216.4208856,-0.9748652674339878,-3.054865267433988,8.82734281200632,0.4988888888888889,0.0811111111111111,-0.6022222222222222,-0.04226234430021713,-0.15953155243293313,1.9818084657223862
1590515216.4308856,-1.0228692812635367,-3.0856535936823164,8.867088234314085,0.4988888888888889,0.0811111111111111,-0.6022222222222222,-0.043785091984582844,-0.1605086200432743,1.9641028512325192
1590515216.4408855,-1.036845156775849,-3.015774216120756,8.80419679450868,0.4988888888888889,0.0811111111111111,-0.6022222222222222,-0.039211497418232294,-0.16127088580433277,1.9458084729671172
1590515216.4508855,-1.1399955563046842,-3.046659260507807,8.788884938937496,0.4988888888888889,0.0811111111111111,-0.6022222222222222,-0.04084533719705003,-0.15429222330864528,1.9085918748811788
1590515216.4608855,-1.1978382188443326,-3.143063698073888,8.840300638972739,0.4988888888888889,0.0811111111111111,-0.6022222222222222,-0.043649628612152394,-0.15078685903976735,1.887559689267911
1590515216.4708855,-1.2102210276584882,-3.0369056127811644,8.932927114928376,0.5111111111111111,0.04,-0.5877777777777777,-0.03355054010636183,-0.14607488334506027,1.8426360488338274
1590515216.4808855,-1.2475098136533862,-2.9148129765825925,8.651742092676983,0.5111111111111111,0.04,-0.5877777777777777,-0.028049160972652858,-0.14134633170063382,1.7956932188068873
1590515216.4908855,-1.3423596855208562,-2.9608316226250273,8.750135182354226,0.5111111111111111,0.04,-0.5877777777777777,-0.04726858747086772,-0.13895959694180207,1.7575393147281986
1590515216.5008855,-1.3080949117697447,-2.920118639712181,8.652816943635429,0.5111111111111111,0.04,-0.5877777777777777,-0.025972125891421526,-0.13496867773155952,1.7194784125818938
1590515216.5108855,-1.4158805893438409,-3.0548507366798012,8.823477599794415,0.5111111111111111,0.04,-0.5877777777777777,-0.03772971939242775,-0.13104947989789079,1.6802864342452069
1590515216.5208855,-1.4536784104191016,-3.093678410419102,8.81316079479045,0.5279503163206619,0.003515055379306506,-0.5999394259846756,-0.02991315185946722,-0.13181813006934234,1.6402142551318049
1590515216.5308855,-1.541313757511376,-3.077372484977248,8.812117454931744,0.5311111111111111,-0.0033333333333333327,-0.6022222222222222,-0.033011540901722675,-0.12777051026549985,1.5821750144266118
1590515216.5408854,-1.547963881974283,-3.0640722360514343,8.772216708154302,0.5311111111111111,-0.0033333333333333327,-0.6022222222222222,-0.03446237299603698,-0.128495926312657,1.5459042120687538
1590515216.5508854,-1.5881511717639414,-2.999662889403355,8.812604687055765,0.5311111111111111,-0.0033333333333333327,-0.6022222222222222,-0.029149917314688103,-0.12326387842209953,1.4831538042592787
1590515216.5608854,-1.571115714227692,-2.8122728565046096,8.744462856910767,0.5311111111111111,-0.0033333333333333327,-0.6022222222222222,-0.026362497093520263,-0.12326387842209953,1.4394842207943157
1590515216.5708854,-1.6310628806118113,-2.8625598357173208,8.986811358164566,0.5255555555555556,-0.042222222222222223,-0.6111111111111112,-0.03950179274776892,-0.10632170523991143,1.385987021729117
1590515216.5808854,-1.6413766343315055,-2.8,8.939350485027415,0.5255555555555556,-0.042222222222222223,-0.6111111111111112,-0.039799727119312706,-0.101372179016918,1.3319128507535198
1590515216.5908854,-1.6555286377056093,-2.8,8.72707043441586,0.5255555555555556,-0.042222222222222223,-0.6111111111111112,-0.02281854211340001,-0.1006003069711947,1.2871442721015682
1590515216.6008854,-1.7291238343092605,-2.8573715029277813,8.84780958577315,0.5255555555555556,-0.042222222222222223,-0.6111111111111112,-0.030821706462275163,-0.09267282908689746,1.2070074545463958
1590515216.6108854,-1.7169954456733898,-2.820986337020169,8.817488614183475,0.5255555555555556,-0.042222222222222223,-0.6111111111111112,-0.019576189746100356,-0.09201132810359307,1.1693018984980448
1590515216.6208854,-1.7412036914963744,-2.8078009228740934,8.815601845748187,0.5255555555555556,-0.07255914451036402,-0.631913572108694,-0.01904661015201689,-0.08822599100852549,1.0922423189671484
1590515216.6308854,-1.7995373350498873,-2.8397224010299325,8.790277598970066,0.5255555555555556,-0.0811111111111111,-0.6377777777777778,-0.025048732863853278,-0.07753982960777009,1.0031598663848513
1590515216.6408854,-1.824942836584586,-2.8316857211384714,8.7318000479693,0.5255555555555556,-0.0811111111111111,-0.6377777777777778,-0.020554372339210984,-0.07472814416232387,0.9362663485044134
1590515216.6508853,-1.83,-2.795557611265289,8.747553910987769,0.5255555555555556,-0.0811111111111111,-0.6377777777777778,-0.018132121370754945,-0.07192224413848712,0.8642323661389324
1590515216.6608853,-1.838680180034323,-2.797360360068646,8.820761260240262,0.5255555555555556,-0.0811111111111111,-0.6377777777777778,-0.01934701403575345,-0.06332911479902902,0.7667434841143975
1590515216.6708853,-1.8711150369761709,-2.8,8.853336277732128,0.5298770884689126,-0.09494001643385372,-0.6377777777777778,-0.015392299068420871,-0.05369204456926732,0.6863661899991925
1590515216.6808853,-1.900940023159531,-2.790940023159531,8.88059976840469,0.5311111111111111,-0.09888888888888887,-0.6377777777777778,-0.01060068596536173,-0.046971148231167964,0.5694243620343749
1590515216.6908853,-1.9075933122888278,-2.7975933122888277,8.81406687711172,0.5311111111111111,-0.09888888888888887,-0.6377777777777778,-0.00842340218923593,-0.03971353564408196,0.5077346550441438
1590515216.7008853,-1.9388625745705454,-2.8,8.780379141809817,0.5311111111111111,-0.09888888888888887,-0.6377777777777778,-0.0065863426506868415,-0.029741936817361057,0.3951650351071248
1590515216.7108853,-1.9929578507197572,-2.815130814491359,8.848088665211115,0.5311111111111111,-0.09888888888888887,-0.6377777777777778,-0.004894468873836927,-0.02367562575340798,0.3189855547859881
1590515216.7208853,-1.9971487465645041,-2.788574373282252,8.864297493129007,0.5422222222222223,-0.11888888888888888,-0.6677777777777778,-0.000624295530075791,-0.01278119441519193,0.18858519594325884
1590515216.7308853,-1.98,-2.7798093236243524,8.828283912619172,0.5422222222222223,-0.11888888888888888,-0.6677777777777778,0.0021608619989877996,-0.004280124865965375,0.10743991253524172
1590515216.7408853,-1.9787671140486949,-2.771232885951305,8.74,0.5422222222222223,-0.11888888888888888,-0.6677777777777778,0.0012253177771955536,0.0005379479787963908,0.017595210141811216
1590515216.7508852,-1.9599145287208637,-2.7898005670153485,8.74022792341103,0.5422222222222223,-0.11888888888888888,-0.6677777777777778,0.0032787079943094534,0.008745293200431903,-0.06355410513851836
1590515216.7608852,-1.9423413823443152,-2.7487965588034022,8.787089647081826,0.5422222222222223,-0.11888888888888888,-0.6677777777777778,0.004556663261833128,0.012579159003002929,-0.12234004744460741
1590515216.7708852,-1.9357023472463237,-2.7485117362316194,8.825702347246324,0.5422222222222223,-0.1106521650886433,-0.6791824722704255,0.0035880651398500878,0.019625838091092165,-0.22085133973518895
1590515216.7808852,-1.9601462066141087,-2.85,8.829707586771782,0.5422222222222223,-0.10444444444444444,-0.6877777777777778,0.003296415348780526,0.02735848723381231,-0.3737977663200501
1590515216.7908852,-1.977323640831371,-2.85,8.795352718337258,0.5422222222222223,-0.10444444444444444,-0.6877777777777778,0.006107066450055156,0.03766420793848596,-0.4599910667591387
1590515216.8008852,-1.98,-2.899623006418701,8.780075398716258,0.5422222222222223,-0.10444444444444444,-0.6877777777777778,0.007627590753409504,0.04468293846202625,-0.575185529095954
1590515216.8108852,-1.946293398038621,-2.8831466990193104,8.838986553432413,0.5422222222222223,-0.10444444444444444,-0.6877777777777778,0.008555020452295883,0.052077701880920216,-0.6586871008919909
1590515216.8208852,-1.953676014331752,-2.9415420644928845,8.85,0.5384233293522911,-0.09456732298262352,-0.7288058207730339,0.013948022355199884,0.06090981704979524,-0.7360440258548017
1590515216.8308852,-1.9193137882282907,-2.940686211771709,8.85679767839869,0.5366666666666666,-0.09,-0.7477777777777778,0.01204904133572047,0.07221939392193362,-0.8628362560689902
1590515216.8408852,-1.9005878413572437,-2.959412158642756,8.769409926333806,0.5366666666666666,-0.09,-0.7477777777777778,0.01341083062094255,0.078347445705433,-0.9220740899761506
1590515216.8508852,-1.863973942530787,-3.0025325718365163,8.752532571836516,0.5366666666666666,-0.09,-0.7477777777777778,0.013471049556592944,0.08749031361412204,-1.0208648221261056
1590515216.8608851,-1.8578406320101435,-3.082725056081147,8.785681264020287,0.5366666666666666,-0.09,-0.7477777777777778,0.015655810215224907,0.097381197147919,-1.136320543314949
1590515216.8708851,-1.8195280875671211,-3.101415737298637,8.791887649731516,0.51,-0.06333333333333334,-0.7533333333333333,0.014232277833296643,0.10736471563223714,-1.2679694685892688
1590515216.8808851,-1.81086575795126,-3.1274027261462205,8.826536968194961,0.51,-0.06333333333333334,-0.7533333333333333,0.015177191412607857,0.11586893784603804,-1.3558464314652114
1590515216.890885,-1.7912454667395301,-3.24252719956282,8.708095533806944,0.51,-0.06333333333333334,-0.7533333333333333,0.021409037612512664,0.12285630038468306,-1.4495301009993447
1590515216.900885,-1.7830117663736886,-3.291929401757868,8.762894102636801,0.51,-0.06333333333333334,-0.7533333333333333,0.018767423507986235,0.12707536859952812,-1.5237750870439872
1590515216.910885,-1.7377908747391575,-3.2748257289492977,8.761860583159438,0.51,-0.06333333333333334,-0.7533333333333333,0.021290210281341284,0.13639186785737778,-1.6155011020096006
1590515216.920885,-1.6768438976161704,-3.398099527628254,8.85357464572119,0.4697209711084258,-0.0508660148668937,-0.7533333333333333,0.02479048662973957,0.13868482006088936,-1.7179634556483832
1590515216.930885,-1.6508527392824763,-3.4104263696412382,8.81255821784743,0.4633333333333333,-0.048888888888888885,-0.7533333333333333,0.009424291954048519,0.15524464648997785,-1.807337380186671
1590515216.940885,-1.6306483060004322,-3.4777309289984872,8.655186448003459,0.4633333333333333,-0.048888888888888885,-0.7533333333333333,0.020336829189470926,0.16232162894944735,-1.8846620812227488
1590515216.950885,-1.570184193722678,-3.450092096861339,8.729754408369763,0.4633333333333333,-0.048888888888888885,-0.7533333333333333,0.01637585668295615,0.1723211250070441,-1.9610860328549695
1590515216.960885,-1.5118894667884226,-3.5579195616786436,8.771507523722555,0.4633333333333333,-0.048888888888888885,-0.7533333333333333,0.017268015429082142,0.17506792470934596,-2.009308092585299
1590515216.970885,-1.4732909341813163,-3.6133863322733544,8.759968200635987,0.4588818223635527,-0.0622434217982307,-0.734043452464284,0.016724915740774695,0.17926563987777241,-2.0584601244760443
1590515216.980885,-1.4131897985584918,-3.676810201441508,8.768724080576602,0.4566666666666666,-0.06888888888888889,-0.7244444444444444,0.017383701910791978,0.18312039024110197,-2.1229672082829345
1590515216.990885,-1.3793738767553079,-3.7167513478936307,8.684246854914862,0.4566666666666666,-0.06888888888888889,-0.7244444444444444,0.014112500721559246,0.18793667997714228,-2.1527555294726652
1590515217.000885,-1.3175456650373039,-3.752129809989342,8.648194714984013,0.4566666666666666,-0.06888888888888889,-0.7244444444444444,0.012660717113571364,0.19354170096132123,-2.184878732025989
1590515217.010885,-1.265470394220198,-3.7747177634678812,8.704153290403644,0.4566666666666666,-0.06888888888888889,-0.7244444444444444,0.009879051501904136,0.1947235570855234,-2.1995679112149493
1590515217.020885,-1.2160819988261926,-3.833849668818647,8.753986333528967,0.4699544450965596,-0.05825866614497452,-0.7160288514388455,0.007414667759517915,0.19547240388117793,-2.1980463884412935
1590515217.030885,-1.3026692556028634,-3.7515056379544283,8.798737659664063,0.49,-0.042222222222222223,-0.7033333333333334,0.008726646259971648,0.191101936891344,-2.1565143759853176
1590515217.040885,-1.3366573339555141,-3.770027998133458,8.828335666511121,0.49,-0.042222222222222223,-0.7033333333333334,-0.009458956985940648,0.17034657150577376,-2.0527375490574666
1590515217.050885,-1.3941971193487834,-3.71296345678146,8.502594691321205,0.49,-0.042222222222222223,-0.7033333333333334,0.018422717880005796,0.17600077493328048,-1.939551614449832
1590515217.060885,-1.3175353280904398,-3.7096934136151387,8.611085033177686,0.49,-0.042222222222222223,-0.7033333333333334,0.003523317747064998,0.16375839092090871,-1.7705829631130194
1590515217.070885,-1.0882879535310825,-3.7432086189591476,8.680748286245116,0.5017409946303534,-0.034150288413854306,-0.7172757644568779,0.021490114181813076,0.1498550422602802,-1.5976873893131947
1590515217.080885,-0.8839284122467171,-3.714285665306682,8.800714506119931,0.5077777777777778,-0.03,-0.7244444444444444,0.014920973382464807,0.13947049650505114,-1.4115738158164834
1590515217.090885,-0.8983481012658228,-3.8895379746835443,8.649911392405064,0.5077777777777778,-0.03,-0.7244444444444444,0.016122202805605848,0.11792018838632573,-1.2818483700969445
1590515217.100885,-0.9924598643894028,-3.742818230538015,8.787935783023045,0.5077777777777778,-0.03,-0.7244444444444444,0.024431107035159515,0.1096588290916222,-1.1904604091123738
1590515217.110885,-0.9490141507658726,-3.4677870610816304,8.727163072522675,0.5077777777777778,-0.03,-0.7244444444444444,0.017938359363892972,0.10828855062369834,-1.1374687967037125
1590515217.120885,-0.8503820549927641,-3.759243286702042,8.584996301656215,0.48320433796072965,-0.03589762555609155,-0.6349971235103893,0.027816588380384144,0.09930727694184885,-1.0710683806471586
1590515217.130885,-0.8478370315884107,-3.880533284295697,8.914829389890073,0.48,-0.03666666666666667,-0.6233333333333333,-0.0021784074827272785,0.09048078265464903,-1.0287455674563915
1590515217.1408849,-0.85,-3.883515403217327,8.705034959520555,0.48,-0.03666666666666667,-0.6233333333333333,0.021459122268681984,0.089256388662592,-0.9406146614587108
1590515217.1508849,-0.9352847380410023,-3.8160364464692482,8.75371298405467,0.48,-0.03666666666666667,-0.6233333333333333,0.008980096692351232,0.07316766109656182,-0.8223745936351016
1590515217.1608849,-0.9743993749800695,-3.7680031250996526,8.747207500239167,0.48,-0.03666666666666667,-0.6233333333333333,0.008769188625703755,0.06126180671507879,-0.719607977521804
1590515217.1708848,-0.9507738478027867,-3.757535691318328,8.720916613076099,0.4777268548291056,-0.017182565201857805,-0.6126170775276885,0.018862931167146216,0.056135578448355136,-0.6082524821784435
1590515217.1808848,-0.8257418819625504,-3.842200758473572,8.71751244370704,0.4722222222222222,0.03,-0.5866666666666667,0.008455295962216251,0.05144654270816629,-0.4766671967534519
1590515217.1908848,-0.7655961762046247,-3.926942255522542,8.666269215863583,0.4722222222222222,0.03,-0.5866666666666667,0.006414919223819425,0.04492754479129732,-0.3958478497952082
1590515217.2008848,-0.7996164619356858,-3.894724043502073,8.636043032626555,0.4722222222222222,0.03,-0.5866666666666667,0.007635815477475192,0.03978522137686381,-0.3578996423410491
1590515217.2108848,-0.800926147023708,-3.874536926488146,8.697221558928875,0.4722222222222222,0.03,-0.5866666666666667,0.003407194971833123,0.031240217753535714,-0.3206808073320419
1590515217.2208848,-0.7798021881678204,-3.9243076585873715,8.740989059160897,0.4515287138679347,0.06648592262466488,-0.5828547046014032,0.0005130485058957013,0.025645312350450887,-0.29362768180366183
1590515217.2308848,-0.7750766011773885,-3.964974466274204,8.71487233137102,0.43,0.10444444444444444,-0.5788888888888889,0.005980072221867319,0.028887518654292895,-0.2733060316661337
1590515217.2408848,-0.76,-3.9848541170807374,8.63602118043484,0.43,0.10444444444444444,-0.5788888888888889,0.0009056465553072095,0.027053758619427652,-0.23858522634393436
1590515217.2508848,-0.7831433481311757,-3.9822855506229415,8.669430044393527,0.43,0.10444444444444444,-0.5788888888888889,0.003708949630361357,0.022564560342266657,-0.193980112049576
1590515217.2608848,-0.7779331171009954,-3.9981003243485067,8.714133765798008,0.43,0.10444444444444444,-0.5788888888888889,0.004796007546731566,0.018525883821175548,-0.15693371682937604
1590515217.2708848,-0.7453442309986875,-4.042874358668416,8.754655769001312,0.46926659507616436,0.13183974333479165,-0.5861943019263148,0.007052850309261181,0.015465952677688388,-0.11631710460582659
1590515217.2808847,-0.670047924316923,-4.104407169975727,8.74445509429265,0.4777777777777778,0.13777777777777778,-0.5877777777777777,0.011875030891620876,0.01611947403777952,-0.09769925048937232
1590515217.2908847,-0.6196594637952407,-4.135170268102379,8.648978391385722,0.4777777777777778,0.13777777777777778,-0.5877777777777777,0.011435149847477493,0.014707642194966859,-0.09215662775221524
1590515217.3008847,-0.5912005168565723,-4.158799483143428,8.626266494381143,0.4777777777777778,0.13777777777777778,-0.5877777777777777,0.015009718806539393,0.018282211154028758,-0.09368049122048971
1590515217.3108847,-0.5337531106134129,-4.15577018788105,8.519718956078139,0.4777777777777778,0.13777777777777778,-0.5877777777777777,0.017453292519943295,0.02072578486743266,-0.09878285734931457
1590515217.3208847,-0.45534877519143585,-4.128811383290792,8.325348775191436,0.477535652151828,0.1383060518707591,-0.5872274922642555,0.018296069321689194,0.021266026407013368,-0.10565931827107362
1590515217.3308847,-0.6588566256882118,-4.241201448073007,8.859030846971867,0.4655555555555556,0.16444444444444445,-0.56,0.01642027080523733,0.025764196148176845,-0.05282075953007992
1590515217.3408847,-0.6767053701015965,-4.356618287373005,8.556415094339624,0.4655555555555556,0.16444444444444445,-0.56,-0.008349050989107487,-0.0036350471358662746,0.10548048689177815
1590515217.3508847,-0.9244391691394658,-4.163191846213391,8.708778738227327,0.4655555555555556,0.16444444444444445,-0.56,0.0016865586501661114,-0.029846909089388255,0.28072996721418564
1590515217.3608847,-1.0682774475945709,-4.031722552405429,8.583445104810858,0.4655555555555556,0.16444444444444445,-0.56,0.0015748316384840613,-0.033331753401402535,0.454738209791739
1590515217.3708847,-1.1667532073946862,-3.8670347173115127,8.897272451762804,0.4413828931467077,0.18336218024267323,-0.5799687211203526,0.004245266419377223,-0.053360972018736796,0.7242099653477261
1590515217.3808846,-1.1782068811166047,-4.048758265681906,8.755862377667908,0.44,0.18444444444444444,-0.5811111111111111,-0.007274690985379734,-0.07155094437035708,0.9457950322616877
1590515217.3908846,-1.1338330226967896,-4.124625232977408,8.616124301067776,0.44,0.18444444444444444,-0.5811111111111111,-0.00415193654503794,-0.08596890048740133,1.1350922072241758
1590515217.4008846,-1.0651542649727768,-4.177876588021779,8.672413793103448,0.44,0.18444444444444444,-0.5811111111111111,-0.008362376089410218,-0.10597490342474643,1.3695113210802645
1590515217.4108846,-0.997560028316146,-4.170335010618555,8.684115024776627,0.44,0.18444444444444444,-0.5811111111111111,-0.017719452142060065,-0.11984521011653707,1.4993648694808308
1590515217.4208846,-1.0203467443886902,-4.188769568222109,8.717539136444218,0.46477379485792697,0.17405543369757187,-0.5962950498950018,-0.02072578486743266,-0.12827755053157197,1.592991181897667
1590515217.4308846,-1.029236280789804,-4.2269092980254905,8.729236280789804,0.4744444444444445,0.17,-0.6022222222222222,-0.021899924492295702,-0.13039593292950977,1.642021839279036
1590515217.4408846,-1.03911930748965,-4.316917576213775,8.686541211893113,0.4744444444444445,0.17,-0.6022222222222222,-0.023428844661168707,-0.1324638885858041,1.677169365904437
1590515217.4508846,-1.0654070592049276,-4.325115289540868,8.617557644770434,0.4744444444444445,0.17,-0.6022222222222222,-0.020459365240812485,-0.13358236758471248,1.6802597834893849
1590515217.4608846,-1.147239030254458,-4.178278651572831,8.628619515127228,0.4744444444444445,0.17,-0.6022222222222222,-0.01903306836641338,-0.13097498766927418,1.640121480688842
1590515217.4708846,-1.2601350750192097,-4.0541699356978205,8.72596513932139,0.4883161456437633,0.15325829165599458,-0.5897855245952468,-0.02213459633016669,-0.12496120176729106,1.565786587057319
1590515217.4808846,-1.3149155661398573,-4.005084433860143,8.76022515696038,0.5066666666666667,0.13111111111111112,-0.5733333333333334,-0.0229135866360075,-0.11727965962732383,1.471764053323832
1590515217.4908845,-1.432938149742728,-3.9973527249816234,8.690589100073506,0.5066666666666667,0.13111111111111112,-0.5733333333333334,-0.020212499900892016,-0.10812076916597944,1.366716583765888
1590515217.5008845,-1.4853960276421978,-3.9615099308945054,8.726188082926594,0.5066666666666667,0.13111111111111112,-0.5733333333333334,-0.022993846260991355,-0.10245169372610106,1.2876420800867099
1590515217.5108845,-1.510092561983471,-3.929907438016529,8.746697520661158,0.5066666666666667,0.13111111111111112,-0.5733333333333334,-0.018884174022404762,-0.09998609043145117,1.2255215190460753
1590515217.5208845,-1.5656636078454367,-3.8971681960772817,8.673893986924272,0.5210422469143041,0.10151432824832807,-0.5953195148885436,-0.01885302519132929,-0.09096372302756932,1.1276392616591566
1590515217.5308845,-1.65338617653446,-3.96338617653446,8.683357352970209,0.5255555555555556,0.09222222222222222,-0.6022222222222222,-0.01963495408493621,-0.08835729338221293,1.1039207518864134
1590515217.5408845,-1.6420825274016764,-4.023958736299162,8.676041263700839,0.5255555555555556,0.09222222222222222,-0.6022222222222222,-0.015714715025210067,-0.08509042749910782,1.092160034707235
1590515217.5508845,-1.553011556764106,-4.090656393987461,8.716988443235895,0.5255555555555556,0.09222222222222222,-0.6022222222222222,-0.009636372271720524,-0.08290313946973066,1.0808322006832403
1590515217.5608845,-1.470187019813991,-4.180882531338455,8.772139102304893,0.5255555555555556,0.09222222222222222,-0.6022222222222222,-0.007032065120199808,-0.08048813804062913,1.112037913539141
1590515217.5708845,-1.4233848562577034,-4.170463706319331,8.743693993803925,0.5336407312405846,0.040036088255216144,-0.5978121263940245,-0.0036585837250843857,-0.07709661585479766,1.1842881522021362
1590515217.5808845,-1.48006236416895,-4.1049636209014455,8.5998752716621,0.5377777777777778,0.013333333333333334,-0.5955555555555555,-0.015285236705993518,-0.09437557059362775,1.2348487911006616
1590515217.5908844,-1.593536494166916,-4.08147210589291,8.61384123541729,0.5377777777777778,0.013333333333333334,-0.5955555555555555,-0.035035801010532296,-0.11402412076354107,1.2650111781396103
1590515217.6008844,-1.7722664593053397,-4.001143079315708,8.586152928978747,0.5377777777777778,0.013333333333333334,-0.5955555555555555,-0.0177774881070896,-0.10234073744108921,1.2567866901684464
1590515217.6108844,-1.82,-3.9375780980324477,8.708438039351053,0.5377777777777778,0.013333333333333334,-0.5955555555555555,-0.021565252956024985,-0.09422476842502368,1.2114740265673634
1590515217.6208844,-1.7935765895953757,-3.894768786127168,8.80715317919075,0.5495215157353885,-0.05272519267822735,-0.5828331727681438,-0.021675926853198184,-0.08852714456257998,1.1566892969034142
1590515217.6308844,-1.751675146176627,-3.841675146176627,8.75248728073506,0.5644444444444444,-0.13666666666666666,-0.5666666666666667,-0.009906067180054857,-0.0804501576656864,1.0711516368842617
1590515217.6408844,-1.6975658840440824,-3.817875966869738,8.679069751523032,0.5644444444444444,-0.13666666666666666,-0.5666666666666667,-0.011106179107982946,-0.06729833807522252,0.9208725666919995
1590515217.6508844,-1.6880646577748504,-3.7919353422251496,8.701290959986826,0.5644444444444444,-0.13666666666666666,-0.5666666666666667,-0.0068616543260574875,-0.05556195896268915,0.7980301622810488
1590515217.6608844,-1.6898575274848553,-3.7565716849899036,8.769786291227284,0.5644444444444444,-0.13666666666666666,-0.5666666666666667,-0.00400489331599299,-0.04431900824680799,0.6719993650214505
1590515217.6708844,-1.7495610088616225,-3.761112815269257,8.75355794137696,0.558221881390593,-0.36551870786942364,-0.41939934105885024,-0.006811706577515531,-0.03340369980741031,0.49399599274340933
1590515217.6808844,-1.8325576550564673,-3.802557655056467,8.757442344943533,0.5544444444444444,-0.5044444444444445,-0.33,-0.005175157025822063,-0.0245882850636909,0.36086373489317164
1590515217.6908844,-1.8781276251516754,-3.814374474969665,8.717497899878659,0.5544444444444444,-0.5044444444444445,-0.33,-0.0020451931733306036,-0.008862198300831946,0.22940876267239646
1590515217.7008843,-1.9267604011708814,-3.830070300878161,8.666549498536398,0.5544444444444444,-0.5044444444444445,-0.33,0.0018282761524187209,0.0014672221036510593,0.10812324243011269
1590515217.7108843,-1.908065650644783,-3.829355216881594,8.692579132473623,0.5544444444444444,-0.5044444444444445,-0.33,0.005594823767200463,0.007917155186911558,0.03578768985716685
1590515217.7208843,-1.8314775006267234,-3.7714775006267236,8.751565555277011,0.8258110150135093,-0.464308549901117,0.13905082727500634,0.007047706189030358,0.011411029319016181,-0.03654816367797288
1590515217.7308843,-1.7674644624269804,-3.671407602310149,8.774507107514603,1.0577777777777777,-0.43,0.54,0.00703663385667384,0.013366553633440081,-0.098221288998983
1590515217.7408843,-1.7950639134709931,-3.6378564405113076,8.773117010816126,1.0577777777777777,-0.43,0.54,0.004632544886531163,0.01748868820905085,-0.15219180979272826
1590515217.7508843,-1.9091588886673794,-3.71457944433369,8.737102778331552,1.0577777777777777,-0.43,0.54,0.0024059484096459792,0.02213265350789509,-0.20801227884434037
1590515217.7608843,-1.9232830446051015,-3.7068678215795936,8.726415223025509,1.0577777777777777,-0.43,0.54,0.006186860083423358,0.024730983385863107,-0.24812089652801206
1590515217.7708843,-1.9147714218731684,-3.644466651037393,8.770152385417887,1.0803386342619727,-0.11527605204548114,0.06960614230453643,0.009330240997842298,0.028428091026762053,-0.3025258255017164
1590515217.7808843,-1.8476471540953263,-3.6623528459046737,8.73928111985192,1.1022222222222222,0.19,-0.38666666666666666,0.014993572585427859,0.03462852667036406,-0.35598152069547645
1590515217.7908843,-1.8263904851301542,-3.7655619405206164,8.699073009913231,1.1022222222222222,0.19,-0.38666666666666666,0.013978562308110506,0.03897729010905346,-0.41318594218381877
1590515217.8008842,-1.8170307512650838,-3.814257687816271,8.712969248734916,1.1022222222222222,0.19,-0.38666666666666666,0.015757473143090686,0.04395712609195178,-0.48860370121038876
1590515217.8108842,-1.7950829899487812,-3.834585050256094,8.739834020102437,1.1022222222222222,0.19,-0.38666666666666666,0.020153211078953952,0.04903306841787955,-0.5664896773738571
1590515217.8208842,-1.771263747853075,-3.7944231174857626,8.778104378220387,0.9445254333189368,0.14992523846352152,-0.4975228252026396,0.0177289995318329,0.05491463763364002,-0.6564088942648082
1590515217.8308842,-1.7675839363241679,-3.7434452484322236,8.786554751567776,0.7655555555555555,0.10444444444444444,-0.6233333333333333,0.01884429909591544,0.0642077311455988,-0.7586473144113252
1590515217.8408842,-1.751302193094185,-3.742781315856511,8.69538570204488,0.7655555555555555,0.10444444444444444,-0.6233333333333333,0.022907446432425576,0.07122669539031692,-0.8446766732774602
1590515217.8508842,-1.73,-3.763481692143619,8.71812394833511,0.7655555555555555,0.10444444444444444,-0.6233333333333333,0.022907446432425576,0.07917280583398409,-0.9246099904448594
1590515217.8608842,-1.710793733681462,-3.786798955613577,8.763994778067884,0.7655555555555555,0.10444444444444444,-0.6233333333333333,0.02430416553356464,0.08573986912865093,-0.9797910443314707
1590515217.8708842,-1.6762110759928541,-3.781035179332142,8.735175896660712,0.7655555555555555,0.10444444444444444,-0.6233333333333333,0.026819087370049392,0.08888352142425689,-1.017514871878742
1590515217.8808842,-1.644853930244664,-3.844429776158251,8.768143258719416,0.6444444444444445,0.09888888888888887,-0.6377777777777778,0.026865691453613026,0.0935307727297955,-1.0998669044339187
1590515217.8908842,-1.698645920941968,-3.8234062237174093,8.744104289318756,0.6444444444444445,0.09888888888888887,-0.6377777777777778,0.025708376944588465,0.09770320858935456,-1.149235642416142
1590515217.9008842,-1.6133209831008584,-3.8632839324034336,8.676456712714591,0.6444444444444445,0.09888888888888887,-0.6377777777777778,0.029818735790987396,0.10253809355466686,-1.2038542967547345
1590515217.9108841,-1.6142000620240518,-3.886375038765032,8.787100031012026,0.6444444444444445,0.09888888888888887,-0.6377777777777778,0.02907335981899051,0.10277534671269442,-1.2386792300788059
1590515217.9208841,-1.5277218499754863,-3.7970264749142015,8.762278150024514,0.6239808610702547,0.09854782916598571,-0.6422115541755189,0.036170069787548574,0.10714992430204115,-1.283465722755055
1590515217.9308841,-1.4812985498231017,-3.706233816725633,8.78064927491155,0.5777777777777777,0.09777777777777777,-0.6522222222222223,0.029594080939368782,0.11051391099098011,-1.3080336354541422
1590515217.940884,-1.4480189896450193,-3.7641044430476067,8.707876567307375,0.5777777777777777,0.09777777777777777,-0.6522222222222223,0.027275948184745345,0.11301421196449998,-1.3203529721028449
1590515217.950884,-1.4514727008820574,-3.83,8.642790948676915,0.5777777777777777,0.09777777777777777,-0.6522222222222223,0.03007816989143043,0.11539551693538916,-1.330331614409009
1590515217.960884,-1.3739889809378267,-3.8383656398294863,8.698365639829486,0.5777777777777777,0.09777777777777777,-0.6522222222222223,0.03246807419348466,0.11544978190625604,-1.3342431834792472
1590515217.970884,-1.29318407960199,-3.8794278606965173,8.74363184079602,0.5693698175787728,0.10571862907683803,-0.6648341625207297,0.034051829575990115,0.11534314445665882,-1.3249008176430401
1590515217.980884,-1.2532890064749704,-3.8420153635498617,8.79,0.5577777777777778,0.11666666666666667,-0.6822222222222222,0.028969229216347897,0.11283877250819137,-1.319407538979177
1590515217.990884,-1.1986438377852666,-3.78,8.73313527695474,0.5577777777777778,0.11666666666666667,-0.6822222222222222,0.02888852394253246,0.11235557059713497,-1.30764722310252
1590515218.000884,-1.16,-3.7497405619931894,8.70521619833901,0.5577777777777778,0.11666666666666667,-0.6822222222222222,0.02836160034490785,0.11180543848982043,-1.2887175184821702
1590515218.010884,-1.1308580824859895,-3.7709983556495184,8.766427396892514,0.5577777777777778,0.11666666666666667,-0.6822222222222222,0.03154049041343338,0.11205946233176987,-1.2658393698049448
1590515218.020884,-1.0549071782178219,-3.856654290429043,8.789851485148516,0.5544320682068207,0.12447332233223322,-0.6783188943894389,0.03763568705327345,0.11289896093123745,-1.2433565116679122
1590515218.030884,-0.8699309805365113,-3.890057516219574,8.635051764597616,0.5377777777777778,0.16333333333333333,-0.6588888888888889,0.03326218260597738,0.10853578064451323,-1.2326400390302512
1590515218.040884,-0.7892133215540443,-3.9524720070675734,8.646741314486471,0.5377777777777778,0.16333333333333333,-0.6588888888888889,0.029807898574267588,0.10690141668465268,-1.2382645647464323
1590515218.050884,-0.7427047448293527,-3.9916190689633093,8.656209579304605,0.5377777777777778,0.16333333333333333,-0.6588888888888889,0.03207665553019562,0.10784472652121634,-1.2554859859489382
1590515218.060884,-0.6778650838150848,-4.043408286769397,8.73936331470776,0.5377777777777778,0.16333333333333333,-0.6588888888888889,0.03346849629962048,0.11010445744058811,-1.2845370290945415
1590515218.070884,-0.621902927868975,-4.064601951912651,8.7607960961747,0.5293808140863445,0.16573246581659998,-0.6588888888888889,0.03662014751128757,0.11185357551654623,-1.3140210911092884
1590515218.080884,-0.5953874362244898,-4.047693718112245,8.772702885841836,0.5066666666666667,0.17222222222222222,-0.6588888888888889,0.030961889093170693,0.11420113036251459,-1.3534241618819878
1590515218.090884,-0.543679878351129,-4.039792072989322,8.66284817030842,0.5066666666666667,0.17222222222222222,-0.6588888888888889,0.038269802660879676,0.12070348571735717,-1.4100813006739026
1590515218.100884,-0.5060187510463754,-4.056516407165578,8.70651640716558,0.5066666666666667,0.17222222222222222,-0.6588888888888889,0.030266719048290983,0.12249876280795774,-1.4479565081546415
1590515218.110884,-0.3846199657998703,-4.012690017100065,8.696725042750161,0.5066666666666667,0.17222222222222222,-0.6588888888888889,0.04251476365043492,0.1303680969417899,-1.5195740204131414
1590515218.120884,-0.3165432843401797,-4.04018507348973,8.7572835782991,0.4961247085630439,0.19257910683611457,-0.6559807625154757,0.04030017379448225,0.13486575945879137,-1.5751531397764076
1590515218.130884,-0.3058508310442758,-4.082787839284883,8.714149168955725,0.4744444444444445,0.2344444444444445,-0.65,0.044271457960486434,0.14169662820128331,-1.64344360515798
1590515218.140884,3.118272040174496,-10.095724865577763,2.929405245003551,0.4744444444444445,0.2344444444444445,-0.65,-0.0644609945142596,0.223150064626796,-1.8032683909232323
1590515218.150884,5.151959035742388,-9.298148501394884,-1.9787856172059421,0.4744444444444445,0.2344444444444445,-0.65,-0.739579993280431,0.7530098605379025,-6.2579249757614575
1590515218.160884,-0.525219089442901,-7.694150360453141,0.517933855391252,0.4744444444444445,0.2344444444444445,-0.65,-1.2836384034469555,1.3072417703708201,-11.322992118548255
1590515218.170884,-3.7240729319481454,-7.90567138708422,1.9480734109757192,0.46893842167067523,0.254774374686054,-0.653388321706935,-1.1358474658719206,1.0315287260266022,-9.296677796988854
1590515218.180884,0.26128059062115483,0.5597867201385409,0.3197561864831609,0.46,0.2877777777777778,-0.6588888888888889,-0.6666572831029821,-0.1233568896053493,-1.982073186831368
1590515218.1908839,1.1992288210957738,-0.27634729149750603,5.188434249700344,0.46,0.2877777777777778,-0.6588888888888889,-0.42164913934082837,-0.40674242614213824,-0.462117725577381
1590515218.2008839,1.83059991177768,-0.9272430524922805,12.705672695191884,0.46,0.2877777777777778,-0.6588888888888889,0.2706063908040161,0.036895775359622074,-0.38045983521280446
1590515218.2108839,0.9941098735133089,0.9624349212342418,14.951843810962181,0.46,0.2877777777777778,-0.6588888888888889,2.0779078448365693,0.296070781797522,-0.3467885440732992
1590515218.2208838,4.077434210526316,3.1762012839191405,14.225748269896194,0.4287867014710941,0.3370806015904814,-0.6386711841599384,2.6145440089303063,-0.23155709267771746,-0.2874595380628739
1590515218.2308838,1.3044322410274876,1.174572680350498,-1.6472074180770617,0.3622222222222222,0.44222222222222224,-0.5955555555555555,1.4671592189354785,-0.20654195414746315,-0.12293051445952169
1590515218.2408838,1.3655857658971793,-0.2712592228234138,6.825509947928152,0.3622222222222222,0.44222222222222224,-0.5955555555555555,-0.027329180824523458,0.09912008186080072,0.09765110430128607
1590515218.2508838,3.5766696713922808,-1.5467126935999345,17.954909858231584,0.3622222222222222,0.44222222222222224,-0.5955555555555555,-0.8836133829681654,0.00508519512736761,0.26289303437855227
1590515218.2608838,0.46790077262535523,-1.8898373345139317,8.649197240827752,0.3622222222222222,0.44222222222222224,-0.5955555555555555,-1.011124454422195,0.2582667635996996,0.4421632670729624
1590515218.2708838,0.4439405321260765,-3.0578990588537724,11.83590922723183,0.3622222222222222,0.44222222222222224,-0.5955555555555555,-0.22898766023519568,0.037412764906962936,0.42778815473201504
1590515218.2808838,0.8074441564052711,-3.141358176712033,10.522767984445885,0.3588888888888889,0.3955555555555556,-0.6311111111111111,0.7289156807124543,-0.11531926522213923,0.538153389741432
1590515218.2908838,0.4040757212011492,-2.8885969538352554,9.410334133574718,0.3588888888888889,0.3955555555555556,-0.6311111111111111,-0.007917570856495401,0.010174619050401824,0.6326575549686932
1590515218.3008838,0.4390639455782313,-2.6649210884353742,10.521361904761905,0.3588888888888889,0.3955555555555556,-0.6311111111111111,-0.40130447506763467,-0.06839479323782507,0.7037951161256317
1590515218.3108838,0.35175656646054,-3.0280426131145535,10.82528194452948,0.3588888888888889,0.3955555555555556,-0.6311111111111111,0.067754730384229,-0.05782498452737428,0.752284540041692
1590515218.3208838,0.1864669041139747,-2.7305366575956462,8.208792420361773,0.3588888888888889,0.4010643998007933,-0.6291949913736371,0.3087207396448376,-0.07730555973141628,0.7846010161466168
1590515218.3308837,0.21322441454516924,-3.0256062448515277,9.636354293335426,0.3588888888888889,0.4211111111111111,-0.6222222222222222,-0.08229719843843059,-0.04166072443869942,0.8243266547543313
1590515218.3408837,0.10791505557017633,-3.182873048970585,9.486618215681114,0.3588888888888889,0.4211111111111111,-0.6222222222222222,-0.10878615109412103,-0.07115521634057155,0.869854925736417
1590515218.3508837,-0.0796485549132948,-3.3033757225433527,9.59731098265896,0.3588888888888889,0.4211111111111111,-0.6222222222222222,-0.03403593813556803,-0.06706402429267229,1.323157561951415
1590515218.3608837,2.8792251973630663,-4.794880442744364,8.865660291364858,0.3588888888888889,0.4211111111111111,-0.6222222222222222,-0.1742086145582301,-0.20128082042501755,2.6738376845873133
1590515218.3708837,9.29680800846423,-10.543396109709448,7.097411410433792,0.3588888888888889,0.4211111111111111,-0.6222222222222222,0.02314581874877647,-0.4567244831582373,3.8445590776386873
1590515218.3808837,2.4705836289913834,-7.173750380131779,9.271843892549418,0.3855555555555555,0.4066666666666667,-0.6077777777777778,0.07092470619060441,-0.1583820227113132,1.0396263120168394
1590515218.3908837,-1.8899061678969096,1.4772851244839234,9.875124483923434,0.3855555555555555,0.4066666666666667,-0.6077777777777778,0.13135797111308944,0.26715569038283776,-0.7843716115213144
1590515218.4008837,-1.5684988427373951,-0.831600150131365,7.854849868635055,0.3855555555555555,0.4066666666666667,-0.6077777777777778,0.25227954188176294,0.3895082856576494,-0.7757854644844855
1590515218.4108837,-0.9353380575644323,-2.497852901680985,10.194773414874856,0.3855555555555555,0.4066666666666667,-0.6077777777777778,-0.22498830952637536,-0.16359950368223114,-0.7351518774722113
1590515218.4208837,-0.6299723341260981,-2.429993852028022,9.997982170881263,0.3855555555555555,0.4066666666666667,-0.6077777777777778,-0.17169193655904186,-0.01111265880347137,-0.6433636795840258
1590515218.4308836,-1.1056206353691518,-7.577934848423687,9.12888992047794,0.4133333333333333,0.3622222222222222,-0.6077777777777778,0.08234334728719817,0.028356976874510158,-0.15874659190659052
1590515218.4408836,2.593788196827191,-3.9970425463205905,8.925718726032374,0.4133333333333333,0.3622222222222222,-0.6077777777777778,-0.07002411041253667,-0.05567598464473751,0.9170600033672947
1590515218.4508836,1.8657462137417644,-4.872213570634038,8.49277042868144,0.4133333333333333,0.3622222222222222,-0.6077777777777778,0.07967557960608605,-0.10486239288827541,0.5216394056899837
1590515218.4608836,-0.6895216907675192,-1.1397997775305893,9.00956618464961,0.4133333333333333,0.3622222222222222,-0.6077777777777778,0.05696951731812135,0.10027513536850902,-0.31300412530899435
1590515218.4708836,-0.8105491660143314,-7.376166074546878,9.064525802372494,0.41248870958029743,0.36306684597525807,-0.6096077959093554,-0.048949183973924636,0.03913689604639706,-0.317492450645773
1590515218.4808836,0.7805925212259892,-4.227557656409948,8.82880110796652,0.40687621685634573,0.3686793386992098,-0.621768196811251,-0.04803084199945104,-0.0269837261157016,0.059027758888399895
1590515218.4908836,-0.16680457550323108,-3.9295513629948746,8.586096709500112,0.4066666666666667,0.3688888888888889,-0.6222222222222222,0.026520889231726952,-0.011999138607461015,0.03654935367355781
1590515218.5008836,0.01,-4.21,8.58,0.4066666666666667,0.3688888888888889,-0.6222222222222222,-0.008726646259971648,-0.011999138607461015,-0.011999138607461015
1590515218.5108836,-0.0008489902334050653,-4.349151009766595,8.73320807813276,0.4066666666666667,0.3688888888888889,-0.6222222222222222,0.0002778314041911289,-0.0019964406288654926,0.002181661564992912
1590515218.5208836,-0.009527809965237543,-4.340472190034762,8.6637775202781,0.4066666666666667,0.3688888888888889,-0.6222222222222222,0.0031179685199572804,-0.00010301588502139181,0.002181661564992912
1590515218.5308836,0.0,-4.306280705088612,8.713140352544306,0.4133333333333333,0.3744444444444445,-0.6355555555555555,-0.0013402546025546207,0.002773644707373038,-0.0005919831423801264
1590515218.5408835,0.0,-4.280789642483373,8.677206373856386,0.4133333333333333,0.3744444444444445,-0.6355555555555555,-0.002007215549777838,0.001090830782496456,0.0014397228129266043
1590515218.5508835,0.0,-4.37282890516863,8.620566827588535,0.4133333333333333,0.3744444444444445,-0.6355555555555555,-0.0012349135425827927,0.001090830782496456,0.0029843268273166946
1590515218.5608835,-0.009354289279751767,-4.281291421440497,8.678708578559503,0.4133333333333333,0.3744444444444445,-0.6355555555555555,0.004081578677891932,-0.0029203117823720028,-0.0008795224434260368
1590515218.5708835,-0.0022811514528069607,-4.295437697094386,8.664562302905614,0.4133333333333333,0.3744444444444445,-0.6355555555555555,0.000995340089703338,0.00093748645286374,0.0014351564977154085
1590515218.5808835,-0.009433365758754864,-4.27339980544747,8.672266536964981,0.4188888888888889,0.3744444444444445,-0.6355555555555555,0.0,0.00211985135771624,6.181020727667174e-05
1590515218.5908835,-0.0016293618796051716,-4.331629361879605,8.70022382872237,0.4188888888888889,0.3744444444444445,-0.6355555555555555,0.00017773580940996057,0.0003798875448566137,0.0012685665919064165
1590515218.6008835,-0.007808379172632055,-4.337808379172632,8.658766483309472,0.4188888888888889,0.3744444444444445,-0.6355555555555555,0.0009712964093937906,-0.002794354855078707,0.0020621271918902467
1590515218.6108835,0.007994122522794063,-4.322005877477206,8.721976490091176,0.4188888888888889,0.3744444444444445,-0.6355555555555555,0.00010940364490262837,0.0006532162028859423,0.0012002344273990843
1590515218.6208835,0.01,-4.339972184346878,8.660097354785929,0.4188888888888889,0.3744444444444445,-0.6355555555555555,0.0032679410218901875,0.001090830782496456,0.001090830782496456
1590515218.6308835,0.0011132795927025884,-4.277792957148918,8.731093763258379,0.4080273417244143,0.3695073775515014,-0.6434548625842644,0.001333710712345476,0.003029612417640348,0.00012143996492450996
1590515218.6408834,-0.007373200591954796,-4.304239203551729,8.728478407103458,0.4066666666666667,0.3688888888888889,-0.6444444444444445,-0.0016639095132442916,0.0002865393653739177,0.001090830782496456
1590515218.6508834,-0.002160486467151544,-4.285925837605818,8.64,0.4066666666666667,0.3688888888888889,-0.6444444444444445,-0.0030368198331357757,0.0006194857537892715,0.0006194857537892715
1590515218.6608834,-0.01,-4.3644034628394515,8.650397691440366,0.4066666666666667,0.3688888888888889,-0.6444444444444445,-0.0016145554704903877,-0.0009017954176622812,-0.001090830782496456
1590515218.6708834,-0.01,-4.292263458635121,8.698491027576585,0.4066666666666667,0.3688888888888889,-0.6444444444444445,0.0010085291040265267,-2.7433892823309743e-05,-0.001090830782496456
1590515218.6808834,0.0,-4.318182962245886,8.71,0.4066666666666667,0.3688888888888889,-0.6222222222222222,0.00021483980900184314,0.0,-0.00021483980900184314
1590515218.6908834,-0.0021320970528826266,-4.27852838821153,8.68441483536541,0.4066666666666667,0.3688888888888889,-0.6222222222222222,0.001090830782496456,-0.0002325757096554343,-0.001090830782496456
1590515218.7008834,-0.007820428522843216,-4.31653871443147,8.598718285908626,0.4066666666666667,0.3688888888888889,-0.6222222222222222,0.0013285851484898452,-0.0006153220505096776,-0.0006153220505096776
1590515218.7108834,0.0,-4.338850792769449,8.636895243383305,0.4066666666666667,0.3688888888888889,-0.6222222222222222,0.002181661564992912,0.0009654717202412105,0.0012161898447517014
1590515218.7208834,0.0,-4.332381701523845,8.675709790856931,0.4066666666666667,0.3688888888888889,-0.6222222222222222,0.002181661564992912,0.00025980333369286,0.0019218582313000518
1590515218.7308834,0.0,-4.328751240638816,8.730936569520889,0.4133333333333333,0.3622222222222222,-0.6311111111111111,-0.0009546122673854666,0.0,0.001090830782496456
1590515218.7408834,-0.0022059523539678582,-4.301029761769839,8.735734524106354,0.4133333333333333,0.3622222222222222,-0.6311111111111111,0.0023099640545179052,-0.00024063207324286577,0.001090830782496456
1590515218.7508833,-0.008556035306255014,-4.332780176531275,8.648556035306255,0.4133333333333333,0.3622222222222222,-0.6311111111111111,-0.0007758065551414365,-0.001090830782496456,0.0007758065551414365
1590515218.7608833,-0.000542776355508005,-4.29271388177754,8.640542776355508,0.4133333333333333,0.3622222222222222,-0.6311111111111111,0.0009724153511765814,-0.001090830782496456,-0.0009724153511765814
1590515218.7708833,0.0,-4.329007407037933,8.679007407037933,0.4133333333333333,0.3622222222222222,-0.6311111111111111,0.0021545927910551115,0.0010366932346208555,0.0010366932346208555
1590515218.7808833,0.0,-4.298432332421077,8.711567667578924,0.4080720554035128,0.3718678984268932,-0.6311111111111111,0.002181661564992912,-0.0014917929820063896,0.0002299561943288409
1590515218.7908833,-0.0009645863622493852,-4.3371062409132515,8.671318722739755,0.4066666666666667,0.3744444444444445,-0.6311111111111111,0.0011960508321282467,0.0009856107328646653,0.001090830782496456
1590515218.8008833,-0.008492990863891731,-4.3145210274083245,8.603563082224975,0.4066666666666667,0.3744444444444445,-0.6311111111111111,0.0020172723694758827,0.00016438919551702914,0.001090830782496456
1590515218.8108833,0.0,-4.311308480617852,8.648691519382147,0.4066666666666667,0.3744444444444445,-0.6311111111111111,-0.0006626315016204522,-0.001090830782496456,0.0006626315016204522
1590515218.8208833,0.0,-4.3182301104015055,8.641769889598496,0.4066666666666667,0.3744444444444445,-0.6311111111111111,0.0016024665482953285,-0.001090830782496456,-0.0016024665482953285
1590515218.8308833,0.0,-4.31,8.728386260146506,0.4066666666666667,0.3688888888888889,-0.6311111111111111,-0.0009734763086875916,5.867723690443221e-05,0.0
1590515218.8408833,0.0,-4.31,8.70347455949317,0.4066666666666667,0.3688888888888889,-0.6311111111111111,0.0008381536857788052,0.0009644922341376306,0.0
1590515218.8508832,0.0,-4.301269438206963,8.63380831462089,0.4066666666666667,0.3688888888888889,-0.6311111111111111,0.0027185954384363734,-0.00067540810070671,-0.001090830782496456
1590515218.8608832,0.0,-4.309951874902973,8.660240625485132,0.4066666666666667,0.3688888888888889,-0.6311111111111111,-0.001085581148771753,0.002171162297543506,-0.001085581148771753
1590515218.8708832,0.0,-4.304032487968725,8.689837560156372,0.4066666666666667,0.3688888888888889,-0.6311111111111111,-0.00043987620063326463,0.0008797524012665293,-0.00043987620063326463
1590515218.8808832,0.005887792848335389,-4.311775585696671,8.71,0.4066666666666667,0.3721598849157419,-0.6212981230305521,-0.0006422585679926729,0.0,-0.0006422585679926729
1590515218.8908832,0.01791098807495741,-4.293133517887564,8.738510434412266,0.4066666666666667,0.3744444444444445,-0.6144444444444445,0.00206772363935098,0.002181661564992912,-0.002181661564992912
1590515218.9008832,4.7700170357753424e-05,-4.319928449744464,8.640262350936968,0.4066666666666667,0.3744444444444445,-0.6144444444444445,0.001093432423204284,0.002181661564992912,-0.002181661564992912
1590515218.9108832,0.0,-4.284855282503676,8.657572358748162,0.4066666666666667,0.3744444444444445,-0.6144444444444445,0.001090830782496456,0.0002648145806362957,0.0026104558958986294
1590515218.9208832,0.0,-4.315091941196449,8.695091941196448,0.4066666666666667,0.3744444444444445,-0.6144444444444445,0.001090830782496456,-0.0009569842418660383,0.0023155081056233295
1590515218.9308832,0.0,-4.305654279213582,8.714345720786419,0.40188475973786053,0.3744444444444445,-0.6263992117664599,0.0003083930909502261,-0.0003083930909502261,0.0006167861819004522
1590515218.9408832,0.0,-4.3198464713763265,8.72,0.4,0.3744444444444445,-0.6311111111111111,0.00108245709506157,-0.00108245709506157,-0.00216491419012314
1590515218.9508832,0.0,-4.312525880287996,8.630310563455959,0.4,0.3744444444444445,-0.6311111111111111,0.003536730738671525,-0.0019061307678881457,-0.0005510615942095325
1590515218.9608831,0.0,-4.31,8.660297914597816,0.4,0.3744444444444445,-0.6311111111111111,0.0021751620767158724,-0.004337325176877666,-6.49948827703946e-06
1590515218.9708831,0.0,-4.31,8.699591725843623,0.4,0.3744444444444445,-0.6311111111111111,0.0013179040993452245,-0.0009082932673950741,-0.0008637574656476874
1590515218.9808831,0.0006307490144546649,-4.319369250985545,8.710630749014456,0.4133333333333333,0.3622222222222222,-0.6355555555555555,6.880404409964505e-05,-6.880404409964505e-05,-0.0019752494326939767
1590515218.990883,0.008285698642137539,-4.3117143013578625,8.718285698642138,0.4133333333333333,0.3622222222222222,-0.6355555555555555,0.0009038295133332714,-0.0009038295133332714,0.0005298269750069022
1590515219.000883,-0.0006800827672080717,-4.31,8.640340041383604,0.4133333333333333,0.3622222222222222,-0.6355555555555555,0.001090830782496456,7.418552171159359e-05,0.0021445688041371153
1590515219.010883,-0.016040724396183922,-4.31,8.648020362198093,0.4133333333333333,0.3622222222222222,-0.6355555555555555,0.001090830782496456,0.0017497715944899295,0.0013067757677479473
1590515219.020883,0.01192780042560829,-4.317981950106402,8.68990975053201,0.4133333333333333,0.3622222222222222,-0.6355555555555555,-0.0015212562816278167,-0.0004304254991313607,0.001090830782496456
1590515219.030883,0.0,-4.329380150483698,8.72896691747283,0.3922222222222223,0.3688888888888889,-0.6311111111111111,-0.0010457540536365762,-6.761509328981974e-05,2.253836442993991e-05
1590515219.040883,0.0,-4.300239431255554,8.678563412466675,0.3922222222222223,0.3688888888888889,-0.6311111111111111,0.0011169486808814797,-0.003246374449104344,0.001090830782496456
1590515219.050883,0.0008064776208795006,-4.30838704475824,8.622419432862637,0.3922222222222223,0.3688888888888889,-0.6311111111111111,0.0019177423807179522,-0.0020936885035679254,0.0011788038439214425
1590515219.060883,0.01,-4.29,8.651532546832009,0.3922222222222223,0.3688888888888889,-0.6311111111111111,-0.0011326245139957453,-0.0009654495879985877,0.0020980741019943332
1590515219.070883,0.01,-4.29,8.68315065395198,0.3922222222222223,0.3688888888888889,-0.6311111111111111,-0.0019948746272641644,0.00162130075180667,0.000373573875457495
1590515219.080883,0.0,-4.328844566712517,8.71942228335626,0.4133333333333333,0.3688888888888889,-0.6444444444444445,0.002244680674848278,0.0009017734529303576,-0.0009017734529303576
1590515219.090883,0.0,-4.31212188266252,8.711060941331262,0.4133333333333333,0.3688888888888889,-0.6444444444444445,0.0031567616012332404,-0.001834469326224529,0.001834469326224529
1590515219.100883,0.0,-4.319730311403975,8.61269688596025,0.4133333333333333,0.3688888888888889,-0.6444444444444445,8.825538666972334e-05,-5.883692444648208e-05,0.001120249244719697
1590515219.110883,0.00823998389369841,-4.311760016106302,8.667679887255888,0.4133333333333333,0.3688888888888889,-0.6444444444444445,-0.000898842807852123,0.001797685615704246,-0.0007068548332077901
1590515219.120883,0.0020861440183062,-4.325827711963387,8.71956927990847,0.4133333333333333,0.3688888888888889,-0.6444444444444445,-0.0002275630111889253,0.0013183937936853813,-0.0002275630111889253
1590515219.130883,-0.0099675665935914,-4.3000973002192255,8.710064866812818,0.4066882889376057,0.39546906647179936,-0.6145417446636703,0.0,0.00217812362918374,0.0
1590515219.140883,-0.0028531160311603123,-4.31429376793768,8.71714688396884,0.4066666666666667,0.3955555555555556,-0.6144444444444445,-0.0015592082064281548,0.0014020574617788345,0.0
1590515219.150883,0.0,-4.310146387164773,8.621463871647734,0.4066666666666667,0.3955555555555556,-0.6144444444444445,0.001042925694847297,1.596836254971973e-05,0.0021497248398934725
1590515219.160883,0.0,-4.332591304347826,8.642591304347826,0.4066666666666667,0.3955555555555556,-0.6144444444444445,0.001090830782496456,-0.0016428860132903145,-0.001104110461587717
1590515219.170883,0.0,-4.2967517885785576,8.70045624665835,0.4066666666666667,0.3955555555555556,-0.6144444444444445,-0.00048171856105102303,-0.002181661564992912,0.0017497117938757851
1590515219.180883,0.0,-4.2991137392019745,8.726371246400658,0.4109141642671054,0.3821051464874995,-0.6250631884455413,0.0009941547265158465,-0.000791671225651377,0.001882502008147833
1590515219.190883,0.0,-4.31,8.71225629791895,0.4133333333333333,0.3744444444444445,-0.6311111111111111,-0.0007216448988256949,-0.000967768821272869,-0.000844706860049282
