time,acc_x,acc_y,acc_z,mag_x,mag_y,mag_z,gyr_x,gyr_y,gyr_z
1590515234.312394,0.07,-4.24,8.67,0.42777777777777776,0.2822222222222222,-0.5577777777777778,0.004363323129985824,-0.00545415391248228,0.001090830782496456
1590515234.322394,0.07770747971398731,-4.2422925202860124,8.631462601430062,0.42777777777777776,0.2822222222222222,-0.5577777777777778,0.00545415391248228,-0.0033975299323633795,0.0007157180278744221
1590515234.332394,0.06085884148790873,-4.259141158512091,8.715705792560456,0.42777777777777776,0.2822222222222222,-0.5577777777777778,0.00545415391248228,-0.004316480593371029,-0.002041133955148526
1590515234.3423939,0.06,-4.252160048845821,8.71216004884582,0.42777777777777776,0.2822222222222222,-0.5577777777777778,0.008874977933381314,-0.005218529135210582,-0.0030368675702176703
1590515234.3523939,0.07076554849082804,-4.25,8.767703354527516,0.4133333333333333,0.27,-0.5722222222222222,0.0127559358462419,-0.00788634063526187,-0.003272492347489368
1590515234.3623939,0.07842888986333407,-4.25,8.744713330409997,0.4133333333333333,0.27,-0.5722222222222222,0.009412172379878615,-0.010394163235034334,-0.003272492347489368
1590515234.3723938,0.08106129457471903,-4.232122589149438,8.602122589149438,0.4133333333333333,0.27,-0.5722222222222222,0.003272492347489368,-0.008726646259971648,-0.0019501230067129128
1590515234.3823938,0.08833599278479257,-4.246671985569585,8.616671985569585,0.4133333333333333,0.27,-0.5722222222222222,0.003272492347489368,-0.008726646259971648,-0.00036303005852889557
1590515234.3923938,0.0703587311872294,-4.249641268812771,8.722511118310607,0.41361234647895617,0.2697209868543771,-0.5727403894926647,0.004402454632152958,-0.009739214038133838,-0.00011739450650140048
1590515234.4023938,0.0824151497665635,-4.242415149766564,8.802075748832817,0.4211111111111111,0.26222222222222225,-0.5866666666666667,0.006244509825394259,-0.007635815477475192,-0.0030090403765187087
1590515234.4123938,0.08287446661074437,-4.242874466610744,8.809122688646559,0.4211111111111111,0.26222222222222225,-0.5866666666666667,0.008208462849124559,-0.007117632066628103,-0.0019225698595693673
1590515234.4223938,0.059880580562189964,-4.21996019352073,8.70992038704146,0.4211111111111111,0.26222222222222225,-0.5866666666666667,0.006544984694978735,-0.00545415391248228,-0.0010864885692034025
1590515234.4323938,0.028159011360747735,-4.21,8.693681977278505,0.4211111111111111,0.26222222222222225,-0.5866666666666667,0.006544984694978735,-0.005855795328066806,0.0014057449545458425
1590515234.4423938,0.020066987713774156,-4.210066987713774,8.710200963141324,0.4212078711421182,0.2622743237773799,-0.5865699066356596,0.006493834112814997,-0.007591972121334846,0.007701580511685712
1590515234.4523938,0.0491871116677718,-4.227195166875414,8.728008055207642,0.4355555555555555,0.27,-0.5722222222222222,-0.0016140780833565158,-0.002137325384216576,0.018761410772093444
1590515234.4623938,0.11,-4.252500625725272,8.66999499419782,0.4355555555555555,0.27,-0.5722222222222222,-0.0027269404441634198,-0.004908602009156332,0.024271326190740444
1590515234.4723938,0.114346921495101,-4.26,8.620867303737752,0.4355555555555555,0.27,-0.5722222222222222,-0.001090830782496456,-0.002087053403501445,0.028124512556110266
1590515234.4823937,0.13,-4.26,8.668729069162767,0.4355555555555555,0.27,-0.5722222222222222,-0.0014989138115801535,0.0020456338886316794,0.026998714209688933
1590515234.4923937,0.13,-4.26,8.706898725949038,0.4355555555555555,0.27,-0.5722222222222222,-0.003283341093571138,0.0014508247946346843,0.02580909602169494
1590515234.5023937,0.123649612640945,-4.2727007747181105,8.761751936795275,0.4263827738146983,0.26506080983184616,-0.5722222222222222,-0.0057487627323925365,0.003861709987309882,0.019547349587791633
1590515234.5123937,0.09585000744749515,-4.271950002482498,8.7880499975175,0.4211111111111111,0.26222222222222225,-0.5722222222222222,-0.006544984694978735,0.00545415391248228,0.016362461737446838
1590515234.5223937,0.08157344511083867,-4.2484265548891615,8.67,0.4211111111111111,0.26222222222222225,-0.5722222222222222,-0.0038484144215444153,0.0009191945463493199,0.0036157648197836403
1590515234.5323937,0.08852248252095828,-4.241477517479042,8.67,0.4211111111111111,0.26222222222222225,-0.5722222222222222,-0.0015743472468410361,0.0001611721547815268,0.005131809602919226
1590515234.5423937,0.07103646281940856,-4.24,8.679481768590296,0.4211111111111111,0.26222222222222225,-0.5722222222222222,-0.001090830782496456,0.00206860101016052,0.00028265138708097933
1590515234.5523937,0.09499875435974091,-4.2566658362398275,8.70499875435974,0.43314754839543074,0.26222222222222225,-0.5898139382531511,-0.00018185042317402718,0.0030906419243153407,0.0027269410779672864
1590515234.5623937,0.06851197196151448,-4.232976056076971,8.682559859807572,0.4355555555555555,0.26222222222222225,-0.5933333333333334,-0.0012531494614562383,0.0023439802439526943,0.0029478549895698035
1590515234.5723937,0.061444554905892464,-4.247110890188215,8.647222774529462,0.4355555555555555,0.26222222222222225,-0.5933333333333334,-0.002024085069157535,0.003114915851653991,0.0014059837741672097
1590515234.5823936,0.04906625364551581,-4.229066253645517,8.71,0.4355555555555555,0.26222222222222225,-0.5933333333333334,-0.002589085271598993,0.0009889748558449356,0.0033743482741408885
1590515234.5923936,0.042155344284984596,-4.222155344284984,8.71,0.4355555555555555,0.26222222222222225,-0.5933333333333334,-0.005604538337803132,0.00023511158929390087,0.004128211540691923
1590515234.6023936,0.07,-4.24,8.76,0.4133333333333333,0.25,-0.5788888888888889,-0.00974298309277852,0.002206492881556107,0.008652152310282062
1590515234.6123936,0.07,-4.24,8.76,0.4133333333333333,0.25,-0.5788888888888889,-0.006994962220456372,0.0031224998389968225,0.0059041314379599166
1590515234.6223936,0.09165070323133538,-4.258349296768665,8.666602812925342,0.4133333333333333,0.25,-0.5788888888888889,-0.006364920905228035,0.0034525561372400686,0.008186454890719546
1590515234.6323936,0.09164131001469264,-4.2472137700048975,8.708358689985307,0.4133333333333333,0.25,-0.5788888888888889,-0.005910049729348186,0.005123149491429,0.006062015001636821
1590515234.6423936,0.051883027631641314,-4.233961009210548,8.748116972368358,0.4133333333333333,0.25,-0.5788888888888889,-0.008078527643479133,0.008737279348313913,0.008953318887144752
1590515234.6523936,0.039595057317254725,-4.23,8.769595057317254,0.4211111111111111,0.26222222222222225,-0.5644444444444444,-0.010886221627790297,0.012021224804635277,0.010996652613661607
1590515234.6623936,0.02,-4.233608128068985,8.7265471675516,0.4211111111111111,0.26222222222222225,-0.5644444444444444,-0.009423891325984295,0.012499590815231755,0.016058802387918007
1590515234.6723936,0.021138767087954605,-4.249772246582409,8.620911013670362,0.4211111111111111,0.26222222222222225,-0.5644444444444444,-0.007586127389729803,0.009718100866977327,0.019759174304299684
1590515234.6823936,0.07085330191656324,-4.24,8.664266509582816,0.4211111111111111,0.26222222222222225,-0.5644444444444444,-0.00545415391248228,0.005081830713542122,0.025554511996093682
1590515234.6923935,0.07967727683924852,-4.24,8.708386384196244,0.4211111111111111,0.26222222222222225,-0.5644444444444444,-0.00545415391248228,0.0012316453256853615,0.030367243730914636
1590515234.7023935,0.06176777133575473,-4.212651657003632,8.71,0.4211111111111111,0.26931253336942873,-0.5715347555916509,-0.004459740099458631,0.002085244595520105,0.031537675722924416
1590515234.7123935,-0.0036125204515030825,-4.205462493182832,8.67848749772761,0.4211111111111111,0.27,-0.5722222222222222,-0.008891634663703449,0.0007608539750328534,0.03731732305223744
1590515234.7223935,-0.06599778545340364,-4.184667404848865,8.671555801616288,0.4211111111111111,0.27,-0.5722222222222222,-0.009647765413017583,-0.000751407523595412,0.04336636904675051
1590515234.7323935,-0.04477022526934378,-4.185229774730657,8.717155337904016,0.4211111111111111,0.27,-0.5722222222222222,-0.011088524608893553,-0.007325510979465132,0.061426657892196805
1590515234.7423935,-0.07763447600391774,-4.152365523996083,8.766451714005877,0.4211111111111111,0.27,-0.5722222222222222,-0.004814890748526423,-0.012702911431208386,0.07128522538705942
1590515234.7523935,-0.06812406085649887,-4.143751878287002,8.7481240608565,0.4133333333333333,0.27,-0.5511111111111111,-0.00395405669722161,-0.011317574257728773,0.10506299596646239
1590515234.7623935,-0.05846647169417171,-4.156932943388344,8.716997075412577,0.4133333333333333,0.27,-0.5511111111111111,-0.002348943553175625,-0.012253559449043905,0.12996215366802572
1590515234.7723935,-0.05070643485211831,-4.1414128697042365,8.592825739408473,0.4133333333333333,0.27,-0.5511111111111111,-0.003426612523993164,-0.007558755389223294,0.15570710204114166
1590515234.7823935,-0.06667513299468023,-4.1793350265989355,8.672659893604255,0.4133333333333333,0.27,-0.5511111111111111,-0.007708352823017384,-0.00574430329465105,0.17932870180330834
1590515234.7923934,-0.0247338106475741,-4.170946762129515,8.706212951481941,0.4133333333333333,0.27,-0.5511111111111111,-0.008623370532513983,-0.00940437413263744,0.19854407370273688
1590515234.8023934,0.004505938398717921,-4.153662707734188,8.726337292265812,0.419686724770038,0.26364660856329536,-0.5565568751997151,-0.010508768390590542,-0.01070853810777755,0.21675196315491793
1590515234.8123934,0.01964875132341035,-4.11035124867659,8.699736563492557,0.4211111111111111,0.26222222222222225,-0.5577777777777778,-0.016362461737446838,-0.012008717429179394,0.24570513306981717
1590515234.8223934,-0.01517967241701439,-4.145179672417015,8.67361524568724,0.4211111111111111,0.26222222222222225,-0.5577777777777778,-0.016362461737446838,-0.012958515347226534,0.27229947477513705
1590515234.8323934,-0.09804972867903135,-4.198781080424395,8.728537296509273,0.4211111111111111,0.26222222222222225,-0.5577777777777778,-0.019555175985268736,-0.017346921720386665,0.30258614003678586
1590515234.8423934,-0.11735013105605817,-4.191324934471972,8.747350131056058,0.4211111111111111,0.26222222222222225,-0.5577777777777778,-0.024366468344010205,-0.023131109630832095,0.3335326487920883
1590515234.8523934,-0.06315343659244918,-3.1342045821232656,8.509403839948371,0.4211111111111111,0.25555555555555554,-0.5788888888888889,-0.045402795369333976,-0.029337768937214504,0.34711351321425254
1590515234.8623934,-0.08853037270087125,-3.168040496934495,8.906975838980316,0.4211111111111111,0.25555555555555554,-0.5788888888888889,-0.10353487582161047,-0.028415037501464076,0.34895897608575344
1590515234.8723934,-0.3161253979040738,-2.816679065774885,8.760405951571943,0.4211111111111111,0.25555555555555554,-0.5788888888888889,-0.11229720360079694,-0.02913242704721418,0.3667948645519113
1590515234.8823934,-0.3780502908613248,-2.853710827547382,9.009497091386752,0.4211111111111111,0.25555555555555554,-0.5788888888888889,-0.0953687827409765,-0.03642277637145935,0.41684832301612146
1590515234.8923934,-0.31284273219938835,-2.499899125395718,8.988387079465578,0.4211111111111111,0.25555555555555554,-0.5788888888888889,-0.07321981406934452,-0.03055865540111698,0.496882230250056
1590515234.9023933,-0.28768681750053526,-2.3853022625080293,8.999181357504817,0.42623565611146796,0.26068010055591245,-0.5626611630544255,-0.04398264594205681,-0.048819485082259126,0.6440169644956658
1590515234.9123933,-0.27434254680324976,-2.459143632991876,8.785138202048746,0.42777777777777776,0.26222222222222225,-0.5577777777777778,-0.015121574291983776,-0.06588014906082688,0.7728150055099995
1590515234.9223933,-0.3,-2.652062027286216,8.818453479535338,0.42777777777777776,0.26222222222222225,-0.5577777777777778,-0.028946333488820163,-0.08198100790009559,0.9168830444109711
1590515234.9323933,-0.3,-2.682419208916875,8.795685593312344,0.42777777777777776,0.26222222222222225,-0.5577777777777778,-0.021495560145494436,-0.0844645990145375,0.9897350504346005
1590515234.9423933,-0.3373014555971741,-2.757142620074913,8.80492058223887,0.42777777777777776,0.26222222222222225,-0.5577777777777778,-0.022076328644775545,-0.08996755015440225,1.0746585476623338
1590515234.9523933,-0.3429986997264942,-2.815006501367529,8.901016903555576,0.4363349225565071,0.24044039914909304,-0.5780037563456835,-0.028253510131514267,-0.09697584942879098,1.1554187444958262
1590515234.9623933,-0.37000217216586656,-2.890002172165867,8.819995655668267,0.44,0.2311111111111111,-0.5866666666666667,-0.02290827574531276,-0.10362927975697211,1.2522812021219163
1590515234.9723933,-0.38822360275430634,-2.9082236027543065,8.783552794491387,0.44,0.2311111111111111,-0.5866666666666667,-0.029865049830760163,-0.10661075436502099,1.3148921688909425
1590515234.9823933,-0.4005993526759912,-2.9394006473240086,8.800799136901322,0.44,0.2311111111111111,-0.5866666666666667,-0.030543261909900768,-0.10801404054543393,1.3799651422246129
1590515234.9923933,-0.42484105883712864,-2.9151589411628716,8.833121411782837,0.44,0.2311111111111111,-0.5866666666666667,-0.030543261909900768,-0.10889549385546066,1.4266821676560308
1590515235.0023932,-0.441452779546902,-2.9380629606041304,8.823220362114457,0.4477777777777778,0.21666666666666667,-0.5722222222222222,-0.030490437354902703,-0.11256686881712723,1.4909385266425907
1590515235.0123932,-0.4700995153235169,-2.900159224517627,8.69,0.4477777777777778,0.21666666666666667,-0.5722222222222222,-0.029484997440871026,-0.11674711786545859,1.5294272583874802
1590515235.0223932,-0.5087473969371394,-2.9619958350994233,8.69,0.4477777777777778,0.21666666666666667,-0.5722222222222222,-0.042132487123596504,-0.12770827559048734,1.561467565583718
1590515235.0323932,-0.5965350580815394,-3.0374012935611545,8.785668822601924,0.4477777777777778,0.21666666666666667,-0.5722222222222222,-0.03537904320291398,-0.1308996938995747,1.6219319901383886
1590515235.0423932,-0.5698795091332671,-2.9496385273998014,8.723734920093188,0.4477777777777778,0.21666666666666667,-0.5722222222222222,-0.029649567660472886,-0.12761405803744116,1.656446266586132
1590515235.0523932,-0.6279022943037975,-3.0038571993670886,8.715954905063292,0.4477777777777778,0.2046816983122363,-0.576217211673699,-0.03598511808610885,-0.1450558985994803,1.699269137953176
1590515235.0623932,-0.704187496435971,-3.0981406223269783,8.903265600942804,0.4477777777777778,0.19666666666666666,-0.5788888888888889,-0.04715968200854087,-0.15025512376282196,1.744696906456992
1590515235.0723932,-0.7528762437810945,-3.0935618781094525,8.730551927860697,0.4477777777777778,0.19666666666666666,-0.5788888888888889,-0.034040127566662956,-0.15045985688142,1.7954472619991497
1590515235.0823932,-0.7866934197051609,-3.134489032841935,8.865751744504514,0.4477777777777778,0.19666666666666666,-0.5788888888888889,-0.048014064252592935,-0.15259607889715696,1.840876457890128
1590515235.0923932,-0.8054388795796356,-3.1322805602101824,8.851402801050911,0.4477777777777778,0.19666666666666666,-0.5788888888888889,-0.03838937242993134,-0.1510321890402316,1.8743157326416313
1590515235.1023932,-0.8557082215792697,-3.1365297459398955,8.88570822157927,0.47462228886401553,0.1582137183539477,-0.5839675801754745,-0.03704343940182243,-0.15053464798451094,1.9041424742082413
1590515235.1123931,-0.9088607738140132,-3.1496202579380044,8.813797420619956,0.4888888888888889,0.13777777777777778,-0.5866666666666667,-0.04027789208624217,-0.15473227738224335,1.9448822598479034
1590515235.1223931,-0.9605498849078099,-3.140219953963124,8.709890023018438,0.4888888888888889,0.13777777777777778,-0.5866666666666667,-0.043609238044487464,-0.15711562256254583,1.982291460977454
1590515235.1323931,-1.0093106094073334,-3.1597242437629336,8.700137878118532,0.4888888888888889,0.13777777777777778,-0.5866666666666667,-0.0414816500740511,-0.16030700451820032,2.004631134667035
1590515235.142393,-1.0259099653712966,-3.128180069257407,8.74772989611389,0.4888888888888889,0.13777777777777778,-0.5866666666666667,-0.038848307738545876,-0.16382314102207163,2.0136245182162176
1590515235.152393,-1.0715024880206414,-3.119499170659786,8.781001658680427,0.5133333333333333,0.10444444444444444,-0.6144444444444445,-0.03828834139959248,-0.1646608161508566,2.011054906874598
1590515235.162393,-1.1010320232896653,-3.1093119844735564,8.79873863820152,0.5133333333333333,0.10444444444444444,-0.6144444444444445,-0.04034823047711754,-0.1636246173744684,2.0025901980099747
1590515235.172393,-1.1620844250363902,-3.068610383309073,8.724119036066634,0.5133333333333333,0.10444444444444444,-0.6144444444444445,-0.039608254486332345,-0.1636246173744684,1.9922305341389814
1590515235.182393,-1.2081199506506943,-3.040940024674653,8.807779679229514,0.5133333333333333,0.10444444444444444,-0.6144444444444445,-0.04025819816722713,-0.16065974738240424,1.9746459157429315
1590515235.192393,-1.238545362757825,-3.06283629020626,8.848545362757825,0.5133333333333333,0.10444444444444444,-0.6144444444444445,-0.04036073895236887,-0.1584838354033532,1.9658397270415853
1590515235.202393,-1.2845926105195224,-3.0750814778960955,8.865081477896094,0.5133333333333333,0.08258434620486894,-0.6111654297085081,-0.03982421142083605,-0.1586892152740881,1.947346255389343
1590515235.212393,-1.346304589879995,-3.054440890051431,8.828881780102861,0.5133333333333333,0.06,-0.6077777777777778,-0.038704162967200875,-0.15808914421629283,1.9176363664887415
1590515235.222393,-1.4049983002447646,-3.0599986401958117,8.775001699755236,0.5133333333333333,0.06,-0.6077777777777778,-0.03708832077069283,-0.1516257754302607,1.8827752655735228
1590515235.232393,-1.4466837516080946,-3.0466324967838108,8.761122501072062,0.5133333333333333,0.06,-0.6077777777777778,-0.03660405414977085,-0.14604887898224592,1.8406933583905976
1590515235.242393,-1.4969824903910682,-3.0076725032029774,8.800818741992558,0.5133333333333333,0.06,-0.6077777777777778,-0.03439880400941572,-0.1430634121254308,1.8032797787344652
1590515235.252393,-1.566177251017159,-3.0173164691314347,8.970076065805767,0.5133333333333333,0.045890284411423635,-0.6199634412406392,-0.033354568060650965,-0.141178357138782,1.7772919639725202
1590515235.262393,-1.508004086721618,-2.8389315647295144,8.712016346886472,0.5133333333333333,0.03555555555555556,-0.6288888888888889,-0.010657606395559335,-0.11447127003196791,1.7563387319754042
1590515235.272393,-1.4879744616925388,-2.765991487230846,8.44616174261392,0.5133333333333333,0.03555555555555556,-0.6288888888888889,-0.024619346118126075,-0.13042528902496373,1.7237707322606397
1590515235.282393,-1.611339794754846,-2.8465461088939565,8.738813070125428,0.5133333333333333,0.03555555555555556,-0.6288888888888889,-0.06920579686828196,-0.15898011302011758,1.6677735699398624
1590515235.292393,-1.637148589799129,-2.8419143163318816,8.641017351056796,0.5133333333333333,0.03555555555555556,-0.6288888888888889,-0.02115655595552949,-0.12789588631332727,1.63406888953024
1590515235.302393,-1.74,-2.85,8.84,0.5244444444444445,-0.024444444444444446,-0.6577777777777778,-0.03817907738737596,-0.1287180323345818,1.5827954654023575
1590515235.312393,-1.74,-2.85,8.84,0.5244444444444445,-0.024444444444444446,-0.6577777777777778,-0.03817907738737596,-0.1287180323345818,1.5827954654023575
1590515235.322393,-1.8916194107285056,-2.841576699403972,8.78946019642383,0.5244444444444445,-0.024444444444444446,-0.6577777777777778,-0.030828360923081416,-0.1232049949863609,1.5221520545719276
1590515235.332393,-2.018440366972477,-2.7907798165137616,8.801094364351245,0.5244444444444445,-0.024444444444444446,-0.6577777777777778,-0.029452431127404314,-0.1191049967100652,1.4808871371945973
1590515235.342393,-2.100614875369878,-2.779025527859973,8.850614875369878,0.5244444444444445,-0.024444444444444446,-0.6577777777777778,-0.030436963489198096,-0.11682519214782347,1.4431526580144882
1590515235.352393,-2.139007191932179,-2.7570215757965366,8.856028767728715,0.526887290681738,-0.03340154731452091,-0.6634777523314628,-0.026837575321815355,-0.11003212601227881,1.3946389231932284
1590515235.362393,-2.224037724940377,-2.7189159499891598,8.893495699934958,0.5311111111111111,-0.048888888888888885,-0.6733333333333333,-0.0319562886458599,-0.10241984204250781,1.3047312916148048
1590515235.372393,-2.190297062750334,-2.7438217623498,8.780891188251001,0.5311111111111111,-0.048888888888888885,-0.6733333333333333,-0.030992556030595236,-0.09734099122177153,1.2485239164671695
1590515235.382393,-2.106414002849912,-2.763379272209107,8.736620727790893,0.5311111111111111,-0.048888888888888885,-0.6733333333333333,-0.02178654872604483,-0.08869584787314151,1.1997935930505643
1590515235.3923929,-1.940490507808847,-2.7268301692696157,8.95818339100346,0.5311111111111111,-0.048888888888888885,-0.6733333333333333,-0.018126020809027078,-0.08643025761289112,1.1508423386392206
1590515235.4023929,-1.885890758005675,-2.6378621807863802,8.721994933117145,0.5247822591541683,-0.058094491735351084,-0.6842649867135072,-0.0010338130972905694,-0.07427494212492837,1.1187648496903317
1590515235.4123929,-1.9705447874587703,-2.761634362376311,8.726541526146091,0.5188888888888888,-0.06666666666666668,-0.6944444444444444,-0.028757780964870985,-0.08052294290222356,1.0675667735060637
1590515235.4223928,-1.9061889207386176,-2.7617072195186987,8.635121658556097,0.5188888888888888,-0.06666666666666668,-0.6944444444444444,-0.046566497889041755,-0.08764226511181179,1.02120049618563
1590515235.4323928,-2.0375866824902973,-2.6127584437245406,8.400689610931135,0.5188888888888888,-0.06666666666666668,-0.6944444444444444,-0.016249554436067102,-0.06827092002166428,0.9886688133576031
1590515235.4423928,-2.26,-2.6036748300731594,9.002887199709438,0.5188888888888888,-0.06666666666666668,-0.6944444444444444,-0.06508498207979496,-0.10242169789731179,0.9401234229396528
1590515235.4523928,-2.34591089545655,-2.614226731363035,9.10381385090428,0.5188888888888888,-0.07812145272754006,-0.7421727196980836,-0.046463232254500775,-0.08373519266297849,0.9086320163052876
1590515235.4623928,-2.3765842335505756,-2.6017078832247122,9.036831532898848,0.5188888888888888,-0.08,-0.75,-0.02171124301296267,-0.060981151182835085,0.8829626100551525
1590515235.4723928,-2.335065911890348,-2.6898681762193046,8.84127682993946,0.5188888888888888,-0.08,-0.75,-0.03128814979072808,-0.0646761995813905,0.8212608155772838
1590515235.4823928,-2.3554346882201664,-2.687282655889917,8.78184796766975,0.5188888888888888,-0.08,-0.75,-0.00914172374919987,-0.04325389426678142,0.7815566655003436
1590515235.4923928,-2.397365595964057,-2.6560551035314504,8.824993290414636,0.5188888888888888,-0.08,-0.75,0.0006319188226165538,-0.03128954277137462,0.740475431551544
1590515235.5023928,-2.45977041481868,-2.5932507174536914,8.919292981998433,0.5103591616662319,-0.08170594544453141,-0.7569788677276285,-0.00761077161917629,-0.03470424204840343,0.690671192328349
1590515235.5123928,-2.5826811480305554,-2.46214171198642,8.77178743202037,0.4577777777777778,-0.09222222222222222,-0.8,-0.021018252747848628,-0.04082798802477454,0.6211297669179348
1590515235.5223927,-2.582832109725056,-2.6130073416496624,8.885087615962302,0.4577777777777778,-0.09222222222222222,-0.8,-0.038075173443434515,-0.042624413038485166,0.5849341135665449
1590515235.5323927,-2.6721015819239913,-2.6243632687631484,8.827898418076009,0.4577777777777778,-0.09222222222222222,-0.8,-0.030404348703233844,-0.03756420539279427,0.5527976700063049
1590515235.5423927,-2.6280190554932186,-2.7008996240083465,8.928736983011476,0.4577777777777778,-0.09222222222222222,-0.8,-0.041598770369011925,-0.03146707204580462,0.522714605487287
1590515235.5523927,-2.656382110100141,-2.6963482415832156,8.946348241583216,0.43514604145181013,-0.10966751897348898,-0.7877411428234342,-0.04015971918676447,-0.023897767332119832,0.509880864075452
1590515235.5623927,-2.7519781479217604,-2.60598907396088,8.795825183374083,0.4044444444444445,-0.13333333333333333,-0.7711111111111111,-0.023776535520481944,-0.013737316783573759,0.514446523639151
1590515235.5723927,-2.798270153351266,-2.6145675383378166,8.714567538337818,0.4044444444444445,-0.13333333333333333,-0.7711111111111111,-0.04009094278062971,-0.028886340135373063,0.5139699955531745
1590515235.5823927,-2.870646711303663,-2.6579850334777473,8.833955100433242,0.4044444444444445,-0.13333333333333333,-0.7711111111111111,-0.05243042281957227,-0.03323506623627071,0.5033125882325008
1590515235.5923927,-2.883235526788925,-2.6185302648927244,8.8776473690519,0.4044444444444445,-0.13333333333333333,-0.7711111111111111,-0.04283132750563466,-0.0176139033953141,0.4918043596761884
1590515235.6023927,-2.8767917941023717,-2.576791794102372,8.873583588204744,0.38633299350478645,-0.1786119606824783,-0.7469625098582338,-0.025316225399648694,-0.0028406356573562417,0.4635435649601599
1590515235.6123927,-2.8694135627565127,-2.5535339068912815,8.842947469647795,0.37777777777777777,-0.2,-0.7355555555555555,-0.027013220879902447,0.0012187715419361342,0.42786654974837884
1590515235.6223927,-2.854836761519059,-2.5558161924047034,8.779020569114357,0.37777777777777777,-0.2,-0.7355555555555555,-0.026565095167254894,0.00045638261129918485,0.3725589562016375
1590515235.6323926,-2.795647199904065,-2.532441299916057,8.777176400047967,0.37777777777777777,-0.2,-0.7355555555555555,-0.017369887590464973,0.006711794553935382,0.289551540894309
1590515235.6423926,-2.8169845445577115,-2.568730680697139,8.883969089115421,0.37777777777777777,-0.2,-0.7355555555555555,-0.011427716892065799,0.009627003137336365,0.21510099732913918
1590515235.6523926,-2.7794224504768894,-2.5458385913426262,8.860174027879678,0.3963132958343523,-0.22281294530039944,-0.7355555555555555,-0.008026753863853672,0.015025677825033425,0.12749514940306705
1590515235.6623926,-2.8306794453698707,-2.614630129272928,8.8588273936607,0.4066666666666667,-0.23555555555555555,-0.7355555555555555,0.0007339940136076376,0.023870365705856097,0.04795591347818405
1590515235.6723926,-2.86291214287457,-2.6883514285017203,8.830385000121991,0.4066666666666667,-0.23555555555555555,-0.7355555555555555,0.0028169925831146433,0.02540677350647935,-0.015570985985606935
1590515235.6823926,-2.8671169034461497,-2.764052131015345,8.824233806892298,0.4066666666666667,-0.23555555555555555,-0.7355555555555555,0.00839233144908487,0.029747110410487457,-0.06610727410188796
1590515235.6923926,-2.8521474378183997,-2.8554593946658677,8.871655978423734,0.4066666666666667,-0.23555555555555555,-0.7355555555555555,0.016750545137201048,0.035528917567221555,-0.10235045889204986
1590515235.7023926,-2.640702745304085,-2.857293445422304,8.9,0.37028700906344414,-0.2774712480114424,-0.7102479676576615,0.036254326316671255,0.05137833761922876,-0.14731395326317057
1590515235.7123926,-2.587229326163256,-2.826385336918372,8.76385336918372,0.3555555555555556,-0.29444444444444445,-0.7,0.04105727115908599,0.06414884748119468,-0.13549922451206986
1590515235.7223926,-2.6761503499026045,-2.8580751749513023,8.795187937378255,0.3555555555555556,-0.29444444444444445,-0.7,0.00921055928800503,0.027482388058489106,-0.10012679168786855
1590515235.7323925,-2.692803253685816,-2.8963180477885104,8.839121301474327,0.3555555555555556,-0.29444444444444445,-0.7,-0.014066714911358262,-0.0021634274439311513,-0.05828860663775658
1590515235.7423925,-2.729101584844712,-2.8246310441131937,8.767614993775027,0.3555555555555556,-0.29444444444444445,-0.7,-0.0074409862506004225,0.002392824440315168,-0.023445282276697607
1590515235.7523925,-2.849228213549225,-2.657717864507752,8.663925379974032,0.3583854392083981,-0.29298662559298017,-0.6949405110449179,0.013756231802515645,0.021476236121792766,-0.0014312103106328088
1590515235.7623925,-2.8474998418021893,-2.75,8.946250079098904,0.3922222222222223,-0.27555555555555555,-0.6344444444444445,-0.007635746450658606,0.0010908998093130408,-0.03408813407563547
1590515235.7723925,-2.9164037565854777,-2.7217981217072613,8.794290295487516,0.3922222222222223,-0.27555555555555555,-0.6344444444444445,-0.004373650916275016,0.007942067656389405,-0.08460647461005553
1590515235.7823925,-2.9560428583625034,-2.7283314266199947,8.682705711602493,0.3922222222222223,-0.27555555555555555,-0.6344444444444445,0.0023181714054251925,0.021293951898752935,-0.14841936942829148
1590515235.7923925,-2.93,-2.7900895679662803,8.783527397260274,0.3922222222222223,-0.27555555555555555,-0.6344444444444445,-0.0003603534776740136,0.022186739477077545,-0.2164767481298769
1590515235.8023925,-2.9547931538660017,-2.8671897307990024,8.890660961555001,0.40048660684422277,-0.2622407136645547,-0.6137834828894432,0.00604910561173413,0.028244373797842462,-0.3103094592400879
1590515235.8123925,-2.928913438944895,-2.942213294929129,8.853360115212613,0.4122222222222222,-0.2433333333333333,-0.5844444444444444,0.01793615856783076,0.041811528183406096,-0.40395420144798044
1590515235.8223925,-2.7994285409480457,-2.992228583620782,8.735542832758437,0.4122222222222222,-0.2433333333333333,-0.5844444444444444,0.025918140943740252,0.05377484269098181,-0.4608604311742853
1590515235.8323925,-2.7124433573635427,-3.008295571575695,8.744374356333676,0.4122222222222222,-0.2433333333333333,-0.5844444444444444,0.03264431883159386,0.061644296717339626,-0.49637743606104695
1590515235.8423924,-2.4853122374684964,-2.938660639276713,8.771598191783013,0.4122222222222222,-0.2433333333333333,-0.5844444444444444,0.03758301955411121,0.06235169028162244,-0.5206184864319751
1590515235.8523924,-2.5953611119256372,-2.9331569070169783,8.846207958244143,0.4380109276798717,-0.22564964959094508,-0.5888653653800415,0.03492967919069334,0.05168269436491353,-0.576795448281751
1590515235.8623924,-2.8146206253744923,-2.8351035263309736,8.660207052661947,0.4511111111111111,-0.21666666666666667,-0.5911111111111111,0.01871716114965319,0.05796448337780063,-0.69689034548614
1590515235.8723924,-3.0419693799923926,-2.7540043742868012,8.744967192848993,0.4511111111111111,-0.21666666666666667,-0.5911111111111111,-0.0035971171985565657,0.04767192957877687,-0.8463581877745668
1590515235.8823924,-3.145574079383935,-2.8013148732232827,8.922463031991152,0.4511111111111111,-0.21666666666666667,-0.5911111111111111,-0.020511666933965944,0.04048598364508741,-0.9422475478066638
1590515235.8923924,-3.1124725460641667,-2.884400166107847,8.861163062536528,0.4511111111111111,-0.21666666666666667,-0.5911111111111111,-0.008508389505695962,0.052026729403195845,-0.9717239494893896
1590515235.9023924,-3.0350607524070257,-2.9553609769602263,8.616025715955582,0.4511111111111111,-0.21666666666666667,-0.5911111111111111,0.03019472890864602,0.07384121432764315,-0.9667980980548369
1590515235.9123924,-2.9733625874555054,-3.058170901354282,8.882979215253059,0.4444444444444444,-0.18222222222222226,-0.5911111111111111,0.03655416753451643,0.08576701100673165,-0.9665919581626407
1590515235.9223924,-2.973839866687827,-3.100874464370735,8.856121250595145,0.4444444444444444,-0.18222222222222226,-0.5911111111111111,0.022335110840149223,0.07676048626793107,-0.9360612666177331
1590515235.9323924,-2.8043935179586406,-3.05834424615172,8.63222949743448,0.4444444444444444,-0.18222222222222226,-0.5911111111111111,0.053137779759783045,0.085202830044809,-0.8411216887130037
1590515235.9423923,-2.883896172486641,-3.0481384366844786,8.646449919224555,0.4444444444444444,-0.18222222222222226,-0.5911111111111111,0.06271104427431098,0.0845465362988471,-0.7762230592107718
1590515235.9523923,-2.847210542830248,-3.1023815500470664,8.829934107310951,0.4487075968343618,-0.1697880277516299,-0.6003479412892654,0.02339689984283346,0.04818172526552984,-0.712757458616011
1590515235.9623923,-2.8579735877924066,-3.1120264122075936,8.909447598341185,0.4577777777777778,-0.14333333333333334,-0.62,0.004325991481029751,0.027417153545906212,-0.6853976996604673
1590515235.9723923,-2.9124497390615023,-3.0039070310263583,8.711457291964855,0.4577777777777778,-0.14333333333333334,-0.62,0.02447517489522689,0.0442183881644652,-0.678309004581776
1590515235.9823923,-2.88,-3.045447219206177,8.760243937748823,0.4577777777777778,-0.14333333333333334,-0.62,0.025044758863180184,0.045823762691698806,-0.7010051298969593
1590515235.9923923,-2.8595547526191023,-3.091821901047641,8.765465703142922,0.4577777777777778,-0.14333333333333334,-0.62,0.023203322916750337,0.0522582768950688,-0.7393756064480956
1590515236.0023923,-2.804860704648246,-3.130278590703508,8.780278590703508,0.4745373080122805,-0.12936705813791444,-0.6139479474153184,0.026990464483909682,0.06228091947230202,-0.7992006906019611
1590515236.0123923,-2.739292445222681,-3.193858489044536,8.776301868534434,0.4977777777777778,-0.11,-0.6055555555555555,0.031118522278551813,0.07013939139066884,-0.8839063681928268
1590515236.0223923,-2.72,-3.2171977547495683,8.73,0.4977777777777778,-0.11,-0.6055555555555555,0.035499948001798946,0.07783256612256147,-0.9505990218326691
1590515236.0323923,-2.6646710687709545,-3.2740485730640283,8.772560716330036,0.4977777777777778,-0.11,-0.6055555555555555,0.03135476187259284,0.08227657408221321,-1.0117852895105444
1590515236.0423923,-2.5765992402429285,-3.360202279271214,8.803198480485857,0.4977777777777778,-0.11,-0.6055555555555555,0.02764725121649278,0.0861921807513976,-1.0607081327317769
1590515236.0523922,-2.522625301718018,-3.4160471390032656,8.784218372852477,0.4977777777777778,-0.10315632542950447,-0.613539842554467,0.03347145256358215,0.09384041014523146,-1.09103352245021
1590515236.0623922,-2.457061217956048,-3.4055816506208694,8.843530608978023,0.4977777777777778,-0.09,-0.6288888888888889,0.034553734496347695,0.09458170668553254,-1.107513815625562
1590515236.0723922,-2.3927516576250754,-3.517248342374925,8.759642019958475,0.4977777777777778,-0.09,-0.6288888888888889,0.03652453015469247,0.09433856162700463,-1.1095628112822913
1590515236.0823922,-2.311974313609855,-3.541974313609855,8.688025686390144,0.4977777777777778,-0.09,-0.6288888888888889,0.037303610810872675,0.09555437487482715,-1.121822785357311
1590515236.0923922,-2.27,-3.51814505165851,8.706411432843938,0.4977777777777778,-0.09,-0.6288888888888889,0.033516650710857326,0.09242151296566595,-1.1527881469592987
1590515236.1023922,-2.190578869656485,-3.5714083930763345,8.644475832992368,0.4977777777777778,-0.07976349875572475,-0.6239471296675146,0.032236685834354815,0.09703272902480055,-1.2263021155463336
1590515236.1123922,-2.0312555877970357,-3.53532507254333,8.727337463728336,0.4977777777777778,-0.057777777777777775,-0.6133333333333333,0.02457915251985113,0.1008003439126897,-1.2932202288360395
1590515236.1223922,-2.0926539519530536,-3.71203814414084,8.69407628828168,0.4977777777777778,-0.057777777777777775,-0.6133333333333333,0.03744492206521165,0.11257789763393425,-1.4069446213763626
1590515236.1323922,-2.054043559138118,-3.7355797550767322,8.735391412184157,0.4977777777777778,-0.057777777777777775,-0.6133333333333333,0.031172463792038314,0.11860649937353342,-1.5000123832656873
1590515236.1423922,-1.985238085621971,-3.7571429725363488,8.70714297253635,0.4977777777777778,-0.057777777777777775,-0.6133333333333333,0.037399921983343604,0.12949720976669943,-1.623883527674122
1590515236.1523921,-1.98,-3.8150568322213987,8.789772671114406,0.4977777777777778,-0.061622463827801115,-0.6166287785190676,0.0366110249838244,0.1385107116424342,-1.739193160379916
1590515236.1623921,-1.9676243405875424,-3.7893739009792373,8.781123461370933,0.4977777777777778,-0.06555555555555556,-0.62,0.034143195307447596,0.1438671126648963,-1.845319950263181
1590515236.1723921,-1.9478774961597543,-3.783347542242703,8.723019969278035,0.4977777777777778,-0.06555555555555556,-0.62,0.03903837891738172,0.15089980819691576,-1.9304192743704762
1590515236.1823921,-1.9190625534305463,-3.8909374465694535,8.696640531496545,0.4977777777777778,-0.06555555555555556,-0.62,0.04046299850985944,0.16720388839442943,-2.0460064286544433
1590515236.192392,-1.8711982978411197,-3.90588547112016,8.72177094224032,0.4977777777777778,-0.06555555555555556,-0.62,0.0429912259931218,0.1761350472714966,-2.1061837140010153
1590515236.202392,-1.8259218801721284,-3.897960940086064,8.714078119827873,0.499137151053735,-0.07053992423406526,-0.6218124977012762,0.044522939028448526,0.18065435990835793,-2.1502192072046875
1590515236.212392,-1.801108885979101,-3.8988911140208993,8.725554442989552,0.5044444444444445,-0.09,-0.6288888888888889,0.04848148947307819,0.1836475194939919,-2.1930798738076134
1590515236.222392,-1.6984004598857472,-3.985360183954299,8.675360183954298,0.5044444444444445,-0.09,-0.6288888888888889,0.05243845750877197,0.18736983188100184,-2.2376602232806864
1590515236.232392,-1.6096979480030327,-3.95490938440091,8.720362462396361,0.5044444444444445,-0.09,-0.6288888888888889,0.04908738521234052,0.190373035678766,-2.266256963531142
1590515236.242392,-1.547470254191455,-3.9775892374256356,8.675585451595456,0.5044444444444445,-0.09,-0.6288888888888889,0.05364332935394619,0.1959902569410114,-2.2813957396716944
1590515236.252392,-1.4997599435915516,-4.041340021153168,8.620720169225345,0.5267044859673301,-0.12024005640844845,-0.5986488324804404,0.0505119925238102,0.19482018916994392,-2.295426499729145
1590515236.262392,-1.4028458838025712,-4.044281961267524,8.686170460093459,0.5633333333333334,-0.17,-0.5488888888888889,0.042336397252157806,0.19214286946985823,-2.300924775300712
1590515236.272392,-1.3556622074930285,-4.08205351008366,8.644702340055773,0.5633333333333334,-0.17,-0.5488888888888889,0.05003374473127795,0.19573188982633435,-2.2996555267348797
1590515236.282392,-1.288830472731533,-4.158155936969129,8.665532189092612,0.5633333333333334,-0.17,-0.5488888888888889,0.04682067322432009,0.19501502878345806,-2.301854107139416
1590515236.292392,-1.1699624698771383,-4.204328605854699,8.677201833050212,0.5633333333333334,-0.17,-0.5488888888888889,0.0469139114500053,0.19401321600153507,-2.2968174502863765
1590515236.302392,-1.0941117294520548,-4.22607448630137,8.728037243150686,0.624033247716895,-0.29361515410958905,-0.40622193683409435,0.05128258876906818,0.19525871006686565,-2.290095561569754
1590515236.312392,-0.9922676334871458,-4.19,8.71,0.7155555555555555,-0.48,-0.19111111111111112,0.04712719753067582,0.19565923264158583,-2.2838674477225864
1590515236.322392,-0.894653278204371,-4.19,8.687677495569995,0.7155555555555555,-0.48,-0.19111111111111112,0.050508106934375185,0.19543641303781217,-2.2773502979154165
1590515236.332392,-0.7509293407908556,-4.224349461446401,8.628513054734633,0.7155555555555555,-0.48,-0.19111111111111112,0.04849128214398755,0.19087511186603787,-2.269584955873507
1590515236.342392,-0.6873507127006657,-4.243134283600887,8.73108214549889,0.7155555555555555,-0.48,-0.19111111111111112,0.04758951825393202,0.19060639452310071,-2.259794345156745
1590515236.352392,-0.6210166203381978,-4.212464095436646,8.778839761408385,0.8985105718992097,-0.23047782668005043,0.0039850848068360145,0.04788565835394224,0.18871372537188688,-2.249814989417177
1590515236.362392,-0.5156039282215479,-4.219516857422762,8.751449427731714,1.2011111111111108,0.18222222222222226,0.32666666666666666,0.049271844590795685,0.18711700620781116,-2.2395282991447827
1590515236.372392,-0.48536389114908235,-4.226091673447248,8.657547238043575,1.2011111111111108,0.18222222222222226,0.32666666666666666,0.042968732808540896,0.1854412330243975,-2.2337538877283216
1590515236.382392,-0.4708351576457563,-4.182505472937269,8.642912105885609,1.2011111111111108,0.18222222222222226,0.32666666666666666,0.04172487443533379,0.18494136841656067,-2.2236597441287143
1590515236.392392,-0.4436329377806286,-4.133632937780629,8.715009421103272,1.2011111111111108,0.18222222222222226,0.32666666666666666,0.03862541976957409,0.18524308700629732,-2.207641302388836
1590515236.402392,-0.39947429073149315,-4.116841903089503,8.75263238764199,1.0844186528623776,0.29625394038059355,0.06249318626643985,0.040762579870049755,0.18503939210671663,-2.1727346268052536
1590515236.412392,-0.34257812689407713,-4.134355468276481,8.717421873105923,0.86,0.5155555555555555,-0.4455555555555555,0.04363323129985824,0.18216874067690814,-2.1303925182155785
1590515236.422392,-0.29980454968507175,-4.115765459622086,8.715765459622085,0.86,0.5155555555555555,-0.4455555555555555,0.04231144216766415,0.180406355167316,-2.114090452251851
1590515236.432392,-0.21971253666030446,-4.07329500488804,8.69005749266794,0.86,0.5155555555555555,-0.4455555555555555,0.04109214045883023,0.1759769137807689,-2.058581514485371
1590515236.4423919,-0.0923619543220584,-4.057236195432205,8.701708586296618,0.86,0.5155555555555555,-0.4455555555555555,0.04465279068690971,0.17114532639469837,-1.982352053711485
1590515236.4523919,0.009203371301618649,-4.020796628698381,8.687300842825405,0.7929404066407275,0.4885153969429457,-0.4828709744409571,0.04938181758562499,0.16612967754962624,-1.9338306736990936
1590515236.4623919,0.1,-3.93,8.71,0.5844444444444444,0.4044444444444445,-0.5988888888888889,0.04690572364734761,0.160352125026979,-1.8958638999788404
1590515236.4723918,0.15911032028469752,-4.141108286731062,8.752221657346212,0.5844444444444444,0.4044444444444445,-0.5988888888888889,0.03677325327266904,0.15666759034527772,-1.8553340184801261
1590515236.4823918,0.2568277292383726,-4.121586135380814,8.581102947665697,0.5844444444444444,0.4044444444444445,-0.5988888888888889,0.04557426701180641,0.15093339664756805,-1.7847274875345196
1590515236.4923918,0.24448606938799552,-4.138972138775991,8.647850621428994,0.5844444444444444,0.4044444444444445,-0.5988888888888889,0.03248024634585166,0.14640578568537446,-1.7263568152091706
1590515236.5023918,0.28469392221227496,-4.20061215557545,8.726428727742963,0.5568024580832698,0.40209748333830697,-0.6085375067696763,0.0302872481679111,0.13860228519158768,-1.6555359205232008
1590515236.5123918,0.29891842260885804,-4.168918422608858,8.768102648697438,0.4666666666666667,0.3944444444444444,-0.64,0.029924358292168256,0.1346731080736056,-1.5962353738777268
1590515236.5223918,0.29583695699916546,-4.130815215004173,8.658326086001669,0.4666666666666667,0.3944444444444444,-0.64,0.03190561454615079,0.1282170800243788,-1.5045597755787061
1590515236.5323918,0.3047618018796586,-4.02333261315761,8.653571891541537,0.4666666666666667,0.3944444444444444,-0.64,0.026699370786963054,0.12235481349052675,-1.4274295576953044
1590515236.5423918,0.2930968931462722,-3.8952248548298223,8.738581358877633,0.4666666666666667,0.3944444444444444,-0.64,0.027453838459257696,0.11502980054009276,-1.3349012688113735
1590515236.5523918,0.31167455768751556,-3.790383129828059,8.74789496635933,0.44850624359719804,0.3928229780989561,-0.6419457596145859,0.033680045992211624,0.10903612060756329,-1.2403008986962791
1590515236.5623918,0.34,-3.7276477531911487,8.685372734184307,0.4044444444444445,0.3888888888888889,-0.6466666666666666,0.026774437409725738,0.09901743513083466,-1.1304680838357202
1590515236.5723917,0.36142309167625625,-3.8169395583319634,8.664093374979451,0.4044444444444445,0.3888888888888889,-0.6466666666666666,0.01600524738289597,0.08996057373993774,-1.0319342887171554
1590515236.5823917,0.4279664352602781,-3.81,8.635459028093168,0.4044444444444445,0.3888888888888889,-0.6466666666666666,0.02195337349603591,0.08186399687781899,-0.9169848785139149
1590515236.5923917,0.4639690057349056,-3.7961084799278306,8.752139474192925,0.4044444444444445,0.3888888888888889,-0.6466666666666666,0.017877791508485837,0.07309411480187401,-0.8239543115840189
1590515236.6023917,0.4774824408789226,-3.748811456923771,8.691329016044849,0.4044444444444445,0.3888888888888889,-0.6466666666666666,0.02303709636981295,0.06940889704378321,-0.7546722177319118
1590515236.6123917,0.5467463364516304,-3.7684329205645377,8.79301465419348,0.3588888888888889,0.42777777777777776,-0.6522222222222223,0.008739682198052635,0.05598728954276407,-0.6184764564529576
1590515236.6223917,0.5769869680419618,-3.806233710052452,8.672052127832153,0.3588888888888889,0.42777777777777776,-0.6522222222222223,0.013687793971182883,0.05268854836067725,-0.5401313533783954
1590515236.6323917,0.5767481275826446,-3.85,8.690244382747933,0.3588888888888889,0.42777777777777776,-0.6522222222222223,0.0039819408542098485,0.042391696413097396,-0.4205470837240517
1590515236.6423917,0.5632076446280992,-3.85,8.649622933884299,0.3588888888888889,0.42777777777777776,-0.6522222222222223,0.006936015977547197,0.03722206494725703,-0.35481891222979567
1590515236.6523917,0.576878034175239,-3.76,8.7373983618127,0.35871544634306884,0.4278934061416578,-0.6530316207693825,0.006431466814193694,0.02474855435506336,-0.2442254621181828
1590515236.6623917,0.5230578070531876,-3.76,8.692548172544322,0.3557254337251772,0.429886747886919,-0.6669850129862106,0.004474508132004219,0.018877678308494933,-0.1669255941716985
1590515236.6723917,0.5452967761373908,-3.79,8.737271768605002,0.3555555555555556,0.43,-0.6677777777777778,0.004531433990259081,0.011421349961595158,-0.05542942082380266
1590515236.6823916,0.5900506273387629,-3.7651265683469073,8.619797490644949,0.3555555555555556,0.43,-0.6677777777777778,-0.0027243156632632158,0.00409751866680652,0.01028281493735653
1590515236.6923916,0.5420570606569168,-3.678785662910573,8.731028530328459,0.3555555555555556,0.43,-0.6677777777777778,-0.0019167343094980884,-0.0004893177640975471,0.07127026998499471
1590515236.7023916,0.4809965789557822,-3.639003421044218,8.709965789557822,0.35300874266855664,0.4288926900491309,-0.6676670467826908,0.005240465892392252,-0.0028339209662861537,0.1249845779238429
1590515236.7123916,0.49639359851559783,-3.633196799257799,8.761638408906414,0.33,0.4188888888888889,-0.6666666666666666,-0.004103967769870523,-0.00977279637073231,0.21247114188753097
1590515236.7223916,0.5071343195400732,-3.6314029586202197,8.688597041379781,0.33,0.4188888888888889,-0.6666666666666666,-0.0010973499384442952,-0.013874722082553087,0.28040218350511975
1590515236.7323916,0.5078695252070535,-3.5863914243788395,8.689014599447859,0.33,0.4188888888888889,-0.6666666666666666,-0.003683544581816818,-0.018830267313755943,0.3483164010607983
1590515236.7423916,0.5340214117338922,-3.4194647066526977,8.63,0.33,0.4188888888888889,-0.6666666666666666,-0.00024269056385721032,-0.020731624012041695,0.4152437690402248
1590515236.7523916,0.547753404924044,-3.0761648768989,8.63,0.33,0.4188888888888889,-0.6666666666666666,-0.015970935484549094,-0.024476444231254044,0.46242850380230055
1590515236.7623916,0.46,-3.5359427907491425,8.687828372247427,0.3111111111111111,0.43,-0.6144444444444445,-0.0036838624157363433,-0.04274808555148527,0.5508822797681634
1590515236.7723916,-0.7318724139316273,-6.048773550797413,6.968214357449886,0.3111111111111111,0.43,-0.6144444444444445,-0.19721232827058785,-0.2006357393990565,1.1312540537079587
1590515236.7823915,-2.8079150463655393,-11.611292252467843,1.9980451690098713,0.3111111111111111,0.43,-0.6144444444444445,-0.9557002444671029,-0.6619179461154041,4.01266312649456
1590515236.7923915,4.0066702099388785,-4.224538172430812,2.542909153031396,0.3111111111111111,0.43,-0.6144444444444445,-1.9096785775687024,-1.027414218284218,11.932162400806536
1590515236.8023915,4.173370237171802,-6.150224948875256,7.755064758009543,0.3111111111111111,0.4307190372094116,-0.6156428397934639,-1.5864922594631428,-1.8165590687782123,12.278079548583207
1590515236.8123915,0.9667470449172577,-8.563239952718677,-2.979164893617021,0.3111111111111111,0.44,-0.6311111111111111,-1.1552457585407683,-0.7077518032278706,7.228018446743978
1590515236.8223915,0.5649476512877784,1.375284776994486,2.815448104976618,0.3111111111111111,0.44,-0.6311111111111111,-0.4674919890925475,0.08060475817349136,1.0568177924505506
1590515236.8323915,0.14777186431213796,-0.5495789418580299,10.5807728414881,0.3111111111111111,0.44,-0.6311111111111111,0.1105244489164594,-0.3920274673808347,1.086357306547696
1590515236.8423915,-1.1697853445410078,-0.7852538348292729,7.208163556062117,0.3111111111111111,0.44,-0.6311111111111111,1.782184485498593,-0.13242090992882904,1.2346030256029548
1590515236.8523915,-0.9772370233176616,-0.8582894049484732,7.726052144180082,0.3111111111111111,0.44,-0.6311111111111111,2.5853973759208753,-0.11358994946807223,1.343243182107321
1590515236.8623915,1.7477871420254498,0.9543101106151757,-1.9748568101799227,0.4622222222222222,0.33555555555555555,-0.6055555555555555,1.7280156738769574,-0.2453959189773117,1.2379335669426663
1590515236.8723915,-0.9747133998622007,0.8036254528482208,2.893205387504723,0.4622222222222222,0.33555555555555555,-0.6055555555555555,0.039228401662201595,-0.12952207545397176,1.01677124453962
1590515236.8823915,-2.708473423379652,0.3503663395199689,13.37233796521232,0.4622222222222222,0.33555555555555555,-0.6055555555555555,-0.9413869652944414,0.1449977092269087,0.9006276719020583
1590515236.8923914,-4.058968782270236,-2.048180475017873,16.46795742314719,0.4622222222222222,0.33555555555555555,-0.6055555555555555,-0.7600440638439863,0.22910259075780878,0.9304997479621656
1590515236.9023914,-2.639656843275876,-1.2885487330208913,11.330448010167606,0.4622222222222222,0.33555555555555555,-0.6055555555555555,0.041691502250294166,-0.0987149435200883,1.0511598603571346
1590515236.9123914,-1.383160293745252,-0.511738414788554,4.218121043302102,0.47720463689823023,0.277766241805239,-0.6483624546298641,0.3805216368694091,-0.029016540781803046,1.156779914490397
1590515236.9223914,-2.313510728231553,-1.9576595145122981,10.941319592608993,0.4777777777777778,0.27555555555555555,-0.65,-0.35154932267872935,-0.15888070447789118,1.0952555611910366
1590515236.9323914,-2.063160849815196,-2.157387354343594,9.739544056654347,0.4777777777777778,0.27555555555555555,-0.65,-0.09263733383021824,-0.053016505800796,1.2349434000781212
1590515236.9423914,-2.969403905657671,-6.560526628552694,9.104681666359296,0.4777777777777778,0.27555555555555555,-0.65,0.06342778317555743,-0.08972811323012916,1.318801987974957
1590515236.9523914,-7.957428556964589,-23.921899157111397,6.10596729693472,0.4779546803238807,0.2750956089356879,-0.6499646194907794,-0.301500967532379,0.1255099842386516,0.8613557366805036
1590515236.9623914,0.2352580254220569,-0.014138271187396072,9.496639891773063,0.4833333333333333,0.2611111111111111,-0.6488888888888888,-0.03692499552810442,-0.21033465493826176,-1.077648242674828
1590515236.9723914,-0.6148752330182817,-0.7357517088007326,3.9237197893841778,0.4833333333333333,0.2611111111111111,-0.6488888888888888,0.5510072501945735,0.24511510297608594,-1.083816209366052
1590515236.9823914,-0.7589055499231449,-1.7919740327697289,7.325578702946661,0.4833333333333333,0.2611111111111111,-0.6488888888888888,0.18216647532207647,-0.01299862386166556,-0.9962819889602058
1590515236.9923913,-1.5834227200901168,-2.5263161600200257,11.651583146893628,0.4833333333333333,0.2611111111111111,-0.6488888888888888,-0.4276356011409216,0.11450874840075004,-0.8457673879418095
1590515237.0023913,-1.0518922978237402,-2.4081982884052757,10.312913935259791,0.4833333333333333,0.2611111111111111,-0.6488888888888888,-0.03608506866746186,0.04364311272456631,-0.7333845111624069
1590515237.0123913,-1.9400237832124152,-9.41210085043002,7.48799668476433,0.4811111111111111,0.2588888888888889,-0.6577777777777778,0.12833443600069955,0.12815899007534487,-0.7228242407311634
1590515237.0223913,-0.4470728104796727,-4.506324124070801,9.718103343906632,0.4811111111111111,0.2588888888888889,-0.6577777777777778,-0.1020221418729001,-0.011705452380904008,-1.2622750498781987
1590515237.0323913,0.008613148419789302,-2.2754340578743832,9.050500066675557,0.4811111111111111,0.2588888888888889,-0.6577777777777778,0.10530015448252959,0.20806051626438068,-1.509972219128132
1590515237.0423913,-0.4064499717354438,-2.967704918032787,9.476147540983607,0.4811111111111111,0.2588888888888889,-0.6577777777777778,0.061766674386841414,0.08338473293560388,-1.5014884907039623
1590515237.0523913,-0.5888346306039918,-3.4966204287515765,9.211689785624213,0.4811111111111111,0.2588888888888889,-0.6577777777777778,-0.051635281698047236,0.13710144897581428,-1.4587140686719429
1590515237.0623913,-0.47718409807220064,-4.724858363787535,8.476696637469304,0.47126210379995404,0.27500544630714596,-0.6506148633696635,0.03378426344473149,0.11283206687896448,-1.4971177174651158
1590515237.0723913,-0.32622797971081596,-4.7105255403784225,8.435380211731527,0.4688888888888889,0.2788888888888889,-0.6488888888888888,0.024837137634825122,0.13922128201765707,-1.7704375763191733
1590515237.0823913,-0.14719369088593187,-3.2117864982790865,8.622806309114067,0.4688888888888889,0.2788888888888889,-0.6488888888888888,0.03619229255395346,0.170954312015261,-1.926184673678517
1590515237.0923913,-0.1,-3.5081928915734943,8.677115426925615,0.4688888888888889,0.2788888888888889,-0.6488888888888888,0.054243637180622015,0.16549580987061868,-1.9642548249995384
1590515237.1023912,-0.1,-4.087041022461348,8.71906094365662,0.4688888888888889,0.2788888888888889,-0.6488888888888888,0.03319612519518842,0.16366559143710271,-1.9944534291525515
1590515237.1123912,0.05,-3.91,8.79,0.4544444444444444,0.31222222222222223,-0.6711111111111111,0.04690572364734761,0.17016960206944715,-2.1369375029105573
1590515237.1223912,0.060709110668357186,-3.910973555515305,8.768581778663284,0.4544444444444444,0.31222222222222223,-0.6711111111111111,0.04563134245787068,0.17186877698874972,-2.156796609779906
1590515237.1323912,0.13034821590291615,-3.9173043832639016,8.629303568194167,0.4544444444444444,0.31222222222222223,-0.6711111111111111,0.03734430831364882,0.18291815584771218,-2.28593622519403
1590515237.1423912,-1.3090500796456739,-6.146967636660321,8.24250475931466,0.4544444444444444,0.31222222222222223,-0.6711111111111111,0.023608843124228535,0.22538846578208835,-2.384812577109989
1590515237.1523912,0.7093731966651255,-1.3226841593470526,9.703561237665587,0.4544444444444444,0.31222222222222223,-0.6711111111111111,-0.11090122229526071,0.1789438073064816,-1.1541266685943987
1590515237.1623912,2.428020086083214,-0.4294835007173603,9.367876614060258,0.40741750358680057,0.3456990275785111,-0.666328710345927,0.1831249782782071,-0.19111762218955491,0.6083048376812805
1590515237.1723912,2.892473996715375,-2.331380384890723,6.637734029561629,0.3888888888888889,0.3588888888888889,-0.6644444444444444,0.29371754574437686,-0.13258704333880675,0.64478319898638
1590515237.1823912,0.2785754331867477,-2.459066699371025,8.70909473167826,0.3888888888888889,0.3588888888888889,-0.6644444444444444,-0.24661349132376661,-0.006719511504477445,-0.2856101232289629
1590515237.1923912,0.11690856211784081,-3.4364164199239626,8.554776354748848,0.3888888888888889,0.3588888888888889,-0.6644444444444444,-0.2169544259580465,0.17604445885725736,-0.4218815046390284
1590515237.2023911,-2.8352817482133044,-8.425738042880704,8.354506047278726,0.3888888888888889,0.3588888888888889,-0.6644444444444444,0.013939636016774448,0.06124232252089695,-0.6069354588361471
1590515237.2123911,-0.19218061573546175,-5.440809578107183,8.988845610034208,0.3906796401875079,0.3588888888888889,-0.6519091853541112,-0.003538321714462167,0.01344988135714467,-0.125871573464425
1590515237.2223911,-0.34951427512050426,-4.515487578791249,8.70890248424175,0.3911111111111111,0.3588888888888889,-0.6488888888888888,0.05564612157458097,-0.01954192810051864,0.10217974128425832
1590515237.232391,0.05667428867777751,-4.5392143042361095,8.704988566983333,0.3911111111111111,0.3588888888888889,-0.6488888888888888,-0.02973199814061243,-0.0008187466611981602,-0.05527956826813462
1590515237.242391,0.02056772055263844,-4.316812646631661,8.750348750605147,0.3911111111111111,0.3588888888888889,-0.6488888888888888,0.003024777525619805,0.0020578041540581303,-0.0030867062310871956
1590515237.252391,0.028377462480914606,-4.410529549770975,8.617583137824452,0.3911111111111111,0.3588888888888889,-0.6488888888888888,-0.00038286523386694537,0.0003539827743147552,-0.000530974161472133
1590515237.262391,0.04589859983377022,-4.377188798670162,8.743164333056283,0.4044444444444445,0.3711111111111111,-0.6133333333333333,0.005202804629180878,0.0017342682097269593,0.001090830782496456
1590515237.272391,0.02,-4.178606706999061,8.693638520913737,0.4044444444444445,0.3711111111111111,-0.6133333333333333,-0.0034357699288894324,-0.00105001138714644,0.00105001138714644
1590515237.282391,0.02,-4.395781528462103,8.536327707306844,0.4044444444444445,0.3711111111111111,-0.6133333333333333,-0.006830528720966119,0.00034512289564674536,0.00023008193043116357
1590515237.292391,0.02,-4.360605514204844,8.589091728692734,0.4044444444444445,0.3711111111111111,-0.6133333333333333,-0.0001155898684293338,0.0032229538324482247,0.0021486358882988163
1590515237.302391,0.02,-4.335828067963585,8.662515796109247,0.4044444444444445,0.3711111111111111,-0.6133333333333333,0.0013183743768867052,0.00129493078215931,0.0015224743765495593
1590515237.312391,0.0136798275278999,-4.250478102806899,8.7542412073047,0.3925063408860331,0.36338645586743323,-0.6358050576785781,-0.0012654577766338456,0.0013788477366507028,0.001090830782496456
1590515237.322391,0.01,-4.426024047444959,8.716992986161888,0.3855555555555555,0.3588888888888889,-0.6488888888888888,-0.0003269213385839161,0.002181661564992912,0.001090830782496456
1590515237.332391,0.018809008428130613,-4.397145949431216,8.560246856721779,0.3855555555555555,0.3588888888888889,-0.6488888888888888,-0.0009609137556675592,-0.0007010797020097657,-0.0008309967288386625
1590515237.342391,0.013358799306458604,-4.330229193758127,8.659541612483745,0.3855555555555555,0.3588888888888889,-0.6488888888888888,-0.001090830782496456,-0.001090830782496456,0.001082497062279074
1590515237.352391,0.024099103179635834,-4.2859008968203645,8.698851345230546,0.3855555555555555,0.3588888888888889,-0.6488888888888888,-0.0018598175701934774,0.000447142792897587,-0.00012529879809815249
1590515237.362391,0.017113674597452534,-4.305772650805095,8.69,0.39343053219044566,0.37105930732462816,-0.6395820983203824,0.0013325385405982908,-0.0003148492597400249,-0.0003879907613782155
1590515237.372391,0.029259347748178233,-4.32,8.68037032612591,0.3977777777777778,0.37777777777777777,-0.6344444444444445,-0.0009292455274139558,0.002060472623681037,0.0
1590515237.382391,0.01305598016938649,-4.303055980169386,8.65458397025408,0.3977777777777778,0.37777777777777777,-0.6344444444444445,-0.001090830782496456,0.0003333557239465516,-0.0009241529205231802
1590515237.392391,0.01,-4.379951448183492,8.590631173614598,0.3977777777777778,0.37777777777777777,-0.6344444444444445,-0.004331546040390246,1.0592363198525774e-05,-0.001090830782496456
1590515237.402391,0.01,-4.372149115464032,8.692061498967577,0.3977777777777778,0.37777777777777777,-0.6344444444444445,0.0007750687830093686,0.0017127973043317309,-0.001090830782496456
1590515237.412391,0.019783658489472666,-4.281947073594746,8.661298049063165,0.38581997295731113,0.35929753396432945,-0.6572729809198807,4.7198395842999036e-05,0.002181661564992912,-2.3599197921499518e-05
1590515237.422391,0.029667603654251577,-4.270332396345748,8.737340829234013,0.3855555555555555,0.3588888888888889,-0.6577777777777778,-0.001054571965903285,0.003236233530896197,0.0
1590515237.432391,0.0003453995511757228,-4.349078934530198,8.631266465020978,0.3855555555555555,0.3588888888888889,-0.6577777777777778,-0.0032473741833105056,-0.0010405944541387307,0.0
1590515237.442391,0.018916231441147627,-4.321625652838279,8.658374347161722,0.3855555555555555,0.3588888888888889,-0.6577777777777778,-0.00533593310197248,-0.001090830782496456,0.0030951611317246693
1590515237.452391,0.027430003943439807,-4.32743000394344,8.66,0.3855555555555555,0.3588888888888889,-0.6577777777777778,-0.0005912277031377613,-0.00028034308093903624,0.002462004645931948
1590515237.462391,0.01176026336173509,-4.302640395042602,8.73295894655306,0.3723824124279198,0.3639554823995181,-0.6314314915225063,0.0020856540919788457,0.0029844699284471685,0.0011868382555105224
1590515237.472391,0.01,-4.318201058201058,8.676296296296297,0.3711111111111111,0.3644444444444445,-0.6288888888888889,0.0011889478370067192,0.003272492347489368,9.811705451026327e-05
1590515237.4823909,0.017371896665246522,-4.290512413339014,8.67,0.3711111111111111,0.3644444444444445,-0.6288888888888889,0.001090830782496456,5.5895624355815996e-05,0.001608298361566776
1590515237.4923909,0.009039423615537657,-4.296440864576693,8.653559135423306,0.3711111111111111,0.3644444444444445,-0.6288888888888889,-0.0013003960403185908,0.0018982027460223525,0.0015838548592891502
1590515237.5023909,0.012007640755010198,-4.291988538867485,8.658011461132515,0.3711111111111111,0.3644444444444445,-0.6288888888888889,-0.0006528315153445457,0.004363323129985824,-0.00021899963357595526
1590515237.5123909,0.014418148560221767,-4.319072960078447,8.686745554319334,0.3897172825770386,0.37188691303081545,-0.6400525917684453,-0.00012694029226999626,0.0025366665178361454,0.00012694029226999626
1590515237.5223908,-0.010008645844590944,-4.323321805540545,8.72000864584459,0.4044444444444445,0.37777777777777777,-0.6488888888888888,-0.001090830782496456,-0.0003642390043935176,0.0003632958890514692
1590515237.5323908,0.008709150613728556,-4.31,8.66109803852705,0.4044444444444445,0.37777777777777777,-0.6488888888888888,-0.0017171672870720986,-0.0004644942779208134,0.0006263365045756426
1590515237.5423908,0.02359261271048343,-4.297185225420967,8.654851711026616,0.4044444444444445,0.37777777777777777,-0.6488888888888888,-0.002181661564992912,0.0013978750581562407,0.0003918932534183356
1590515237.5523908,0.014089155514536225,-4.307732533456392,8.674089155514537,0.4044444444444445,0.37777777777777777,-0.6488888888888888,-0.0008921153419342498,0.0008921153419342498,0.0006447731115293311
1590515237.5623908,0.003115084887280823,-4.32,8.697539660450877,0.40979937842100383,0.37777777777777777,-0.6435339549123295,-0.0015020554679658269,-0.0007510277339829134,0.00033980304851354253
1590515237.5723908,0.008850880017171067,-4.293447359948487,8.718850880017172,0.4122222222222222,0.37777777777777777,-0.6411111111111111,0.0007147821474809764,-0.001090830782496456,-0.0009654812374912961
1590515237.5823908,0.01,-4.307050753837099,8.643271607733057,0.4122222222222222,0.37777777777777777,-0.6411111111111111,-0.0016990922900450751,-0.001090830782496456,-0.0020208051400103
1590515237.5923908,0.017895041782729805,-4.31789504178273,8.66158016713092,0.4122222222222222,0.37777777777777777,-0.6411111111111111,-0.0013204461044231753,-0.001090830782496456,-0.002181661564992912
1590515237.6023908,0.01533865970508922,-4.32,8.67,0.4122222222222222,0.37777777777777777,-0.6411111111111111,-0.0005823574343584772,-7.388408622049838e-05,-0.0011647148687169543
1590515237.6123908,0.01,-4.318060197922227,8.671939802077773,0.40704941668149486,0.3764845763925959,-0.6443441145740657,-0.00042319916367702194,0.000879231200657945,0.00042319916367702194
1590515237.6223907,0.00262931888749422,-4.332112043337517,8.687370681112505,0.3855555555555555,0.3711111111111111,-0.6577777777777778,0.00023038818865304695,0.0008040165845486529,0.002181661564992912
1590515237.6323907,0.006792388718994224,-4.2992456676860344,8.615283724091064,0.3855555555555555,0.3711111111111111,-0.6577777777777778,0.001090830782496456,0.001090830782496456,0.0006997922247207983
1590515237.6423907,0.01600505542414545,-4.292010110848291,8.628040443393164,0.3855555555555555,0.3711111111111111,-0.6577777777777778,0.00043578085177093935,0.0024009306439474894,-0.0006550499307255166
1590515237.6523907,0.02,-4.3,8.68397807474958,0.3855555555555555,0.3711111111111111,-0.6577777777777778,0.0,0.001964691245397136,-0.0004369302314503401
1590515237.6623907,0.02,-4.3,8.709717768902987,0.38825493580638515,0.3711111111111111,-0.6507593891256207,-0.0015900662184846971,0.001090830782496456,-0.0005300220728282323
1590515237.6723907,0.02,-4.305975522530398,8.708048954939203,0.3911111111111111,0.3711111111111111,-0.6433333333333333,-0.0019688355639574835,0.003046315957794283,-0.00043900239073051356
1590515237.6823907,0.02,-4.2993579301232625,8.65743172049305,0.3911111111111111,0.3711111111111111,-0.6433333333333333,-0.0005103959119452903,0.002041583647781161,0.0
1590515237.6923907,0.014397063543003852,-4.284397063543004,8.642411745827985,0.3911111111111111,0.3711111111111111,-0.6433333333333333,0.0,0.0,0.0
1590515237.7023907,0.01,-4.302064594238508,8.682064594238508,0.3911111111111111,0.3711111111111111,-0.6433333333333333,-0.0006017184649664423,-0.0012034369299328846,-0.0012034369299328846
1590515237.7123907,0.003987155568312284,-4.326012844431688,8.712025688863376,0.3911111111111111,0.36710254815665266,-0.6379885827273887,0.00022096837679301757,-0.001525761985348175,0.00044193675358603513
1590515237.7223907,0.0,-4.301081512053279,8.685297814463935,0.3911111111111111,0.3644444444444445,-0.6344444444444445,0.001090830782496456,0.00017097629092501453,0.0009198544915714414
1590515237.7323906,0.014324712115080388,-4.308649424230161,8.617025863654758,0.3911111111111111,0.3644444444444445,-0.6344444444444445,0.00030953893621997594,0.001090830782496456,0.00078129184627648
1590515237.7423906,0.007960536728628457,-4.301940805092943,8.636118389814115,0.3911111111111111,0.3644444444444445,-0.6344444444444445,0.0,0.001090830782496456,0.002404132496611212
1590515237.7523906,0.0,-4.305902165856873,8.670601443904582,0.3911111111111111,0.3644444444444445,-0.6344444444444445,-0.0017346572025040406,-0.0006438264200075846,0.00038139700998263354
1590515237.7623906,0.0,-4.314843159250488,8.705784203747559,0.3842353234450953,0.3575686567784287,-0.6533528605259878,-0.002709968284489409,-0.000494089375993035,-0.000494089375993035
1590515237.7723906,0.013530650784427658,-4.316765325392214,8.716469349215574,0.37777777777777777,0.3511111111111111,-0.6711111111111111,-0.0014436790458497366,0.0003528482633532805,0.001090830782496456
1590515237.7823906,0.02,-4.312027030288403,8.64621624230723,0.37777777777777777,0.3511111111111111,-0.6711111111111111,0.0006486013753678095,-0.0008697160789321327,0.0019605468614285887
1590515237.7923906,0.012203964952239292,-4.31,8.676776210286564,0.37777777777777777,0.3511111111111111,-0.6711111111111111,-0.000610000219807266,0.000610000219807266,0.00048083056268918996
1590515237.8023906,0.016246031287883163,-4.316246031287883,8.69,0.37777777777777777,0.3511111111111111,-0.6711111111111111,-0.001090830782496456,-0.000271841856955331,0.001362672639451787
1590515237.8123906,0.02,-4.315748962537661,8.702753112387017,0.3862798527024552,0.3596131860357885,-0.6654430611613262,-0.0015545470346429227,-0.001090830782496456,0.0017179453128464452
1590515237.8223906,0.015560656490301849,-4.318878687019396,8.72,0.3977777777777778,0.3711111111111111,-0.6577777777777778,-0.0016974043095474521,-0.00012231627160553627,0.0006065735270509962
1590515237.8323905,0.01,-4.33,8.665936385304512,0.3977777777777778,0.3711111111111111,-0.6577777777777778,-0.0005993786564725739,0.00207373503454422,-0.0004914521260238821
1590515237.8423905,0.012969213067884663,-4.33,8.617815278407308,0.3977777777777778,0.3711111111111111,-0.6577777777777778,0.0,0.0019769287417936367,-0.001090830782496456
1590515237.8523905,0.014907160563116785,-4.309628642252467,8.685464197184416,0.3977777777777778,0.3711111111111111,-0.6577777777777778,0.0,0.000575797025922782,-0.001090830782496456
1590515237.8623905,0.01,-4.304208046639324,8.702895976680338,0.39304176223133613,0.3711111111111111,-0.6625137933242193,0.0,-0.0009180533616712535,0.0020088841441677097
1590515237.8723905,0.01,-4.315525976174719,8.683422071475844,0.3911111111111111,0.3711111111111111,-0.6644444444444444,0.0006027904914725204,-0.0009760805820478711,0.0020669113645443273
1590515237.8823905,0.01607600097855337,-4.32,8.621391992171572,0.3911111111111111,0.3711111111111111,-0.6644444444444444,0.0004280418923079953,-0.0013255777803769214,-0.0002347469978804654
1590515237.8923905,0.02,-4.308985225704207,8.623044322887377,0.3911111111111111,0.3711111111111111,-0.6644444444444444,-0.0006007627432050672,0.0008221521510324245,-0.001090830782496456
1590515237.9023905,0.02419681581853937,-4.304196815818539,8.687771342366855,0.3911111111111111,0.3711111111111111,-0.6644444444444444,-0.001090830782496456,0.002814690759156287,-0.001090830782496456
1590515237.9123905,0.019799755006124846,-4.304899877503062,8.734899877503063,0.39451119277573615,0.37451119277573613,-0.6565109205603192,-0.0016471678439126756,0.0016253245035766925,-0.0005344937210802365
1590515237.9223905,0.0038275595336758946,-4.3,8.723827559533676,0.3977777777777778,0.37777777777777777,-0.6488888888888888,-0.0035282791777515345,-0.0002557868302621668,0.0006733088063793114
1590515237.9323905,0.013769302416785137,-4.3,8.644268836707681,0.3977777777777778,0.37777777777777777,-0.6488888888888888,-0.0028613252370126166,0.0004111671104767515,0.001090830782496456
1590515237.9423904,0.02,-4.320121833700441,8.663658223201175,0.3977777777777778,0.37777777777777777,-0.6488888888888888,-0.0014500110449690753,0.001090830782496456,0.0032857823425679663
1590515237.9523904,0.009167926194916087,-4.313751889292374,8.695416036902541,0.3977777777777778,0.37777777777777777,-0.6488888888888888,9.076517198944897e-05,0.002272426736982361,0.002000131221014014
1590515237.9623904,0.005652689512573357,-4.305652689512573,8.705652689512574,0.3789354794025333,0.36710047536513923,-0.6576819614640029,0.0017074435549174465,0.0008060412578054059,0.0006166127724209906
1590515237.9723904,0.01,-4.31,8.676758982785916,0.3644444444444445,0.3588888888888889,-0.6644444444444444,0.0009729840710390022,0.00011784671145745372,-0.00011784671145745372
1590515237.9823904,0.01,-4.304656824164789,8.617940944988737,0.3644444444444445,0.3588888888888889,-0.6644444444444444,-0.0005828500677338786,0.0016736808502303346,-0.0005079807147625774
