time,acc_x,acc_y,acc_z,mag_x,mag_y,mag_z,gyr_x,gyr_y,gyr_z
1590512631.7472634,-3.72,-0.73,8.95,0.28,-0.36,-0.6611111111111111,0.0,0.001090830782496456,-0.003272492347489368
1590512631.7572634,-3.702177108212383,-0.7378228917876171,8.995442770530957,0.28,-0.36,-0.6611111111111111,0.001706690234014297,0.0005937141637232685,-0.0012095736152411096
1590512631.7672634,-3.7175888296895097,-0.7224111703104905,9.033972074223772,0.28,-0.36,-0.6611111111111111,-0.0016556258056879885,0.004796609213351125,-0.002050152625166681
1590512631.7772634,-3.72,-0.74,8.99917760279965,0.28,-0.3477777777777778,-0.6466666666666666,-0.004363323129985824,0.003272492347489368,0.0001686486286649314
1590512631.7872634,-3.7194618674269426,-0.74,8.938654668567356,0.28,-0.3477777777777778,-0.6466666666666666,-0.004363323129985824,0.003272492347489368,0.0010321296249209161
1590512631.7972634,-3.7028534093608934,-0.74,8.897133523402234,0.28,-0.3477777777777778,-0.6466666666666666,-0.004363323129985824,0.003272492347489368,-0.0007795721059038582
1590512631.8072634,-3.7,-0.7221936766969528,8.905484191742381,0.28,-0.3477777777777778,-0.6466666666666666,-0.003884737116409577,0.004243676626591762,-0.002181661564992912
1590512631.8172634,-3.7,-0.7336205745732928,8.934051436433231,0.28,-0.3477777777777778,-0.6466666666666666,-0.001391774726018554,0.0036204360289940063,-0.002181661564992912
1590512631.8272634,-3.7,-0.7328780656569539,9.006975474744367,0.29820049887667327,-0.3374905392822668,-0.6569539051621776,-0.004661295127387985,0.002495609826258037,-0.0006278965225302504
1590512631.8372633,-3.726521774015606,-0.74,9.043043548031212,0.3055555555555556,-0.3333333333333333,-0.6611111111111111,-0.006696750933868981,0.006317335336643367,-0.002029895326102666
1590512631.8472633,-3.684455097988085,-0.74,8.95891019597617,0.3055555555555556,-0.3333333333333333,-0.6611111111111111,-0.008532255938994003,0.0035640778289558347,-0.00019439032097764465
1590512631.8572633,-3.7116370692200618,-0.7558185346100308,9.005364871135107,0.3055555555555556,-0.3333333333333333,-0.6611111111111111,-0.006138344586980574,0.0006841906744982939,0.0
1590512631.8672633,-3.703630602545102,-0.7436306025451015,9.036369397454898,0.3055555555555556,-0.3333333333333333,-0.6611111111111111,-0.0027757175172739073,0.0008928121317361243,0.0026784363952083727
1590512631.8772633,-3.738755081300813,-0.74,9.02,0.2855555555555556,-0.3533333333333333,-0.6533333333333333,0.0,-6.789978193893082e-05,0.0009550312186185943
1590512631.8872633,-3.7210170758815804,-0.74,9.008812165302617,0.2855555555555556,-0.3533333333333333,-0.6533333333333333,0.000554728839881243,-0.0009798850145202073,-0.001090830782496456
1590512631.8972633,-3.729492977670001,-0.74,8.915577245629988,0.2855555555555556,-0.3533333333333333,-0.6533333333333333,0.005177616129994293,-5.530755649759745e-05,-0.001090830782496456
1590512631.9072633,-3.720796870097994,-0.749203129902006,8.953187480391975,0.2855555555555556,-0.3533333333333333,-0.6533333333333333,0.007809665563983753,-0.002181661564992912,0.0
1590512631.9172633,-3.7285372875412923,-0.7414627124587078,8.98414915016517,0.2855555555555556,-0.3533333333333333,-0.6533333333333333,0.009498362687288195,-0.002181661564992912,0.0
1590512631.9272633,-3.71,-0.7305295489891135,8.999470451010886,0.26666666666666666,-0.3533333333333333,-0.6322222222222222,0.009644182541018629,-0.0053386242448492955,-5.776483381649196e-05
1590512631.9372633,-3.71,-0.7380068209051526,8.980034104525762,0.26666666666666666,-0.3533333333333333,-0.6322222222222222,0.0064362736393943345,-0.003163781291904967,-0.001090830782496456
1590512631.9472632,-3.71,-0.7225425384828095,8.902712692414047,0.26666666666666666,-0.3533333333333333,-0.6322222222222222,0.0055928278746188,-0.0023203355271294327,-0.001090830782496456
1590512631.9572632,-3.6928108293687774,-0.7285945853156114,8.89,0.26666666666666666,-0.3533333333333333,-0.6322222222222222,0.0007665347999518358,-0.002181661564992912,-0.002028354605002545
1590512631.9672632,-3.6957667930057014,-0.73,8.959201516068415,0.26666666666666666,-0.3533333333333333,-0.6322222222222222,-0.001887178598071233,-0.000294482966921679,-0.001552602032302501
1590512631.9772632,-3.7123139203976114,-0.73,9.028470880596416,0.26666666666666666,-0.3533333333333333,-0.6643752365937624,-0.0019292520051968462,0.001090830782496456,-0.001762450953642717
1590512631.9872632,-3.729725652665173,-0.74,9.038079568656213,0.26666666666666666,-0.3533333333333333,-0.6844444444444444,0.0011207574342889332,0.0020918816096154804,-0.0010609041307039788
1590512631.9972632,-3.72141138224275,-0.74,8.97987967569925,0.26666666666666666,-0.3533333333333333,-0.6844444444444444,0.0020277036453668733,-0.0006289570236183407,-0.00015395791962603855
1590512632.0072632,-3.72,-0.74,9.030563243807299,0.26666666666666666,-0.3533333333333333,-0.6844444444444444,0.006900536610195785,-0.004865930818658755,0.0009437750090405746
1590512632.0172632,-3.72,-0.7478867003585158,9.032113299641484,0.26666666666666666,-0.3533333333333333,-0.6844444444444444,0.011077037686833152,-0.00545415391248228,-0.0014900858745220153
1590512632.0272632,-3.699832343841458,-0.7298323438414583,9.03,0.27936482054426703,-0.34959858219286266,-0.6635298380578086,0.013465771950697113,-0.009120737270572528,1.8288449861237656e-05
1590512632.0372632,-3.71,-0.7297779746792304,8.918223797433845,0.2855555555555556,-0.3477777777777778,-0.6533333333333333,0.01090830782496456,-0.00865398864365494,0.002109003948676204
1590512632.0472631,-3.71,-0.7226310767290882,8.861048613832706,0.2855555555555556,-0.3477777777777778,-0.6533333333333333,0.01090830782496456,-0.006315171758642133,-0.00022981293633660268
1590512632.0572631,-3.710210530176603,-0.7104210603532065,8.90063159052981,0.2855555555555556,-0.3477777777777778,-0.6533333333333333,0.0042944272908008434,-0.005385258073297299,0.001067865502768129
1590512632.0672631,-3.717902400557502,-0.725804801115003,8.923707201672505,0.2855555555555556,-0.3477777777777778,-0.6533333333333333,0.0017772685948638824,-0.002868099377360338,0.00022881260412247546
1590512632.077263,-3.72,-0.73,8.997342079535779,0.28021094606858904,-0.35312238726474426,-0.64905764574376,-0.002057404073858622,-0.0032310731837779383,0.002098823237570052
1590512632.087263,-3.701109616989706,-0.739445191505147,8.990554808494853,0.28,-0.3533333333333333,-0.6488888888888888,-0.0011513510009540748,-0.005333113475567042,0.0001210404369152377
1590512632.097263,-3.7098717102709418,-0.73,8.960641448645292,0.28,-0.3533333333333333,-0.6488888888888888,-4.198271566047807e-05,-0.0021956558035464047,0.004321340414325346
1590512632.107263,-3.7017312320472016,-0.73,9.001343839763994,0.28,-0.3533333333333333,-0.6488888888888888,-0.002705947984869906,-0.003083644226616214,0.001657375145115918
1590512632.117263,-3.7,-0.73,9.01,0.28,-0.3533333333333333,-0.6488888888888888,-0.004407685128719352,-0.00384008873810436,-4.4361998733528094e-05
1590512632.127263,-3.7,-0.7345070146563211,9.01450701465632,0.2739906471249053,-0.35082943630204383,-0.6543974623577257,-0.0044708758476267475,-0.004363323129985824,0.0003840863147868429
1590512632.137263,-3.709076903074823,-0.7309230969251771,9.029076903074822,0.26666666666666666,-0.3477777777777778,-0.6611111111111111,0.0006880537660120334,-0.002383050073235123,-0.0007887480201331392
1590512632.147263,-3.701503965236285,-0.7215039652362846,8.9195515480717,0.26666666666666666,-0.3477777777777778,-0.6611111111111111,0.001090830782496456,-0.0003281143151087657,-0.00016405715755438285
1590512632.157263,-3.707936590672166,-0.7358731813443321,8.931746362688664,0.26666666666666666,-0.3477777777777778,-0.6611111111111111,0.001090830782496456,-0.0008657477413272987,0.0
1590512632.167263,-3.71,-0.74,8.94713171897057,0.26666666666666666,-0.3477777777777778,-0.6611111111111111,0.002646730499539289,-0.002646730499539289,-0.001555899717042833
1590512632.177263,-3.69162346521146,-0.74,8.9806275579809,0.2782370774594513,-0.355264514173109,-0.6522631499166287,0.0019361130259589212,-0.0039406820082545915,0.0004910970780679816
1590512632.187263,-3.7056986844476483,-0.7228675437015678,8.974301315552353,0.2855555555555556,-0.36,-0.6466666666666666,-0.001712460824019306,-0.004363323129985824,0.002181661564992912
1590512632.197263,-3.7166112320417937,-0.7266112320417937,8.917110143665651,0.2855555555555556,-0.36,-0.6466666666666666,-0.0029028351071344522,-0.0029209760457027433,1.8140938568291052e-05
1590512632.207263,-3.7021023722337207,-0.73,8.925795255532558,0.2855555555555556,-0.36,-0.6466666666666666,-0.0052248206776014374,-0.001205497399936877,-0.00011466661744042109
1590512632.217263,-3.7,-0.7367362539421363,8.963681269710682,0.2855555555555556,-0.36,-0.6466666666666666,-0.0039845312807232055,-0.001090830782496456,0.0014696226317590742
1590512632.227263,-3.7081477923648913,-0.74,9.028886754189347,0.29732458897150965,-0.35456813842340573,-0.6520985282432609,0.0011714390130171497,-0.0019796170545977594,0.00040408902079030486
1590512632.237263,-3.71,-0.74,9.033193448576139,0.3,-0.3533333333333333,-0.6533333333333333,0.0014391819834137464,-0.0014391819834137464,0.0007424795815791656
1590512632.247263,-3.71,-0.74,8.95147089984461,0.3,-0.3533333333333333,-0.6533333333333333,0.0001390312294826144,-0.0020426303355102976,0.001090830782496456
1590512632.257263,-3.71,-0.7219234668615755,8.976153066276849,0.3,-0.3533333333333333,-0.6533333333333333,0.000985921939410538,-0.001195739625582374,-0.0018669350357351578
1590512632.267263,-3.71,-0.7269922993111854,8.99398459862237,0.3,-0.3533333333333333,-0.6533333333333333,-0.001960135349131459,0.0011973938162244803,0.00010656303372802434
1590512632.277263,-3.71,-0.7363196787939995,9.018959036381998,0.27893440402000147,-0.3456092814740005,-0.6357786700166679,-0.004651232380286327,0.00562851164698531,0.0017802007988949355
1590512632.287263,-3.71,-0.74,8.986894735161712,0.26666666666666666,-0.3411111111111111,-0.6255555555555555,-0.008275386898878242,0.002933760500148589,0.0012412505695275915
1590512632.297263,-3.69349353982495,-0.731746769912475,8.913974159299801,0.26666666666666666,-0.3411111111111111,-0.6255555555555555,-0.0024246320558229516,0.00038108607809328454,-0.0007097447044031714
1590512632.307263,-3.7254041311765778,-0.7477020655882889,8.926553098382433,0.26666666666666666,-0.3411111111111111,-0.6255555555555555,0.0008401650232512231,-0.0009654979028738396,-0.001090830782496456
1590512632.317263,-3.7158361794063817,-0.7429180897031907,8.951245730890427,0.26666666666666666,-0.3411111111111111,-0.6255555555555555,-0.00045420236763117324,-0.00031831420743264136,0.00045420236763117324
1590512632.3272629,-3.71,-0.7351730047033944,8.984134976483029,0.2698846635310703,-0.33413878457156976,-0.6325278820950969,0.0010153432401047151,0.0015796305169508786,0.0005642872768461632
1590512632.3372629,-3.6950879314134975,-0.7150879314134975,9.01,0.2733333333333333,-0.32666666666666666,-0.64,0.003272492347489368,0.0027302742326608554,0.0
1590512632.3472629,-3.694483856064884,-0.7193118080865116,8.966548431805348,0.2733333333333333,-0.32666666666666666,-0.64,0.002745844479328596,0.0006017179605105956,-0.0005266478681607721
1590512632.3572628,-3.705538291633345,-0.74,8.94677025019993,0.2733333333333333,-0.32666666666666666,-0.64,0.002181661564992912,-0.0006041338996095038,-0.0006041338996095038
1590512632.3672628,-3.7,-0.74,9.001127710843374,0.2733333333333333,-0.32666666666666666,-0.64,0.00045315476362021447,-0.0011523378675817983,0.0
1590512632.3772628,-3.6936173633440514,-0.74,9.032765273311897,0.2690782422293676,-0.335886030725259,-0.64,-0.0003945931287165637,-9.294860365323485e-05,0.0006962376537798923
1590512632.3872628,-3.7021637626693997,-0.7278362373306001,9.0339181186653,0.26666666666666666,-0.3411111111111111,-0.64,0.0,0.0004274004449583256,0.0004274004449583256
1590512632.3972628,-3.718671932253074,-0.7373438645061478,8.934608745216188,0.26666666666666666,-0.3411111111111111,-0.64,0.002837883193613042,0.0009459610645376807,-0.0018919221290753614
1590512632.4072628,-3.7073808009134654,-0.74,8.938928798629801,0.26666666666666666,-0.3411111111111111,-0.64,0.0012076807253829126,-0.001662251380312151,-0.00011684994288645644
1590512632.4172628,-3.7,-0.7344153441447692,8.972338623420923,0.26666666666666666,-0.3411111111111111,-0.64,0.0012183829033069716,-0.003272492347489368,0.001090830782496456
1590512632.4272628,-3.7138547457010755,-0.7438547457010753,9.024636864252688,0.27590316380071694,-0.3457293596781362,-0.6492364971340503,0.0029373207197125853,-0.0025168331927696947,0.0018464899372161293
1590512632.4372628,-3.711209387862335,-0.7236281635870041,9.004837551449338,0.28,-0.3477777777777778,-0.6533333333333333,0.0023135853158141404,-0.00026384750164245674,0.00026384750164245674
1590512632.4472628,-3.7189228808158066,-0.7289228808158063,8.92861695347355,0.28,-0.3477777777777778,-0.6533333333333333,0.00023499095250720334,0.0,0.0
1590512632.4572628,-3.7117550786333458,-0.7135101572666916,8.928244921366653,0.28,-0.3477777777777778,-0.6533333333333333,-0.0008993814026009115,-0.001798762805201823,0.0008993814026009115
1590512632.4672627,-3.71,-0.7230289438374544,8.988630247268544,0.28,-0.3477777777777778,-0.6533333333333333,-0.004643924032824667,-0.0007604242648616276,0.0003802121324308138
1590512632.4772627,-3.7246982585294934,-0.7373491292647468,9.027349129264746,0.2751005804901688,-0.35186062736930374,-0.6500670536601125,-0.006544984694978735,0.0,0.0
1590512632.4872627,-3.7164971374238838,-0.7332485687119419,9.036751431288057,0.2733333333333333,-0.3533333333333333,-0.6488888888888888,-0.008754385417455778,-0.0007364669074923474,0.0007364669074923474
1590512632.4972627,-3.71,-0.7383588981819356,8.956411018180644,0.2733333333333333,-0.3533333333333333,-0.6488888888888888,-0.008905662698007202,-0.0020026451269573586,0.00017901643803555352
1590512632.5072627,-3.71,-0.74,8.972703559942332,0.2733333333333333,-0.3533333333333333,-0.6488888888888888,-0.004267390024682543,-0.003073512812050733,0.0008918512470578211
1590512632.5172627,-3.697160780580676,-0.74,9.005678438838649,0.2733333333333333,-0.3533333333333333,-0.6488888888888888,-0.0011716799826156127,-0.003272492347489368,-0.0003097107940860475
1590512632.5272627,-3.6972309904053504,-0.74,9.02,0.278153993603567,-0.358153993603567,-0.6625474263212177,0.004732672153255711,0.002248958497975629,0.0004867266019221146
1590512632.5372627,-3.7057412838623467,-0.7342587161376534,8.974069729101226,0.28,-0.36,-0.6677777777777778,0.005292430861359165,0.004363323129985824,0.0017171076993062412
1590512632.5472627,-3.7030904831857705,-0.73,8.905452415928853,0.28,-0.36,-0.6677777777777778,0.0013484776767304424,0.0036096117666719785,0.002181661564992912
1590512632.5572627,-3.7054109838584486,-0.7354109838584486,8.911643935433794,0.28,-0.36,-0.6677777777777778,-0.004131727429471005,0.005043232674405513,0.002181661564992912
1590512632.5672626,-3.71,-0.7438315907614154,8.968315907614153,0.28,-0.36,-0.6677777777777778,-0.007635815477475192,0.008216831554371083,0.002599623279840999
1590512632.5772626,-3.71,-0.7444936328216929,9.018987265643386,0.27632908854779525,-0.35326999567095796,-0.6598241362980009,-0.007035163995692633,0.010307656343182002,0.0014705379021416934
1590512632.5872626,-3.717268296979127,-0.7327317030208731,9.01,0.2733333333333333,-0.3477777777777778,-0.6533333333333333,-0.0057521364868629715,0.00902462883435234,-0.0007928482081157637
1590512632.5972626,-3.704381490166053,-0.7378092549169737,8.916288940996315,0.2733333333333333,-0.3477777777777778,-0.6533333333333333,-0.008009726608021305,0.01298593408587002,0.0014647419130425687
1590512632.6072626,-3.7233464669720635,-0.7477821556573544,8.967821556573545,0.2733333333333333,-0.3477777777777778,-0.6533333333333333,-0.00533104028188318,0.015029701666976043,0.001332760070470795
1590512632.6172626,-3.7239154861227766,-0.7439154861227766,8.977830972245554,0.2733333333333333,-0.3477777777777778,-0.6533333333333333,-0.003035888123225387,0.011953043438049291,0.0004271132791162374
1590512632.6272626,-3.72,-0.74,9.01165369714229,0.28181834571417014,-0.3477777777777778,-0.6533333333333333,-0.0006670903967397777,0.009060191458341537,0.0
1590512632.6372626,-3.7126832050823193,-0.7326832050823192,9.03731679491768,0.2855555555555556,-0.3477777777777778,-0.6533333333333333,0.0015962770250839556,0.004735953697261759,-0.0015962770250839556
1590512632.6472626,-3.6947530801344057,-0.73,8.948518480806435,0.2855555555555556,-0.3477777777777778,-0.6533333333333333,0.0030132520413752527,-5.386955803999378e-05,-0.0013500710886105716
1590512632.6572626,-3.641687965329481,-0.7179219913323702,8.968312034670518,0.2855555555555556,-0.3477777777777778,-0.6533333333333333,-0.0013387799285789655,0.0008854287643899727,-0.0024083371470874086
1590512632.6672626,-3.524888595605931,-0.6887221489014828,8.984041611676112,0.2855555555555556,-0.3477777777777778,-0.6533333333333333,-0.004363323129985824,-0.00013939193137094694,-0.006173809217944191
1590512632.6772625,-3.380873641726172,-0.6255616268239677,8.999625582117355,0.282812446100245,-0.3477777777777778,-0.6500416019869606,-0.011365230796633052,-0.0037974864111422722,-0.020037420183017175
1590512632.6872625,-3.2683593109105824,-0.5661197703035274,9.016119770303527,0.28,-0.3477777777777778,-0.6466666666666666,-0.025105215424887674,-0.008987049670723467,-0.04425157754325861
1590512632.6972625,-3.0904989900501234,-0.5338123737562654,8.983812373756265,0.28,-0.3477777777777778,-0.6466666666666666,-0.03684511437541008,-0.015444364190252557,-0.07126543495635783
1590512632.7072625,-2.8978491851579045,-0.5070288187091428,8.965676272903048,0.28,-0.3477777777777778,-0.6466666666666666,-0.03894580256862795,-0.01839658344243724,-0.09077357245092665
1590512632.7172625,-2.550872524156528,-0.7041440082180348,9.045657603287214,0.28,-0.3477777777777778,-0.6466666666666666,-0.033194998670689396,-0.016131030944165115,-0.10954593983620906
1590512632.7272625,-2.077291280871718,-1.1241669753026258,9.110311689830608,0.28569449588377094,-0.35299773233790116,-0.6495139146085521,-0.010805903562893585,-0.0004998799412430401,-0.13847884256674692
1590512632.7372625,-1.990318054624995,-0.9820143459583022,8.856431245812479,0.2933333333333333,-0.36,-0.6533333333333333,0.038418025776967867,0.035203357392055164,-0.18895267376147876
1590512632.7472625,-2.0148116918559786,-0.7735564924432065,8.692594154072012,0.2933333333333333,-0.36,-0.6533333333333333,0.05806506360002639,0.059502765061980746,-0.2630088670372
1590512632.7572625,-2.119251128813186,-0.7665834587570207,8.887254138981682,0.2933333333333333,-0.36,-0.6533333333333333,0.021452458125020973,0.03557879884796148,-0.35958441276639364
1590512632.7672625,-2.179023709158174,-0.77,8.98839051633673,0.2933333333333333,-0.36,-0.6533333333333333,0.007178183802417939,0.024807043754743185,-0.44433934426606353
1590512632.7772624,-2.2123813699369332,-0.7638093150315335,9.004762739873867,0.2885183561356372,-0.343491506750756,-0.6533333333333333,0.013038207260148274,0.03766002131809524,-0.5426643462553339
1590512632.7872624,-2.23998652261809,-0.7866486968241202,9.02,0.2855555555555556,-0.3333333333333333,-0.6533333333333333,0.013455539856530255,0.04763098396327127,-0.6424566964155537
1590512632.7972624,-2.2698048417132215,-0.8,8.947382247051522,0.2855555555555556,-0.3333333333333333,-0.6533333333333333,0.010558889875244218,0.05340813140899091,-0.7360641190681321
1590512632.8072624,-2.2867341929025953,-0.8269367716103816,8.957139350318169,0.2855555555555556,-0.3333333333333333,-0.6533333333333333,0.015694168973204272,0.06003988885537138,-0.8252426172021825
1590512632.8172624,-2.3011956866476373,-0.8511956866476371,8.983731895549212,0.2855555555555556,-0.3333333333333333,-0.6533333333333333,0.021393729881939424,0.06502696118179767,-0.882746997669868
1590512632.8272624,-2.3178238978750394,-0.8678238978750397,8.989274632625014,0.2855555555555556,-0.3333333333333333,-0.6533333333333333,0.025626061637036977,0.06925929293689521,-0.9268841716873139
1590512632.8372624,-2.337608306674619,-0.9105649840047715,8.989435015995229,0.3055555555555556,-0.3477777777777778,-0.6533333333333333,0.031695722886799504,0.07648141516355648,-1.0313610162236664
1590512632.8472624,-2.3788672153298123,-0.9477344306596241,8.916796708021128,0.3055555555555556,-0.3477777777777778,-0.6533333333333333,0.034299385829229305,0.08265600419209444,-1.1059043729285551
1590512632.8572624,-2.3932506826686444,-0.9895040960118666,8.869504096011866,0.3055555555555556,-0.3477777777777778,-0.6533333333333333,0.03561577398370361,0.08792155680999164,-1.1670025844076979
1590512632.8672624,-2.4,-1.031673755536652,8.912789592561086,0.3055555555555556,-0.3477777777777778,-0.6533333333333333,0.036723089792528744,0.09381144729469522,-1.2155645674770703
1590512632.8772624,-2.4075649543703626,-1.072608257283938,8.954956697086425,0.31031867497393206,-0.34105337389301094,-0.6533333333333333,0.029718053400363494,0.09518679481059067,-1.2944171555004536
1590512632.8872623,-2.4388916214092977,-1.1233374321139462,8.944445810704648,0.3244444444444444,-0.3211111111111111,-0.6533333333333333,0.028240694996368013,0.10169041479206901,-1.37360715511985
1590512632.8972623,-2.438070142840553,-1.1817545000580651,8.88438578562304,0.3244444444444444,-0.3211111111111111,-0.6533333333333333,0.02880175835638877,0.1066717734327064,-1.4464417189333068
1590512632.9072623,-2.452833511453929,-1.2328335114539286,8.897083778634821,0.3244444444444444,-0.3211111111111111,-0.6533333333333333,0.02836160034490785,0.10923762232547068,-1.5057785341915613
1590512632.9172623,-2.47,-1.2587755178344426,8.948775517834443,0.3244444444444444,-0.3211111111111111,-0.6533333333333333,0.030276121342139164,0.11400295102660465,-1.5597656033341858
1590512632.9272623,-2.4788936963819475,-1.3055747855277882,8.977787392763895,0.34272593145178,-0.3146878859463716,-0.6597565584980729,0.035150302920794976,0.12084085884883472,-1.622079532808049
1590512632.9372623,-2.478107953671348,-1.3916221621502824,9.005946023164325,0.3655555555555556,-0.30666666666666664,-0.6677777777777778,0.03882768789748435,0.12910137301307498,-1.6917610961233014
1590512632.9472623,-2.47,-1.4317121922041671,8.916302462366662,0.3655555555555556,-0.30666666666666664,-0.6677777777777778,0.04438031608460061,0.1375529623899548,-1.7489077011164726
1590512632.9572623,-2.4640221959858324,-1.4698890200708383,8.867933412042504,0.3655555555555556,-0.30666666666666664,-0.6677777777777778,0.051256940745036526,0.14658586630938927,-1.8028088994000921
1590512632.9672623,-2.4465016257225436,-1.5349945809248555,8.9114962066474,0.3655555555555556,-0.30666666666666664,-0.6677777777777778,0.05246907886395913,0.15200709220206174,-1.8469373610757038
1590512632.9772623,-2.4184467678697095,-1.59,8.95,0.375825095226925,-0.29939240939944667,-0.6677777777777778,0.05252930890183823,0.15632766458100988,-1.89404204697898
1590512632.9872622,-2.4,-1.5842429787960863,8.736990215455188,0.3922222222222223,-0.2877777777777778,-0.6677777777777778,0.06458943663636518,0.16977202894405,-1.9480892569136616
1590512632.9972622,-2.376392654552447,-1.6036073454475532,8.603607345447553,0.3922222222222223,-0.2877777777777778,-0.6677777777777778,0.05332490779203266,0.1567570819563315,-1.9972228034649562
1590512633.0072622,-2.316940652912316,-1.6669738331865644,8.772664957856334,0.3922222222222223,-0.2877777777777778,-0.6677777777777778,0.019437533474234363,0.12966170251066492,-2.039196975492212
1590512633.0172622,-2.2556409216055644,-1.7437606144037097,8.978974931169395,0.3922222222222223,-0.2877777777777778,-0.6677777777777778,-0.007039233309775129,0.11400571099284479,-2.0712172639688067
1590512633.0272622,-2.3183342435827416,-1.8216712179137082,8.792512288367012,0.40842769585533106,-0.2683312094180472,-0.6677777777777778,0.056269233974216425,0.16371576817169503,-2.085941908524904
1590512633.0372622,-2.319301597368108,-1.9174444092116214,8.944650798684053,0.4311111111111111,-0.2411111111111111,-0.6677777777777778,0.04576296501318132,0.1598950215733125,-2.1129911535473047
1590512633.0472622,-2.287935943060498,-1.963238434163701,8.842918149466191,0.4311111111111111,-0.2411111111111111,-0.6677777777777778,0.039207796808591475,0.16054622303098195,-2.133024487149858
1590512633.0572622,-2.284859953362459,-2.014803934707443,8.829383794794822,0.4311111111111111,-0.2411111111111111,-0.6677777777777778,0.05126293609000485,0.16907877128695067,-2.1472545651893093
1590512633.0672622,-2.3012341197822144,-2.0675317604355716,8.909319419237749,0.4311111111111111,-0.2411111111111111,-0.6677777777777778,0.0499693545655205,0.17003498048467444,-2.163131299794787
1590512633.0772622,-2.269636042755819,-2.1225823315906895,8.882218374346508,0.4474022769064559,-0.22527247769897032,-0.670945504460206,0.05090417730211859,0.17214897810855936,-2.1751562818744796
1590512633.0872622,-2.235976032534418,-2.1579280976032535,8.863784292809761,0.4711111111111111,-0.20222222222222225,-0.6755555555555556,0.05540636041604931,0.17256420090109223,-2.1783890726454227
1590512633.0972621,-2.1971502351036767,-2.1329607646650737,8.802960764665073,0.4711111111111111,-0.20222222222222225,-0.6755555555555556,0.05319475452270718,0.17049257139308613,-2.1760854882688503
1590512633.1072621,-2.110531580610974,-2.1798073740773107,8.730724206533663,0.4711111111111111,-0.20222222222222225,-0.6755555555555556,0.05056815914832928,0.1670920812987039,-2.161404721956952
1590512633.1172621,-2.1263173780650675,-2.282736524386986,8.692838292643838,0.4711111111111111,-0.20222222222222225,-0.6755555555555556,0.05247418198740971,0.168194346970163,-2.1472376925331207
1590512633.127262,-2.066834713154293,-2.296618653384488,8.852805187229364,0.4755235467007696,-0.1875141035900274,-0.6755555555555556,0.057139185316817394,0.1680350774340068,-2.1354935367404626
1590512633.137262,-2.016241939484127,-2.325032242063492,8.969935515873015,0.4844444444444445,-0.15777777777777774,-0.6755555555555556,0.040082755661442496,0.15489797111449674,-2.128474771687373
1590512633.147262,-2.01,-2.4205143382993013,8.860334021439053,0.4844444444444445,-0.15777777777777774,-0.6755555555555556,0.046647768090355625,0.16022314724848302,-2.101548539893881
1590512633.157262,-1.9787088843112497,-2.49043037189625,8.851721487585001,0.4844444444444445,-0.15777777777777774,-0.6755555555555556,0.05051237307552729,0.16187100547263597,-2.0669420807078884
1590512633.167262,-1.9291190178003161,-2.516704785759747,8.856590428480507,0.4844444444444445,-0.15777777777777774,-0.6755555555555556,0.04854820704311223,0.157894637155352,-2.0288953576672486
1590512633.177262,-1.896083143409399,-2.547833713181202,8.841334852724808,0.5018526959582263,-0.13688787596123947,-0.6894821567665811,0.053214403107760204,0.15641606467095834,-1.9753298037393885
1590512633.187262,-1.8574877730363788,-2.5762561134818105,8.87374388651819,0.5288888888888889,-0.10444444444444444,-0.7111111111111111,0.051881638776365605,0.1539764156062896,-1.9111248608951552
1590512633.197262,-1.8030364888228336,-2.613927022354333,8.8291094664685,0.5288888888888889,-0.10444444444444444,-0.7111111111111111,0.048376355047159626,0.14906401658469892,-1.841958516134889
1590512633.207262,-1.7781840590036395,-2.6478772939975737,8.778184059003639,0.5288888888888889,-0.10444444444444444,-0.7111111111111111,0.04693918651850855,0.1440565890318541,-1.7574006939304385
1590512633.217262,-1.7552692594517638,-2.6458077783552914,8.78365370274118,0.5288888888888889,-0.10444444444444444,-0.7111111111111111,0.04311718755845622,0.13538050362894535,-1.6906367748820887
1590512633.227262,-1.72024045114863,-2.5858860365347356,8.876936756158317,0.5329662561121874,-0.08437125196051296,-0.7136202601716025,0.03898821840511482,0.12533092425617484,-1.6240964911297713
1590512633.237262,-1.6457970281687844,-2.570745404426756,8.87159405633757,0.5433333333333333,-0.03333333333333333,-0.72,0.03423357185782994,0.11785038001432298,-1.5768534454334064
1590512633.247262,-1.5957010442332513,-2.6150154483945403,8.77498455160546,0.5433333333333333,-0.03333333333333333,-0.72,0.037400875490410185,0.11975691441046214,-1.549363756618159
1590512633.257262,-1.4851144328601935,-2.6891475945233014,8.755737972616506,0.5433333333333333,-0.03333333333333333,-0.72,0.03795910254273084,0.11372535041957693,-1.5135991675977758
1590512633.267262,-1.3989647827615443,-2.6873788696569267,8.818414086895382,0.5433333333333333,-0.03333333333333333,-0.72,0.03243900250857768,0.1133863297793711,-1.503390667646172
1590512633.277262,-1.358536394683784,-2.6986590132905404,8.855793111961486,0.5449255007383633,-0.020277560612087214,-0.7212737339240239,0.03335685396029744,0.11843496718748318,-1.5137738803812235
1590512633.287262,-1.3045859724111133,-2.7756475616864194,8.871995725665435,0.5488888888888889,0.012222222222222223,-0.7244444444444444,0.042208899192447,0.12214757302136796,-1.530975217401182
1590512633.297262,-1.2279882312809143,-2.79,8.745996077093638,0.5488888888888889,0.012222222222222223,-0.7244444444444444,0.04079108034754443,0.12413311966648352,-1.5655766001015763
1590512633.307262,-1.197188101619418,-2.7823128609716505,8.757936657732815,0.5488888888888889,0.012222222222222223,-0.7244444444444444,0.031913604955112335,0.12085714113111944,-1.6024503081765824
1590512633.317262,-1.1440341714675424,-2.7679829142662284,8.81,0.5488888888888889,0.012222222222222223,-0.7244444444444444,0.03403112476723854,0.1282779724927154,-1.6556238226200084
1590512633.327262,-1.1344220283533262,-2.8030752453653216,8.81,0.5508118260026656,0.029208166727250698,-0.7353410880891798,0.0385145346181982,0.13561929164172812,-1.6954228515216305
1590512633.337262,-1.1410002524151541,-2.8696665825282817,8.742333922302027,0.5555555555555556,0.07111111111111111,-0.7622222222222222,0.0420879106365066,0.14673492534785193,-1.751001351789535
1590512633.347262,-1.0922782731647245,-2.8932912951264567,8.687721726835276,0.5555555555555556,0.07111111111111111,-0.7622222222222222,0.03298720149582597,0.1447214694682067,-1.8027017170366362
1590512633.357262,-1.0657330378452097,-2.935601772928742,8.731334810773951,0.5555555555555556,0.07111111111111111,-0.7622222222222222,0.028347281563753365,0.1466224594399899,-1.8499774132082167
1590512633.367262,-1.030525557090516,-2.977368610727371,8.75263138927263,0.5555555555555556,0.07111111111111111,-0.7622222222222222,0.033126818845176174,0.1520273741372899,-1.8867357514643708
1590512633.3772619,-0.9833267212695163,-3.003306885078065,8.779920655234195,0.5433575775673293,0.0814609106162728,-0.7762683786935131,0.03417864325394754,0.15416786553573344,-1.9231130316130094
1590512633.3872619,-0.9851374475347078,-3.0202748950694156,8.903762972187629,0.5188888888888888,0.10222222222222224,-0.8044444444444444,0.04551502886117609,0.15548836610629624,-1.956090151203535
1590512633.3972619,-0.9507007840289029,-3.0283120099819354,8.862102352086708,0.5188888888888888,0.10222222222222224,-0.8044444444444444,0.04753456076808391,0.16259627417017852,-1.9734518167933561
1590512633.4072618,-0.9029694683705831,-3.0778168102234984,8.724847341852916,0.5188888888888888,0.10222222222222224,-0.8044444444444444,0.030014498939256434,0.17424231129001258,-1.9847499563316975
1590512633.4172618,-0.9187111786672673,-3.1722670720036032,8.803555893336336,0.5188888888888888,0.10222222222222224,-0.8044444444444444,0.021428727858874203,0.15535361491317168,-1.9933357274120795
1590512633.4272618,-0.9,-3.18803215829167,8.788754978391662,0.5165684876046286,0.10400714628703783,-0.8008745963148132,0.028225789555382994,0.17055949481078855,-1.9754375837530844
1590512633.4372618,-0.8982629511875818,-3.2291314755937908,8.731737048812418,0.5044444444444445,0.11333333333333333,-0.7822222222222223,0.02124816775534372,0.16661288577466507,-1.9548200498451545
1590512633.4472618,-0.8741689119515683,-3.2112533679273527,8.712097927685194,0.5044444444444445,0.11333333333333333,-0.7822222222222223,0.015907703988818023,0.1623524713067331,-1.9098217298835751
1590512633.4572618,-0.8602172105245651,-3.1903258157868475,8.621411868409671,0.5044444444444445,0.11333333333333333,-0.7822222222222223,0.017429598527295517,0.1593086822297781,-1.8831885754602191
1590512633.4672618,-0.842815544374264,-3.236444170859651,8.665703886093565,0.5044444444444445,0.11333333333333333,-0.7822222222222223,0.004436134712566547,0.15575448523228072,-1.8096565043276795
1590512633.4772618,-0.7829461513756557,-3.258895193234129,8.650736537843914,0.5044444444444445,0.11333333333333333,-0.7822222222222223,-0.0029109451788126703,0.1549381430221275,-1.763941340559098
1590512633.4872618,-0.746347365138759,-3.26341315871531,8.714131587153101,0.5111111111111111,0.1288888888888889,-0.7244444444444444,-0.023704327741197854,0.15338257688244866,-1.676084456793743
1590512633.4972618,-0.7173628323134673,-3.27,8.753628323134674,0.5111111111111111,0.1288888888888889,-0.7244444444444444,-0.024849705221684705,0.14691463457398063,-1.6136997666669937
1590512633.5072618,-0.6842530959752322,-3.263563273993808,8.68,0.5111111111111111,0.1288888888888889,-0.7244444444444444,-0.0067331044579237755,0.14009028096061588,-1.5377706755418756
1590512633.5172617,-0.63,-3.2575178416955017,8.70004757785467,0.5111111111111111,0.1288888888888889,-0.7244444444444444,0.005183392443924687,0.13253204761918636,-1.473944224079939
1590512633.5272617,-0.6294898682159558,-3.2801275329460107,8.760382598838033,0.5119329900965156,0.12880386692488152,-0.7255355596492057,0.007733197281779113,0.12750199637512316,-1.4216225508819598
1590512633.5372617,-0.5833896394633435,-3.3054241745855317,8.772372371902248,0.5755555555555556,0.12222222222222222,-0.81,0.016233068922521663,0.11636756755826033,-1.3429416762188402
1590512633.5472617,-0.5636909998904145,-3.351387666922366,8.719842666374438,0.5755555555555556,0.12222222222222222,-0.81,0.019098119911782202,0.11206999107436952,-1.2978171231379865
1590512633.5572617,-0.5423823779609999,-3.3508588535532,8.6715235244078,0.5755555555555556,0.12222222222222222,-0.81,0.021224357064006546,0.10497963224119974,-1.2144392662261199
1590512633.5672617,-0.5080748593116085,-3.30968983117393,8.678385028137678,0.5755555555555556,0.12222222222222222,-0.81,0.023469778908836194,0.101237262499817,-1.1717762511743566
1590512633.5772617,-0.5154408602150538,-3.34,8.681397849462366,0.5690967741935484,0.11778972520908004,-0.797715651135006,0.016113799236490655,0.09259628526172067,-1.0953981965470379
1590512633.5872617,-0.48,-3.3451049924700933,8.754685022589719,0.5188888888888888,0.08333333333333333,-0.7022222222222222,0.016129839198230633,0.088845444264307,-1.0313497106475062
1590512633.5972617,-0.48656704581028903,-3.3764176145257228,8.703432954189712,0.5188888888888888,0.08333333333333333,-0.7022222222222222,0.021100262077936353,0.07964694754674859,-0.9682347889259916
1590512633.6072617,-0.48552174235494794,-3.405173914118316,8.680347828236632,0.5188888888888888,0.08333333333333333,-0.7022222222222222,0.02121428699654995,0.075606430493699,-0.9132553910693996
1590512633.6172616,-0.43082529911742523,-3.3945873504412876,8.66834940176515,0.5188888888888888,0.08333333333333333,-0.7022222222222222,0.025179134165623947,0.06906256661905494,-0.8556310702031743
1590512633.6272616,-0.39518532893460123,-3.413209780710266,8.733209780710267,0.5099728313603725,0.09813398883067037,-0.6909879897362917,0.021466482889546983,0.06566534583132848,-0.8004680552226259
1590512633.6372616,-0.37,-3.43,8.75,0.4633333333333333,0.17555555555555555,-0.6322222222222222,0.01963495408493621,0.061086523819801536,-0.7537640707050511
1590512633.6472616,-0.19706259097525475,-3.2163714359106086,8.119287096497988,0.4633333333333333,0.17555555555555555,-0.6322222222222222,0.06624147683078119,0.016699359299949174,-0.7088220666287006
1590512633.6572616,-0.10214301558813448,-3.0848149791284354,7.9027786404242875,0.4633333333333333,0.17555555555555555,-0.6322222222222222,0.04072996589149251,-0.028511666843490015,-0.6598689231718473
1590512633.6672616,-0.3056328684508104,-3.353369770071617,9.220805126272145,0.4633333333333333,0.17555555555555555,-0.6322222222222222,-0.1332075020473305,0.01762894382423371,-0.6259402482407193
1590512633.6772616,-0.2921045043984819,-3.5712253964517933,9.985251993291946,0.4633333333333333,0.18923998287027502,-0.6289278230538639,0.024879215581709677,0.24411495687279405,-0.5208048636335388
1590512633.6872616,-0.18564110436692569,-3.074188139155901,8.479129448997426,0.4633333333333333,0.23555555555555555,-0.6177777777777778,0.0551119832613816,-0.02278803497126805,-0.5361796682951662
1590512633.6972616,-0.25829883753898497,-3.175198671473126,9.563878245372434,0.4633333333333333,0.23555555555555555,-0.6177777777777778,-0.060996214041381086,0.04846476026248673,-0.49622912478143294
1590512633.7072616,-0.21,-3.1342619429636147,8.54997929713783,0.4633333333333333,0.23555555555555555,-0.6177777777777778,0.06211612557773314,0.022424389231709273,-0.4573189069752611
1590512633.7172616,-0.22181683587140438,-3.1829098984771576,8.370516920473772,0.4633333333333333,0.23555555555555555,-0.6177777777777778,0.03310357649524757,0.04653030066738183,-0.4161028007650646
1590512633.7272615,-0.26,-3.1725410012175037,9.117294993912482,0.4661202224927785,0.24298725998074275,-0.6221129386924703,-0.009272048630727829,0.010953020194645058,-0.39722333811037885
1590512633.7372615,-0.25706235819183687,-3.2411870745755107,8.728531179095919,0.4833333333333333,0.2888888888888889,-0.6488888888888888,0.044792084317551134,0.035935948308770914,-0.35250512097355424
1590512633.7472615,-0.2386292110912026,-3.194112366726392,8.729595522361581,0.4833333333333333,0.2888888888888889,-0.6488888888888888,0.02767523751793586,0.022907446432425576,-0.3170101248747875
1590512633.7572615,-0.23118841916656319,-3.2164347425003106,8.781681065834057,0.4833333333333333,0.2888888888888889,-0.6488888888888888,0.0357918823954836,0.022907446432425576,-0.29103686126663475
1590512633.7672615,-0.2,-3.2277004978274006,8.819155419987915,0.4833333333333333,0.2888888888888889,-0.6488888888888888,0.050261053968852346,0.030876936659345027,-0.23552964248507083
1590512633.7772615,-0.2,-3.257874449656125,8.54155506316365,0.4833333333333333,0.2888888888888889,-0.6488888888888888,0.04631129291073181,0.023635708052790715,-0.21380595666540791
1590512633.7872615,-0.2382409877295938,-3.356042222391586,8.946253334349517,0.4642128394685364,0.3080093827536858,-0.6191458984325382,-0.010547579620921253,0.0019542839116030927,-0.17796179683980212
1590512633.7972615,-0.24,-3.327440309254908,8.630053058440081,0.4633333333333333,0.3088888888888889,-0.6177777777777778,0.022349008540742028,0.012269675886345909,-0.11095658197894044
1590512633.8072615,-0.24516295782638844,-3.2883962680451364,8.715814789131942,0.4633333333333333,0.3088888888888889,-0.6177777777777778,0.008762198142626295,0.007564711712165899,-0.057669004546744174
1590512633.8172615,-0.26409317906245505,-3.3727287860416366,8.774991676770997,0.4633333333333333,0.3088888888888889,-0.6177777777777778,0.011999138607461015,0.0013884951638028524,-0.011895680170969904
1590512633.8272614,-0.2899525267679155,-3.3899683511786103,8.680174068517642,0.4633333333333333,0.3088888888888889,-0.6177777777777778,0.011999138607461015,0.00326903999662921,0.03699848548251537
1590512633.8372614,-0.2724824787129438,-3.3637237180694157,8.837657691583505,0.4779312677392135,0.3322455839382972,-0.6304293209295406,0.014865436325404694,-0.005326400806341666,0.08868160552786569
1590512633.8472614,-0.22011730335089197,-3.3007038201053516,8.610469213403569,0.48,0.33555555555555555,-0.6322222222222222,0.02623112202233211,-0.016388053358655424,0.17217212228597994
1590512633.8572614,-0.19574341628412661,-3.1563749697994687,8.558920995409519,0.48,0.33555555555555555,-0.6322222222222222,0.0059895280732852035,-0.013785370719432019,0.23006983753018295
1590512633.8672614,-0.23661179698216736,-3.298371742112483,8.776908093278463,0.48,0.33555555555555555,-0.6322222222222222,-0.014575534274542492,-0.028912402554835077,0.29248435296707825
1590512633.8772614,-0.31880462473055066,-3.2408367626886148,8.415259651185577,0.48,0.33555555555555555,-0.6322222222222222,0.03204686836180751,-0.020843140560082192,0.352555525594683
1590512633.8872614,-0.33,-3.2848870822041554,8.95721770551039,0.4977777777777778,0.3555555555555556,-0.6622222222222223,-0.013877298924930073,-0.033028424722417536,0.42929561686686857
1590512633.8972614,-0.33774962859942476,-3.271549925719885,8.899850965641496,0.4977777777777778,0.3555555555555556,-0.6622222222222223,-0.008803053030968018,-0.037426387942046196,0.48196675693021623
1590512633.9072614,-0.37089357397983375,-3.2781787147959665,8.813676707652432,0.4977777777777778,0.3555555555555556,-0.6622222222222223,-0.004464520726048254,-0.038872565377019455,0.5231828138269541
1590512633.9172614,-0.32526162371670647,-3.301895350513317,8.70421512884988,0.4977777777777778,0.3555555555555556,-0.6622222222222223,-0.013974049504099214,-0.043472778524957977,0.5947342659278407
1590512633.9272614,-0.2916733667536877,-3.315330653298525,8.804979899738937,0.4977777777777778,0.3555555555555556,-0.6622222222222223,-0.012508485319072745,-0.050067817357577094,0.6350372810160686
1590512633.9372613,-0.342475532527346,-3.144125887545577,8.779902130109384,0.6588888888888889,0.3744444444444445,-0.6755555555555556,0.004373999078922173,-0.045253463550198395,0.7053647608682749
1590512633.9472613,-0.37194776099733795,-3.188052239002662,8.868574629029283,0.6588888888888889,0.3744444444444445,-0.6755555555555556,-0.008804388186538434,-0.06305571761951022,0.7549249094724552
1590512633.9572613,-0.40026112749754206,-3.173847922811578,8.67,0.6588888888888889,0.3744444444444445,-0.6755555555555556,-0.019355125241500216,-0.0626255824586995,0.8125600116639087
1590512633.9672613,-0.4561767401556433,-3.1948162775583664,8.67,0.6588888888888889,0.3744444444444445,-0.6755555555555556,-0.01783026345376008,-0.07101232229127023,0.8476318327819318
1590512633.9772613,-0.4888102826844598,-3.19059485865777,8.75464627208007,0.6588888888888889,0.3744444444444445,-0.6755555555555556,-0.0225830013648605,-0.07205972065827909,0.8901582426361715
1590512633.9872613,-0.49,-3.18226557205646,8.798672139717699,1.275064981724226,0.41311658416214353,-0.9307916776923689,-0.02206375122384418,-0.0677763556018591,0.9176104363395429
1590512633.9972613,-0.47231540780735803,-3.182315407807358,8.776107553155851,1.4555555555555555,0.4244444444444445,-1.0055555555555555,-0.02433139256432884,-0.07392392139872912,0.942316709000184
1590512634.0072613,-0.48884564604804226,-3.1988456460480426,8.676926123711747,1.4555555555555555,0.4244444444444445,-1.0055555555555555,-0.018921884749847337,-0.07212075212723526,0.9567420631721348
1590512634.0172613,-0.5032308947511558,-3.1443078596682077,8.737538754419363,1.4555555555555555,0.4244444444444445,-1.0055555555555555,-0.017604294115888548,-0.07234726758972278,0.9653517195617374
1590512634.0272613,-0.5276741520649598,-3.1768988694199467,8.794573021484906,1.4555555555555555,0.4244444444444445,-1.0055555555555555,-0.010494038781920819,-0.0750136133399607,0.9733507568124509
1590512634.0372612,-0.5023215585171632,-3.0774116888787244,8.866784414828368,0.8422222222222222,0.13444444444444445,-0.7622222222222222,-0.008346782135888376,-0.07224807439415493,0.9778421050258489
1590512634.0472612,-0.519762563153627,-3.2082192236522027,8.69237436846373,0.8422222222222222,0.13444444444444445,-0.7622222222222222,-0.005493004425620654,-0.07415059286766676,0.9730858088420694
1590512634.0572612,-0.5545551356204715,-3.1840836482846466,8.646806080474411,0.8422222222222222,0.13444444444444445,-0.7622222222222222,-0.015819950460223546,-0.07511883835046276,0.9607705711576899
1590512634.0672612,-0.570307283423418,-3.1384635828829097,8.66798936900887,0.8422222222222222,0.13444444444444445,-0.7622222222222222,-0.00681314006875097,-0.07533436283569853,0.9494767425417041
1590512634.0772612,-0.576569862931884,-3.1071506853405797,8.830816436228984,0.8422222222222222,0.13444444444444445,-0.7622222222222222,-0.012278271673283936,-0.07670064573683176,0.9364970549809383
1590512634.0872612,-0.5209425224734404,-3.1195287387632797,8.91261781530918,0.6388020218529616,0.22631163170798146,-0.7146481431036049,-0.0104400023732581,-0.07181208554527405,0.9140876695116217
1590512634.0972612,-0.47343654465834917,-3.1118142196149714,8.740309633975047,0.5666666666666667,0.2588888888888889,-0.6977777777777778,-0.01251719985986039,-0.0704197154369991,0.8638961148360554
1590512634.1072612,-0.43011773940345366,-3.189788069073783,8.61035321821036,0.5666666666666667,0.2588888888888889,-0.6977777777777778,-0.008736920961219651,-0.06002394846573709,0.820422907501687
1590512634.1172612,-0.39988715512121376,-3.19,8.813261702931808,0.5666666666666667,0.2588888888888889,-0.6977777777777778,-0.010369047167087687,-0.0608168934908631,0.7628207166882736
1590512634.1272612,-0.2922923942848896,-3.1981423004762592,8.847430798094964,0.5666666666666667,0.2588888888888889,-0.6977777777777778,0.0024145001747940733,-0.052204651819962436,0.665786120063999
1590512634.1372612,-0.18644160622980982,-3.253173523308303,8.824807564769056,0.544722037999748,0.2588888888888889,-0.7247865515216776,-0.0020034152924663746,-0.04272064678988832,0.5476906099363629
1590512634.1472611,-0.16300635376811343,-3.282784750956528,8.75,0.5377777777777778,0.2588888888888889,-0.7333333333333333,0.011605607819461133,-0.025458465668581825,0.3373255152235361
1590512634.1572611,-0.19931372379287063,-3.1956470628971103,8.75,0.5377777777777778,0.2588888888888889,-0.7333333333333333,0.006852984196921824,-0.01674532236059309,0.1955389104844467
1590512634.1672611,-0.1771128932757557,-3.234811844540407,8.704811844540407,0.5377777777777778,0.2588888888888889,-0.7333333333333333,0.010289878775541833,0.010657302345710287,-0.05105707164069779
1590512634.177261,-0.12703269586674892,-3.318278840222085,8.788278840222086,0.5377777777777778,0.2588888888888889,-0.7333333333333333,0.01848423191462841,0.025225041259641978,-0.2176755854687916
1590512634.187261,-0.07986703783744185,-3.3532507966741143,8.762338375883667,0.5377777777777778,0.21333333333333332,-0.7477777777777778,0.0272707695624114,0.04407286395433274,-0.46013752423273363
1590512634.197261,0.01999358997838907,-3.483837771510201,8.785383136148859,0.5377777777777778,0.21333333333333332,-0.7477777777777778,0.0272707695624114,0.05915562427784615,-0.6302375434368015
1590512634.207261,0.6516241874386194,-4.317681335640462,7.597222326146939,0.5377777777777778,0.21333333333333332,-0.7477777777777778,-0.029529589690680084,0.23536920020459035,-1.0321988702534206
1590512634.217261,6.284599548027284,-13.366522298011736,-2.0849609188729707,0.5377777777777778,0.21333333333333332,-0.7477777777777778,-0.8146577038536542,1.7229405907778286,-3.3586031170196846
1590512634.227261,-0.8286577654303064,-14.131762693591524,-2.693674869902349,0.5377777777777778,0.21333333333333332,-0.7477777777777778,-2.362735404032497,0.6814030204369159,-16.383514208414105
1590512634.237261,-3.918868702677552,-14.280152912313355,-2.830152912313354,0.48405028458093047,0.28254162965469587,-0.6894971071913671,-2.8900077441466174,1.3629447525973784,-20.4027791033135
1590512634.247261,-13.073823063205865,-10.356942540122846,-7.034274024172776,0.4722222222222222,0.2977777777777777,-0.6766666666666666,-3.430028564283782,3.309252653229123,-17.40579467424092
1590512634.257261,-3.5583217753120664,-1.489658807212205,4.625331484049933,0.4722222222222222,0.2977777777777777,-0.6766666666666666,-3.2895159646386745,2.918536972925631,-8.320521941058555
1590512634.267261,-0.9404201591511938,-0.4229628647214854,1.4764461538461537,0.4722222222222222,0.2977777777777777,-0.6766666666666666,-1.7608168790180159,1.2324050223671017,-5.60013716306396
1590512634.277261,-0.7469454320605967,-2.3737146390477664,14.962111609213169,0.4722222222222222,0.2977777777777777,-0.6766666666666666,-1.616369243748033,0.9925619196963487,-5.148548959319319
1590512634.287261,-0.4834734623262473,-1.0013236025215264,5.048478533219322,0.3102881239463259,0.5225519738920816,-0.608187072868402,-0.15523235488191545,0.7064751343664795,-4.721756953669231
1590512634.297261,-1.8126848573213914,-1.134688606540304,10.400526973547178,0.2488888888888889,0.6077777777777778,-0.5822222222222222,1.8319940649560438,1.1655814330458043,-4.086678809879825
1590512634.307261,-0.6260034367840033,-0.7706759008539887,5.639240783170173,0.2488888888888889,0.6077777777777778,-0.5822222222222222,2.8373911668788203,0.9058935560088786,-3.667366274480751
1590512634.317261,-0.8833873912576522,-1.0923832026635165,7.962948125872623,0.2488888888888889,0.6077777777777778,-0.5822222222222222,4.413100675668542,0.6131796364482803,-3.033864356477382
1590512634.327261,-0.6274532029276507,-1.004044951097869,8.861685342314917,0.2488888888888889,0.6077777777777778,-0.5822222222222222,5.5362551970034675,0.4281899066337116,-2.573929655839041
1590512634.337261,-1.1522307523579731,-0.9719944066681291,-1.2255379469181837,0.14555555555555555,0.6766666666666666,-0.5822222222222222,3.9715168235354423,-0.5094837746066272,-1.77757593505981
1590512634.347261,0.013108137749506366,0.8603476639613952,-0.6352017986400527,0.14555555555555555,0.6766666666666666,-0.5822222222222222,1.2894783896433584,-0.23517488582689444,-1.206377852631281
1590512634.357261,0.2246227098189797,1.4155122325836533,0.7030589138782227,0.14555555555555555,0.6766666666666666,-0.5822222222222222,0.005029812959264926,0.06910491393748348,-0.5248049244874342
1590512634.367261,2.175673944048272,2.5474900713110253,13.302064289632474,0.14555555555555555,0.6766666666666666,-0.5822222222222222,-1.0601074587110375,0.5519805290867912,-0.03490201348356281
1590512634.377261,0.8896121750445531,1.2536929648383355,6.422281689344008,0.14555555555555555,0.6766666666666666,-0.5822222222222222,-1.4053282729751475,0.37871607579844935,0.16247268945329568
1590512634.387261,1.4396069100651816,-0.7812156596153078,8.994142840004798,0.11938088446346135,0.6342055335617138,-0.6316632676184002,-0.6880589535613514,0.10034805675433026,0.35204586382458775
1590512634.397261,2.4057720129708158,-0.5849044649538538,8.641860314292842,0.09555555555555556,0.5955555555555555,-0.6766666666666666,0.9724279986769038,-0.059921900742914196,0.5743218900029705
1590512634.407261,1.6903204572329522,-1.4684381158849034,9.080628695309422,0.09555555555555556,0.5955555555555555,-0.6766666666666666,0.07359238062874937,-0.04945335313528962,0.8718755902979298
1590512634.417261,2.3020236499802915,-1.8404197871501773,11.312518722901064,0.09555555555555556,0.5955555555555555,-0.6766666666666666,-0.4223475785875862,-0.10085076709043712,1.0540208116828387
1590512634.4272609,1.8467099221883911,-1.8233906046107002,9.32915736310473,0.09555555555555556,0.5955555555555555,-0.6766666666666666,-0.11551281689124182,-0.057085282068878376,1.0869090953176073
1590512634.4372609,1.7367444530873801,-1.7702333592621402,8.581983553728191,0.10733826392232881,0.5962919748284788,-0.67077531248328,0.07924756134793857,-0.09426714198540141,1.075267665329522
1590512634.4472609,1.538889246749064,-1.8359998389629213,8.658443979226217,0.11333333333333333,0.5966666666666667,-0.6677777777777778,-0.08741147339901612,-0.08966634302046948,1.0929881584854304
1590512634.4572608,14.277144136923004,-14.125012023197698,8.660372247630724,0.11333333333333333,0.5966666666666667,-0.6677777777777778,-0.06876847420283094,-0.08835729338221293,1.1119570975500686
1590512634.4672608,11.977554041551013,-11.43409622339978,4.81508200857936,0.11333333333333333,0.5966666666666667,-0.6677777777777778,-0.05466944038740166,-0.5929520883408803,0.9348818923994783
1590512634.4772608,3.1248233713901943,-3.335004317375036,10.144660270555502,0.11333333333333333,0.5966666666666667,-0.6677777777777778,0.06038417657032117,-0.2544326641482074,0.7315459732314806
1590512634.4872608,-0.322850353693524,-1.1936041698604936,4.177468298986006,0.14222222222222222,0.5988888888888889,-0.6677777777777778,0.2738627659978181,0.6543831057991224,0.6187077957440331
1590512634.4972608,-0.49737938284312655,-3.2512095661505445,13.20704912288386,0.14222222222222222,0.5988888888888889,-0.6677777777777778,-0.3233343703791407,0.2465655982396892,0.36419760675116813
1590512634.5072608,0.8050088632481387,-1.5682242885228994,6.439772456247784,0.14222222222222222,0.5988888888888889,-0.6677777777777778,0.10469377375026327,-0.6879347867739218,0.24308715905994474
1590512634.5172608,2.2244225996712537,-3.170134076771844,8.12955071389435,0.14222222222222222,0.5988888888888889,-0.6677777777777778,0.103219164039036,-0.2330176908603056,0.35736941168005903
1590512634.5272608,8.263290067170718,-9.102860758672161,8.719570691501444,0.14222222222222222,0.5988888888888889,-0.6677777777777778,-0.20026271973879856,0.15845346284888487,0.5020312489647057
1590512634.5372608,2.961628000508022,-5.614699843359722,10.21922653570975,0.1517326860750086,0.5933411183080969,-0.6479643114178062,-0.15760639112835065,-0.004820395128197513,0.5254829651474816
1590512634.5472608,-0.7851791721173613,-1.5382113156419361,6.920195524201084,0.15555555555555556,0.5911111111111111,-0.64,0.24300551602681508,0.034139578719732805,0.6055568154863622
1590512634.5572608,2.673491870678378,-4.075876471687535,8.340896094188002,0.15555555555555556,0.5911111111111111,-0.64,-0.0958005673395857,-0.07273931193212865,0.625863804710216
1590512634.5672607,2.4429394040843655,-4.822441532354489,9.131811660050696,0.15555555555555556,0.5911111111111111,-0.64,-0.10035643198967394,-0.09576408082701514,0.641248180485045
1590512634.5772607,1.5628236017445771,-3.7933369838799544,8.525976521221203,0.15555555555555556,0.5911111111111111,-0.64,0.017075283720337064,-0.057719068183832684,0.6875113218311055
1590512634.5872607,2.1363226513951505,-3.8511236342959263,8.988774217131716,0.17555555555555555,0.5911111111111111,-0.6533333333333333,-0.007791813007436202,-0.0643701588480024,0.743223471343566
1590512634.5972607,1.8296844157426588,-3.9448186507452987,8.886561471914218,0.17555555555555555,0.5911111111111111,-0.6533333333333333,-0.020799774039552767,-0.06529929892172501,0.7738850937764122
1590512634.6072607,1.78,-3.7321672428694903,8.6611533059637,0.17555555555555555,0.5911111111111111,-0.6533333333333333,0.0019452520414743428,-0.06752090515594569,0.8109545808979237
1590512634.6172607,1.7383703919205353,-3.6450667054569634,8.699955529695359,0.17555555555555555,0.5911111111111111,-0.6533333333333333,-0.01761650231242853,-0.06853972567390713,0.8344661447789045
1590512634.6272607,1.8411185801532974,-3.789732958970365,8.557211952289217,0.17555555555555555,0.5911111111111111,-0.6533333333333333,-0.022574187948294848,-0.07251020078910538,0.8464245947234319
1590512634.6372607,1.7689019708216023,-3.9032492961351424,8.957092398259533,0.18804979666126326,0.5805390609447431,-0.6600610016210221,-0.027625212786977365,-0.07606359975157972,0.8639104786283947
1590512634.6472607,1.7560021639166892,-3.8259697051663513,8.65786583716527,0.19,0.5788888888888889,-0.6611111111111111,-0.01788584808584532,-0.07570342025856051,0.8864164113041197
1590512634.6572607,1.5969624229262807,-3.724349478419359,8.73607515414744,0.19,0.5788888888888889,-0.6611111111111111,-0.012331079087169771,-0.07171039583674244,0.9234111213859622
1590512634.6672606,1.5973672961085301,-3.7058244864072356,8.589653247602056,0.19,0.5788888888888889,-0.6611111111111111,-0.01499602810953082,-0.08188487530373773,0.9613469276429373
1590512634.6772606,1.6973136284216657,-3.8539239953407107,8.695822655794991,0.19,0.5788888888888889,-0.6611111111111111,-0.026247440684772395,-0.08995748559736316,1.005732163424738
1590512634.6872606,1.5963026490391705,-3.808103405907505,8.620740649727233,0.2105144083484871,0.5788888888888889,-0.6653554714590739,-0.028656248498473515,-0.08944812416470939,1.0571271832494842
1590512634.6972606,1.3836331681842529,-3.946369175147295,8.82819161756829,0.2222222222222222,0.5788888888888889,-0.6677777777777778,-0.022114045240295803,-0.09440656209324719,1.1189951189190606
1590512634.7072606,1.1536477026855034,-3.6371503118238513,8.553792796232658,0.2222222222222222,0.5788888888888889,-0.6677777777777778,-0.017278082077342997,-0.09671769150622611,1.1807412289859347
1590512634.7172606,1.1608021895994027,-3.7562746951978103,8.811747200796217,0.2222222222222222,0.5788888888888889,-0.6677777777777778,-0.020056901219663498,-0.10354920873606373,1.2652432250424053
1590512634.7272606,1.0971524257415664,-3.731721940593253,8.753443881186506,0.2222222222222222,0.5788888888888889,-0.6677777777777778,-0.028672222510562242,-0.11584476782004119,1.345203753288135
1590512634.7372606,1.023468020040341,-3.7379191879757956,8.682080812024205,0.23359670621236117,0.5613101409041289,-0.6626075577822601,-0.040770625592288,-0.12405206736345047,1.4695701543921371
1590512634.7472606,1.02,-3.74,8.68,0.2344444444444445,0.56,-0.6622222222222223,-0.04145156973486533,-0.12435470920459595,1.4769848795002014
1590512634.7572606,0.9667920449632511,-3.802075947542874,8.671132007493876,0.2344444444444445,0.56,-0.6622222222222223,-0.03371278637116227,-0.13693023217061345,1.6743238552746293
1590512634.7672606,0.7351278124123649,-3.68150160709278,8.742280346010311,0.2344444444444445,0.56,-0.6622222222222223,-0.029220673412780677,-0.1472961345323324,1.795881235837586
1590512634.7772605,0.6323389422578168,-3.65,8.685104052119426,0.2344444444444445,0.56,-0.6622222222222223,-0.03950234654023236,-0.15984184698431733,1.9064035655276195
1590512634.7872605,0.5989017485950655,-3.694393005619738,8.744335136941944,0.24924211298435717,0.5519845962075474,-0.6572896660422514,-0.04896127207489018,-0.1719792367155971,2.019165516629277
1590512634.7972605,0.5685730600718454,-3.734285387985631,8.76857534417243,0.2611111111111111,0.5455555555555556,-0.6533333333333333,-0.05282734087279655,-0.17920780748582232,2.137712040558919
1590512634.8072605,0.4547194914627837,-3.718679872865696,8.758630349619336,0.2611111111111111,0.5455555555555556,-0.6533333333333333,-0.048217961875238045,-0.1874734889097418,2.2984038411523575
1590512634.8172605,0.33924063836445184,-3.649050797955565,8.723386356524461,0.2611111111111111,0.5455555555555556,-0.6533333333333333,-0.04363323129985824,-0.1980789747159058,2.4443340611689766
1590512634.8272605,0.3144151207560378,-3.6192201610080503,8.702465523276164,0.2611111111111111,0.5455555555555556,-0.6533333333333333,-0.04625397420887317,-0.21023260568958263,2.5826318701453905
1590512634.8372605,0.22781562244705586,-3.6570307295921576,8.684846352039212,0.29454180253275336,0.5304171292514157,-0.6508102622826434,-0.06147248127067289,-0.22435870452845738,2.7315458230017913
1590512634.8472605,0.16386502668228559,-3.704662566705714,8.74478524014057,0.32,0.5188888888888888,-0.6488888888888888,-0.07014778096701105,-0.23588044338158304,2.886719679211013
1590512634.8572605,0.09882565393455184,-3.737793586516362,8.693238480901828,0.32,0.5188888888888888,-0.6488888888888888,-0.06981317007977318,-0.2473028511913839,3.00522583248836
1590512634.8672605,-0.0233380639378548,-3.794002838362713,8.568663355243501,0.32,0.5188888888888888,-0.6488888888888888,-0.0626132224892837,-0.2586727007762252,3.155197972897534
1590512634.8772604,-0.22819098907766994,-4.007989987864078,8.642395327669902,0.32,0.5188888888888888,-0.6488888888888888,-0.07151428361801097,-0.26862758804088827,3.286428323004251
1590512634.8872604,11.469706269180183,-16.855865482975304,6.233811193920795,0.366784548687223,0.4779524087875688,-0.665458416548947,-0.07362143361825635,-0.28227657547159407,3.4630266348456473
1590512634.8972604,13.12,-18.64,5.89,0.37333333333333335,0.4722222222222222,-0.6677777777777778,-0.07308566242726255,-0.28361600344907856,3.4808410269461914
1590512634.9072604,-0.9675730269406291,-5.684742986865576,7.967214204637587,0.37333333333333335,0.4722222222222222,-0.6677777777777778,-0.13867719179261334,-0.024657238162498818,-0.23232100556762836
1590512634.9172604,-3.2979914690753986,-2.172261949567181,5.289681344875173,0.37333333333333335,0.4722222222222222,-0.6677777777777778,0.5168687697995772,0.42586999909159,-1.2856488357925728
1590512634.9272604,-2.0381788738439925,-1.989760799157139,6.231913606742888,0.37333333333333335,0.4722222222222222,-0.6677777777777778,0.49443949433623396,0.3081569505686343,-0.9468573367325074
1590512634.9372604,-0.3321324395519671,-2.3940218019831665,10.54359347225494,0.4120112698310715,0.44782536996980277,-0.6677777777777778,-0.16624828348842655,-0.07083176629221676,0.09478030631449891
1590512634.9472604,-0.3491705204629902,-3.803916169905638,9.826407548985538,0.4455555555555555,0.4266666666666667,-0.6677777777777778,-0.2609551012778203,-0.10406620142060091,0.5628182376922612
1590512634.9572604,3.181585536045325,-8.422456206128018,8.108874169426567,0.4455555555555555,0.4266666666666667,-0.6677777777777778,0.006877716598973363,-0.10846839672828759,0.8940837083643645
1590512634.9672604,3.3735067089736415,-8.19815612103113,8.490610340322279,0.4455555555555555,0.4266666666666667,-0.6677777777777778,0.038895914215285377,-0.09450844425458066,0.8542919354425995
1590512634.9772604,-0.9160023737215066,-2.535724159597864,8.923441547107899,0.4455555555555555,0.4266666666666667,-0.6677777777777778,0.004884082783053217,2.147619511039256e-05,0.07090403894062974
1590512634.9872603,1.2706356622506378,-5.082989887191467,9.343590508099467,0.43588387176098115,0.4266666666666667,-0.6739324856470524,0.05733867697062304,0.01969856045368168,-0.03759230276795289
1590512634.9972603,0.16012419759977692,-4.836854591124755,8.880565168852916,0.43333333333333335,0.4266666666666667,-0.6755555555555556,-0.07161762278640352,-0.06670538313371574,0.19279589242382766
1590512635.0072603,-0.07611407708881975,-4.524884127364137,8.630606056978692,0.43333333333333335,0.4266666666666667,-0.6755555555555556,-0.052556263661921655,-0.04717016589066959,0.1253035909634329
1590512635.0172603,0.03936222169020828,-4.334097198946612,8.545254010055062,0.43333333333333335,0.4266666666666667,-0.6755555555555556,0.002211171710652979,-0.009928309837318836,0.00974430232730042
1590512635.0272603,0.031764092835897796,-4.304033701023443,8.582438113304761,0.427506876299471,0.43204493469792427,-0.672418232537322,0.014639189753716577,-0.003712500871865295,-0.0056282055324534345
1590512635.0372603,-0.002616220520386889,-4.308945174360055,8.64628726668072,0.4204125259243646,0.438593565813407,-0.668598197719957,0.01785374153550881,-0.004248259502164,0.0008008980311310313
1590512635.0472603,0.02737153509482898,-4.272628464905171,8.708049116550495,0.4188888888888889,0.44,-0.6677777777777778,0.008643803948154562,-0.0049456948567084815,0.0004345463848249376
1590512635.0572603,0.03516851816983619,-4.269797778196197,8.640741479947279,0.4188888888888889,0.44,-0.6677777777777778,-0.0005417388951068823,-0.004370676122268515,-0.0005490918873895736
1590512635.0672603,0.04331468009699683,-4.399944040290991,8.549988808058199,0.4188888888888889,0.44,-0.6677777777777778,-0.003271271496026026,-0.0039993059186658915,-0.0021804407135295697
1590512635.0772603,0.04990703705733019,-4.369256296458642,8.63065074059869,0.4188888888888889,0.44,-0.6677777777777778,0.0005910484690212839,-0.00601478032965486,-0.001621035147820332
1590512635.0872602,0.036783567351722044,-4.283567134703444,8.735380759131058,0.42139055872643844,0.4378557115678147,-0.6656334893455925,0.004752437163968642,-0.006583240354704734,0.0
1590512635.0972602,0.038337451556688426,-4.300570655707857,8.787766795848832,0.4266666666666667,0.43333333333333335,-0.6611111111111111,0.004788283815090824,-0.003757006542945242,0.0
1590512635.1072602,0.053285034448469354,-4.3766425172242345,8.659492861708928,0.4266666666666667,0.43333333333333335,-0.6611111111111111,0.003965467027413248,-0.0029141506776942045,-0.00036624455635064616
1590512635.1172602,0.042675000963131336,-4.359299996147475,8.562800015410101,0.4266666666666667,0.43333333333333335,-0.6611111111111111,-0.003995167215586617,-0.004363323129985824,-0.001090830782496456
1590512635.1272602,0.048651422274261315,-4.323257111371307,8.69078862180591,0.4266666666666667,0.43333333333333335,-0.6611111111111111,-0.0005884280383299293,-0.004216216120403342,-0.0009437237729139736
1590512635.1372602,0.045150809933551764,-4.326357289401966,8.754849190066448,0.4266666666666667,0.42989946004429885,-0.6616834233259502,0.0012553389003209662,-0.003834358550520047,0.0
1590512635.1472602,0.05,-4.344123815565159,8.71894857867819,0.4266666666666667,0.4266666666666667,-0.6622222222222223,0.004286861613772299,-0.004363323129985824,0.0
1590512635.1572602,0.05334562317077806,-4.3534562317077805,8.626433159755216,0.4266666666666667,0.4266666666666667,-0.6622222222222223,-0.000737945428061573,-0.003998372255854013,-0.0003649508741318106
1590512635.1672602,0.06,-4.397619509043928,8.553153666020672,0.4266666666666667,0.4266666666666667,-0.6622222222222223,-0.00440881845453035,-0.0035776589532677087,-0.0013959973882747968
1590512635.1772602,0.04550251608893522,-4.359329978548086,8.66100503217787,0.4266666666666667,0.4266666666666667,-0.6622222222222223,0.0016179741731276748,-0.004363323129985824,-0.0016545181743616928
1590512635.1872602,0.044526940010182994,-4.38,8.63,0.41967221406917116,0.4266666666666667,-0.6649123962981821,0.006407377121949442,-0.004363323129985824,-0.0005626163378768896
1590512635.1972601,0.06,-4.371024053735137,8.643463919397295,0.4122222222222222,0.4266666666666667,-0.6677777777777778,0.0074813743542530824,-0.004852885054373177,-0.0014686857731620615
1590512635.2072601,0.05221172276961361,-4.36,8.644423445539227,0.4122222222222222,0.4266666666666667,-0.6677777777777778,0.0028477077202132823,-0.00545415391248228,-0.0019981384656611112
1590512635.2172601,0.044734474522293,-4.345796576433121,8.62,0.4122222222222222,0.4266666666666667,-0.6677777777777778,-0.0004005937089382886,-0.003388349693337319,-0.0010329021095724803
1590512635.22726,0.05,-4.3396719605353535,8.642567907915824,0.4122222222222222,0.4266666666666667,-0.6677777777777778,-0.00045903307307476344,-0.0014425131917982816,-0.002181661564992912
1590512635.23726,0.05,-4.355973324184072,8.69,0.4189333485821027,0.4280088919386428,-0.6664355525058017,0.00545415391248228,-0.002840524854665204,-0.0017424193718780505
1590512635.24726,0.048086588196961676,-4.334259764590885,8.697653647212153,0.4455555555555555,0.43333333333333335,-0.6611111111111111,0.00587159561135153,-0.005245433063047655,0.0
1590512635.25726,0.04565011638912338,-4.31,8.69609930166526,0.4455555555555555,0.43333333333333335,-0.6611111111111111,0.0033214908601147423,-0.0037469910417914742,0.0012326641763886997
1590512635.26726,0.05,-4.328460012435969,8.673692002487194,0.4455555555555555,0.43333333333333335,-0.6611111111111111,0.0008054699924169194,-0.003272492347489368,0.0009734565763675328
1590512635.27726,0.05,-4.359507742871525,8.679901548574305,0.4455555555555555,0.43333333333333335,-0.6611111111111111,0.0021601827958471404,-0.003272492347489368,-0.0010586126287777985
1590512635.28726,0.06,-4.354281764183792,8.642845292551376,0.44032228821980984,0.42714856284563396,-0.661586862687088,0.0026457133575603607,-0.003896255112478722,-0.0017145935474858099
1590512635.29726,0.04527185563394005,-4.350181237089293,8.70418443309818,0.43333333333333335,0.4188888888888889,-0.6622222222222223,0.0071002850360235275,-0.0038080227889410326,-1.9769899593126763e-05
1590512635.30726,0.03440438740569583,-4.34,8.705956125943041,0.43333333333333335,0.4188888888888889,-0.6622222222222223,0.006544984694978735,-0.005324211402020368,-0.000830945761572632
1590512635.31726,0.04502091761677087,-4.34,8.64497908238323,0.43333333333333335,0.4188888888888889,-0.6622222222222223,0.001615710351501566,-0.005997287545703494,-0.0016294008996636448
1590512635.32726,0.045926573075455404,-4.352220280773634,8.644073426924544,0.43333333333333335,0.4188888888888889,-0.6622222222222223,-0.0023838084515807453,-0.004121128068619345,0.0
1590512635.33726,0.043990756491318166,-4.3739907564913185,8.657981512982637,0.42490840296277277,0.4273138192594495,-0.6644393091618435,0.0006504652279745052,-0.0034876335728461325,-0.0008706480052354806
1590512635.34726,0.04532900162941804,-4.351974009776509,8.702696988594074,0.4122222222222222,0.44,-0.6677777777777778,0.006329653632062325,-0.0049446270317201205,-0.001162607803468593
1590512635.35726,0.044243189806678386,-4.328486379613357,8.689081722319859,0.4122222222222222,0.44,-0.6677777777777778,0.0070403158082081255,-0.005289043541405817,0.00046286020570999667
1590512635.36726,0.04606567522457476,-4.328197025673724,8.623934324775425,0.4122222222222222,0.44,-0.6677777777777778,0.003701660604826599,-0.006115816437641505,0.0006616625251592253
1590512635.37726,0.042300980415657885,-4.33070882374092,8.625398039168685,0.4122222222222222,0.44,-0.6677777777777778,0.003359331023057379,-0.004952157859018058,-0.00025099802673211115
1590512635.38726,0.05,-4.380072148817803,8.632774687065368,0.4198137845773451,0.4381021094112193,-0.6677777777777778,0.0009316248642235466,-0.003893575590305066,-0.0014013724039043049
1590512635.39726,0.05424857199133347,-4.334248571991333,8.694248571991332,0.4388888888888889,0.43333333333333335,-0.6677777777777778,0.004662834280429011,-0.004990706601502399,-0.00125476694303315
1590512635.40726,0.051135122242098985,-4.335567561121049,8.686702683363148,0.4388888888888889,0.43333333333333335,-0.6677777777777778,0.007511992849117395,-0.005330331284124483,-0.0009670081541386591
1590512635.41726,0.044281308260639404,-4.338562616521279,8.665718691739361,0.4388888888888889,0.43333333333333335,-0.6677777777777778,0.005924536555934557,-0.005143929842960191,-0.0017146432809867303
1590512635.42726,0.05,-4.346478693386608,8.677606533066959,0.4388888888888889,0.43333333333333335,-0.6677777777777778,0.0014134316352937416,-0.0036566073123389534,-0.001474945747346041
1590512635.43726,0.04002314961628718,-4.346651233589142,8.703348766410858,0.4388888888888889,0.4285296646300642,-0.6655606999147305,-0.0003627685170305173,-0.0036377860959247894,-0.0010933560139013599
1590512635.44726,0.027824019470186277,-4.34826397079472,8.67826397079472,0.4388888888888889,0.4188888888888889,-0.6611111111111111,0.0014695736017827845,-0.0030351296930859924,0.0006640967184499157
1590512635.45726,0.04,-4.33,8.645990783410138,0.4388888888888889,0.4188888888888889,-0.6611111111111111,0.005759787606379904,-0.004057689436088199,0.0
1590512635.46726,0.04427802842046853,-4.33,8.627112113681873,0.4388888888888889,0.4188888888888889,-0.6611111111111111,0.005611663677090383,-0.002805831838545192,-0.00046666050894417617
1590512635.4772599,0.05,-4.33,8.66354871322163,0.4388888888888889,0.4188888888888889,-0.6611111111111111,0.003476561923263634,-0.003068422771715102,-0.001090830782496456
1590512635.4872599,0.05,-4.33,8.69472799988106,0.4388888888888889,0.4188888888888889,-0.6611111111111111,0.001435882383400317,-0.005109102311578418,-0.001090830782496456
1590512635.4972599,0.043224752028854826,-4.341612376014427,8.695162871956716,0.4266666666666667,0.4188888888888889,-0.6677777777777778,-0.0003872990266979077,-0.006369101756029098,0.0
1590512635.5072598,0.058983318304779084,-4.349491659152389,8.67152502254283,0.4266666666666667,0.4188888888888889,-0.6677777777777778,0.003050686809659836,-0.005509605296939663,0.0
1590512635.5172598,0.05579092216917207,-4.327895461084586,8.606836311323312,0.4266666666666667,0.4188888888888889,-0.6677777777777778,0.004133753546796298,-0.005626706362220632,-0.001090830782496456
1590512635.5272598,0.04,-4.32436141740713,8.673271063055347,0.4266666666666667,0.4188888888888889,-0.6677777777777778,0.0029156747202633837,-0.00230060077406824,-0.0008529523643457997
1590512635.5372598,0.04378952439344837,-4.36,8.7,0.4266666666666667,0.4228889424153066,-0.666725132112931,0.00020668649296973446,-0.0030658058545196334,0.0004707713035872525
1590512635.5472598,0.05840780588672417,-4.358407805886724,8.701592194113275,0.4266666666666667,0.44,-0.6622222222222223,0.0014381936525906395,-0.0028763873051812785,-0.0016606172598516368
1590512635.5572598,0.05279892403171645,-4.35,8.67081506355597,0.4266666666666667,0.44,-0.6622222222222223,0.003883122845822446,-0.005934354196645657,0.0001748850349968385
1590512635.5672598,0.05960235997737008,-4.34920471995474,8.57437404024893,0.4266666666666667,0.44,-0.6622222222222223,0.00549752971018601,-0.004363323129985824,-0.0020949099695854513
1590512635.5772598,0.05,-4.3365985555111966,8.68,0.4266666666666667,0.44,-0.6622222222222223,0.005465298574235002,-0.004723218503567069,-0.0003598953735812446
1590512635.5872598,0.05,-4.35,8.684858009552084,0.4254071827087188,0.43658140068557005,-0.6607828119845676,0.002919207923417649,-0.005630796124518139,-0.0009141885704605964
1590512635.5972598,0.053230458084740626,-4.35,8.693847709576298,0.4188888888888889,0.4188888888888889,-0.6533333333333333,0.0007384424704564946,-0.006192596382938774,-0.0003523883120399614
1590512635.6072598,0.06,-4.352310818920835,8.639202629712477,0.4188888888888889,0.4188888888888889,-0.6533333333333333,0.0010082849646491875,-0.004950011430157686,-0.001090830782496456
1590512635.6172597,0.06,-4.366079462588942,8.588238387766827,0.4188888888888889,0.4188888888888889,-0.6533333333333333,0.004694906376638523,-0.004267242087447465,-0.001090830782496456
1590512635.6272597,0.05609342858211467,-4.374140142873172,8.643672999962599,0.4188888888888889,0.4188888888888889,-0.6533333333333333,0.005241083494649772,-0.006331914277146228,-0.0008777603646639489
1590512635.6372597,0.04040617870366907,-4.3506092680555035,8.698578374537158,0.4188888888888889,0.4188888888888889,-0.6533333333333333,0.004385476741643661,-0.005476307524140116,-2.2153611657836593e-05
1590512635.6472597,0.022159506321896904,-4.35352148103431,8.7,0.4122222222222222,0.4266666666666667,-0.6622222222222223,-0.0007066967912762532,-0.0035080579445814523,-0.0028013611533051993
1590512635.6572597,0.02919291008485092,-4.332421269745447,8.7,0.4122222222222222,0.4266666666666667,-0.6622222222222223,-0.0030083727903832485,-0.004275283277617117,-0.0012669104872338687
1590512635.6672597,0.046001483883377756,-4.3509977741749335,8.595003709708445,0.4122222222222222,0.4266666666666667,-0.6622222222222223,0.0028363219010573947,-0.004035992961953582,-0.00043617044643197303
1590512635.6772597,0.05050404504314072,-4.33,8.652157228232673,0.4122222222222222,0.4266666666666667,-0.6622222222222223,0.004708605795857221,-0.003272492347489368,0.00040026545075366217
1590512635.6872597,0.03,-4.33,8.703512657356141,0.4147591414238799,0.42432489509590576,-0.6622222222222223,0.004687810957993956,-0.003847249563355611,-0.0008992450438743751
1590512635.6972597,0.039348790165720064,-4.342465053554293,8.695069892891414,0.4266666666666667,0.4133333333333333,-0.6622222222222223,0.0004109675763719499,-0.00586512148885423,0.0
1590512635.7072597,0.054966662308798535,-4.367483331154399,8.622383318080795,0.4266666666666667,0.4133333333333333,-0.6622222222222223,-0.0005417788132702361,-0.004088797145372714,0.0
1590512635.7172596,0.04125800758269055,-4.360629003791345,8.574403026539418,0.4266666666666667,0.4133333333333333,-0.6622222222222223,0.0009536034429151752,-0.003341106017280008,0.0
1590512635.7272596,0.03,-4.364230983704744,8.638461967409489,0.4266666666666667,0.4133333333333333,-0.6622222222222223,0.0030417279842205854,-0.004594087493254607,-0.003272492347489368
1590512635.7372596,0.03131704076637997,-4.37736591846724,8.6765852038319,0.42827638315890887,0.41406502264798883,-0.6604661678670489,0.002325328425969912,-0.00545415391248228,-0.002985158625535368
1590512635.7472596,0.04,-4.356912303499558,8.710736910498674,0.4388888888888889,0.4188888888888889,-0.6488888888888888,0.0019252305916138024,-0.00545415391248228,-0.001090830782496456
1590512635.7572596,0.0389371755235373,-4.352125648952925,8.67830893075891,0.4388888888888889,0.4188888888888889,-0.6488888888888888,-0.0007430222859015992,-0.005222281581419042,-0.0009748946169648371
1590512635.7672596,0.038445977927804485,-4.367184674024065,8.594076629879675,0.4388888888888889,0.4188888888888889,-0.6488888888888888,0.0027958704124552295,-0.003579596771220527,-0.0003071044237311589
1590512635.7772596,0.0565969327463737,-4.3548953991195605,8.636806134507253,0.4388888888888889,0.4188888888888889,-0.6488888888888888,0.004363323129985824,-0.004177714604227762,-0.0005340052052222706
1590512635.7872596,0.04570363733167115,-4.338555455997507,8.658592725336657,0.4388888888888889,0.4188888888888889,-0.6488888888888888,0.004363323129985824,-0.00358357750616851,0.0012484060889554865
1590512635.7972596,0.04,-4.338520382056967,8.721122292341805,0.43415534330168476,0.43119610741561964,-0.6488888888888888,-0.0002838243831994446,-0.006060780855400528,0.0003228025597188046
1590512635.8072596,0.04,-4.343757170566629,8.699942635466964,0.43333333333333335,0.43333333333333335,-0.6488888888888888,-0.0015006745134133698,-0.0017718178340759981,0.0028626486165724543
1590512635.8172596,0.04,-4.359211409395973,8.573942953020135,0.43333333333333335,0.43333333333333335,-0.6488888888888888,-0.0031864704569233722,0.0,0.0009187870013644647
1590512635.8272595,0.037679957343444516,-4.354640085313111,8.633920255939332,0.43333333333333335,0.43333333333333335,-0.6488888888888888,-0.0011693519864026823,-0.0002530773946475574,-0.0005846759932013412
1590512635.8372595,0.03086606357938916,-4.3656696821030545,8.682598190738167,0.43333333333333335,0.43333333333333335,-0.6492738060352841,0.0019927158025935597,-0.0009963579012967798,0.0009018850200971038
1590512635.8472595,0.042316074997620634,-4.326948224992862,8.705367850004759,0.43333333333333335,0.43333333333333335,-0.6533333333333333,-0.00025264459019749933,0.00025264459019749933,-0.0005855416021014573
1590512635.8572595,0.05,-4.353454151676242,8.671002165780665,0.43333333333333335,0.43333333333333335,-0.6533333333333333,-0.001279225531289316,0.0005256465361178755,0.0005256465361178755
1590512635.8672595,0.05,-4.368468918362598,8.58842094900571,0.43333333333333335,0.43333333333333335,-0.6533333333333333,-0.002098154015963265,-0.0019311389179039716,-0.0019311389179039716
1590512635.8772595,0.035391802004965035,-4.35,8.64078360400993,0.43333333333333335,0.43333333333333335,-0.6533333333333333,0.0006987278758203246,-0.0001960514533380657,0.0008947793291583903
1590512635.8872595,0.059237052057078965,-4.35,8.688474104114157,0.43333333333333335,0.43333333333333335,-0.6533333333333333,-0.0010353476423910818,-0.0010630892124437689,2.7741570052687093e-05
1590512635.8972595,0.05821859448739372,-4.338218594487394,8.697125622050425,0.4266666666666667,0.44,-0.6622222222222223,0.0019873403680669313,0.0017930191711409509,0.000777284787703922
1590512635.9072595,0.0505165543456305,-4.330516554345631,8.727933782617479,0.4266666666666667,0.44,-0.6622222222222223,0.001147178120601062,0.00011269467620921188,0.0041379337775674
1590512635.9172595,0.030675190145116885,-4.33733120246372,8.613343987681397,0.4266666666666667,0.44,-0.6622222222222223,-0.0013819514329788637,-0.0005085894815316405,0.00021746883104923275
1590512635.9272594,0.05401183970856102,-4.339980267152399,8.65598816029144,0.4266666666666667,0.44,-0.6622222222222223,-0.0017461902598979394,0.001090830782496456,-0.0019639259124454257
1590512635.9372594,0.03013718123861566,-4.379771364602307,8.679862818761384,0.4266666666666667,0.44,-0.6622222222222223,-9.97610119086393e-06,0.001090830782496456,-0.001095818833091888
1590512635.9472594,0.039815699658703074,-4.350552901023891,8.68,0.4124884338263178,0.4269124004550626,-0.6534971558589306,0.0010707267339453267,0.001090830782496456,-2.0104048551129218e-05
1590512635.9572594,0.055043419071388794,-4.352478290464306,8.67265196674986,0.4122222222222222,0.4266666666666667,-0.6533333333333333,-0.001090830782496456,-9.472571923660944e-06,0.00027033955264319876
1590512635.9672594,0.03864168444025594,-4.358641684440256,8.61728336888051,0.4122222222222222,0.4266666666666667,-0.6533333333333333,-0.001090830782496456,0.0026798153775242782,0.0012390000249877286
1590512635.9772594,0.03447409337311426,-4.35,8.610439551203934,0.4122222222222222,0.4266666666666667,-0.6533333333333333,-0.0009281481566579082,-0.0009281481566579082,0.0018562963133158163
1590512635.9872594,0.05965850895617492,-4.35,8.671707455219126,0.4124498829181056,0.4264010625214694,-0.6533333333333333,-3.725089425512406e-05,-3.725089425512406e-05,-7.450178851024811e-05
1590512635.9972594,0.049770060367632096,-4.35,8.72,0.4188888888888889,0.4188888888888889,-0.6533333333333333,-0.0010155832137656077,-0.001090830782496456,-0.002156579042082629
1590512636.0072594,0.04028691582445906,-4.35,8.72,0.4188888888888889,0.4188888888888889,-0.6533333333333333,0.002087768581001323,-0.001090830782496456,-0.0011221284438269858
1590512636.0172594,0.04729931984997218,-4.342700680150028,8.647006801500277,0.4188888888888889,0.4188888888888889,-0.6533333333333333,0.002181661564992912,0.0005016337742309582,-0.00029459850413274887
1590512636.0272593,0.05989259926306571,-4.359785198526132,8.650214801473869,0.4188888888888889,0.4188888888888889,-0.6533333333333333,0.0,0.002193377167983984,0.0021699459620018397
1590512636.0372593,0.05296227755655062,-4.345924555113101,8.6640754448869,0.4188888888888889,0.4188888888888889,-0.6533333333333333,0.0,0.0029493579929909877,0.0014139651369948361
1590512636.0472593,0.05860290166577109,-4.357205803331542,8.713014508328856,0.41315362111170817,0.4313153024061138,-0.660980357036241,0.0009384309955813143,-0.0004812316348358891,0.00015239978691514167
1590512636.0572593,0.05155862493902596,-4.343117249878052,8.69441375060974,0.4122222222222222,0.43333333333333335,-0.6622222222222223,0.003102472741303751,0.002181661564992912,0.00017001960618561742
1590512636.0672593,0.05579355317815785,-4.351587106356316,8.616309670232763,0.4122222222222222,0.43333333333333335,-0.6622222222222223,0.0019522354810829218,0.0017228093971729318,0.0006319786146764759
1590512636.0772593,0.03850958460437615,-4.324471246186872,8.644471246186871,0.4122222222222222,0.43333333333333335,-0.6622222222222223,0.0006030934848205182,0.0,-0.0006030934848205182
1590512636.0872593,0.030611606974729783,-4.34816517907581,8.66816517907581,0.4122222222222222,0.43333333333333335,-0.6622222222222223,-0.0019815136505454776,0.0,0.0019815136505454776
1590512636.0972593,0.0464947354959717,-4.35,8.702989470991945,0.41772046738754615,0.42783508816800947,-0.67321871255287,-0.0012820133035857683,0.0008996482614071436,0.0012820133035857683
