time,acc_x,acc_y,acc_z,mag_x,mag_y,mag_z,gyr_x,gyr_y,gyr_z
1590515570.3598313,0.1,-4.34,8.63,0.4066666666666667,0.2822222222222222,-0.6133333333333333,-0.002181661564992912,0.001090830782496456,-0.002181661564992912
1590515570.3698313,0.10641624598439652,-4.346416245984396,8.64924873795319,0.4066666666666667,0.2822222222222222,-0.6133333333333333,0.0006179538861466843,0.001790734645281355,-0.0014817577022080129
1590515570.3798313,0.12002508617733582,-4.346658304607555,8.663341695392445,0.4066666666666667,0.2822222222222222,-0.6133333333333333,0.0018171391450123244,0.0018171391450123244,-0.001090830782496456
1590515570.3898313,0.13648817802503477,-4.338244089012517,8.67702364394993,0.4066666666666667,0.28436833565136765,-0.6133333333333333,0.001090830782496456,0.0007077504312024989,-0.001090830782496456
1590515570.3998313,0.11635164879141988,-4.33364835120858,8.70635164879142,0.4066666666666667,0.29444444444444445,-0.6133333333333333,-0.0005010627389744806,-0.0018867775432319244,0.00010308935860674651
1590515570.4098313,0.11,-4.337333821261469,8.68400292756881,0.4066666666666667,0.29444444444444445,-0.6133333333333333,-0.00269082237956382,-0.0035633273314521425,0.0024724965489556863
1590515570.4198313,0.11279548245525738,-4.338386447365773,8.656772894731544,0.4066666666666667,0.29444444444444445,-0.6133333333333333,-0.0007858909510841034,-0.004363323129985824,0.0029675525160770154
1590515570.4298313,0.12,-4.355715379439946,8.705712827413404,0.4066666666666667,0.29444444444444445,-0.6133333333333333,-0.0004673795998223917,-0.0035843571302818377,0.0018700751651113175
1590515570.4398313,0.11676183686035584,-4.328380918430178,8.738380918430178,0.40756615642767896,0.29354495468343217,-0.6109946599547014,-0.0027426491427689844,0.001090830782496456,-0.00017661440157346127
1590515570.4498312,0.10269669327251996,-4.32,8.732696693272521,0.4122222222222222,0.2888888888888889,-0.5988888888888889,-0.000588327206523174,0.000796667179234869,-0.000796667179234869
1590515570.4598312,0.10972986115768998,-4.32,8.73972986115769,0.4122222222222222,0.2888888888888889,-0.5988888888888889,-0.0021227264120449677,2.946757647397211e-05,-2.946757647397211e-05
1590515570.4698312,0.10498393060787227,-4.340032138784255,8.630032138784255,0.4122222222222222,0.2888888888888889,-0.5988888888888889,0.0,0.002451739912478687,0.001090830782496456
1590515570.4798312,0.09048933890866365,-4.369021322182673,8.659021322182673,0.4122222222222222,0.2888888888888889,-0.5988888888888889,0.0,8.006789169652962e-05,0.001090830782496456
1590515570.4898312,0.09463581636873306,-4.33,8.692317908184366,0.40913167797640015,0.2888888888888889,-0.5996615249503444,-0.0012172530624218298,-0.00025284455985074785,0.0014700976222725777
1590515570.4998312,0.13120283264484328,-4.33,8.708797167355158,0.3855555555555555,0.2888888888888889,-0.6055555555555555,-0.0019192441899555793,-0.002181661564992912,0.0038384883799111587
1590515570.5098312,0.12859743114224878,-4.33,8.665792293426746,0.3855555555555555,0.2888888888888889,-0.6055555555555555,0.0,-0.00342548887594996,-0.0004146091036523494
1590515570.5198312,0.11717450053083679,-4.337174500530836,8.627936251327093,0.3855555555555555,0.2888888888888889,-0.6055555555555555,0.0011739249042110906,-0.00545415391248228,-0.0006995224810927591
1590515570.5298312,0.12195188379482524,-4.347317294598275,8.678778937812075,0.3855555555555555,0.2888888888888889,-0.6055555555555555,0.003272492347489368,-0.0051615161492251736,0.00029263776325710644
1590515570.5398312,0.10003271192402392,-4.340010903974674,8.730065423848048,0.38556282487200527,0.2888743502559894,-0.6055325360534646,0.003273681786612034,-0.004365702008231155,0.0010872624651284584
1590515570.5498312,0.12664561507789088,-4.339936845233672,8.776582460311563,0.3922222222222223,0.27555555555555555,-0.5844444444444444,0.003997416497047964,-0.006910891327916596,-0.00108394166617933
1590515570.5598311,0.1302959547550367,-4.323431984918345,8.715680150816544,0.3922222222222223,0.27555555555555555,-0.5844444444444444,0.0043956067856878445,-0.006138329559877222,0.00034208782369747127
1590515570.5698311,0.14748207140509925,-4.332517928594901,8.655035857189802,0.3922222222222223,0.27555555555555555,-0.5844444444444444,0.00709431149886789,-0.003821819151378523,-0.001090830782496456
1590515570.5798311,0.13947873711340208,-4.34,8.671563788659794,0.3922222222222223,0.27555555555555555,-0.5844444444444444,0.008726646259971648,-0.00545415391248228,-0.001204552702991254
1590515570.589831,0.13272245489690723,-4.34,8.691832635309277,0.3922222222222223,0.27555555555555555,-0.5844444444444444,0.008726646259971648,-0.00545415391248228,-0.002678544826388447
1590515570.599831,0.09150641764660672,-4.34,8.7,0.39970708545760425,0.3012179437911511,-0.5908600415033434,0.008726646259971648,-0.00545415391248228,-0.0011729931195071795
1590515570.609831,0.10788152610441767,-4.331059236947791,8.646355421686748,0.4,0.3022222222222222,-0.5911111111111111,0.004825502437429102,-0.006429439868117916,0.000859741128774817
1590515570.619831,0.13210570794746296,-4.33,8.602634247684778,0.4,0.3022222222222222,-0.5911111111111111,0.004363323129985824,-0.00545415391248228,-0.002583401033077367
1590515570.629831,0.13949029895418855,-4.33,8.646941793725132,0.4,0.3022222222222222,-0.5911111111111111,0.004363323129985824,-0.00545415391248228,-0.00016679927719253718
1590515570.639831,0.14,-4.330620152147971,8.710930228221958,0.4,0.3011541824118271,-0.5918001690533016,0.005386505807198434,-0.007635815477475192,-0.001057006729854533
1590515570.649831,0.14,-4.346261187350835,8.734391781026254,0.4,0.2742168440068947,-0.6091790970564837,0.0036803335402589635,-0.007635815477475192,-0.00020392059638479757
1590515570.659831,0.12,-4.321766369852905,8.707635411029665,0.4,0.2677777777777778,-0.6133333333333333,0.001090830782496456,-0.005068791790717776,-0.001090830782496456
1590515570.669831,0.11770721671809864,-4.332292783281901,8.66604948297331,0.4,0.2677777777777778,-0.6133333333333333,0.001340934640645581,-0.0035225962056384934,-0.0008407269243473309
1590515570.679831,0.1142691893262344,-4.342134594663117,8.72,0.4,0.2677777777777778,-0.6133333333333333,0.00264735787832909,-0.004130474973317735,0.00023284815666808895
1590515570.689831,0.12756164036255307,-4.348780820181276,8.72,0.4,0.2677777777777778,-0.6133333333333333,0.004097339354853425,-0.0034054842350555677,0.0009578388949302562
1590515570.699831,0.15,-4.332174653592966,8.733476039221102,0.38,0.2677777777777778,-0.5911111111111111,0.004979718096387518,-0.002560838623347225,-0.0004744358160947621
1590515570.709831,0.14604509930807905,-4.338022549654039,8.696157847578277,0.38,0.2677777777777778,-0.5911111111111111,0.0034881987183125636,-0.00021570637082319534,-0.002181661564992912
1590515570.719831,0.128092525292211,-4.33,8.643814949415578,0.38,0.2677777777777778,-0.5911111111111111,0.0035310302787499464,-0.0008827575696874866,-0.0017655151393749732
1590515570.729831,0.12,-4.33,8.660542395823262,0.38,0.2677777777777778,-0.5911111111111111,1.972206867706055e-05,-5.916620603118165e-05,-1.972206867706055e-05
1590515570.739831,0.12054558239576439,-4.329727208802118,8.690818373593647,0.38033341146407823,0.2679899487094639,-0.5915051428413854,0.0011205876860808542,-0.003272492347489368,-0.001090830782496456
1590515570.749831,0.13789460622104568,-4.321052696889478,8.716841909331569,0.3909355926906391,0.2747367913081844,-0.6040349933818663,0.0020668301478249155,-0.003272492347489368,-0.001090830782496456
1590515570.759831,0.13090618036523832,-4.323624721460954,8.691844376712854,0.3922222222222223,0.27555555555555555,-0.6055555555555555,0.001983963677613742,-0.003470190234868538,0.0
1590515570.769831,0.1411493144815767,-4.3565520565552704,8.614597257926306,0.3922222222222223,0.27555555555555555,-0.6055555555555555,0.0001253707615272812,-0.005203412389427718,0.0
1590515570.779831,0.1486369965724079,-4.334089010282776,8.644547986289632,0.3922222222222223,0.27555555555555555,-0.6055555555555555,0.00094215017294989,-0.0035698535665825,0.0
1590515570.789831,0.12,-4.330373805349771,8.7313083187242,0.3922222222222223,0.2756801573388125,-0.6054309537722985,0.004363323129985824,-0.004363323129985824,-0.002120497807664108
1590515570.799831,0.12,-4.346765790120423,8.793531580240845,0.3922222222222223,0.2822222222222222,-0.5988888888888889,0.004363323129985824,-0.004363323129985824,0.001090830782496456
1590515570.809831,0.12,-4.328916813639036,8.745918577307465,0.3922222222222223,0.2822222222222222,-0.5988888888888889,0.004008851222269824,-0.0045996377351298235,0.0008545161773524559
1590515570.819831,0.12297647185217017,-4.32297647185217,8.63,0.3922222222222223,0.2822222222222222,-0.5988888888888889,0.0017401962064127496,-0.006057960627041515,-0.001090830782496456
1590515570.829831,0.14,-4.338367931737137,8.633264136525726,0.3922222222222223,0.2822222222222222,-0.5988888888888889,0.005276122882455636,-0.00291643028743608,-0.000734768722443168
1590515570.8398309,0.14,-4.331690811258278,8.646618377483444,0.3922222222222223,0.2822222222222222,-0.5988888888888889,0.00454776202677796,-0.0014597085760807292,0.0007219529889121827
1590515570.8498309,0.1581938678630601,-4.32090306606847,8.69090306606847,0.4,0.2888888888888889,-0.6055555555555555,0.0031739831208778616,-0.0009923215558849492,-0.0002955276798345203
1590515570.8598309,0.14257758251577715,-4.328711208742112,8.698711208742111,0.4,0.2888888888888889,-0.6055555555555555,0.0023222468826246292,-0.00014058531763171751,-0.002850736394594216
1590515570.8698308,0.11,-4.32,8.636953944368445,0.4,0.2888888888888889,-0.6055555555555555,0.0006284836724506485,-0.002181661564992912,0.001090830782496456
1590515570.8798308,0.11137996820349762,-4.321379968203498,8.706899841017487,0.4,0.2888888888888889,-0.6055555555555555,-0.0004887060643998431,-0.0024827239240412186,0.0006392372439239963
1590515570.8898308,0.11922491349480968,-4.3292249134948095,8.746124567474048,0.4,0.2888888888888889,-0.6055555555555555,0.0029342970599056913,-0.0041942254861939855,-0.0019280150993051545
1590515570.8998308,0.12793513173087015,-4.33,8.75,0.39382823087598995,0.2721369441237186,-0.6002654677349755,0.004138080943009123,-0.0052289117255055785,-0.0013160729694731569
1590515570.9098308,0.14462866776016037,-4.33,8.75731433388008,0.3922222222222223,0.2677777777777778,-0.5988888888888889,0.0075548033499251085,-0.004656283857497458,-0.0018887008374812771
1590515570.9198308,0.15793881473290683,-4.3061835558012795,8.63297896427349,0.3922222222222223,0.2677777777777778,-0.5988888888888889,0.007860655911252533,-0.002631342432547594,-0.00044968086755468244
1590515570.9298308,0.14871149139308615,-4.3193557456965435,8.682577017213827,0.3922222222222223,0.2677777777777778,-0.5988888888888889,0.0009502762973031306,0.0,-0.001970829837202924
1590515570.9398308,0.1317432287557902,-4.310871614377895,8.71651354248842,0.3922222222222223,0.2677777777777778,-0.5988888888888889,-0.0009006740237215616,0.0,0.0008055956443341148
1590515570.9498308,0.11822737330102202,-4.331772626698978,8.75,0.3922222222222223,0.2677777777777778,-0.6133333333333333,-0.0052607903355702534,-0.0014775579363205077,-0.0007041036286724043
1590515570.9598308,0.11130304868459483,-4.339348475657703,8.740227134865538,0.3922222222222223,0.2677777777777778,-0.6133333333333333,-0.0042211825683610696,-0.0036278437515512543,0.0010197605016840788
1590515570.9698308,0.13008886747503948,-4.33,8.600710939800315,0.3922222222222223,0.2677777777777778,-0.6133333333333333,-0.002181661564992912,-0.008736340197705228,-9.69393773358022e-06
1590515570.9798307,0.14181459129247181,-4.329092704353764,8.682721886938708,0.3922222222222223,0.2677777777777778,-0.6133333333333333,-0.002082690963018998,-0.009718506440494191,-0.0007939189765747142
1590515570.9898307,0.15729656903456804,-4.321351715482717,8.705944853551852,0.3922222222222223,0.2677777777777778,-0.6133333333333333,-0.0012382800682688207,-0.008874095545744013,0.0017393137076758176
1590515570.9998307,0.11,-4.3008773468401555,8.729122653159845,0.3855555555555555,0.2888888888888889,-0.6055555555555555,-0.004746137906052807,-0.007540111783458446,-0.0006123123124127279
1590515571.0098307,0.11,-4.308384192722782,8.72161580727722,0.3855555555555555,0.2888888888888889,-0.6055555555555555,-0.008021617333343186,-0.006721241926635851,0.003482036971700247
1590515571.0198307,0.06615626666666667,-4.276156266666667,8.673843733333333,0.3855555555555555,0.2888888888888889,-0.6055555555555555,-0.012810445213976956,-0.002321423652983169,0.010011770973309561
1590515571.0298307,0.04378666666666667,-4.253786666666667,8.696213333333333,0.3855555555555555,0.2888888888888889,-0.6055555555555555,-0.011183681995834777,-0.00313480526205426,0.0238392583275181
1590515571.0398307,0.0010627479465832243,-4.211062747946583,8.777874504106833,0.3855555555555555,0.2888888888888889,-0.6055555555555555,-0.011970156653106818,-0.0011487946912048497,0.04635506651461786
1590515571.0498307,0.026351247107225508,-4.245134996142967,8.771216250964258,0.37481986228964886,0.2830330561983943,-0.599699722865061,-0.009124663457287789,0.0008254859842856956,0.07277599999890665
1590515571.0598307,0.06522607565496956,-4.263484050436646,8.710418861299223,0.37333333333333335,0.2822222222222222,-0.5988888888888889,-0.007255764531068784,0.002276674301594514,0.09940993600050187
1590515571.0698307,0.12278126368014008,-4.30231771973345,8.61185417578676,0.37333333333333335,0.2822222222222222,-0.5988888888888889,-0.003120797945662559,0.0034241867493161773,0.11245670019835284
1590515571.0798306,0.18110932835063062,-4.35110932835063,8.650554664175315,0.37333333333333335,0.2822222222222222,-0.5988888888888889,-0.00012100895127639058,0.006544984694978735,0.11417420530829869
1590515571.0898306,0.19814651583159007,-4.36814651583159,8.659073257915795,0.37333333333333335,0.2822222222222222,-0.5988888888888889,-0.0019794778064157717,0.006544984694978735,0.10859879874288059
1590515571.0998306,0.1768414387031408,-4.383682877406281,8.720524316109422,0.38,0.2677777777777778,-0.5933333333333334,-0.004707868719087415,0.0012631035770472514,0.09157190096553487
1590515571.1098306,0.15783669073862916,-4.348269352590903,8.669134676295451,0.38,0.2677777777777778,-0.5933333333333334,-0.006544984694978735,0.002181661564992912,0.07930027451543047
1590515571.1198306,0.11355378183200304,-4.312843025465602,8.651421512732801,0.38,0.2677777777777778,-0.5933333333333334,-0.006544984694978735,0.002181661564992912,0.07253755209109365
1590515571.1298306,0.09,-4.316941869655817,8.692293597758137,0.38,0.2677777777777778,-0.5933333333333334,-0.004113130426261696,-0.0029389020758571974,0.07274540975593846
1590515571.1398306,0.09,-4.292831501041891,8.710376374218582,0.38,0.2677777777777778,-0.5933333333333334,-0.002140605506656227,-0.0003088688497165722,0.07866298451475488
1590515571.1498306,0.009808818854729576,-4.25326960628491,8.77346078743018,0.38,0.2677777777777778,-0.5992734208255756,-0.006922498041030481,0.00011888623940745167,0.08861592048885722
1590515571.1598306,0.0,-4.25,8.751215286624204,0.38,0.2677777777777778,-0.6,-0.004495890335909598,-0.0031399251415655948,0.10200782473097177
1590515571.1698306,-0.04690493866440414,-4.2406190122671195,8.683714073602715,0.38,0.2677777777777778,-0.6,-0.005319106385338977,-0.0033400161110610192,0.12429763600637439
1590515571.1798306,-0.018632185943988508,-4.279316092971994,8.699316092971994,0.38,0.2677777777777778,-0.6,-0.0024800723003986455,-0.005827167331739447,0.14627413701365158
1590515571.1898305,-0.0021227686918187,-4.271061384345909,8.69106138434591,0.38,0.2677777777777778,-0.6,-0.00608186840834762,-0.010329412466675666,0.16068132144544747
1590515571.1998305,0.022645600991325898,-4.28509706732755,8.727742668318877,0.3950970673275506,0.27364885951626966,-0.5899352884482996,-0.004898150118347365,-0.011731725113280245,0.16912112489849743
1590515571.2098305,0.01917754214246873,-4.1903167482327355,8.696518488308863,0.4,0.27555555555555555,-0.5866666666666667,-0.021961496247332467,-0.01349035589250511,0.1865250941159237
1590515571.2198305,-0.11624201332245784,-4.069151882816748,8.903211494018489,0.4,0.27555555555555555,-0.5866666666666667,-0.06472249667323797,-0.03214970153290024,0.2137366398414999
1590515571.2298305,-0.13035193372088977,-4.158474953876144,8.900821178682076,0.4,0.27555555555555555,-0.5866666666666667,-0.058057168225204035,-0.04464728205512568,0.3087722085326067
1590515571.2398305,-0.043347912110798706,-4.1166739560554,8.726695824221597,0.4,0.27555555555555555,-0.5866666666666667,-0.02284060848257439,-0.004079273202389169,0.3863593817470681
1590515571.2498305,-0.012330709019750613,-3.9267789205424593,8.572047647219442,0.3855555555555555,0.26222222222222225,-0.6,-0.03944402708175038,-0.006053505211857494,0.4455119414598046
1590515571.2598305,-0.335081334898541,-2.634311588126782,8.022052658058024,0.3855555555555555,0.26222222222222225,-0.6,-0.08286015016336026,-0.021760638085038305,0.47156451916757236
1590515571.2698305,-0.19149894736842105,-2.2049894736842104,8.884454736842105,0.3855555555555555,0.26222222222222225,-0.6,-0.2153607693752961,-0.0024526468962236107,0.571450651419096
1590515571.2798305,-0.20685565217391305,-2.3585565217391307,9.544793043478261,0.3855555555555555,0.26222222222222225,-0.6,-0.16426849210069328,-0.027579996375536486,0.6928995072357749
1590515571.2898304,-0.2667283344041725,-2.4404251861370425,8.709315166861938,0.3855555555555555,0.26222222222222225,-0.6,-0.003230007706294946,-0.05541462839109586,0.8140260090726166
1590515571.2998304,-0.2822964046988095,-2.602776964758929,8.66225606138512,0.40424268392903445,0.26222222222222225,-0.6,-0.01340449521380746,-0.0667911766257369,0.9815248180457117
1590515571.3098304,-0.2474802165764265,-2.6720316534777178,9.07470970428988,0.4066666666666667,0.26222222222222225,-0.6,-0.06803876412220626,-0.0970479572190385,1.0597809498566577
1590515571.3198304,-0.2520154767323786,-2.7146769844882526,8.959121817990825,0.4066666666666667,0.26222222222222225,-0.6,-0.03050105566967322,-0.10944387476112925,1.1621462273584824
1590515571.3298304,-0.26654731945397697,-2.8116624723556773,8.83035804163807,0.4066666666666667,0.26222222222222225,-0.6,-0.023724883226767177,-0.10799224746714917,1.2353896110581486
1590515571.3398304,-0.27,-2.920495605546213,8.925867309705874,0.4066666666666667,0.26222222222222225,-0.6,-0.04318242472112244,-0.10634248574875983,1.3063688318216091
1590515571.3498304,-0.29118283559018115,-2.968243780786908,8.903512438426185,0.4105894139981817,0.25359217809288914,-0.595292703202182,-0.03227136053653791,-0.10504035626474519,1.3595075594737598
1590515571.3598304,-0.3207222203115865,-3.0404814802077245,8.798314819272965,0.4122222222222222,0.25,-0.5933333333333334,-0.03591863380762077,-0.10570554321580652,1.4244270339918474
1590515571.3698304,-0.3423594249750662,-3.054906283316711,8.747828008391513,0.4122222222222222,0.25,-0.5933333333333334,-0.03355838091821082,-0.10255853936325991,1.4511765667384935
1590515571.3798304,-0.37533096816357014,-3.0768873121090468,8.721556343945478,0.4122222222222222,0.25,-0.5933333333333334,-0.03180386348078501,-0.10605256274271374,1.4836489176154712
1590515571.3898304,-0.38,-3.1081951573203077,8.783439103970693,0.4122222222222222,0.25,-0.5933333333333334,-0.03855422543491963,-0.11151483851300094,1.4925066091535142
1590515571.3998303,-0.42018975151587207,-3.14,8.730126501010583,0.4266666666666667,0.22333333333333333,-0.6,-0.03494798239879431,-0.12434780964477798,1.4944174733406907
1590515571.4098303,-0.4501296023564065,-3.1401296023564065,8.749708394698086,0.4266666666666667,0.22333333333333333,-0.6,-0.0414374323108801,-0.12327448149008845,1.4911480078926735
1590515571.4198303,-0.4854277298548285,-3.1754277298548286,8.670287607826635,0.4266666666666667,0.22333333333333333,-0.6,-0.037587003906903754,-0.1261623027930707,1.4863349723877035
1590515571.4298303,-0.499209231933409,-3.1615815361331823,8.742883087400681,0.4266666666666667,0.22333333333333333,-0.6,-0.031060818399212365,-0.12050894256392175,1.4776749548192836
1590515571.4398303,-0.5258646716763584,-3.1793985037572687,8.814661679190896,0.4266666666666667,0.22333333333333333,-0.6,-0.033364659914274356,-0.11716998807023656,1.4614671904761465
1590515571.4498303,-0.5723513808706506,-3.2223513808706508,8.874263535652988,0.43655181082158767,0.19008330299405352,-0.6,-0.03402433798713727,-0.11209907473362705,1.4406351435467888
1590515571.4598303,-0.5896177913951133,-3.210764417209773,8.899235582790228,0.4388888888888889,0.18222222222222226,-0.6,-0.03276661596604822,-0.11441215468866425,1.4135847906294647
1590515571.4698303,-0.6558305884266602,-3.226457647106665,8.743652352486682,0.4388888888888889,0.18222222222222226,-0.6,-0.031827298071322986,-0.1055609781264209,1.3910828536472135
1590515571.4798303,-0.6791024131036183,-3.2755120655180914,8.791921717932565,0.4388888888888889,0.18222222222222226,-0.6,-0.034612850414925005,-0.10164308585547813,1.35367958960519
1590515571.4898303,-0.6949384743176155,-3.227715339888346,8.785061525682384,0.4388888888888889,0.18222222222222226,-0.6,-0.031647515514049054,-0.09818819324633286,1.324375952523912
1590515571.4998302,-0.69411171450737,-3.2217765709852597,8.75644685802948,0.4545909835359021,0.1710999051805879,-0.6085053012671321,-0.03182788652419838,-0.09579931502788697,1.2956302421691128
1590515571.5098302,-0.7488386806596702,-3.2234623688155923,8.720387106446777,0.4655555555555556,0.16333333333333333,-0.6144444444444445,-0.03272492347489368,-0.09204969834096734,1.2567660967413727
1590515571.5198302,-0.78,-3.2015334143377885,8.70384447144593,0.4655555555555556,0.16333333333333333,-0.6144444444444445,-0.03003906746316729,-0.08919602694134264,1.2234031719580118
1590515571.5298302,-0.78,-3.09197537892265,8.6346502526151,0.4655555555555556,0.16333333333333333,-0.6144444444444445,-0.022124117688273933,-0.08211981072557901,1.1805258242388443
1590515571.5398302,-0.8602625473437903,-3.157559142556862,8.831601261179083,0.4655555555555556,0.16333333333333333,-0.6144444444444445,-0.03186887579960173,-0.09743611430299136,1.147468064768931
1590515571.5498302,-0.8811262263736953,-3.127883584615867,8.847883584615866,0.4783732285713291,0.14755773577545825,-0.6144444444444445,-0.025349651851056795,-0.09007722473729354,1.1193449138296947
1590515571.5598302,-0.9139921999645453,-3.1369960999822726,8.789011700053182,0.48,0.14555555555555555,-0.6144444444444445,-0.019363309954159413,-0.09021128028651797,1.0929088915204053
1590515571.5698302,-0.855307915191096,-3.067221404589983,8.788086510601111,0.48,0.14555555555555555,-0.6144444444444445,-0.04147876148780251,-0.08436424466653125,1.053365062184751
1590515571.5798302,-0.7786641734887009,-2.9043274120356646,8.782333021686087,0.48,0.14555555555555555,-0.6144444444444445,-0.036869672503089514,-0.07537610111153709,1.0082170354359918
1590515571.5898302,-0.8252388255096316,-2.954892837104919,8.868962034785861,0.48,0.14555555555555555,-0.6144444444444445,-0.03058100339012553,-0.06855701121309211,0.9562614742742268
1590515571.5998302,-0.9263767761756799,-3.0904709702196,8.93,0.48861311858239553,0.11815017824793338,-0.6246235845872756,-0.011449781555563119,-0.06391240887802875,0.8814051347158464
1590515571.6098301,-1.0008388370151067,-3.204731395025178,8.845268604974823,0.4922222222222222,0.10666666666666667,-0.6288888888888889,-0.0052875992693591336,-0.054949700130434646,0.7905870554404554
1590515571.6198301,-0.9873654242131361,-3.174730848426272,8.739461696852546,0.4922222222222222,0.10666666666666667,-0.6288888888888889,-0.01450733431873764,-0.04933562633948299,0.7094519866727735
1590515571.6298301,-0.98,-3.168110759663325,8.669446201683376,0.4922222222222222,0.10666666666666667,-0.6288888888888889,-0.011260066102813496,-0.044457567905769886,0.6173284091223022
1590515571.63983,-1.0000357901586634,-3.1499642098413365,8.713428773756435,0.4922222222222222,0.10666666666666667,-0.6288888888888889,-0.014188608373810004,-0.038533578079959344,0.5398519225167605
1590515571.64983,-1.0380440237226278,-3.182066035583942,8.747011005930657,0.4922222222222222,0.10666666666666667,-0.6639439185421736,-0.013303333303276519,-0.032173505279670146,0.4459410604168108
1590515571.65983,-1.072033383915023,-3.2220333839150226,8.794066767830046,0.4922222222222222,0.10666666666666667,-0.6788888888888889,-0.012800295054696651,-0.028940949015429488,0.3555876611470238
1590515571.66983,-1.1016886618419186,-3.240844330920959,8.766622676316164,0.4922222222222222,0.10666666666666667,-0.6788888888888889,-0.010132636893917342,-0.022446935352827595,0.28834340122081714
1590515571.67983,-1.1074621182687079,-3.2625378817312924,8.786420467790816,0.4922222222222222,0.10666666666666667,-0.6788888888888889,-0.007635815477475192,-0.013350280318005232,0.2023387689179178
1590515571.68983,-1.1195325240079725,-3.2895325240079725,8.824883131001993,0.4922222222222222,0.10666666666666667,-0.6788888888888889,-0.006570481555087821,-0.005048971251834022,0.13722074105576587
1590515571.69983,-1.127323444938427,-3.306830861234607,8.852183971357753,0.4922222222222222,0.09363798507560557,-0.6736069909465668,-0.005108454500552904,0.0017822296063552084,0.07783223766755616
1590515571.70983,-1.094942701368172,-3.2848281041045158,8.839312416418064,0.4922222222222222,0.06555555555555556,-0.6622222222222223,-0.0038116574275983044,0.0071341522642020035,-0.0086375035818917
1590515571.71983,-1.0961320238176717,-3.319056190541373,8.724811785640956,0.4922222222222222,0.06555555555555556,-0.6622222222222223,-0.0005968922117623142,0.015590608062486903,-0.09883295700865807
1590515571.72983,-1.1222093360394316,-3.3796124480525758,8.719612448052576,0.4922222222222222,0.06555555555555556,-0.6622222222222223,0.005128602017599796,0.024197003031584428,-0.19388892516718684
1590515571.73983,-1.12379722421061,-3.3775944484212204,8.73,0.4922222222222222,0.06555555555555556,-0.6622222222222223,0.005868366818179703,0.029563028163910106,-0.2701139250782209
1590515571.74983,-1.1152874440479383,-3.3652874440479383,8.73,0.5011237167983388,0.0849293966918093,-0.6768835074064142,0.0075103943511806055,0.035746573569793876,-0.3418054657596084
1590515571.75983,-1.1213008834228304,-3.3939026502684913,8.735650441711416,0.5111111111111111,0.10666666666666667,-0.6933333333333334,0.007968374316414005,0.04282620925377433,-0.43313993709865556
1590515571.76983,-1.13,-3.42,8.700016326530612,0.5111111111111111,0.10666666666666667,-0.6933333333333334,0.0071680621495172365,0.045970216991431695,-0.5125173341645906
1590515571.77983,-1.13,-3.45965625,8.703046875,0.5111111111111111,0.10666666666666667,-0.6933333333333334,0.006193873536862689,0.047626694617653856,-0.5911876735356378
1590515571.78983,-1.1237844611528822,-3.48,8.769724310776944,0.5111111111111111,0.10666666666666667,-0.6933333333333334,0.007488184243753866,0.05070859487153951,-0.6572651881742807
1590515571.79983,-1.12,-3.4688670096241414,8.783300514436213,0.5154406073683894,0.11037766345861948,-0.6970443301252861,0.008726646259971648,0.0578247714312803,-0.7162566435016451
1590515571.80983,-1.1033175322411992,-3.4878041129313346,8.786682467758801,0.5188888888888888,0.11333333333333333,-0.7,0.008726646259971648,0.06278394624760815,-0.7756117117268351
1590515571.81983,-1.081708627543519,-3.5017086275435187,8.762688823945837,0.5188888888888888,0.11333333333333333,-0.7,0.010083318905672572,0.06688597910666358,-0.8239196116813435
1590515571.82983,-1.0495390245618974,-3.493410162573017,8.73387113801112,0.5188888888888888,0.11333333333333333,-0.7,0.013115111699850327,0.07385478679874827,-0.8712069478014682
1590515571.83983,-0.991216524539232,-3.4699464392627712,8.825080341105842,0.5188888888888888,0.11333333333333333,-0.7,0.016501006549042734,0.08031752861013053,-0.9172793561183749
1590515571.84983,-0.9530113565456133,-3.407420441782104,8.832909022837889,0.5131426709375043,0.11799242896959107,-0.710871223151268,0.021441025717455924,0.08874404619053347,-0.9478141952624941
1590515571.85983,-0.9389784872967974,-3.387956974593595,8.660107466173464,0.4777777777777778,0.14666666666666667,-0.7777777777777778,0.014884568133149926,0.0891373016331681,-1.0054937938720867
1590515571.86983,-0.9627896668241107,-3.4915129164698615,8.77626566871344,0.4777777777777778,0.14666666666666667,-0.7777777777777778,-0.01306420766308821,0.07517957558719615,-1.048631330013863
1590515571.87983,-0.9352171775118833,-3.5104343550237664,8.532611047369285,0.4777777777777778,0.14666666666666667,-0.7777777777777778,0.006071176864522154,0.09139234542825085,-1.065979114800489
1590515571.8898299,-0.9496570076877587,-3.5235884092253107,8.711873447664104,0.4777777777777778,0.14666666666666667,-0.7777777777777778,0.0058743592180518795,0.09085556035705164,-1.0772371344104765
1590515571.8998299,-0.9756738032720662,-3.611914360735205,8.84375944253686,0.45758885971408697,0.14666666666666667,-0.7873915482842972,-0.0011450969149401791,0.09625619935400825,-1.0822511373065877
1590515571.9098299,-0.9641793428019161,-3.685820657198084,8.781641314396166,0.4311111111111111,0.14666666666666667,-0.8,0.004835811730119174,0.09008305936931232,-1.0752988886125614
1590515571.9198298,-0.9368024214742718,-3.7131975785257283,8.708808475159952,0.4311111111111111,0.14666666666666667,-0.8,0.0046027115829332275,0.08864110749206261,-1.0642370544093278
1590515571.9298298,-0.8977892182969407,-3.7466580862772942,8.727737735960707,0.4311111111111111,0.14666666666666667,-0.8,0.005092415602220717,0.08666075749009132,-1.0495054080500563
1590515571.9398298,-0.8632851641753965,-3.76,8.723140656701585,0.4311111111111111,0.14666666666666667,-0.8,0.004612735890573188,0.08556786323582496,-1.0295880256562142
1590515571.9498298,-0.8567557440094665,-3.746488511981067,8.730801696085198,0.3988336675103266,0.12865134930808927,-0.7707251092923117,-0.0030352008864710086,0.08876948779681962,-1.0037141598809636
1590515571.9598298,-0.86,-3.782091471816969,8.774030490605655,0.38333333333333336,0.12,-0.7566666666666667,-0.011462038239019498,0.08824322129027926,-0.975266901506925
1590515571.9698298,-0.8470262711475861,-3.795675423715862,8.741078813442758,0.38333333333333336,0.12,-0.7566666666666667,-0.012146493203559103,0.08726646259971647,-0.9518521924026853
1590515571.9798298,-0.8248092289971924,-3.793460514001872,8.684809228997192,0.38333333333333336,0.12,-0.7566666666666667,-0.011097049584789643,0.08632275380059105,-0.9249219068816413
1590515571.9898298,-0.7968298430631926,-3.8068298430631926,8.675850784684037,0.38333333333333336,0.12,-0.7566666666666667,-0.013036570039065287,0.0818123086872342,-0.8713373540464467
1590515571.9998298,-0.7881223601132158,-3.799061180056608,8.709061180056608,0.38526312988363937,0.11911333672012966,-0.7559886300408835,-0.015322835639624069,0.08140267120984472,-0.8333233732666431
1590515572.0098298,-0.7449222745455466,-3.7901554509089066,8.715388627272267,0.4244444444444445,0.10111111111111112,-0.7422222222222222,-0.023009188814387117,0.07197787458110584,-0.7643162801931502
1590515572.0198298,-0.74,-3.7814587853984123,8.678195951328041,0.4244444444444445,0.10111111111111112,-0.7422222222222222,-0.02810407595191868,0.06753311292355554,-0.712101118236906
1590515572.0298297,-0.7352890867848442,-3.779421826430312,8.644710913215157,0.4244444444444445,0.10111111111111112,-0.7422222222222222,-0.02264584132852619,0.06544984694978735,-0.6732131410727006
1590515572.0398297,-0.706883783858409,-3.8044476350884944,8.684674324212386,0.4244444444444445,0.10111111111111112,-0.7422222222222222,-0.017768491021719405,0.06576504545156346,-0.6375272062968433
1590515572.0498297,-0.6220507509062663,-3.85552736060763,8.77,0.42824002148186513,0.11318794713926772,-0.735666225521223,-0.016850351010267193,0.06654067773228381,-0.591596718896911
1590515572.0598297,-0.5703808204950667,-3.88377150770296,8.759619179504933,0.43666666666666665,0.14,-0.7211111111111111,-0.012184071906470367,0.06699362647402736,-0.5474081164654684
1590515572.0698297,-0.6258973824173533,-3.852051308791323,8.70012827197831,0.43666666666666665,0.14,-0.7211111111111111,-0.010027247817619158,0.06438700077178502,-0.4712390117970238
1590515572.0798297,-0.6784172714078375,-3.783165457184325,8.688944847605224,0.43666666666666665,0.14,-0.7211111111111111,-0.01354906032777229,0.05264762573794125,-0.37037235621117476
1590515572.0898297,-0.6838495558351443,-3.7827610659956536,8.720460177665943,0.43666666666666665,0.14,-0.7211111111111111,-0.010137003250174088,0.04405315270024967,-0.26618587585139114
1590515572.0998297,-0.6074412424503882,-3.880879033649698,8.712480414150129,0.4451020228166043,0.0900367366503691,-0.6996982839612693,-0.000994943086102376,0.03635532879043116,-0.16856514904827596
1590515572.1098297,-0.6878968695090902,-3.8296157707892564,8.71607684584215,0.4511111111111111,0.054444444444444434,-0.6844444444444444,-0.0024949033230246697,0.028632929197878295,-0.08588775685240549
1590515572.1198297,-0.8001028657711787,-3.729691402686464,8.669382805372928,0.4511111111111111,0.054444444444444434,-0.6844444444444444,-0.017565501669610267,0.015170642720250108,0.0037886544359574323
1590515572.1298296,-0.7480344286604629,-3.7788652726139564,8.660699103823257,0.4511111111111111,0.054444444444444434,-0.6844444444444444,-0.02098771459885543,0.004839663433644578,0.11244179431074572
1590515572.1398296,-0.6902715834620518,-3.84,8.6935143889747,0.4511111111111111,0.054444444444444434,-0.6844444444444444,-0.014210425332496234,0.001887176677592807,0.1854080744383093
1590515572.1498296,-0.6714018565451465,-3.84,8.680934571030097,0.4511111111111111,0.054444444444444434,-0.6844444444444444,-0.012152057434670002,-0.002915681750668399,0.2382395171491826
1590515572.1598296,-0.6792039951573849,-3.8246019975786925,8.756194007263922,0.4088888888888889,0.09333333333333334,-0.6344444444444445,-0.016188800420378697,-0.01686446179942803,0.32760745248471423
1590515572.1698296,-0.6706264188849824,-3.8978075339025615,8.710939628327473,0.4088888888888889,0.09333333333333334,-0.6344444444444445,-0.01695912590388076,-0.018509957452315956,0.37347164139380845
1590515572.1798296,-0.6219024053400852,-3.994975639697702,8.664390225188937,0.4088888888888889,0.09333333333333334,-0.6344444444444445,-0.012887763752905918,-0.018272744255196514,0.4099342248010454
1590515572.1898296,-0.5906048032189112,-4.036610398591726,8.654866402615365,0.4088888888888889,0.09333333333333334,-0.6344444444444445,-0.008470432013561064,-0.017775480563207997,0.4513369969636631
1590515572.1998296,-0.7393469874726586,-3.9155100417578046,8.75355100417578,0.4088888888888889,0.1019319944322927,-0.627637171074435,-0.013757829397773456,-0.02871333850297034,0.508287103410012
1590515572.2098296,-0.8000535168195718,-3.76328873598369,8.743342252803263,0.4088888888888889,0.12,-0.6133333333333333,-0.01672412607180665,-0.03127534724774593,0.5498224977238415
1590515572.2198296,-0.8636926129701452,-3.7023586182014974,8.690768467574637,0.4088888888888889,0.12,-0.6133333333333333,-0.015271630954950384,-0.03749104819444751,0.6036100869486883
1590515572.2298295,-0.8979896048246311,-3.666031185526107,8.608711712426599,0.4088888888888889,0.12,-0.6133333333333333,-0.015344730986359545,-0.041670869829092815,0.6398286478601194
1590515572.2398295,-0.8525891423064568,-3.756964343077417,8.723035656922583,0.4088888888888889,0.12,-0.6133333333333333,-0.01674230772788248,-0.04472406208235469,0.708582371294736
1590515572.2498295,-0.8264729136800034,-3.8120739389200224,8.719709370520006,0.4110465267822234,0.13510346525334144,-0.6108160891244431,-0.015688079146295743,-0.04648927545600224,0.745489887728075
1590515572.2598295,-0.84,-3.894283299013764,8.694266392110112,0.4155555555555556,0.16666666666666666,-0.6055555555555555,-0.013246329289483839,-0.05267259735888262,0.7771442853502438
1590515572.2698295,-0.8752847338999228,-3.9252847338999226,8.675122028814252,0.4155555555555556,0.16666666666666666,-0.6055555555555555,-0.011981390235869244,-0.05509139160896897,0.7919875190214064
1590515572.2798295,-0.8906236005104375,-3.930935400765656,8.69,0.4155555555555556,0.16666666666666666,-0.6055555555555555,-0.010874295693326274,-0.054047141931031994,0.796340483354051
1590515572.2898295,-0.8728396154644166,-3.9141980773220832,8.712716923715332,0.4155555555555556,0.16666666666666666,-0.6055555555555555,-0.008282090656614664,-0.052669631555733745,0.7927376084726855
1590515572.2998295,-0.8786412614980289,-3.943206307490145,8.75913009198423,0.4155555555555556,0.16666666666666666,-0.6055555555555555,-0.0006877537574793684,-0.05330249296399501,0.7876747172065953
1590515572.3098295,-0.8458944658944659,-4.053693693693694,8.737258687258688,0.4355555555555555,0.16,-0.5911111111111111,-0.009862401862339257,-0.04732408603239773,0.7691704761196149
1590515572.3198295,-0.6678032932440068,-4.2643934135119865,8.712458834449915,0.4355555555555555,0.16,-0.5911111111111111,0.0017811076916155605,-0.04483134897463591,0.7427520199331598
1590515572.3298295,-0.7166713592992335,-4.264447572866156,8.636398665206737,0.4355555555555555,0.16,-0.5911111111111111,0.00908974463399831,-0.03617896500939638,0.7224633300756503
1590515572.3398294,-0.8430312555904828,-4.25740908277748,8.73176135347185,0.4355555555555555,0.16,-0.5911111111111111,-0.00213362810034415,-0.041448781953980315,0.7377294798774905
1590515572.3498294,-0.9619348910917797,-4.1477800256254636,8.671099871872682,0.43148223076404335,0.16,-0.5911111111111111,-0.004121161491576064,-0.05638995258458915,0.7673072656097875
1590515572.3598294,-1.0829820994298929,-4.1182107403420645,8.803439381254236,0.4222222222222222,0.16,-0.5911111111111111,-0.0012534790752260635,-0.055925136834232544,0.784192391588833
1590515572.3698294,-1.2138466608084357,-4.021318101933216,8.633517135325132,0.4222222222222222,0.16,-0.5911111111111111,-0.004435214438146838,-0.0643949618213714,0.8291274894125484
1590515572.3798294,-1.263701239734681,-3.9845670799115602,8.68,0.4222222222222222,0.16,-0.5911111111111111,-0.007661764054009229,-0.06376637652015957,0.8616452668782698
1590515572.3898294,-1.2881927665214923,-3.9954618443476617,8.699116455216815,0.4222222222222222,0.16,-0.5911111111111111,-0.012989210583727253,-0.0661464005503809,0.8969783166953044
1590515572.3998294,-1.3069664647154196,-3.994832323577097,8.753033535284581,0.42525575750680283,0.16,-0.592290819277337,-0.009982930725878587,-0.07140036191250108,0.9389475590040681
1590515572.4098294,-1.2973870676087467,-3.906306466195627,8.74783879717376,0.44222222222222224,0.16,-0.5988888888888889,-0.010505405787964396,-0.07377359117275885,0.9902279702493417
1590515572.4198294,-1.3116331284126923,-3.904899385238077,8.701834357936539,0.44222222222222224,0.16,-0.5988888888888889,-0.010886357089068741,-0.07415454247386319,1.0211299068834288
1590515572.4298294,-1.3543355216921784,-3.93,8.653132895661564,0.44222222222222224,0.16,-0.5988888888888889,-0.015987919297497807,-0.07850701980239419,1.0433399566559634
1590515572.4398293,-1.4103620669337733,-3.936425288710818,8.658204984680651,0.44222222222222224,0.16,-0.5988888888888889,-0.016206151316575323,-0.07647496981995502,1.0540534856515174
1590515572.4498293,-1.293804931165902,-4.0080975344170495,8.785115890176558,0.44373035009030964,0.15421884317233156,-0.602156499269745,-0.021037075070511103,-0.07670868502114564,1.0738849803961676
1590515572.4598293,-1.1568210042161746,-4.088944806439249,8.700823687236488,0.4488888888888889,0.13444444444444445,-0.6133333333333333,-0.010818457485693387,-0.07534454762028425,1.1046143011780978
1590515572.4698293,-0.8467265596274054,-4.4720990317440865,8.630569677656576,0.4488888888888889,0.13444444444444445,-0.6133333333333333,-0.003559779660325302,-0.08546912535968548,1.1188353058890546
1590515572.4798293,-0.5726652601969058,-4.786192485432991,8.563667369901546,0.4488888888888889,0.13444444444444445,-0.6133333333333333,0.003838674509210077,-0.07079468765094352,1.0191615891549035
1590515572.4898293,-0.19679615861214378,-5.197598099958695,8.69227942998761,0.4488888888888889,0.13444444444444445,-0.6133333333333333,-0.0005622216647662441,-0.0521941127333613,0.8549244778730594
1590515572.4998293,-0.16361722719574162,-5.155811759012823,8.6309533026857,0.4578412237546039,0.11057155146920451,-0.6227830201360325,0.0077292473906142535,-0.033379474730783155,0.650997939938655
1590515572.5098293,-1.0694433212287762,-4.382954362547846,8.935218765335165,0.4688888888888889,0.0811111111111111,-0.6344444444444445,0.012336976041678877,-0.014134614639077836,0.37476733959913844
1590515572.5198293,-1.514267427639625,-4.117977714363365,9.037403995108031,0.4688888888888889,0.0811111111111111,-0.6344444444444445,-0.029373424087443624,-0.018728255657109828,0.10955285144109658
1590515572.5298293,-1.4501843184838505,-4.080362088557616,8.398367327285683,0.4688888888888889,0.0811111111111111,-0.6344444444444445,-0.03450875041233023,-0.016679157933886652,-0.06158345994388212
1590515572.5398293,-1.6119414974813007,-3.9680585025186996,8.57684761868417,0.4688888888888889,0.0811111111111111,-0.6344444444444445,0.016137023098208192,0.016157504274554865,-0.1412409187473389
1590515572.5498292,-1.7479953442222562,-3.832004655777744,8.520825446496717,0.4688888888888889,0.0811111111111111,-0.6344444444444445,-0.026640473848864653,0.015284494132777868,-0.23639902420103154
1590515572.5598292,-1.7535585347830678,-3.89,8.893896336957669,0.4622222222222222,0.0011111111111111113,-0.6266666666666667,0.02004028759643072,0.03965808409806787,-0.29835206447165363
1590515572.5698292,-1.732517548990933,-3.897482451009067,8.822587744954665,0.4622222222222222,0.0011111111111111113,-0.6266666666666667,-0.00096245317614752,0.03831511218552949,-0.306392519877887
1590515572.5798292,-1.6702019267403254,-3.956532048839783,8.595926268618808,0.4622222222222222,0.0011111111111111113,-0.6266666666666667,0.017563426472021394,0.03891364017251214,-0.283391896194212
1590515572.5898292,-1.647615318097591,-3.98073106856084,8.664038295243978,0.4622222222222222,0.0011111111111111113,-0.6266666666666667,0.006675048916259227,0.03778888472353449,-0.2665737904084538
1590515572.5998292,-1.6363498789346247,-4.066349878934624,8.64857445520581,0.4671610169491525,-0.027463344094700026,-0.6139669087974173,0.007116317221949111,0.03300175810295763,-0.2409346078471432
1590515572.6098292,-1.675427831142568,-4.070146928715874,8.772860844287159,0.4933333333333334,-0.17888888888888888,-0.5466666666666666,0.004659365394611142,0.021723277373924304,-0.21441094533516689
1590515572.6198292,-1.6936153389619588,-3.9646926272662877,8.674692627266287,0.4933333333333334,-0.17888888888888888,-0.5466666666666666,0.00545415391248228,0.021699101725530606,-0.207652220977213
1590515572.6298292,-1.7070798550087873,-3.9270798550087873,8.634719903339192,0.4933333333333334,-0.17888888888888888,-0.5466666666666666,0.004939292327202483,0.028043061940331095,-0.21040812579794227
1590515572.6398292,-1.7124132348057124,-3.941206617402856,8.667586765194288,0.4933333333333334,-0.17888888888888888,-0.5466666666666666,0.003911965175438241,0.029903789081951893,-0.21643585288884587
1590515572.6498291,-1.626095995809187,-3.9768169465998753,8.738408473299938,0.5266200293211393,-0.3002705475340776,-0.36932892424887315,0.005735870613930469,0.02920675044925242,-0.2109496303315272
1590515572.6598291,-1.4803452422198218,-4.132138096887928,8.788552387551714,0.6222222222222222,-0.6488888888888888,0.14,0.005687384102613535,0.029918891507666825,-0.19619163082739066
1590515572.6698291,-1.4326213675457895,-4.154757264908421,8.694815555619053,0.6222222222222222,-0.6488888888888888,0.14,0.007396466688184958,0.028029055451961184,-0.1958242452189534
1590515572.6798291,-1.3766248063279785,-4.212208268775993,8.660646252956047,0.6222222222222222,-0.6488888888888888,0.14,0.010115158296127436,0.031152323181021475,-0.22632483777954826
1590515572.689829,-1.337424954404034,-4.207725136787898,8.737424954404034,0.6222222222222222,-0.6488888888888888,0.14,0.00770130511441168,0.03690558716004306,-0.2770331480491094
1590515572.699829,-1.2999660917860276,-4.238581116632564,8.742871674948846,0.7318698236383124,-0.4133849101951996,0.10472207606612752,0.012074677283980572,0.04441081093920225,-0.3438642042024488
1590515572.709829,-1.2276279480052594,-4.237389111728775,8.757389111728775,1.1333333333333333,0.4488888888888889,-0.024444444444444446,0.0054578757690875055,0.043100842406728304,-0.4224847006915874
1590515572.719829,-1.332340595509545,-4.146638150558394,8.666638150558395,1.1333333333333333,0.4488888888888889,-0.024444444444444446,0.008503843214804189,0.053761728466736686,-0.47198167168448346
1590515572.729829,-1.2122524743818417,-4.142252474381841,8.555049487636834,1.1333333333333333,0.4488888888888889,-0.024444444444444446,0.011920835170218545,0.05626148699957113,-0.5766876667426678
1590515572.739829,-1.219586961843808,-4.149586961843808,8.70173923687616,1.1333333333333333,0.4488888888888889,-0.024444444444444446,0.022321725276769712,0.06186196628771406,-0.635892733503036
1590515572.749829,-1.2413080120851412,-4.133459939574294,8.72691987914859,1.0863902329443775,0.4298500463162783,-0.09725711718397029,0.010530886965642795,0.06920101034576459,-0.7530137636865097
1590515572.759829,-1.2537383177570094,-4.0862616822429905,8.638753894080997,0.7744444444444445,0.3033333333333333,-0.5811111111111111,0.015271630954950384,0.07963064712224129,-0.8857545953871222
1590515572.769829,-1.28292159924468,-4.06584319848936,8.63876479773404,0.7744444444444445,0.3033333333333333,-0.5811111111111111,0.01718381318907964,0.08249892047343517,-0.9157121170551472
1590515572.779829,-1.2891395409721615,-4.0782790819443235,8.663441836111353,0.7744444444444445,0.3033333333333333,-0.5811111111111111,0.022004338688857733,0.08935426264524508,-0.9907330884478611
1590515572.789829,-1.2732864099347183,-4.042097093159248,8.713427180130562,0.7744444444444445,0.3033333333333333,-0.5811111111111111,0.02375416419144631,0.08933374547611582,-1.0212924367327356
1590515572.799829,-1.2464583333333332,-3.992395833333333,8.7440625,0.7435532407407408,0.28956018518518517,-0.5978356481481482,0.022327942579224335,0.09349328831646708,-1.0406639293222701
1590515572.809829,-1.218519360617335,-4.046173120205778,8.723576317119104,0.6,0.2255555555555556,-0.6755555555555556,0.02005240191298128,0.09624904398609443,-1.0596812279089751
1590515572.819829,-1.1932119682768565,-4.04,8.755695746214853,0.6,0.2255555555555556,-0.6755555555555556,0.023317392752091236,0.09416181868157493,-1.0679630526858876
1590515572.829829,-1.1666176875940886,-4.06408816233064,8.679441087293005,0.6,0.2255555555555556,-0.6755555555555556,0.025733989448504423,0.09330453004473285,-1.0734544862590842
1590515572.839829,-1.121769140112517,-4.121769140112517,8.755061484067511,0.6,0.2255555555555556,-0.6755555555555556,0.01908283182234066,0.09472270857055803,-1.0764704128173685
1590515572.849829,-1.0789214574499557,-4.077842914899911,8.726764372349868,0.5910121454162969,0.22471668912774329,-0.6743571749443952,0.022522520098221494,0.09369379655331316,-1.0750885485759771
1590515572.859829,-1.063377707018587,-4.0677260084783144,8.704414861987608,0.5166666666666667,0.21777777777777774,-0.6644444444444444,0.027639220241424307,0.09284101319611268,-1.0705938449919499
1590515572.869829,-1.0151054034872347,-4.12404369593156,8.736596397675177,0.5166666666666667,0.21777777777777774,-0.6644444444444444,0.022373528778023143,0.09371862844001289,-1.0662057687724493
1590515572.879829,-0.9179872983385505,-4.143898386708404,8.666038104984349,0.5166666666666667,0.21777777777777774,-0.6644444444444444,0.0224752707284164,0.09686438794935548,-1.050463115862438
1590515572.889829,-0.9116751444738743,-4.093401155790994,8.684974566578378,0.5166666666666667,0.21777777777777774,-0.6644444444444444,0.024540918250249205,0.09617583877541121,-1.0470203699927167
1590515572.899829,-0.7372696827619801,-4.238054557632588,8.711689399013578,0.5088737339909477,0.22583047487602073,-0.6693799684723998,0.026902199872825282,0.09733896276764248,-1.0369835744673421
1590515572.909829,-0.6231210661199384,-4.336878933880062,8.715605330599693,0.4833333333333333,0.25222222222222224,-0.6855555555555556,0.02229599971600419,0.0977995827833246,-1.0469612921215328
1590515572.919829,-0.6081379323258993,-4.336965526281295,8.646275864651798,0.4833333333333333,0.25222222222222224,-0.6855555555555556,0.028233710684603935,0.09688081956838451,-1.0580832878548738
1590515572.929829,-0.6002838791828174,-4.281987154279722,8.630567758365636,0.4833333333333333,0.25222222222222224,-0.6855555555555556,0.0230932449231019,0.09602407527480084,-1.0717911965522124
1590515572.9398289,-0.6335224791153939,-4.181250303303408,8.636136087905992,0.4833333333333333,0.25222222222222224,-0.6855555555555556,0.0237627479090823,0.0976541406266224,-1.097760010056412
1590515572.9498289,-0.6989471038857499,-4.101286873028528,8.708830115428611,0.4833333333333333,0.25222222222222224,-0.6855555555555556,0.02614165439684178,0.09924007828512871,-1.1048967295196905
1590515572.9598289,-0.724217155579377,-4.101325733369066,8.751325733369066,0.4711111111111111,0.2611111111111111,-0.7,0.02586453354469477,0.09785936518946087,-1.0870197445922656
1590515572.9698288,-0.6925037786000938,-4.08194402459999,8.714447803200084,0.4711111111111111,0.2611111111111111,-0.7,0.024240867247178888,0.09665981926706478,-1.0665610341298988
1590515572.9798288,-0.6063875917964331,-4.099074938802378,8.659074938802378,0.4711111111111111,0.2611111111111111,-0.7,0.021220745997177933,0.09440731694744639,-1.0344198888609424
1590515572.9898288,-0.5527378745913076,-4.123645640267394,8.69,0.4711111111111111,0.2611111111111111,-0.7,0.022907446432425576,0.09252257276364498,-1.002181193987764
1590515572.9998288,-0.48286053437181115,-4.062502967575335,8.69,0.4711111111111111,0.2611111111111111,-0.7,0.022907446432425576,0.09061696392088485,-0.9678802348180823
1590515573.0098288,-0.42299844126399316,-4.06,8.730715399097148,0.4168239123149142,0.27106376422374723,-0.6882377735941574,0.023795718645561518,0.08432104945525425,-0.9362748180452378
1590515573.0198288,-0.41944244345195214,-4.14498199106757,8.683345339288287,0.4044444444444445,0.2733333333333333,-0.6855555555555556,0.020908244821110575,0.0798131070759192,-0.9036375567385517
1590515573.0298288,-0.37378324053323475,-4.02983642538641,8.68,0.4044444444444445,0.2733333333333333,-0.6855555555555556,0.02072578486743266,0.07862235384436965,-0.8849760714007512
1590515573.0398288,-0.3196294917840594,-3.9696294917840595,8.63682527867205,0.4044444444444445,0.2733333333333333,-0.6855555555555556,0.021510723451603216,0.07932475492391539,-0.871798855059571
1590515573.0498288,-0.22965546272909787,-4.010147658830387,8.740098439220258,0.40438428714317587,0.273568493692838,-0.6853750836517497,0.020752630000348188,0.07961454004249197,-0.8552167025038044
1590515573.0598288,-0.15568307378390345,-4.0335246106758555,8.74704922135171,0.3922222222222223,0.3211111111111111,-0.6488888888888888,0.025944486979800736,0.07706451017509452,-0.8581857786606315
1590515573.0698287,0.09248909575246625,-4.371453411785369,8.480583999297444,0.3922222222222223,0.3211111111111111,-0.6488888888888888,-0.00258403733532276,0.10780483826184274,-0.9751047200883651
1590515573.0798287,3.2101294157227773,-12.746033643602109,3.151296848715936,0.3922222222222223,0.3211111111111111,-0.6488888888888888,-1.0460127942197757,0.961480197979511,-5.43746274576417
1590515573.0898287,-8.174095039757667,-5.7899240607513995,4.999622828053346,0.3922222222222223,0.3211111111111111,-0.6488888888888888,-2.1504883757271887,1.1125443913017001,-9.970845239175247
1590515573.0998287,0.9114966522252855,0.9326033871602993,-0.0037022449783379284,0.39205767800096286,0.3221258004755445,-0.6488888888888888,-1.9140197808956496,-0.0821605954750813,-1.923682591107988
1590515573.1098287,-0.47480913287447823,-0.09254388147165325,-0.1432404566437239,0.3855555555555555,0.3622222222222222,-0.6488888888888888,-1.6746723517280895,-0.28585647766966094,-0.9782168643817151
1590515573.1198287,-0.011055919506869016,0.10455123420958065,-0.12005279597534345,0.3855555555555555,0.3622222222222222,-0.6488888888888888,-1.6455844655922647,-0.34592928599364636,-0.9137176386022781
1590515573.1298287,-0.6652279069767442,0.04586046511627909,1.8791255813953485,0.3855555555555555,0.3622222222222222,-0.6488888888888888,0.2580012672234433,0.7600959628750772,-0.8543082270619452
1590515573.1398287,2.0886153535172047,-0.8895384511724014,8.457565807205103,0.3855555555555555,0.3622222222222222,-0.6488888888888888,1.7072571653990471,-0.04420464101911448,-0.8098606880406679
1590515573.1498287,0.04879378315341898,-0.43806084748911234,5.713274577390658,0.38046392426400266,0.37129169046030075,-0.6457861760705988,3.1308862605712733,0.18006952915888222,-0.7664503455723112
1590515573.1598287,4.749623315238704,2.1244539618980784,7.808303576957213,0.31890200692136755,0.4809488557268697,-0.6082718826899305,3.7532115824820247,-0.18822618487024237,-0.6956242467205566
1590515573.1698287,-0.0011184759328147775,0.007525419907563972,-0.9121010032690791,0.3144444444444445,0.4888888888888889,-0.6055555555555555,0.9611657403334086,-0.33729577272947664,-0.24152461737699246
1590515573.1798286,0.4071492918272359,0.09000750713177517,0.7371668084680447,0.3144444444444445,0.4888888888888889,-0.6055555555555555,-0.048328263945606464,0.123113855751047,0.023924630714467206
1590515573.1898286,0.5855989047538016,0.2731859598100336,1.9596517797750723,0.3144444444444445,0.4888888888888889,-0.6055555555555555,-1.0261891658447433,0.37762856333548195,0.24738784307400058
1590515573.1998286,0.17034094952276346,-0.31077053973361385,2.6344459570255094,0.3144444444444445,0.4888888888888889,-0.6055555555555555,-1.4112189020509123,0.374089687083587,0.389650668400177
1590515573.2098286,0.6417914142870877,-2.491597923276608,10.34486948370349,0.3022222222222222,0.4455555555555555,-0.6577777777777778,-0.029533186795371105,-0.125360222148273,0.4204551718501176
1590515573.2198286,0.8881995796312219,-4.848371070985001,16.26036925575619,0.3022222222222222,0.4455555555555555,-0.6577777777777778,0.875760471915273,0.019099282906754136,0.5465955874072401
1590515573.2298286,0.25458359886818427,-2.50237375411048,7.124406434015652,0.3022222222222222,0.4455555555555555,-0.6577777777777778,0.27236867579439117,-0.16020978230155652,0.5665088368922844
1590515573.2398286,0.4255958400627915,-2.867021478921073,10.219830342183513,0.3022222222222222,0.4455555555555555,-0.6577777777777778,-0.5335602730609039,-0.08387800639958905,0.6542129642863524
1590515573.2498286,0.21667537093779718,-2.4238568474438122,9.004293067274457,0.3022222222222222,0.4455555555555555,-0.6577777777777778,-0.26284640489261146,0.09567711024264582,0.7253444143407762
1590515573.2598286,0.26495595908215364,-2.999832251790623,8.207566061376768,0.2966666666666667,0.4477777777777778,-0.6622222222222223,0.21065447292598247,-0.1372600005126441,0.7578368823400108
1590515573.2698286,-0.0801699923325791,-4.356804742580367,8.725254988498868,0.2966666666666667,0.4477777777777778,-0.6622222222222223,-0.07940164058877006,-0.04998647963209907,0.812596738578784
1590515573.2798285,-1.6573024236037934,-24.562969441517385,8.070054794520548,0.2966666666666667,0.4477777777777778,-0.6622222222222223,-0.20732612617535962,-0.11490896522330737,1.5979139892337795
1590515573.2898285,0.07040042149631187,-4.569831401475238,10.786164383561644,0.2966666666666667,0.4477777777777778,-0.6622222222222223,-0.07233392024417226,-0.3042486826332844,3.287069708905195
1590515573.2998285,15.929868759152324,-19.308908628740365,3.4835280302820992,0.2966666666666667,0.4477777777777778,-0.6622222222222223,0.3210686037502418,-0.24417713450318113,3.82377293208344
1590515573.3098285,2.627094301047789,-6.057094301047789,10.329240991566573,0.3385347985347985,0.4351199704688077,-0.6583275122810007,-0.24315657957542075,-0.42856603270991167,1.8330200040013955
1590515573.3198285,-1.244397215673066,0.9681246210845403,9.589603907039407,0.34444444444444444,0.43333333333333335,-0.6577777777777778,0.11845457242722773,0.23586850184053063,-0.8711957826073646
1590515573.3298285,-1.483056333248494,0.04962055654534653,8.364732756426571,0.34444444444444444,0.43333333333333335,-0.6577777777777778,0.24454351741942507,0.4687360350703752,-0.805745229993084
1590515573.3398285,-0.7623603992446722,-3.012360399244672,11.09297731941649,0.34444444444444444,0.43333333333333335,-0.6577777777777778,-0.18238348433513363,-0.12837720854814763,-0.7637343152134581
1590515573.3498285,-0.4229241974642568,-2.6729241974642566,9.448017264634476,0.34444444444444444,0.43333333333333335,-0.6577777777777778,-0.14345793110070806,-0.06476715814067169,-0.6251213695494062
1590515573.3598285,-3.504887129873937,-8.933977854452788,7.044081140202513,0.38333333333333336,0.3944444444444444,-0.6622222222222223,0.036771868040197664,0.051177756764617915,-0.10310534130546367
1590515573.3698285,-0.7942433365446371,-8.322739844251766,9.577736231535003,0.38333333333333336,0.3944444444444444,-0.6622222222222223,-0.10103796039823874,-0.057163504516621784,0.8171026880629367
1590515573.3798285,-1.114136159280668,-1.5460629415542702,9.922883750802825,0.38333333333333336,0.3944444444444444,-0.6622222222222223,0.059662208482090986,-0.10766927187901112,0.5021303570574904
1590515573.3898284,-0.518769730314783,-1.9560604762334264,7.126543023360693,0.38333333333333336,0.3944444444444444,-0.6622222222222223,0.1362674137142466,0.1055389358804666,-0.09493363933920307
1590515573.3998284,-0.3656701995012469,-3.52550187032419,8.301988778054863,0.38333333333333336,0.3944444444444444,-0.6622222222222223,-0.033620914469868174,-0.0003917197822431162,-0.2028088368419751
1590515573.4098284,0.26985998158661956,-3.848142550253184,8.212748197023169,0.3676406577668662,0.3990599372581113,-0.6622222222222223,-0.0464338727994333,-0.01018525791354994,-0.14333323155387845
1590515573.4198284,-0.03037910073778479,-4.065023896802932,8.852909841770684,0.3644444444444445,0.4,-0.6622222222222223,0.0269667683708345,0.007870523024152193,0.022898133042607034
1590515573.4298284,0.09698835078754056,-4.605153893997209,8.539247087696884,0.3644444444444445,0.4,-0.6622222222222223,-0.017230043435626962,0.0018531415982897146,0.001090830782496456
1590515573.4398284,0.06878616214762392,-4.372485837717897,8.532196540536905,0.3644444444444445,0.4,-0.6622222222222223,-0.0049245172347497975,-0.0012232399519295765,0.001090830782496456
1590515573.4498284,0.06,-4.455531616934181,8.491117095766455,0.3644444444444445,0.4,-0.6622222222222223,-0.001090830782496456,0.0020598053200883743,0.0002425374054801987
1590515573.4598284,0.06,-4.291508587343339,8.800183240865588,0.3694085256981745,0.4,-0.6589128347197356,0.0037826445920476235,0.003272492347489368,0.001624491791514693
1590515573.4698284,0.05201826881252719,-4.466972596781209,8.637063940843845,0.3711111111111111,0.4,-0.6577777777777778,-0.011338661683043849,0.003272492347489368,-0.0028321743978779236
1590515573.4798284,0.06971634875461581,-4.439716348754616,8.697730790036927,0.3711111111111111,0.4,-0.6577777777777778,-0.00545415391248228,0.003257021571991441,0.001075360006998529
1590515573.4898283,0.050010840311004785,-4.419983739533492,8.540119243421051,0.3711111111111111,0.4,-0.6577777777777778,-0.005449423934507938,0.002181070317746119,-5.912472467927113e-07
1590515573.4998283,0.06568929425837321,-4.3964660586124396,8.712582236842104,0.3711111111111111,0.4,-0.6577777777777778,0.001391592140589079,0.001325943308358992,-0.0008557182566339198
1590515573.5098283,0.05087959761081422,-4.39,8.72175919522163,0.3647376436480492,0.394688777114115,-0.6620267560864858,-0.004027500877455557,0.0031765431324807204,-0.002133686957488588
1590515573.5198283,0.06960054386047167,-4.399600543860472,8.701611421069906,0.3644444444444445,0.3944444444444444,-0.6622222222222223,-0.0004357390532547145,0.0021380876596674404,0.0011344046878219273
1590515573.5298283,0.0597681016694804,-4.390927593322078,8.503014678296754,0.3644444444444445,0.3944444444444444,-0.6622222222222223,-0.010756530722560368,0.001166719333698552,0.0021310691975248482
1590515573.5398283,0.050039694187037895,-4.429761834877772,8.630158776748152,0.3644444444444445,0.3944444444444444,-0.6622222222222223,-0.004358993165875113,0.004354663201764403,4.329964110710351e-06
1590515573.5498283,0.05590199449313039,-4.3945880330412175,8.653607977972522,0.3644444444444445,0.3944444444444444,-0.6622222222222223,-0.003719515402862704,0.0030757076757395845,0.0006438077271231197
1590515573.5598283,0.05487120104014302,-4.375128798959857,8.73667438647814,0.3644444444444445,0.3944444444444444,-0.6553838236090795,0.0006437639003640918,0.002741126743257692,0.0016502959607612357
1590515573.5698283,0.059714600765388856,-4.370285399234612,8.70285399234611,0.3644444444444445,0.3944444444444444,-0.6488888888888888,-0.005173963869108992,0.004332190902944347,0.0011219630095379324
1590515573.5798283,0.06807706681878087,-4.386154133637562,8.61922933181219,0.3644444444444445,0.3944444444444444,-0.6488888888888888,-0.008097367847944344,0.005244394441806512,-0.002433454464786297
1590515573.5898283,0.060859310619192405,-4.435703446904038,8.590859310619193,0.3644444444444445,0.3944444444444444,-0.6488888888888888,-0.009723740794953988,0.006451248447464619,-0.00028120874254235033
1590515573.5998282,0.06,-4.401068541933419,8.699008082586428,0.3644444444444445,0.3944444444444444,-0.6488888888888888,-0.0038720084411585443,0.005695632037648799,-0.0008493526573299371
1590515573.6098282,0.06,-4.409239828026668,8.665867239911107,0.37655841023901343,0.3944444444444444,-0.6545895786745684,-0.0007825017875643882,0.00545415391248228,-0.0017904106712107177
1590515573.6198282,0.06,-4.3718537308773024,8.755180299719013,0.38333333333333336,0.3944444444444444,-0.6577777777777778,0.004201554593711763,0.001252599318770517,0.0009695043802909107
1590515573.6298282,0.07422479006176695,-4.412674370185301,8.603527309320564,0.38333333333333336,0.3944444444444444,-0.6577777777777778,-0.003395096306976703,0.001090830782496456,0.00031498883880020333
1590515573.6398282,0.06250345781466113,-4.3600138312586445,8.662475795297372,0.38333333333333336,0.3944444444444444,-0.6577777777777778,-0.003682119674526419,0.00013654244234568365,0.0009542883401507723
1590515573.6498282,0.06,-4.40043412459491,8.642174406553817,0.38333333333333336,0.3944444444444444,-0.6577777777777778,-0.005335558432353982,0.0027507547798194857,0.0017785194774513273
1590515573.6598282,0.05277264462503247,-4.386635867750194,8.721182975249546,0.3744998989861508,0.40327787879162696,-0.6457321854861652,-0.0002379273197340966,0.004363323129985824,0.001393279393087332
1590515573.6698282,0.05,-4.396327138492872,8.6985700101833,0.3711111111111111,0.4066666666666667,-0.6411111111111111,0.0012243797955571855,0.003406041360550098,0.00013354901306072953
1590515573.6798282,0.04023149366023044,-4.351157468301152,8.67046298732046,0.3711111111111111,0.4066666666666667,-0.6411111111111111,0.002156409523939698,0.001141334864602884,-0.0021311574828864837
1590515573.6898282,0.04,-4.398739465875371,8.60176474777448,0.3711111111111111,0.4066666666666667,-0.6411111111111111,-0.006324979986893516,0.0032174911704680636,-0.0011183313710071085
1590515573.6998281,0.047308661839635294,-4.385382676320729,8.658469294717081,0.3711111111111111,0.4066666666666667,-0.6411111111111111,-0.006544984694978735,0.003272492347489368,-0.0002935794511433208
1590515573.7098281,0.05,-4.408337768409959,8.66583111579502,0.375046912279161,0.39800790409695685,-0.6411111111111111,-0.004999399190536781,0.0009541140908264352,0.0
1590515573.7198281,0.05956566188543635,-4.381737352458255,8.746090956968928,0.37666666666666665,0.3944444444444444,-0.6411111111111111,0.000853936089807706,0.001043451843958706,0.001043451843958706
1590515573.7298281,0.06,-4.38,8.637431811871249,0.37666666666666665,0.3944444444444444,-0.6411111111111111,-0.0017428502499810953,0.001090830782496456,0.0029799514708148235
1590515573.739828,0.06959355498170863,-4.418374219926834,8.658374219926834,0.37666666666666665,0.3944444444444444,-0.6411111111111111,-0.002181661564992912,0.004230314308782455,-0.000913485687558631
1590515573.749828,0.05558239877333429,-4.405582398773334,8.631164797546669,0.37666666666666665,0.3944444444444444,-0.6411111111111111,-0.0068998105333346,0.006722397614156668,-0.001090830782496456
1590515573.759828,0.05565357649791389,-4.405653576497914,8.653921458987483,0.3735257908344923,0.3944444444444444,-0.6530464392733738,-0.005643098622410157,0.005168977367425999,-0.0004741212549841579
1590515573.769828,0.06,-4.376594166698689,8.671648541674672,0.3711111111111111,0.3944444444444444,-0.6622222222222223,0.003104527126513181,0.004183495129489732,0.0
1590515573.779828,0.05338887523264389,-4.376611124767356,8.650166625697931,0.3711111111111111,0.3944444444444444,-0.6622222222222223,0.0036421612896701473,0.0036421612896701473,-0.0007211618403156769
1590515573.789828,0.05814079746880955,-4.38,8.656281594937619,0.3711111111111111,0.3944444444444444,-0.6622222222222223,-0.002055647136338646,0.0023844691001846993,0.001573238959417551
1590515573.799828,0.06541968194078027,-4.396259045822341,8.66,0.3711111111111111,0.3944444444444444,-0.6622222222222223,-0.005637274704426666,0.0027728571542272366,-0.00018312079194438566
1590515573.809828,0.06182362015124723,-4.41,8.668176379848752,0.3683856511615269,0.39671566106909795,-0.6535915990485387,-0.0071898631360550296,0.0023805876646490437,-0.0017357092235727497
1590515573.819828,0.04406561085972851,-4.398131221719457,8.703737556561085,0.3644444444444445,0.4,-0.6411111111111111,-0.0039556189551704065,0.00497487939220895,-0.002385513652400621
1590515573.829828,0.057708587257617724,-4.398854293628809,8.613748476454294,0.3644444444444445,0.4,-0.6411111111111111,-0.002181661564992912,0.0047382546632051045,-0.002306638742732672
1590515573.839828,0.06,-4.4,8.65899600020252,0.3644444444444445,0.4,-0.6411111111111111,-0.002181661564992912,0.004363323129985824,0.001393596938622504
1590515573.849828,0.05537544568065639,-4.386126337041969,8.680750891361312,0.3644444444444445,0.4,-0.6411111111111111,-0.004703964668426392,0.004363323129985824,0.0017591104854292798
1590515573.859828,0.0563730550427608,-4.376373055042761,8.701865275213805,0.35948762385563054,0.4,-0.6368624077492706,-0.004159853167881316,0.0029729382061482734,-0.0006951924619187751
1590515573.869828,0.06826158093874629,-4.413046323754985,8.695215257183762,0.3566666666666667,0.4,-0.6344444444444445,-0.002181661564992912,0.003984058925006997,0.0007115665775176288
1590515573.879828,0.06281549626903812,-4.405630992538076,8.625339466421343,0.3566666666666667,0.4,-0.6344444444444445,0.0017368773483540123,0.0035796153473164395,-0.0012602925655116981
1590515573.889828,0.044090023437720616,-4.39204501171886,8.655684917967978,0.3566666666666667,0.4,-0.6344444444444445,-0.0010662806982435075,0.003272492347489368,-0.001313906955846337
1590515573.899828,0.06100036310820625,-4.382999878963931,8.698000484144275,0.3566666666666667,0.4,-0.6344444444444445,-0.00294525631572739,0.003272492347489368,-0.00032723603176197853
1590515573.909828,0.04960882773858244,-4.40718822968189,8.71,0.3664846384962381,0.4,-0.6503042450922136,-0.004755380240418845,0.003272492347489368,0.0007414439464647382
1590515573.919828,0.05273774713044996,-4.400893379304325,8.690893379304326,0.3711111111111111,0.4,-0.6577777777777778,-0.003369944912049672,0.002577756014011832,0.00039609444901891997
1590515573.929828,0.050754699746058424,-4.399245300253941,8.647641449111203,0.3711111111111111,0.4,-0.6577777777777778,-0.0006689028484296463,0.003190167376035089,0.0005042529055210886
1590515573.939828,0.04888675760159136,-4.4011132423984085,8.623330136402387,0.3711111111111111,0.4,-0.6577777777777778,0.00012143590765643258,0.004363323129985824,0.0006061333450764442
1590515573.949828,0.055748258079117964,-4.39,8.661258709604411,0.3711111111111111,0.4,-0.6577777777777778,-0.002482210072455076,0.004363323129985824,-0.00046379309665287347
1590515573.959828,0.052379905340439015,-4.39,8.692379905340438,0.3769286574988509,0.3986778303664228,-0.6588355134846395,-0.0054017527318972565,0.004103715729507966,-0.0005716159815407397
1590515573.969828,0.06,-4.4032002824772025,8.693399858761397,0.3955555555555556,0.3944444444444444,-0.6622222222222223,-0.00656675509040453,0.0011126011779222502,0.0003708670593074167
1590515573.979828,0.06,-4.387299245024022,8.644598490048045,0.3955555555555556,0.3944444444444444,-0.6622222222222223,-0.002152462937321421,0.0016508454875804293,0.0016508454875804293
1590515573.9898279,0.05245344835713949,-4.38,8.675279309857164,0.3955555555555556,0.3944444444444444,-0.6622222222222223,0.0013787724676229778,0.004651264815112346,0.0013584604816197674
1590515573.9998279,0.05636934698741643,-4.38,8.702738693974833,0.3955555555555556,0.3944444444444444,-0.6622222222222223,0.0007920856133379302,0.00545415391248228,-0.00029874516915852573
1590515574.0098279,0.06,-4.385461298334358,8.71,0.38523976981287805,0.3901967679621654,-0.6597949785180628,-0.001787205700654526,0.002475477744724737,-0.0004950955489449474
1590515574.0198278,0.06,-4.4048926530750245,8.687661020387463,0.37666666666666665,0.38666666666666666,-0.6577777777777778,-0.0040847605678532295,0.004873609322183172,0.0
1590515574.0298278,0.05262033003583614,-4.41,8.613582970322526,0.37666666666666665,0.38666666666666666,-0.6577777777777778,-0.004363323129985824,0.004934990462663845,-0.0008049971161574455
1590515574.0398278,0.05775968263910638,-4.394480634721787,8.636558095834639,0.37666666666666665,0.38666666666666666,-0.6577777777777778,-0.0026704229929577087,0.006056223267013938,-0.00024438071398239837
1590515574.0498278,0.06,-4.39,8.662129663297215,0.37666666666666665,0.38666666666666666,-0.6577777777777778,-0.0015200910596969467,0.003237132168498909,0.0013231410105919304
1590515574.0598278,0.052619714212994946,-4.39,8.706901428935026,0.3619060950926566,0.39650704771600676,-0.6405571109414326,-0.0027009593665136954,0.0027009593665136954,0.0005715329809756727
1590515574.0698278,0.05,-4.39,8.705407573879985,0.3566666666666667,0.4,-0.6344444444444445,-0.005660172487941904,0.0016807055871876774,0.0
1590515574.0798278,0.056951551963269405,-4.396951551963269,8.630484480367306,0.3566666666666667,0.4,-0.6344444444444445,-0.004270094634681353,0.0026074241560280443,-0.0007582966867657941
1590515574.0898278,0.06,-4.388106974091576,8.635679077725273,0.3566666666666667,0.4,-0.6344444444444445,-0.003921156285386224,0.002623828409592512,0.00020649709329725549
1590515574.0998278,0.06,-4.383538666538233,8.670615999614698,0.3566666666666667,0.4,-0.6344444444444445,-0.003591305852206862,0.002567670203882393,0.00031881350471749397
1590515574.1098278,0.059312023365244194,-4.389312023365244,8.691375953269512,0.3572017596048101,0.39961779075846904,-0.6349030955342817,-0.002256708174075907,0.003197445738406373,-0.0010157841734134612
1590515574.1198277,0.04464974075743913,-4.396050777727683,8.715350259242562,0.3644444444444445,0.3944444444444444,-0.6411111111111111,-0.0026888695998772117,0.0015980388173807555,-0.0005836227476121564
1590515574.1298277,0.04,-4.416322407494843,8.637808702567034,0.3644444444444445,0.3944444444444444,-0.6411111111111111,-0.003560996907965245,0.00040116311101028935,-0.00040116311101028935
1590515574.1398277,0.05499778989244144,-4.400002946810078,8.624994843082364,0.3644444444444445,0.3944444444444444,-0.6411111111111111,-0.002727318041576891,0.0005453350294696442,0.0010906700589392883
1590515574.1498277,0.066278619232124,-4.383721380767875,8.67860690383938,0.3644444444444445,0.3944444444444444,-0.6411111111111111,-0.001090830782496456,0.002308649790993292,0.002181661564992912
1590515574.1598277,0.06472558346546496,-4.394725583465465,8.71945116693093,0.3576186016609951,0.4002201575689016,-0.6379607221341345,-0.0005753495915579099,0.0033323607481087316,0.0011506991831158199
1590515574.1698277,0.06307061448471327,-4.393070614484714,8.702282457938853,0.35,0.4066666666666667,-0.6344444444444445,-0.003023514809543937,0.002181661564992912,0.0015117574047719684
1590515574.1798277,0.06,-4.4064367042749195,8.629732084325294,0.35,0.4066666666666667,-0.6344444444444445,-0.006156289428573183,0.003376972430717818,0.0009863506992680061
1590515574.1898277,0.053866780995439845,-4.4016003429863195,8.6106660950228,0.35,0.4066666666666667,-0.6344444444444445,-0.005628724251685244,0.0030252623127925253,-0.0006690304085966493
1590515574.1998277,0.06771716277525727,-4.39,8.677245767400686,0.35,0.4066666666666667,-0.6344444444444445,-0.003074894694402425,0.002181661564992912,0.00019759765308694248
1590515574.2098277,0.0678512091563596,-4.39,8.71,0.35404959694788013,0.3992424055955531,-0.6432185711648514,-0.0008564340627575091,0.0028442753161106137,0.001090830782496456
1590515574.2198277,0.06,-4.39,8.723709131905299,0.3566666666666667,0.3944444444444444,-0.6488888888888888,-0.0007477171541802088,0.0010293408849487416,0.002586265090856874
1590515574.2298276,0.06,-4.39,8.641450758660177,0.3566666666666667,0.3944444444444444,-0.6488888888888888,-0.0018338479995748105,0.0,0.0010434406962543039
1590515574.2398276,0.06,-4.396620181616012,8.646341271312084,0.3566666666666667,0.3944444444444444,-0.6488888888888888,-0.0007373619865003378,0.0,0.002166449367738861
1590515574.2498276,0.06,-4.4,8.67,0.3566666666666667,0.3944444444444444,-0.6488888888888888,0.0,0.0,0.0020359100443012724
1590515574.2598276,0.06,-4.4,8.67,0.3566666666666667,0.3944444444444444,-0.6488888888888888,0.0,0.0,0.00013973881838022896
1590515574.2698276,0.0700299080604069,-4.40504486209061,8.69495513790939,0.3644444444444445,0.3944444444444444,-0.6711111111111111,0.002184924028286573,0.0005503090861887193,0.0016411398686851752
1590515574.2798276,0.05272862382242251,-4.413182155955606,8.611821559556056,0.3644444444444445,0.3944444444444444,-0.6711111111111111,0.0025287809321008167,0.0029253729803814634,0.00029764668593516234
1590515574.2898276,0.05113536609050301,-4.41,8.61340609827151,0.3644444444444445,0.3944444444444444,-0.6711111111111111,-0.00024769845618466835,0.0014504723316061828,0.0007311892333867294
1590515574.2998276,0.050897362658288106,-4.405448681329144,8.649102637341713,0.3644444444444445,0.3944444444444444,-0.6711111111111111,-0.0006922460128567553,0.0,0.0001957741621447036
1590515574.3098276,0.048002688284958205,-4.395998655857521,8.688009408997354,0.3644444444444445,0.3993349761741411,-0.6657759855878056,0.0019637886548920743,0.0,-0.0008722247563994847
1590515574.3198276,0.06,-4.39,8.720261989665964,0.3644444444444445,0.4066666666666667,-0.6577777777777778,0.003803618419121166,0.0005311260716317982,-0.0005025474323989386
1590515574.3298275,0.04992035334153935,-4.39,8.664641590036927,0.3644444444444445,0.4066666666666667,-0.6577777777777778,0.0027140448022253613,0.0005410713399096351,-0.0005323832372324496
1590515574.3398275,0.045343402050490575,-4.39534340205049,8.62534340205049,0.3644444444444445,0.4066666666666667,-0.6577777777777778,0.000507956038503476,0.0,-0.0006577934494824843
1590515574.3498275,0.05486520178179642,-4.4,8.664056412472576,0.3644444444444445,0.4066666666666667,-0.6577777777777778,0.0,-0.0005307111866640144,-0.001120239191664883
1590515574.3598275,0.055688814326401624,-4.4,8.7,0.36109130003164575,0.40379254288426775,-0.6577777777777778,0.0014108322125456485,0.00032000143004919253,0.0004702774041818828
1590515574.3698275,0.05,-4.3950945696409045,8.714716291077288,0.3566666666666667,0.4,-0.6577777777777778,0.003272492347489368,0.0011114626775740614,0.0005557313387870307
1590515574.3798275,0.06031967650873579,-4.39,8.668081940947586,0.3566666666666667,0.4,-0.6577777777777778,0.002146790267375912,-0.0016885531201701835,0.0016885531201701835
1590515574.3898275,0.06349541977943793,-4.39,8.623009160441125,0.3566666666666667,0.4,-0.6577777777777778,0.001090830782496456,-0.0011438734479473577,0.0011438734479473577
1590515574.3998275,0.06,-4.39,8.65094297428252,0.3566666666666667,0.4,-0.6577777777777778,-0.0008129393028705417,0.0015230160682935983,-0.0007615080341467991
1590515574.4098275,0.06,-4.39,8.68444198924445,0.3566666666666667,0.4,-0.6577777777777778,-0.003858085694852388,0.003959133181879075,-0.0019795665909395376
1590515574.4198275,0.06180796381330958,-4.39,8.71,0.3711111111111111,0.4,-0.6577777777777778,0.0002495880040685641,-0.001090830782496456,0.001288049040616232
1590515574.4298275,0.05,-4.407614691976907,8.639541232092371,0.3711111111111111,0.4,-0.6577777777777778,0.0015411732905727886,0.0001901457663437908,0.0006404882744201234
1590515574.4398274,0.05,-4.411236131425921,8.598763868574078,0.3711111111111111,0.4,-0.6577777777777778,0.001090830782496456,0.0015688256632143743,0.0001348410210606193
1590515574.4498274,0.05,-4.4,8.629094730795341,0.3711111111111111,0.4,-0.6577777777777778,0.001090830782496456,0.002181661564992912,-0.0016859485006405093
1590515574.4598274,0.05550092710061482,-4.4,8.688251390650922,0.36713821931622265,0.4,-0.6611394554503758,0.001090830782496456,0.002181661564992912,-0.0023724052554464255
1590515574.4698274,0.06831973955963175,-4.396639479119264,8.71168026044037,0.3566666666666667,0.4,-0.67,0.0009075428013999814,0.002181661564992912,-0.0003665759621929491
1590515574.4798274,0.05671771164403352,-4.383282288355966,8.680612539728402,0.3566666666666667,0.4,-0.67,0.00035804211757179256,0.0018236194474211193,-0.0014655773298493267
1590515574.4898274,0.05164824854045038,-4.39,8.60824124270225,0.3566666666666667,0.4,-0.67,0.0007312387334708311,0.001090830782496456,-0.00035959204902562486
1590515574.4998274,0.05607245455143527,-4.386072454551435,8.661782636345695,0.3566666666666667,0.4,-0.67,-0.002376117024980932,-0.0006228842074828451,-0.000896375322508436
1590515574.5098274,0.05900003157462663,-4.38,8.689000031574626,0.3566666666666667,0.4060000210497511,-0.6644999807043949,-0.0023998208329772683,-0.0017998656247329515,0.0015817063567485949
1590515574.5198274,0.06569716641810686,-4.384302833581893,8.691394332836213,0.3566666666666667,0.4133333333333333,-0.6577777777777778,0.00046936633230885316,0.00046936633230885316,0.0017122952326840588
1590515574.5298274,0.0634559252772913,-4.386544074722709,8.65235259778167,0.3566666666666667,0.4133333333333333,-0.6577777777777778,0.001090830782496456,0.0003368648476010655,0.0007138478150487608
1590515574.5398273,0.06555187044894481,-4.38889625910211,8.626688777306331,0.3566666666666667,0.4133333333333333,-0.6577777777777778,0.0006056151186141411,-0.00012039945473182618,0.0
1590515574.5498273,0.05694124556341445,-4.4,8.666117508873171,0.3566666666666667,0.4133333333333333,-0.6577777777777778,0.000667316699105025,0.0014244891320489685,-0.0003336583495525125
1590515574.5598273,0.05311805467528626,-4.406236109350573,8.68935416402586,0.35909182030300046,0.4091759270996183,-0.6615887334920165,0.0011612805586001375,0.0018415345628619872,-0.0007507037803655312
1590515574.5698273,0.06,-4.40984645399039,8.706615484663464,0.3644444444444445,0.4,-0.67,-0.0007216374312038949,0.001090830782496456,0.00036919335129256115
1590515574.5798273,0.06,-4.400641689557347,8.646791552213266,0.3644444444444445,0.4,-0.67,0.0017412423820387434,0.0005104166551502083,0.0005104166551502083
1590515574.5898273,0.054792548479181025,-4.404792548479182,8.636452160645733,0.3644444444444445,0.4,-0.67,0.0027044475057626353,-0.0011360896834534651,0.0
1590515574.5998273,0.05436933608183268,-4.4,8.678738672163664,0.3644444444444445,0.4,-0.67,0.001228420305565804,-0.0007517996758522501,0.000476620629713554
1590515574.6098273,0.06,-4.391835439059652,8.69,0.3721554186658845,0.40272152031344943,-0.6554852249949366,-0.000890615439930006,-0.0002450923773985533,0.001090830782496456
1590515574.6198273,0.06,-4.389727705062918,8.704591557594377,0.38333333333333336,0.4066666666666667,-0.6344444444444445,-0.0016510975587090207,-0.002181661564992912,0.0016213947887803474
1590515574.6298273,0.05566651838671412,-4.395666518386714,8.663664739027285,0.38333333333333336,0.4066666666666667,-0.6344444444444445,-0.0006181212685809914,-0.0012362425371619829,0.0012362425371619829
1590515574.6398273,0.05,-4.39388770753251,8.60943853766255,0.38333333333333336,0.4066666666666667,-0.6344444444444445,0.0,0.0,-0.000424083104980527
1590515574.6498272,0.05,-4.4,8.64856254552561,0.38333333333333336,0.4066666666666667,-0.6344444444444445,0.0004670144117931244,0.0004670144117931244,-0.0008573235765998938
1590515574.6598272,0.05,-4.4,8.678369072787676,0.38333333333333336,0.4066666666666667,-0.6344444444444445,0.0020927082846322826,0.0020927082846322826,-4.447664018031468e-05
1590515574.6698272,0.06247505966120261,-4.3824750596612025,8.71009976135519,0.3644444444444445,0.3944444444444444,-0.6266666666666667,0.000269987126695506,0.000539974253391012,0.000269987126695506
1590515574.6798272,0.06723054846938777,-4.391384725765306,8.670306919642856,0.3644444444444445,0.3944444444444444,-0.6266666666666667,0.001090830782496456,0.002181661564992912,0.001090830782496456
1590515574.6898272,0.05359881744795355,-4.392802365104093,8.617197634895907,0.3644444444444445,0.3944444444444444,-0.6266666666666667,0.0006982606972151494,0.0006113812238676853,-8.68794733474643e-05
1590515574.6998272,0.06,-4.383109593828123,8.64088357839843,0.3644444444444445,0.3944444444444444,-0.6266666666666667,-0.00016960203343887264,-0.0018424574981151668,-0.0018424574981151668
1590515574.7098272,0.06316590471607315,-4.4,8.703165904716073,0.3598714709656722,0.3944444444444444,-0.6365161480055609,-0.0007454841506221268,0.0003453466318743292,0.0003453466318743292
1590515574.7198272,0.055731218449965356,-4.404756260516678,8.705243739483322,0.35,0.3944444444444444,-0.6577777777777778,0.0,-0.0015033069080860912,0.001090830782496456
1590515574.7298272,0.0438565322430775,-4.402286935513845,8.665291209812302,0.35,0.3944444444444444,-0.6577777777777778,-0.0004206824084439036,-0.0026805934962102094,0.0015115131909403596
1590515574.7398272,0.05552584115927608,-4.39,8.621051682318551,0.35,0.3944444444444444,-0.6577777777777778,-0.00048805501892403155,0.0003013878817862122,0.0018802736832066998
