time,acc_x,acc_y,acc_z,mag_x,mag_y,mag_z,gyr_x,gyr_y,gyr_z
1590512643.377255,-3.69,-0.75,8.96,0.2977777777777777,-0.3466666666666667,-0.6644444444444444,0.011999138607461015,-0.014180800172453925,0.0
1590512643.387255,-3.670469573377608,-0.733489857792536,8.933959431170145,0.2644444444444444,-0.3466666666666667,-0.6622222222222223,0.01166967668629122,-0.027776025876270385,-0.00032946192116979525
1590512643.397255,-3.628766089228685,-0.7221915223071712,8.873149133843027,0.2644444444444444,-0.3466666666666667,-0.6622222222222223,0.009204762258609648,-0.03272492347489368,-0.00023905799931899971
1590512643.407255,-3.625610625810414,-0.72,8.882442503241657,0.2644444444444444,-0.3466666666666667,-0.6622222222222223,0.006278548922744052,-0.029052777469052285,-0.0006120243343068989
1590512643.417255,-3.625765062286177,-0.7284698754276462,8.929644563996762,0.2644444444444444,-0.3466666666666667,-0.6622222222222223,0.0025154829619084655,-0.01971249819164419,0.0002950493435615626
1590512643.427255,-3.6325845068935667,-0.7441948356311889,9.007753520680701,0.27050365146727284,-0.34433620242711727,-0.6654848721575914,-0.003203099083809664,-0.00358693849054247,0.0017240759815915314
1590512643.437255,-3.6613642977936838,-0.7443178511031581,9.06,0.2788888888888889,-0.3411111111111111,-0.67,-0.008255641770215538,0.012743247622382204,0.0004710044897561093
1590512643.447255,-3.6623969945489367,-0.74,9.006778961842558,0.2788888888888889,-0.3411111111111111,-0.67,-0.007897287021420838,0.017453292519943295,0.0016587184771016188
1590512643.457255,-3.667533534658333,-0.74,9.012600603974999,0.2788888888888889,-0.3411111111111111,-0.67,-0.004348690874949879,0.013344386766786655,0.0013598804143615836
1590512643.4672549,-3.664375033581087,-0.7287500671621743,8.997500134324348,0.2788888888888889,-0.3411111111111111,-0.67,-0.003272492347489368,0.008317606695305608,0.0017044194345223573
1590512643.4772549,-3.6538201256086373,-0.72,8.967640251217276,0.28644206870055433,-0.3411111111111111,-0.6576402512172748,-0.003272492347489368,0.00545415391248228,0.003529901008604896
1590512643.4872549,-3.6562033492822965,-0.72,8.96,0.2911111111111111,-0.3411111111111111,-0.65,-0.005302533653001313,0.011544277829018115,0.000979920954132582
1590512643.4972548,-3.679214331664476,-0.7392143316644757,8.921571336671049,0.2911111111111111,-0.3411111111111111,-0.65,-0.007942290324625834,0.018764895029068127,0.0010051276619741911
1590512643.5072548,-3.6782025388327857,-0.7382025388327859,8.923594922334429,0.2911111111111111,-0.3411111111111111,-0.65,-0.005509387810845699,0.012360912899705196,0.002181661564992912
1590512643.5172548,-3.6599813940614765,-0.73,8.94,0.2911111111111111,-0.3411111111111111,-0.65,-0.004001065931185585,0.00545212431943441,0.0018173747731448035
1590512643.5272548,-3.6406329094459737,-0.73,8.94,0.2911111111111111,-0.3411111111111111,-0.65,-0.005408127438735562,0.0033415320581094443,0.0011138440193698147
1590512643.5372548,-3.659389298930711,-0.74,9.006259532620474,0.2977777777777777,-0.3533333333333333,-0.6644444444444444,-0.006819772085773012,0.003888684281606327,-0.000749426239173773
1590512643.5472548,-3.6766372323696626,-0.74,9.003186161848312,0.2977777777777777,-0.3533333333333333,-0.6644444444444444,-0.008717013908801667,0.008002636522030671,-0.00036682104455547935
1590512643.5572548,-3.665565262791507,-0.7355652627915071,8.983304211625478,0.2977777777777777,-0.3533333333333333,-0.6644444444444444,-0.006544984694978735,0.0063078723303184375,-0.00012332121063517187
1590512643.5672548,-3.6630077570855093,-0.733007757085509,9.006015514171018,0.2977777777777777,-0.3533333333333333,-0.6644444444444444,-0.006216889293464227,0.0029443969459748594,0.0004346399794674388
1590512643.5772548,-3.6738974220598615,-0.7361025779401387,9.016102577940138,0.2904159805535952,-0.3507350519600924,-0.6609800692801232,-0.0024781543437880273,0.0026068043605206623,-0.0006656879869687056
1590512643.5872548,-3.6646992802244722,-0.7351002399251758,8.979398560448944,0.2788888888888889,-0.3466666666666667,-0.6555555555555556,0.0016253116941429852,0.003272492347489368,0.0011126997416998536
1590512643.5972548,-3.664397033326912,-0.74,8.899610383355808,0.2788888888888889,-0.3466666666666667,-0.6555555555555556,-0.0012648782869469838,0.005628201416932807,-0.00017404750445052788
1590512643.6072547,-3.6773863137885656,-0.7326136862114344,8.916931568942827,0.2788888888888889,-0.3466666666666667,-0.6555555555555556,0.0018469476598797648,0.004933541005029665,0.0005206129074526147
1590512643.6172547,-3.6751420746319754,-0.7348579253680246,8.944573776104074,0.2788888888888889,-0.3466666666666667,-0.6555555555555556,0.003272492347489368,0.004363323129985824,0.0005609133294452849
1590512643.6272547,-3.6741402251791198,-0.7420701125895599,8.9703505629478,0.2802689639485955,-0.3439065165472535,-0.6569356306152622,0.002143421079526685,0.0036858803692082142,-0.00022581425359253655
1590512643.6372547,-3.684309314204978,-0.7443093142049777,8.987237256819911,0.2855555555555556,-0.3333333333333333,-0.6622222222222223,-0.002492040326929193,0.00015969449668761274,-0.001401209544432737
1590512643.6472547,-3.6578359047436355,-0.7360820476281823,8.899589761859088,0.2855555555555556,-0.3333333333333333,-0.6622222222222223,-0.0019455953928032071,-0.005498903951708314,-0.0015182130876498316
1590512643.6572547,-3.6554566268627258,-0.7290867462745485,8.929109641764532,0.2855555555555556,-0.3333333333333333,-0.6622222222222223,-0.0028765077476339486,-0.007040589822429361,-0.0004956051274506251
1590512643.6672547,-3.66,-0.7301192449601626,8.986865408266938,0.2855555555555556,-0.3333333333333333,-0.6622222222222223,-0.003995377000046909,-0.006177038565039821,0.00036794612993891473
1590512643.6772547,-3.66,-0.7482008384002417,9.02,0.28655508977764355,-0.3357322154663444,-0.6600232469336288,-0.002879976176348984,-0.0056504119980524715,0.0008945726969262638
1590512643.6872547,-3.6668585766113995,-0.74,9.02,0.2911111111111111,-0.3466666666666667,-0.65,3.1401191277235065e-05,-0.0046745980720225835,-0.0007481546491824606
1590512643.6972547,-3.678785046728972,-0.741214953271028,9.009065420560747,0.2911111111111111,-0.3466666666666667,-0.65,0.002181661564992912,-0.0009582999397632417,-0.0019165998795264835
1590512643.7072546,-3.66635868309588,-0.7390760492876396,8.92271736619176,0.2911111111111111,-0.3466666666666667,-0.65,0.0029760736785607008,-0.0003972060567838943,-0.0007944121135677886
1590512643.7172546,-3.66255224136944,-0.7225522413694395,8.927865689586076,0.2911111111111111,-0.3466666666666667,-0.65,0.004363323129985824,-0.0013692371275110093,-0.0019032552199783588
1590512643.7272546,-3.67,-0.7350883471259226,8.985088347125924,0.2911111111111111,-0.35345112950123014,-0.6528268595144014,0.0038082705622874483,-0.0027367141326912875,-0.002755988485591583
1590512643.7372546,-3.664483109440857,-0.734483109440857,8.984483109440857,0.2911111111111111,-0.36,-0.6555555555555556,0.003874291752047085,-0.002670692942931651,-0.0019561255117549552
1590512643.7472546,-3.66,-0.7341889138175905,8.933921948006505,0.2911111111111111,-0.36,-0.6555555555555556,0.003906383516240576,-0.005837178474954895,0.00045693961374524783
1590512643.7572546,-3.66,-0.7349998176579994,8.905001276394003,0.2911111111111111,-0.36,-0.6555555555555556,0.0027270570658144144,-0.013090048951664376,-0.001636345625878313
1590512643.7672546,-3.6653869490555238,-0.73,8.977708643388667,0.2911111111111111,-0.36,-0.6555555555555556,0.002769286550343464,-0.015859255940300934,-0.0031880731592847196
1590512643.7772546,-3.67,-0.7350770154030806,9.02523104620924,0.2944957880464981,-0.36,-0.6521708786201684,0.006041574689933863,-0.019131544079891333,-0.001627845096504013
1590512643.7872546,-3.661263961543899,-0.7312639615438993,9.022527923087798,0.2977777777777777,-0.36,-0.6488888888888888,0.010632554192969131,-0.02562843151592409,-0.001567307765745827
1590512643.7972546,-3.642060364868592,-0.7239698175657039,8.964271641908665,0.2977777777777777,-0.36,-0.6488888888888888,0.012656929469800971,-0.03011022198974427,-0.0008825418045234142
1590512643.8072546,-3.63,-0.73,8.922318043096272,0.2977777777777777,-0.36,-0.6488888888888888,0.009311758489554506,-0.02407767089159129,0.00041898575301982854
1590512643.8172545,-3.6399865951742627,-0.7349932975871314,8.954966487935657,0.2977777777777777,-0.36,-0.6488888888888888,0.004912394120371104,-0.014189573610382852,0.0016340528142624528
1590512643.8272545,-3.6534671724051218,-0.7365328275948784,8.986934344810244,0.29546632950769663,-0.35075420691967557,-0.6492741302672357,0.0010470320486742214,-0.0042319269285191205,0.002894282508716471
1590512643.8372545,-3.6643120845679507,-0.73,8.991375830864099,0.2911111111111111,-0.3333333333333333,-0.65,-0.002501957157531012,0.004533538856717172,0.0012409106483032078
1590512643.8472545,-3.6487887130075705,-0.73,8.932274604267034,0.2911111111111111,-0.3333333333333333,-0.65,-0.004363323129985824,0.006478919238089756,0.0017353443590781544
1590512643.8572545,-3.6348123320683636,-0.7348123320683637,8.923686324478547,0.2911111111111111,-0.3333333333333333,-0.65,-0.004363323129985824,0.00545415391248228,0.0022226043563361624
1590512643.8672545,-3.6443156975014874,-0.7356843024985128,8.964315697501489,0.2911111111111111,-0.3333333333333333,-0.65,-0.006717170971268472,0.006395693048995338,0.001090830782496456
1590512643.8772545,-3.6375699912510937,-0.73,8.978286672499271,0.29387333527753473,-0.3365559281941609,-0.658286672499271,-0.010269444914801683,0.011703526328477397,0.001090830782496456
1590512643.8872545,-3.62,-0.7249636045153756,9.005109186453874,0.2977777777777777,-0.3411111111111111,-0.67,-0.014754006484182649,0.0267928464066158,0.001090830782496456
1590512643.8972545,-3.6486134210017407,-0.7295378070005801,9.007282923999226,0.2977777777777777,-0.3411111111111111,-0.67,-0.020971754446313124,0.041199482559254555,0.002131244129870759
1590512643.9072545,-3.705645961111836,-0.752177019444082,8.993062116664492,0.2977777777777777,-0.3411111111111111,-0.67,-0.02617993877991494,0.05164744961272051,0.003888371165246241
1590512643.9172544,-3.680801529323411,-0.7508015293234109,9.027735372431215,0.2977777777777777,-0.3411111111111111,-0.67,-0.023169746290140635,0.04239806856839762,0.002181661564992912
1590512643.9272544,-3.6605266099732505,-0.7315798299197509,9.002106439893002,0.2974267044622775,-0.34070152557636085,-0.6684786822994992,-0.016132684789770417,0.02692610414089677,0.0021242173280738067
1590512643.9372544,-3.6774518788225907,-0.7562740605887046,9.028822181766113,0.2911111111111111,-0.3333333333333333,-0.6411111111111111,-0.009966953905682122,0.019912910986721103,0.001090830782496456
1590512643.9472544,-3.69,-0.7540805908547844,8.956952318887803,0.2911111111111111,-0.3333333333333333,-0.6411111111111111,-0.003874244225875324,0.01587338283333634,0.001090830782496456
1590512643.9572544,-3.684007866825876,-0.7360314673035049,8.891984266348247,0.2911111111111111,-0.3333333333333333,-0.6411111111111111,0.005229122655321917,0.00480909495639338,-0.0002164498813340232
1590512643.9672544,-3.6845043001778133,-0.7290086003556265,8.94053870160032,0.2911111111111111,-0.3333333333333333,-0.6411111111111111,0.009217989188727944,-0.0024567146437814817,0.0003831980037724333
1590512643.9772544,-3.694886578053587,-0.7424432890267936,8.992443289026793,0.29464030637203514,-0.33523366924306164,-0.6481695016329592,0.010083998530564329,-0.006253718376770952,0.0013820971007042395
1590512643.9872544,-3.7076564300186723,-0.7476564300186723,9.002343569981328,0.3055555555555556,-0.3411111111111111,-0.67,0.011419595480277944,-0.01128308453653857,-0.00160211843780984
1590512643.9972544,-3.6841480013984382,-0.74,8.9413080060599,0.3055555555555556,-0.3411111111111111,-0.67,0.014819154193824886,-0.026551693300405875,-0.002696097412866896
1590512644.0072544,-3.67,-0.7345920833021946,8.917855416884638,0.3055555555555556,-0.3411111111111111,-0.67,0.017542286138075368,-0.03390474787552221,-0.002181661564992912
1590512644.0172544,-3.6654732058613986,-0.7345267941386017,8.986214353108812,0.3055555555555556,-0.3411111111111111,-0.67,0.017062733384716384,-0.0373755682360922,-0.002181661564992912
1590512644.0272543,-3.66,-0.74,9.025871430752787,0.29454603756298675,-0.34340476069289627,-0.6640365110873586,0.017973773208467485,-0.04441395233264452,-0.0026320186072457626
1590512644.0372543,-3.643270901860671,-0.74,8.997694535814228,0.2788888888888889,-0.3466666666666667,-0.6555555555555556,0.02303318999751476,-0.05321965186380108,-0.004489066695075012
1590512644.0472543,-3.633771996215705,-0.7362280037842952,8.957368022705772,0.2788888888888889,-0.3466666666666667,-0.6555555555555556,0.024409738173277126,-0.05439798703225396,-0.005042692954127183
1590512644.0572543,-3.6419925838392895,-0.7319925838392893,8.924981459598223,0.2788888888888889,-0.3466666666666667,-0.6555555555555556,0.024763072229128213,-0.052251198970399794,-0.004363323129985824
1590512644.0672543,-3.656187448373898,-0.7385623451216935,8.977625103252205,0.2788888888888889,-0.3466666666666667,-0.6555555555555556,0.02264838538465095,-0.052100816512055254,-0.004779207997346739
1590512644.0772543,-3.65,-0.7165300010695568,8.993469998930443,0.28120222150918434,-0.35129333190725753,-0.6586399990492828,0.02513383170948918,-0.05458626283689348,-0.00545415391248228
1590512644.0872543,-3.6462964762681045,-0.7137035237318954,9.0,0.2855555555555556,-0.36,-0.6644444444444444,0.026462786024319864,-0.06076311838027338,-0.004646170374390746
1590512644.0972543,-3.6407066884436126,-0.7207066884436123,8.991519738676653,0.2855555555555556,-0.36,-0.6644444444444444,0.025166195748211165,-0.06732315751160955,-0.0028099658427332723
1590512644.1072543,-3.5540915670927693,-0.7254329317663223,8.893701204701033,0.2855555555555556,-0.36,-0.6644444444444444,0.023190799610880566,-0.060279046215760065,0.004767061932006557
1590512644.1172543,-3.506532258064516,-0.7163037634408602,8.943266129032258,0.2855555555555556,-0.36,-0.6644444444444444,0.01358700115778852,-0.04543368855914001,0.00614178783316889
1590512644.1272542,-3.618287886403619,-0.711712113596381,9.006848454385525,0.2865067297757673,-0.36,-0.6593081036553015,0.002525441861864125,-0.020203534894912997,0.0045203408054507255
1590512644.1372542,-3.606393654658196,-0.718196827329098,9.037295240993647,0.2911111111111111,-0.36,-0.6344444444444445,-0.00158256984639051,0.00882499407275046,-9.834781277881085e-05
1590512644.1472542,-3.5435061117507285,-0.6955843519584547,8.930518335252186,0.2911111111111111,-0.36,-0.6344444444444445,-0.008471674618333817,0.017524236735888425,-0.00012748582081891554
1590512644.1572542,-3.533380144095738,-0.6946760288191476,8.872084259372329,0.2911111111111111,-0.36,-0.6344444444444445,-0.02059974455892147,0.04767379426547859,0.0031311332528031746
1590512644.1672542,-3.594260445603492,-0.7152268647126632,8.954260445603492,0.2911111111111111,-0.36,-0.6344444444444445,-0.03952381074840122,0.09083592016164815,0.005038905593745227
1590512644.1772542,-3.6890506764503552,-0.7490116945654667,9.049050676450355,0.2831007159418074,-0.35599480241534814,-0.6407860072868099,-0.05432592432672329,0.12916201872277974,0.004690997591134725
1590512644.1872542,-3.7668122998078153,-0.761208199871877,9.10483279948751,0.2644444444444444,-0.3466666666666667,-0.6555555555555556,-0.05315064252682092,0.12611569163373823,0.004974635601816637
1590512644.1972542,-3.715846680988769,-0.7457308351235961,8.995962526853942,0.2644444444444444,-0.3466666666666667,-0.6555555555555556,-0.035569632646836276,0.081900766452263,0.0025005485448922104
1590512644.2072542,-3.659963449237724,-0.7349817246188621,8.925054826143413,0.2644444444444444,-0.3466666666666667,-0.6555555555555556,-0.016889935315218714,0.036489005773202215,0.0005474089260789338
1590512644.2172542,-3.652934321301685,-0.7329343213016851,8.95173728520674,0.2644444444444444,-0.3466666666666667,-0.6555555555555556,-0.01103888420697704,0.021496530849767794,0.001410915582657781
1590512644.2272542,-3.6587325988083554,-0.7387325988083553,8.974930395233422,0.2644444444444444,-0.3466666666666667,-0.6555555555555556,-0.009141402330057254,0.02086403689079453,0.002043409541631043
1590512644.2372541,-3.666339889751942,-0.7163398897519418,8.989509834627913,0.2788888888888889,-0.3411111111111111,-0.6555555555555556,-0.014818906114720472,0.026818044722181487,0.002580917657584167
1590512644.2472541,-3.6841485022044584,-0.7382970044089168,8.980960484568792,0.2788888888888889,-0.3411111111111111,-0.6555555555555556,-0.019901717474203027,0.032353387472251804,0.001090830782496456
1590512644.2572541,-3.687689879896274,-0.75,8.946930360311178,0.2788888888888889,-0.3411111111111111,-0.6555555555555556,-0.023328585722174017,0.034402595015804956,0.0005868407584148226
1590512644.267254,-3.6805343250989493,-0.75,8.968397024703153,0.2788888888888889,-0.3411111111111111,-0.6555555555555556,-0.028011885385431368,0.03284149512805251,-0.0009742591293376293
1590512644.277254,-3.681658667568768,-0.74,8.986634670275071,0.2788888888888889,-0.33982103633540295,-0.6555555555555556,-0.020363919739044615,0.02545620852313885,0.003272492347489368
1590512644.287254,-3.692696665704388,-0.7417977771362586,9.01820222286374,0.2788888888888889,-0.3333333333333333,-0.6555555555555556,-0.018249962706394857,0.021424401521869266,0.0036647064755492226
1590512644.297254,-3.710218192453934,-0.7534787949692893,8.983696987423222,0.2788888888888889,-0.3333333333333333,-0.6555555555555556,-0.012426218480362378,0.01425220348603179,0.007280138918151691
1590512644.307254,-3.6855023311088764,-0.7355023311088765,8.941004662217752,0.2788888888888889,-0.3333333333333333,-0.6555555555555556,-0.007526223830161579,0.006899886126088059,0.006544984694978735
1590512644.317254,-3.6638367903216773,-0.7169183951608387,8.928489629034969,0.2788888888888889,-0.3333333333333333,-0.6555555555555556,-0.01225291159218346,0.0046994740717905496,0.007217286578588186
1590512644.327254,-3.6422063421170163,-0.7068825368468066,8.968441268423405,0.2799280432732867,-0.3354116421021289,-0.6555555555555556,-0.015101599716410292,0.00545415391248228,0.009066708737051829
1590512644.337254,-3.569827535808243,-0.69,8.96377155802397,0.2855555555555556,-0.3466666666666667,-0.6555555555555556,-0.013357973854350417,0.003397088117223507,0.013376786779275087
1590512644.347254,-3.512316103146484,-0.6823161031464839,8.946948309439453,0.2855555555555556,-0.3466666666666667,-0.6555555555555556,-0.009903680803125276,0.0008381831217342955,0.019129658763411887
1590512644.357254,-3.473877094972067,-0.6811955307262569,8.936122905027933,0.2855555555555556,-0.3466666666666667,-0.6555555555555556,-0.0045095797712143984,0.002181661564992912,0.024666182543199192
1590512644.367254,-3.421793358711258,-0.7,8.98,0.2855555555555556,-0.3466666666666667,-0.6555555555555556,-0.0004194265120964981,0.002181661564992912,0.028781026857004354
1590512644.377254,-3.399694542868057,-0.7,8.98,0.2855555555555556,-0.3466666666666667,-0.6555555555555556,0.0013885286312898292,0.002181661564992912,0.026973071713618027
1590512644.387254,-3.399185361476337,-0.7183707229526745,9.025926807381685,0.2855555555555556,-0.3415636880687015,-0.6688232999102649,0.0011796940603183358,0.004185596574342064,0.031189776303287828
1590512644.397254,-3.4,-0.72,9.04621077464359,0.2855555555555556,-0.3411111111111111,-0.67,0.0019749913819635456,0.003479162530518735,0.02898161089399595
1590512644.407254,-3.4534745710971366,-0.7323163807314244,8.968841809634288,0.2855555555555556,-0.3411111111111111,-0.67,-0.002055322594701943,-0.001549966713538068,0.018118886441444586
1590512644.417254,-3.4748832075062586,-0.75,8.965116792493742,0.2855555555555556,-0.3411111111111111,-0.67,-0.0002535975685234511,0.003272492347489368,0.004033285053059721
1590512644.427254,-3.447983369970372,-0.7419889133135812,8.97519334798815,0.2860006159270233,-0.3411111111111111,-0.667685686068368,0.0022690489645808437,0.003622041945841095,-0.005195015138423865
1590512644.437254,-3.3277224505399983,-0.6618149670266654,8.927088980215999,0.29045472405407413,-0.3411111111111111,-0.6445243238077033,0.003143611050220696,0.007120290288400503,-0.024435381022500608
1590512644.447254,-3.2712463789645696,-0.5677449305503973,8.885994206343312,0.2911111111111111,-0.3411111111111111,-0.6411111111111111,0.000708882011146215,0.009626502656792985,-0.05803409359852922
1590512644.457254,-3.232303535616133,-0.5132249498625864,8.823685656985813,0.2911111111111111,-0.3411111111111111,-0.6411111111111111,-0.0009903200801502589,0.008776901611144746,-0.07842451869408693
1590512644.467254,-2.8730090713352863,-0.43851576012142174,8.931394938406692,0.2911111111111111,-0.3411111111111111,-0.6411111111111111,-0.0037413828656229263,0.011685068977274168,-0.11671092358939261
1590512644.477254,-1.9033057428258797,-0.793826903392044,9.146062087466026,0.2911111111111111,-0.3411111111111111,-0.6411111111111111,0.005140758086209648,0.0270269488031668,-0.16758136722261557
1590512644.487254,-2.0000729318608044,-0.6016545113565326,8.782854761408627,0.3055555555555556,-0.3466666666666667,-0.6644444444444444,0.032102111150651064,0.04145156973486533,-0.3322751483625603
1590512644.497254,-2.13,-0.58,8.92,0.3055555555555556,-0.3466666666666667,-0.6644444444444444,0.002181661564992912,0.04145156973486533,-0.43305982065109305
1590512644.507254,-2.2998070571175377,-0.6903858857649238,9.04,0.3055555555555556,-0.3466666666666667,-0.6644444444444444,-0.0006909415151356145,0.0354958955391552,-0.5628127493612544
1590512644.5172539,-2.2913596632562636,-0.7072806734874728,9.04,0.3055555555555556,-0.3466666666666667,-0.6644444444444444,0.016816945270788985,0.061296991855254605,-0.6558809896443273
1590512644.5272539,-2.2242604959603978,-0.8250441320693036,8.990695371970299,0.3055555555555556,-0.3466666666666667,-0.6644444444444444,0.029495171846897823,0.07531006471174896,-0.7640848082575029
1590512644.5372539,-2.172794898375899,-1.2369691829233813,9.030807652436152,0.2788888888888889,-0.3333333333333333,-0.6344444444444445,0.04824996107189983,0.09258104582212531,-0.8926964981530857
1590512644.5472538,-2.277561911837543,-1.0770730146937428,8.902926985306257,0.2788888888888889,-0.3333333333333333,-0.6344444444444445,0.039349554845381586,0.08875622462492012,-0.995929900149587
1590512644.5572538,-2.33010513556955,-1.0720210271139101,8.916063081341731,0.2788888888888889,-0.3333333333333333,-0.6344444444444445,0.032956851845265055,0.08489874671059246,-1.0750697996384728
1590512644.5672538,-2.3809867540934184,-1.0756052983626327,8.918026491813162,0.2788888888888889,-0.3333333333333333,-0.6344444444444445,0.03889815876126515,0.09924118376385214,-1.1545150715345514
1590512644.5772538,-2.4204012293304675,-1.0604012293304674,8.840601843995701,0.2793346992560749,-0.3334113501475909,-0.6347453664422951,0.04134215140873675,0.10689047485203983,-1.2148715310340683
1590512644.5872538,-2.4520342402473743,-1.0920342402473746,8.888051360371062,0.3144824891637494,-0.3395622133814339,-0.6584701246299752,0.03271558589593459,0.10602781830075961,-1.2761201461749638
1590512644.5972538,-2.484709354183668,-1.0920182946501433,8.915290645816333,0.3233333333333333,-0.3411111111111111,-0.6644444444444444,0.027197382297993924,0.10734174027115752,-1.3637251653844675
1590512644.6072538,-2.5404285199172563,-1.1158979371073958,8.859571480082742,0.3233333333333333,-0.3411111111111111,-0.6644444444444444,0.026329093995747916,0.11255147008463355,-1.41755904012372
1590512644.6172538,-2.566242963279379,-1.206261727867702,8.901271110161865,0.3233333333333333,-0.3411111111111111,-0.6644444444444444,0.02563349993913852,0.11617450178540074,-1.4985426040231369
1590512644.6272538,-2.547046789424705,-1.2382553509588248,8.958859631725884,0.3233333333333333,-0.3411111111111111,-0.6644444444444444,0.02284152962622764,0.11896647209831164,-1.5362342032474339
1590512644.6372538,-2.59,-1.27112214069918,8.98,0.35,-0.3144444444444445,-0.6555555555555556,0.03187890581578875,0.12379430685611449,-1.6009124211907768
1590512644.6472538,-2.6046035491323796,-1.318775991741631,8.96539645086762,0.35,-0.3144444444444445,-0.6555555555555556,0.03817907738737596,0.13698953571091632,-1.6560767942271686
1590512644.6572537,-2.655706291857596,-1.4050279784984137,8.918587416284808,0.35,-0.3144444444444445,-0.6555555555555556,0.03911581918993394,0.137370686085316,-1.7036618086932154
1590512644.6672537,-2.6481661694676575,-1.4623331912764734,8.948833404361762,0.35,-0.3144444444444445,-0.6555555555555556,0.04292416804723621,0.14520774991532012,-1.7432382218145523
1590512644.6772537,-2.70256795567826,-1.477876558765217,8.941061720617391,0.35,-0.3144444444444445,-0.6555555555555556,0.045467445605292624,0.14605550910133894,-1.7729097933252107
1590512644.6872537,-2.6700853118180015,-1.5598293763639972,8.892102374181603,0.3615309099192441,-0.2931566107473786,-0.6626515001212442,0.04407328604314429,0.14791293167623198,-1.80569985724489
1590512644.6972537,-2.6722794548651816,-1.6122794548651818,8.807205451348183,0.3644444444444445,-0.2877777777777778,-0.6644444444444444,0.04338458134643308,0.15281254051829968,-1.8548295442449005
1590512644.7072537,-2.6934362130998313,-1.6289574753998874,8.736718106549915,0.3644444444444445,-0.2877777777777778,-0.6644444444444444,0.0413210142799053,0.14993237169699705,-1.8847618158936705
1590512644.7172537,-2.7364700130378097,-1.6764732724902216,8.76705997392438,0.3644444444444445,-0.2877777777777778,-0.6644444444444444,0.03695989265687388,0.15136877087099615,-1.9088258709718946
1590512644.7272537,-2.7123445049466985,-1.7890589769154077,8.815310990106603,0.3644444444444445,-0.2877777777777778,-0.6644444444444444,0.03608266442790216,0.14961431441305273,-1.9228615226354424
1590512644.7372537,-2.7250212225792376,-1.8150212225792377,8.872574279027331,0.38947981540984045,-0.2727565551985402,-0.6577683455203388,0.034358854624366726,0.15108237840003078,-1.9406111123039114
1590512644.7472537,-2.688437925726721,-1.8836448399709842,8.964793085755737,0.3977777777777778,-0.2677777777777778,-0.6555555555555556,0.03605421444577765,0.15081864110148402,-1.9663018549159546
1590512644.7572536,-2.6661755807575944,-1.9355903115656128,8.89058526919198,0.3977777777777778,-0.2677777777777778,-0.6555555555555556,0.0368636961518736,0.1548660496319637,-1.97520615368301
1590512644.7672536,-2.623325300338105,-1.9980929429537444,8.916185885907488,0.3977777777777778,-0.2677777777777778,-0.6555555555555556,0.04165959738786857,0.15817046346198613,-1.984533234840558
1590512644.7772536,-2.570523163801165,-1.9830066182289043,8.88601323645781,0.3977777777777778,-0.2677777777777778,-0.6555555555555556,0.04330526012832785,0.15817046346198613,-1.9870017289512467
1590512644.7872536,-2.535762711864407,-2.059322033898305,8.901525423728813,0.44222222222222224,-0.2344444444444445,-0.67,0.04163645630816981,0.16025968174032676,-1.9967565030310974
1590512644.7972536,-2.4931669755778456,-2.1610556585259486,8.799443414740516,0.44222222222222224,-0.2344444444444445,-0.67,0.04432415818940394,0.15972191217084636,-1.9903055601296682
1590512644.8072536,-2.5148478862109838,-2.1734347425260108,8.718586856315028,0.44222222222222224,-0.2344444444444445,-0.67,0.04942887141937253,0.16343728123060228,-1.9869648633576449
1590512644.8172536,-2.4911740136591978,-2.1892173242272017,8.758043310568004,0.44222222222222224,-0.2344444444444445,-0.67,0.04598564622998766,0.16257647493325605,-1.9895472822496836
1590512644.8272536,-2.5092268364443155,-2.2669073457772635,8.779226836444316,0.44222222222222224,-0.2344444444444445,-0.67,0.04476623161267693,0.16358244784414616,-1.9854807022648386
1590512644.8372536,-2.4248585901224144,-2.3040565639510344,8.814056563951034,0.47722480183856286,-0.18430561418319966,-0.6832442193142911,0.0400803185443738,0.15619462771369894,-1.9834545267283574
1590512644.8472536,-2.316696124819145,-2.324955812771282,8.830088374457436,0.4833333333333333,-0.17555555555555555,-0.6855555555555556,0.039630305044752664,0.1547177726770566,-1.976595018041434
1590512644.8572536,-2.3002948422164,-2.3495577366754,8.7808845266492,0.4833333333333333,-0.17555555555555555,-0.6855555555555556,0.041419407438302455,0.15382322148028174,-1.9712277108607847
1590512644.8672535,-2.33,-2.541480238400358,8.848519761599642,0.4833333333333333,-0.17555555555555555,-0.6855555555555556,0.0423809315561074,0.15800899450073175,-1.9683431385073697
1590512644.8772535,-2.33,-2.5501246641914936,8.840089045851068,0.4833768668605216,-0.17547244609455964,-0.6855555555555556,0.04145739777218918,0.15708351803770557,-1.9711428800457438
1590512644.8872535,-2.2819761856437317,-2.587984123762488,8.859985116027334,0.5077777777777778,-0.1288888888888889,-0.6855555555555556,0.041668220541113125,0.15773337347386177,-1.9802955014157104
1590512644.8972535,-2.092945888135439,-2.4747294406771947,8.743927850847252,0.5077777777777778,-0.1288888888888889,-0.6855555555555556,0.03105916385736826,0.15280374943564762,-1.9899092539333845
1590512644.9072535,-2.1120343148409413,-2.5701715742047058,8.769379086454588,0.5077777777777778,-0.1288888888888889,-0.6855555555555556,0.04147028557726287,0.16043857203023698,-1.9843566556827745
1590512644.9172535,-2.12,-2.629702527308638,8.592825990567938,0.5077777777777778,-0.1288888888888889,-0.6855555555555556,0.07268004696640037,0.17222146668696417,-1.9798903194679371
1590512644.9272535,-2.047661937075879,-2.676033312769895,8.787285626156693,0.5077777777777778,-0.1288888888888889,-0.6855555555555556,0.05371719137123973,0.16804715895532388,-1.9934875350482688
1590512644.9372535,-1.928840463814474,-2.821739304278289,8.816956417433028,0.5294203207605847,-0.09281798391754409,-0.672930738815585,0.05071573692900276,0.16757690534674743,-2.0165192927640754
1590512644.9472535,-1.7931457141060312,-2.801523174643104,8.750099364819823,0.5344444444444445,-0.08444444444444445,-0.67,0.046739571068565994,0.16907877128695067,-2.0497324385594
1590512644.9572535,-1.7140129551600527,-2.8191082321866547,8.635796490786744,0.5344444444444445,-0.08444444444444445,-0.67,0.044821338860518325,0.16907877128695067,-2.075628573368043
1590512644.9672534,-1.7336868406440866,-2.89106052193226,8.708956135480289,0.5344444444444445,-0.08444444444444445,-0.67,0.0438627842518661,0.17080132694792788,-2.101057589126933
1590512644.9772534,-1.713162493218742,-2.883162493218742,8.756837506781258,0.5344444444444445,-0.08444444444444445,-0.67,0.046560749152103606,0.1712604328519436,-2.1328568931692793
1590512644.9872534,-1.638673158603543,-2.8958504091992125,8.82340163679685,0.561742371398644,-0.02720685566950977,-0.6981785052430448,0.045176712220380985,0.16953142142497696,-2.1557303035381774
1590512644.9972534,-1.6077697513497073,-2.9928674625503766,8.933627860999163,0.5688888888888889,-0.012222222222222223,-0.7055555555555556,0.052464141440416764,0.17586703836996548,-2.1775762788778246
1590512645.0072534,-1.5519563151091171,-3.0646275948597066,8.774160900311763,0.5688888888888889,-0.012222222222222223,-0.7055555555555556,0.05507341348305128,0.18195533980277936,-2.184534337658183
1590512645.0172534,-1.4850561930675499,-3.071412516266414,8.795762451200758,0.5688888888888889,-0.012222222222222223,-0.7055555555555556,0.04736796851460211,0.1801411607343334,-2.1919412869026345
1590512645.0272534,-1.4271672778895066,-3.0879522063172837,8.74614338104815,0.5688888888888889,-0.012222222222222223,-0.7055555555555556,0.052780569426733745,0.18194536103837727,-2.197353887814766
1590512645.0372534,-1.3589014603341667,-3.078612682541771,8.818901460334166,0.5688888888888889,0.04444444444444445,-0.7211111111111111,0.04814788728869717,0.17841074898233475,-2.202872849207428
1590512645.0472534,-1.2881757589591418,-3.069391919653047,8.74331111618352,0.5688888888888889,0.04444444444444445,-0.7211111111111111,0.04895472266020308,0.18196974684870199,-2.1987832011325112
1590512645.0572534,-1.259365811931807,-3.0609512821022897,8.64095128210229,0.5688888888888889,0.04444444444444445,-0.7211111111111111,0.04690572364734761,0.17889624832941878,-2.193522345227038
1590512645.0672534,-1.2259909685889911,-3.1110135471165132,8.691013547116512,0.5688888888888889,0.04444444444444445,-0.7211111111111111,0.04690572364734761,0.17889624832941878,-2.1862410839311694
1590512645.0772533,-1.22,-3.1258654895009546,8.711730979001908,0.5688888888888889,0.04444444444444445,-0.7211111111111111,0.04882520059796287,0.17825642267921368,-2.1766163238877354
1590512645.0872533,-1.1650007774840616,-3.1849992225159385,8.795623930959415,0.5635417422553949,0.08416610515039999,-0.7310415262876,0.04417873150146119,0.1755556108619064,-2.158754288181196
1590512645.0972533,-1.065005668150524,-3.1256313766693395,8.755005668150524,0.5611111111111111,0.10222222222222224,-0.7355555555555555,0.04554187601957347,0.1724877720570789,-2.132848433224463
1590512645.1072533,-1.0764021164021165,-3.169206349206349,8.708994708994709,0.5611111111111111,0.10222222222222224,-0.7355555555555555,0.04044731282399558,0.1705620702874882,-2.110013028834653
1590512645.1172533,-1.048186255742726,-3.1990882465543646,8.738176493108728,0.5611111111111111,0.10222222222222224,-0.7355555555555555,0.044128385785795046,0.16739332914606278,-2.0865635679853156
1590512645.1272533,-1.0144059271343122,-3.1554207449700926,8.853564437194128,0.5611111111111111,0.10222222222222224,-0.7355555555555555,0.043503624706070596,0.16495575420414205,-2.0486341875605394
1590512645.1372533,-0.9968740746224459,-3.2253185149541013,8.774992596979569,0.5370469145855954,0.14451687066100746,-0.7545152255453559,0.043258308689891146,0.16256772363937674,-2.0123080671496942
1590512645.1472533,-0.9808005982838699,-3.3159970085806503,8.84879162402582,0.5244444444444445,0.16666666666666666,-0.7644444444444445,0.028580745441100168,0.16646045109572816,-1.95917819857549
1590512645.1572533,-0.8843457567923849,-3.2448430946225884,8.600367054150759,0.5244444444444445,0.16666666666666666,-0.7644444444444445,0.03919563733009928,0.1639158927800358,-1.9223209024195231
1590512645.1672533,-0.8484256496890837,-3.294256496890838,8.715918191294346,0.5244444444444445,0.16666666666666666,-0.7644444444444445,0.028180337604262973,0.16437197820064878,-1.8608174175868837
1590512645.1772532,-0.8025869359419375,-3.2941956453139793,8.752097822656989,0.5244444444444445,0.16666666666666666,-0.7644444444444445,0.025951101826868668,0.15437152220356268,-1.813440946353724
1590512645.1872532,-0.739291576127086,-3.319291576127086,8.741416847745828,0.5044444444444445,0.1955555555555556,-0.7777777777777778,0.03444292269930857,0.14819843230599203,-1.7456176256686287
1590512645.1972532,-0.7215944811290901,-3.30159448112909,8.776811037741819,0.5044444444444445,0.1955555555555556,-0.7777777777777778,0.02286020110856183,0.14433752510907638,-1.698321512506413
1590512645.2072532,-0.7112686174472076,-3.3174627651055846,8.640297879155321,0.5044444444444445,0.1955555555555556,-0.7777777777777778,0.0265788460810983,0.13637009459966148,-1.6454854548190705
1590512645.2172532,-0.6327198174049206,-3.184759680458611,8.668300114121925,0.5044444444444445,0.1955555555555556,-0.7777777777777778,0.01884080935724544,0.13315552697826905,-1.5836330939760979
1590512645.2272532,-0.6220626988619727,-3.322871420484491,8.693811903414081,0.5044444444444445,0.1955555555555556,-0.7777777777777778,0.014214997096787592,0.13134970498230675,-1.5306209453931656
1590512645.2372532,-0.5720742958391886,-3.3312445775035133,8.815021689985947,0.5097695226845346,0.1955555555555556,-0.7575424804654353,0.015181122724814734,0.1235806572275743,-1.4535654417394237
1590512645.2472532,-0.5411692832279605,-3.3011692832279604,8.63740546044375,0.51,0.1955555555555556,-0.7566666666666667,0.015271630954950384,0.11907062064391583,-1.3868577596029854
1590512645.2572532,-0.5066808607396077,-3.3,8.679978708890589,0.51,0.1955555555555556,-0.7566666666666667,0.002550690991917629,0.11799191672332565,-1.3261113945855671
1590512645.2672532,-0.48555055364724453,-3.3361236158818888,8.639426937765355,0.51,0.1955555555555556,-0.7566666666666667,-0.0007880950435808386,0.11386924929171306,-1.2648011051626367
1590512645.2772532,-0.4509560853199498,-3.335478042659975,8.670826850690087,0.51,0.1955555555555556,-0.7566666666666667,-0.002674930591356429,0.11156352069270498,-1.1942455098230034
1590512645.2872531,-0.4223577574769721,-3.294715514953944,8.678238504984648,0.5054260852718075,0.22169221114522658,-0.744251755261573,-0.011611862874590321,0.10934026969299984,-1.1356938602753632
1590512645.2972531,-0.3796572951465786,-3.2851713524267105,8.935498667467437,0.5022222222222222,0.24,-0.7355555555555555,-0.028210388375396224,0.10219996508344371,-1.0536711268271768
1590512645.3072531,-0.4066042468389225,-3.2533957531610773,9.026100707806487,0.5022222222222222,0.24,-0.7355555555555555,-0.018989896938765398,0.07373707250834377,-0.9956947201626046
1590512645.317253,-0.2813305781931945,-2.9772619829284306,7.4838380132092235,0.5022222222222222,0.24,-0.7355555555555555,0.08396300348288117,-0.055987160607539506,-0.9332595997517164
1590512645.327253,-0.2715270588235294,-3.332955294117647,8.27886588235294,0.5022222222222222,0.24,-0.7355555555555555,-0.0810867137173242,0.1844415186954978,-0.8149635275940993
1590512645.337253,-0.2100962272289876,-3.1622132262667155,9.078067823605535,0.5755555555555556,0.26666666666666666,-0.8722222222222222,-0.15121444003169765,0.08014415597552055,-0.7466837511302526
1590512645.347253,-0.21705494906593223,-3.3222638285164416,8.215186315824402,0.5755555555555556,0.26666666666666666,-0.8722222222222222,0.036278023236568396,0.03839482204938844,-0.7079707323987484
1590512645.357253,-0.25454889499803635,-3.510921132493127,8.739634046199436,0.5755555555555556,0.26666666666666666,-0.8722222222222222,-0.024756005220357813,0.10081065596826139,-0.6331718689468544
1590512645.367253,-0.2399329801045651,-3.509932980104565,8.732841854100144,0.5755555555555556,0.26666666666666666,-0.8722222222222222,-0.03960914930904452,0.04048065799660064,-0.6071730866098757
1590512645.377253,-0.20963484964397106,-3.4728464661919616,8.531020714411817,0.5755555555555556,0.26666666666666666,-0.8722222222222222,0.01361593431765621,0.04953368669032007,-0.5551767315567884
1590512645.387253,-0.21843284025426246,-3.46,8.893955325848037,0.49977610117692106,0.12534822471732113,-0.7790339742701176,-0.014184882768503188,0.03772727009125731,-0.5103785519534363
1590512645.397253,-0.15176892173395495,-3.4502527031048507,8.715559468306717,0.4933333333333334,0.11333333333333333,-0.7711111111111111,0.0016579145463461037,0.049792297138991956,-0.4679230689457768
1590512645.407253,-0.19363364964281907,-3.676894978142659,8.79726729928564,0.4933333333333334,0.11333333333333333,-0.7711111111111111,0.006941354383298164,0.04161076892188752,-0.43831741799865165
1590512645.417253,-0.18734115742614327,-3.627717523269931,8.620117361392149,0.4933333333333334,0.11333333333333333,-0.7711111111111111,-0.0013398103702455446,0.04243203722491981,-0.41343766870808
1590512645.427253,-0.17423548069561415,-3.539648364869299,8.625290386087718,0.4933333333333334,0.11333333333333333,-0.7711111111111111,0.004144810981003842,0.03671630468598716,-0.3850766286895459
1590512645.437253,-0.16164650898411595,-3.6102418921906083,8.83530236523826,0.4784826826384284,0.18294575846570035,-0.6699410532520711,0.008354240550887453,0.03710143977725757,-0.3448161676753428
1590512645.447253,-0.16842137845645894,-3.596314486174164,8.70841518778374,0.4755555555555556,0.19666666666666666,-0.65,-0.0024691132590184944,0.028074148650882272,-0.31536399634286727
1590512645.457253,-0.15397421832144817,-3.5472645821905284,8.525084110440666,0.4755555555555556,0.19666666666666666,-0.65,0.007290954182368887,0.03025893583923909,-0.2957362125054288
1590512645.467253,-0.1660420562531008,-3.6011471968858526,8.589655764607107,0.4755555555555556,0.19666666666666666,-0.65,0.008931049539827299,0.0281342589373128,-0.2740029296864661
1590512645.477253,-0.011254260886264328,-3.388067838110327,9.038745739113736,0.4755555555555556,0.19666666666666666,-0.65,0.007047875020434696,0.025695535336509062,-0.2430112167053403
1590512645.487253,-0.07929396077921233,-3.2278204169241276,8.60538749227617,0.46367527760613714,0.24319775530188878,-0.6361396757256785,0.06448459881941088,0.1877618869145334,-0.16819806085713968
1590512645.497253,-0.03127648896731476,-3.23,7.765298602904275,0.4622222222222222,0.2488888888888889,-0.6344444444444445,0.09611974348663738,0.1575078699830065,-0.14740350043608746
1590512645.507253,-0.1040885426562797,-3.6435709671290137,8.79741212236367,0.4622222222222222,0.2488888888888889,-0.6344444444444445,-0.03807681329691731,-0.18505667527523467,-0.20729673141322008
1590512645.517253,-0.12541760480325936,-3.742398413208963,9.074283263643187,0.4622222222222222,0.2488888888888889,-0.6344444444444445,-0.10890086377992012,-0.09301300173319596,-0.16950167727060106
1590512645.527253,-0.1347282658170232,-3.4279890760127447,8.115787892580792,0.4622222222222222,0.2488888888888889,-0.6344444444444445,0.0394744699734175,-0.0035718874143284007,-0.10578983181626257
1590512645.537253,-0.08366411447219782,-3.4663783105309403,8.76296874607757,0.4605842991227703,0.2783715046790232,-0.6287117135963628,0.005012810377362509,0.022752016395486963,-0.06188128174123733
1590512645.547253,-0.10323021128114954,-3.52270791548754,8.425086408220459,0.46,0.2888888888888889,-0.6266666666666667,-0.038622159022907124,0.010475745781835417,-0.02769062417768169
1590512645.557253,-0.18124606019777206,-3.6446806053461014,8.666230300988861,0.46,0.2888888888888889,-0.6266666666666667,0.02885217631359211,0.011282958582131675,0.005145746133324955
1590512645.5672529,-0.2077602051720453,-3.66,8.763280615516136,0.46,0.2888888888888889,-0.6266666666666667,-0.011345199657919969,-0.005436902047146794,0.023256680138811485
1590512645.5772529,-0.18104815974180002,-3.76856940096825,8.69038243928995,0.46,0.2888888888888889,-0.6266666666666667,0.014128266043621388,-0.002109042728851371,0.041669426243289946
1590512645.5872529,-0.17,-3.7917195017465235,8.906786726421933,0.4569532502910872,0.325449885395842,-0.6337757493207965,0.014215380651355976,-0.0009970465107132472,0.05796701953697654
1590512645.5972528,-0.15728865046535678,-3.7137319027921407,8.637638960703207,0.4566666666666666,0.3288888888888889,-0.6344444444444445,0.020022935069687886,-0.005943906758307747,0.06306464166264687
1590512645.6072528,-0.17344710826253892,-3.7520648789188864,8.774812407413007,0.4566666666666666,0.3288888888888889,-0.6344444444444445,0.01824349103792853,-0.001693018710312924,0.07440173655844391
1590512645.6172528,-0.1844473922100381,-3.8266578233698856,8.906710883150572,0.4566666666666666,0.3288888888888889,-0.6344444444444445,0.02266053787304197,-0.0033901587029726643,0.08980691115536779
1590512645.6272528,-0.17666528526039507,-3.8199917115623703,8.816656996822765,0.4566666666666666,0.3288888888888889,-0.6344444444444445,0.015993276018823232,-0.002906471077882531,0.10399539767091541
1590512645.6372528,-0.17,-3.7707233373415963,8.720524465821848,0.45752561691281507,0.3318093197257937,-0.6322111738044585,-0.006691945663872094,0.006028174476872469,0.12017088731982903
1590512645.6472528,-0.1744851310627168,-3.823158014442486,8.723592994825724,0.4622222222222222,0.3477777777777778,-0.62,0.005109667975939074,-0.005791134843926144,0.13895237829665863
1590512645.6572528,-0.2016135273828552,-3.9391932363085727,8.908705308320013,0.4622222222222222,0.3477777777777778,-0.62,-0.00047480091432965804,-0.005718166713125193,0.1556020052495445
1590512645.6672528,-0.1987851841718253,-3.845140736687301,8.668622216902083,0.4622222222222222,0.3477777777777778,-0.62,0.004809351633701286,-0.009305190613730798,0.1728813270346148
1590512645.6772528,-0.17122557188304802,-3.739289501590668,8.688454779578851,0.4622222222222222,0.3477777777777778,-0.62,0.0056653464196827754,-0.010296047856906786,0.191127896997624
1590512645.6872528,-0.182615161757605,-3.690953935296958,8.871661226460647,0.4742836418262782,0.3512956918289608,-0.6360818928054081,0.012673736595384802,-0.010414921533037916,0.21187953699766357
1590512645.6972528,-0.19666208521500098,-3.7022298579749986,8.834418482885006,0.4888888888888889,0.3555555555555556,-0.6555555555555556,0.0067837266372961745,-0.01806214158814997,0.23065327392724852
1590512645.7072527,-0.19276179281443245,-3.7172382071855674,8.625143864670108,0.4888888888888889,0.3555555555555556,-0.6555555555555556,0.003199684814298773,-0.016528787369356594,0.26791820313158954
1590512645.7172527,-0.20707302169263672,-3.6746348915368165,8.701460433852734,0.4888888888888889,0.3555555555555556,-0.6555555555555556,0.001011176472378323,-0.026019963596414092,0.30490003505060276
1590512645.7272527,-0.23406069107216942,-3.7502275915206353,8.832182073216508,0.4888888888888889,0.3555555555555556,-0.6555555555555556,-0.00021320087976840632,-0.023538773610512657,0.3377807935816734
1590512645.7372527,-0.26404301976845435,-3.7046773517365925,8.68339772324164,0.5169749284257975,0.37740025297315116,-0.6407323680221871,-0.008866232075217091,-0.027410355377656844,0.3656840201229607
1590512645.7472527,-0.2836106198372901,-3.714442479349161,8.74971681821019,0.5288888888888889,0.38666666666666666,-0.6344444444444445,-0.009378248618114232,-0.024952995303079394,0.3805329400555874
1590512645.7572527,-0.28317705927636644,-3.6717705927636644,8.697187066974596,0.5288888888888889,0.38666666666666666,-0.6344444444444445,-0.0061472807237775645,-0.025537952534173188,0.39622727687398107
1590512645.7672527,-0.28,-3.662066957787482,8.700684133915574,0.5288888888888889,0.38666666666666666,-0.6344444444444445,-0.00545415391248228,-0.0272707695624114,0.41225782053248156
1590512645.7772527,-0.2987702299271985,-3.689385114963599,8.688996752736605,0.5288888888888889,0.38666666666666666,-0.6344444444444445,-0.010572940062263348,-0.029830162637301937,0.4307863757282161
1590512645.7872527,-0.33712468645691374,-3.6571882838577157,8.649968201299599,0.5973876347165439,0.41140232488220874,-0.6525205023711868,-0.013093438090081544,-0.03272492347489368,0.4483245142057953
1590512645.7972527,-0.3684929595884738,-3.5801830942935613,8.667352107764069,0.6888888888888889,0.4444444444444444,-0.6766666666666666,-0.008726646259971648,-0.03612186345121574,0.46169028874281787
1590512645.8072526,-0.3864962458394613,-3.5335037541605385,8.645037541605387,0.6888888888888889,0.4444444444444444,-0.6766666666666666,-0.008726646259971648,-0.04166645976826214,0.47915356394238534
1590512645.8172526,-0.38,-3.531143264508634,8.683429793525903,0.6888888888888889,0.4444444444444444,-0.6766666666666666,-0.012591126142536057,-0.03744659577834469,0.5004103410179608
1590512645.8272526,-0.3770623501199041,-3.484748201438849,8.673501199040768,0.6888888888888889,0.4444444444444444,-0.6766666666666666,-0.016491948844721598,-0.040872147628575245,0.5185880169319392
1590512645.8372526,-0.3737205631122548,-3.4,8.744882252449019,0.929071907580006,0.5254700411113273,-0.8527733206467285,-0.012151547786919735,-0.043506510651034176,0.5386666203125212
1590512645.8472526,-0.4021666838434848,-3.4443333676869696,8.761133326462605,1.3344444444444443,0.6622222222222223,-1.15,-0.017431482649614083,-0.04096796771321853,0.5651412572668733
1590512645.8572526,-0.43605951456082115,-3.512119029121642,8.683345339830968,1.3344444444444443,0.6622222222222223,-1.15,-0.018446742830014046,-0.03771677694839718,0.5922198053059872
1590512645.8672526,-0.4519324906500024,-3.490168773374994,8.68772996260001,1.3344444444444443,0.6622222222222223,-1.15,-0.015904037041323132,-0.039251497850601474,0.607766727240775
1590512645.8772526,-0.45068335297528855,-3.4513667059505773,8.71068335297529,1.3344444444444443,0.6622222222222223,-1.15,-0.015495257693176969,-0.04195971400307579,0.6186364867133233
1590512645.8872526,-0.4447887827735451,-3.4491551310941806,8.723943913867725,1.1593878297226294,0.336052906646318,-1.0196386911646058,-0.010432013109439494,-0.04254240051736178,0.6271355390344979
1590512645.8972526,-0.4767174194178074,-3.403206451455482,8.850190322816777,0.9688888888888888,-0.01888888888888889,-0.8777777777777778,-0.010183855436462289,-0.04472821428209774,0.6257663385592285
1590512645.9072526,-0.4701355425206235,-3.4362148582645884,8.820542170082494,0.9688888888888888,-0.01888888888888889,-0.8777777777777778,-0.006574555485745389,-0.04581489286485115,0.6232329155314362
1590512645.9172525,-0.4798679613521914,-3.397150808375298,8.660792231886852,0.9688888888888888,-0.01888888888888889,-0.8777777777777778,-0.008697839895669884,-0.04292521502106178,0.6185298600397923
1590512645.9272525,-0.5045571121391803,-3.3854749462435656,8.647310614452335,0.9688888888888888,-0.01888888888888889,-0.8777777777777778,-0.008129422270472187,-0.04145156973486533,0.6119525719534382
1590512645.9372525,-0.5264209291718251,-3.4237366260506943,8.718368019808432,0.9688888888888888,-0.01888888888888889,-0.8777777777777778,-0.003955720458108313,-0.04145156973486533,0.6053938976768664
1590512645.9472525,-0.5564294750974671,-3.370952983398311,8.7507115747076,0.5933333333333334,0.23777777777777775,-0.7144444444444444,-0.008726646259971648,-0.044931970807571935,0.5849971625059263
1590512645.9572525,-0.4974865863006062,-3.314973172601212,8.71064107030869,0.5933333333333334,0.23777777777777775,-0.7144444444444444,-0.00736164457423049,-0.03999907963503084,0.5698628161945813
1590512645.9672525,-0.46815846327259064,-3.307630252363955,8.590256904001503,0.5933333333333334,0.23777777777777775,-0.7144444444444444,-0.006745865189914327,-0.041250689239929736,0.5615769724907392
1590512645.9772525,-0.4437788455459316,-3.3406682683188973,8.745415059745842,0.5933333333333334,0.23777777777777775,-0.7144444444444444,-0.008839750039657694,-0.03960921950893056,0.5589175687425657
1590512645.9872525,-0.38739544600759,-3.29646375589374,8.53971422547629,0.5739438758342811,0.25543086594855674,-0.71212928534008,-0.006124011071994758,-0.04169006221648332,0.5510624173569867
1590512645.9972525,-0.3767254997562165,-3.394542499593694,9.01179749715586,0.5188888888888888,0.3055555555555556,-0.7055555555555556,0.00031514071167978216,-0.038674587226003886,0.5432722358503012
1590512646.0072525,-0.34063964969520044,-3.356240233536533,8.665678715549069,0.5188888888888888,0.3055555555555556,-0.7055555555555556,-0.01945119775324066,-0.03007188290000082,0.5142084711495429
1590512646.0172524,-0.2977846821891143,-3.4181331885902524,8.567784682189114,0.5188888888888888,0.3055555555555556,-0.7055555555555556,0.0025475312891513405,-0.02625936027695603,0.4656706956729092
1590512646.0272524,-0.2252008707698397,-3.5397704334058977,8.703995646150801,0.5188888888888888,0.3055555555555556,-0.7055555555555556,-0.0033100550936113523,-0.024054621334105006,0.38421659328854535
1590512646.0372524,-0.1639366901030993,-3.5643620140618597,8.780959422391778,0.5264182895257713,0.296867785589922,-0.7136641408568136,0.0004294262745609843,-0.01702386624538231,0.28172564738989464
1590512646.0472524,-0.11345776161348983,-3.558847412795503,8.694423706397751,0.5333333333333333,0.2888888888888889,-0.7211111111111111,0.004574059590958772,-0.009983923862148091,0.16512620933341884
1590512646.0572524,-0.07149485603811365,-3.6040205758475454,8.685824760063522,0.5333333333333333,0.2888888888888889,-0.7211111111111111,0.010925179059879922,0.00465570765651011,0.03964107533801041
1590512646.0672524,-0.0017078173668616595,-3.711463192281395,8.65,0.5333333333333333,0.2888888888888889,-0.7211111111111111,0.009551378307939794,0.023199981011337106,-0.1813961344788367
1590512646.0772524,0.0575347647124263,-3.73,8.685069529424853,0.5333333333333333,0.2888888888888889,-0.7211111111111111,0.016915461612386915,0.03859761953542694,-0.3587216262490238
1590512646.0872524,0.08700198305390301,-3.718330028243495,8.767343909620816,0.5229600251053289,0.2754035881924831,-0.716183789702809,0.02308961209221511,0.05057984571687025,-0.5267042445196839
1590512646.0972524,0.11396137871514106,-3.664154485139436,8.907826204218136,0.4888888888888889,0.2311111111111111,-0.7,0.028243038177221874,0.07056937900240355,-0.7216822072453634
1590512646.1072524,0.3993191691307998,-3.73192129376118,8.767700507428906,0.4888888888888889,0.2311111111111111,-0.7,0.05374610434658139,0.07574920415503389,-1.0110631493598392
1590512646.1172523,-2.3692697508896794,-8.280620403321471,2.403563463819691,0.4888888888888889,0.2311111111111111,-0.7,-0.3832669797732704,1.0118393906804648,-2.5338957935699202
1590512646.1272523,-8.529978554578598,-15.50176924726571,-3.6297190649796267,0.4888888888888889,0.2311111111111111,-0.7,-1.7074119459227617,0.9470107208190425,-10.788487678034876
1590512646.1372523,-2.7465702215603454,-7.330048019937392,-3.290392973285111,0.47107231019123547,0.29193322459620363,-0.683412150867702,-2.6040329148830996,-0.06816719352172727,-10.286654193081333
1590512646.1472523,2.362668205366631,1.1262828772582358,-0.8056877656748138,0.4566666666666666,0.3411111111111111,-0.67,-2.5459990463467284,-0.1832595714594046,-3.8931750627298514
1590512646.1572523,-0.5584051705121983,-0.43349406626373144,0.3580764988750166,0.4566666666666666,0.3411111111111111,-0.67,-2.5162733180024976,-0.1470717282577328,-3.62133543106015
1590512646.1672523,0.371734545705988,-0.38682270778592176,2.680068455262066,0.4566666666666666,0.3411111111111111,-0.67,-2.25389946137261,0.13401480701682766,-2.4758598036993487
1590512646.1772523,1.4428390539141511,-2.0468312495022696,12.836254678665286,0.4566666666666666,0.3411111111111111,-0.67,-0.8727073662014322,1.0424477419511922,-2.238345847773151
1590512646.1872523,-1.1739079229122058,-1.306884368308351,7.054004282655247,0.3983868665239114,0.4335986200333095,-0.6509957173447538,1.1638335230976402,1.0018299690273527,-2.0909404156109423
1590512646.1972523,0.9583569802066911,-1.1602224557715888,7.255615694517428,0.3033333333333333,0.5844444444444444,-0.62,2.6806244556829637,0.2531388524956927,-2.0006478553337286
1590512646.2072523,0.9889687335785602,-2.3112243825538625,12.367778507619548,0.3033333333333333,0.5844444444444444,-0.62,3.3144092256255417,0.7152874940133579,-1.9425453527151781
1590512646.2172523,0.12044602777406352,-0.9901568260396172,4.122755630264942,0.3033333333333333,0.5844444444444444,-0.62,5.077157243110348,0.22420282584329282,-1.7795335721326389
1590512646.2272522,-0.11408077304261643,-1.2589091922695739,7.063677527254708,0.3033333333333333,0.5844444444444444,-0.62,4.92189484319019,-0.13813881292486724,-1.4971201130148704
1590512646.2372522,-0.41412873350312573,0.24124565871729567,-1.8738976614957163,0.2872226081140181,0.5953191839674822,-0.6212083043914486,1.2070724787981428,-0.47886248934139614,-0.8100277030476033
1590512646.2472522,0.06993304194178368,0.676133172138008,-0.16980005579838184,0.2588888888888889,0.6144444444444445,-0.6233333333333333,-0.15376301205241444,-0.13162725256897534,-0.34617174536828454
1590512646.2572522,2.6850052085141844,-0.3512281676447099,6.974296329733671,0.2588888888888889,0.6144444444444445,-0.6233333333333333,-0.7092097939965822,0.6072953326311725,-0.010318045611032362
1590512646.2672522,4.110614498644987,-1.319709349593496,12.175089430894309,0.2588888888888889,0.6144444444444445,-0.6233333333333333,-0.5987479262557839,1.0221793176382317,0.1629990894785978
1590512646.2772522,1.2530308613542147,-1.3954306771073235,8.182081989866422,0.2588888888888889,0.6144444444444445,-0.6233333333333333,0.026877849400314555,-0.08575206187265783,0.17651109230707393
1590512646.2872522,2.2816019588500565,-2.607401000563698,13.33686090755355,0.24830816265814856,0.5796792011148691,-0.6470140063259426,0.05848031294342764,-0.630292587016356,0.34626690712486585
1590512646.2972522,0.6627604976671851,-1.4012111197511665,6.515583203732504,0.23555555555555555,0.5377777777777778,-0.6755555555555556,0.061377892695219524,0.10907056677682922,0.680422029114484
1590512646.3072522,1.0471020318866737,-2.402584570787869,9.71724150190062,0.23555555555555555,0.5377777777777778,-0.6755555555555556,-0.16385383890570432,0.2023771960551824,0.920577444763529
1590512646.3172522,1.0129224686264395,-2.3512154031287604,9.763904074265085,0.23555555555555555,0.5377777777777778,-0.6755555555555556,-0.09945537613444008,-0.226604014826472,1.0783448299451475
1590512646.3272521,0.71,-1.56,6.59,0.23555555555555555,0.5377777777777778,-0.6755555555555556,0.06872233929727672,-0.3577924966588376,1.1355548445788106
1590512646.3372521,0.9321772277655392,-2.35095093084532,8.78511101032353,0.23555555555555555,0.5377777777777778,-0.6755555555555556,0.07938608070279729,0.1850888839858459,1.3943929314219008
1590512646.3472521,0.8873399153171593,-2.7224236951417735,9.489290831376799,0.2644444444444444,0.5611111111111111,-0.6911111111111111,-0.16170946323983076,-0.18893404547755635,1.565075665452059
1590512646.3572521,0.9559340390879478,-2.9903391693811074,10.492703990228014,0.2644444444444444,0.5611111111111111,-0.6911111111111111,-0.037445253845502735,-0.21141477560536048,1.6939429497908645
1590512646.367252,3.3800727970736304,-8.850824671326645,6.580034044402593,0.2644444444444444,0.5611111111111111,-0.6911111111111111,-0.1019424843816229,-0.18618313702151823,2.0203935861685394
1590512646.377252,8.001686097887745,-19.65720646503806,7.737412844559733,0.2644444444444444,0.5611111111111111,-0.6911111111111111,-0.29532307017888526,-0.3969111605390357,2.6022763811093976
1590512646.387252,-0.03300392062969501,-1.455136623469907,10.451629904528177,0.27613350758354194,0.5498116834099834,-0.6829287669137428,-0.0746242454074647,-0.234404266204579,4.3121165040763
1590512646.397252,-0.5877432306478981,-2.532884353416342,7.951848337834285,0.2977777777777777,0.5288888888888889,-0.6677777777777778,0.3041270268513627,-0.27017310364941244,4.445134813002365
1590512646.407252,-0.2091259984540067,-2.1091265137851067,5.79524400927596,0.2977777777777777,0.5288888888888889,-0.6677777777777778,-0.12311571731246798,-0.3157055411814029,4.35952108393664
1590512646.417252,0.5957946278679351,-3.2034451195139497,10.528666959788952,0.2977777777777777,0.5288888888888889,-0.6677777777777778,-0.47069178217553964,-0.4884520316348376,4.261417132276303
1590512646.427252,0.10626614021982711,-2.9295176608686373,8.785783801088465,0.2977777777777777,0.5288888888888889,-0.6677777777777778,-0.00967325130994083,-0.3297727776508406,4.236129653275866
1590512646.437252,1.9260711058594566,-5.223956001946201,7.930091401960103,0.31826861441270277,0.5154012495848875,-0.6641464902728543,0.0735565840919658,-0.26751864839342765,4.205761619566836
1590512646.447252,6.745966188157423,-11.81495014650393,7.510451527224435,0.3855555555555555,0.4711111111111111,-0.6522222222222223,-0.302683272077781,-0.39665459935373,3.082045627055324
1590512646.457252,1.0380627281330268,-6.766643233743409,8.164988508854941,0.3855555555555555,0.4711111111111111,-0.6522222222222223,-0.30306175435787,-0.15650405980615129,0.16765230026368583
1590512646.467252,-1.4879696883042608,-0.013274235058621575,9.908378610237346,0.3855555555555555,0.4711111111111111,-0.6522222222222223,0.3109123515428496,0.3420111666765497,-2.03980365393889
1590512646.477252,-0.943347844499026,-1.0396625730498856,13.354771406792581,0.3855555555555555,0.4711111111111111,-0.6522222222222223,0.7738359668669534,0.26487893604515955,-1.881304251605598
1590512646.487252,0.06552926230202405,-1.650672651816719,6.3992031845515385,0.3855555555555555,0.4711111111111111,-0.6522222222222223,0.30417990522198346,-0.028849854983625356,-1.694526840951411
1590512646.497252,-1.8029393532106317,-2.8801873439942947,12.87886715857037,0.4511111111111111,0.4044444444444445,-0.6933333333333334,-0.41205768520332914,0.22112142614727082,-1.2301175190303246
1590512646.507252,-3.2597766597128484,-7.090939379064915,7.9625837526076815,0.4511111111111111,0.4044444444444445,-0.6933333333333334,-0.0450508829628879,0.026073720320482996,-0.5940122439532108
1590512646.517252,-5.132626288012063,-11.261816201725726,7.161009466365083,0.4511111111111111,0.4044444444444445,-0.6933333333333334,0.026284571539063675,-0.03153859816548855,0.5405363976729354
1590512646.527252,-0.5000721213628451,-1.6368788858492913,8.114334742601342,0.4511111111111111,0.4044444444444445,-0.6933333333333334,0.06857259082875196,-0.1485263365488429,1.463696330619374
1590512646.537252,0.623676841381418,-2.8856960574572126,7.370955455378973,0.4470482290817712,0.4091844734786743,-0.6879161572942135,0.026055899284801065,-0.07990502173532031,1.495780894866547
1590512646.547252,4.051677517032551,-5.806031794095382,8.143352763058289,0.4311111111111111,0.42777777777777776,-0.6666666666666666,-0.17047662015039503,-0.14890261319380238,1.3236595709332177
1590512646.557252,-0.5752599166190946,-1.3120947290120575,9.517763246665629,0.4311111111111111,0.42777777777777776,-0.6666666666666666,0.02646514327844715,0.017839848967768634,-0.5382194028484152
1590512646.567252,-1.068647222654696,-2.9156034736277614,5.9697280606154965,0.4311111111111111,0.42777777777777776,-0.6666666666666666,0.30902122536467963,0.29485561571897695,-0.9315817916351308
1590512646.577252,-2.6388634793545074,-6.0540499176305955,8.79832604113156,0.4311111111111111,0.42777777777777776,-0.6666666666666666,-0.0638617049198973,0.01707659427353002,-0.13476879743230424
1590512646.587252,-0.5332030353833936,-2.8314603370687372,9.440870025588987,0.43066315675951256,0.4273298234261792,-0.6666666666666666,-0.07386607855577938,-0.15118570061071812,0.5024720505010516
1590512646.597252,2.06,-6.6,8.62,0.4244444444444445,0.4211111111111111,-0.6666666666666666,-0.03926990816987242,-0.14508049407202864,0.4363323129985824
1590512646.607252,0.9835008850415847,-5.589241289008511,8.636435100991731,0.4244444444444445,0.4211111111111111,-0.6666666666666666,-0.01820460913149035,-0.0706796506598707,0.2530193915794703
1590512646.6172519,-0.4106349835221236,-4.238517351293918,8.56148264870608,0.4244444444444445,0.4211111111111111,-0.6666666666666666,0.0002125714473049066,0.016584246382125915,0.013755657277844112
1590512646.6272519,-0.07849481949166262,-4.428633236198802,8.387802735955965,0.4244444444444445,0.4211111111111111,-0.6666666666666666,-0.02231013402058383,-0.02320657723891759,0.0583528466044547
1590512646.6372519,0.04033349522421889,-4.20795208029788,8.77823862716529,0.4244444444444445,0.4211111111111111,-0.6666666666666666,0.006391788045502344,-0.0037633397102785696,-0.0036803397964412093
1590512646.6472518,0.07408237909684205,-4.457228371303579,8.637303435251368,0.4222222222222222,0.42777777777777776,-0.6711111111111111,-0.003268398244244121,-0.0004453184784655394,-0.0018343929476874374
1590512646.6572518,0.04549524296675192,-4.318466700767264,8.669328491048594,0.4222222222222222,0.42777777777777776,-0.6711111111111111,0.007994746232341851,0.0017738973011318328,-0.001390549791767963
1590512646.6672518,0.057910058867050536,-4.376111236208061,8.511507704185028,0.4222222222222222,0.42777777777777776,-0.6711111111111111,-0.0038583134274835238,-0.0014977299285648736,-0.0019536843528502323
1590512646.6772518,0.05894546016908379,-4.305418241803561,8.721599938140079,0.4222222222222222,0.42777777777777776,-0.6711111111111111,-0.002372063982488943,-0.00021023365964121686,-0.001090830782496456
1590512646.6872518,0.07913408554185253,-4.523361322487537,8.495484124901601,0.4222222222222222,0.4275853523426339,-0.6711111111111111,-0.012460258625986806,-0.003115064656496702,-0.0010593452442979228
1590512646.6972518,0.0529277701940768,-4.3146388509703835,8.663897263932578,0.4222222222222222,0.4211111111111111,-0.6711111111111111,0.007608850611850539,0.0018622913798154524,0.0
1590512646.7072518,0.06435172088637436,-4.360462046204621,8.632131070249882,0.4222222222222222,0.4211111111111111,-0.6711111111111111,0.0032472916363425848,0.0,-0.00030806583626373274
1590512646.7172518,0.05214428756115491,-4.290020025856169,8.738537098532282,0.4222222222222222,0.4211111111111111,-0.6711111111111111,0.004516347479154,0.0,-0.0013247362703196586
1590512646.7272518,0.06,-4.3960116522530726,8.569941738734638,0.4222222222222222,0.4211111111111111,-0.6711111111111111,-0.00895053220282249,0.00021753062468245213,-0.00196413094031046
1590512646.7372518,0.06,-4.38073882567137,8.64630587164315,0.4222222222222222,0.4211111111111111,-0.6711111111111111,-0.0014535009858495339,0.001050534093235003,-0.001131127471757909
1590512646.7472517,0.06823975881310661,-4.378239758813106,8.632883135429614,0.4222222222222222,0.42777777777777776,-0.68,-0.005331665151937495,0.0035952730214732585,-0.0030804798203612265
1590512646.7572517,0.06263233679072605,-4.364735326418548,8.689985600976206,0.4222222222222222,0.42777777777777776,-0.68,0.003444150111626943,0.0,-0.00160737476474853
1590512646.7672517,0.07,-4.35,8.584991755976917,0.4222222222222222,0.42777777777777776,-0.68,-0.00012634931981925137,-0.0005872320700496173,0.0
1590512646.7772517,0.07152755353824596,-4.348472446461754,8.66472446461754,0.4222222222222222,0.42777777777777776,-0.68,0.003121330522480187,-0.0020150313228499053,0.0
1590512646.7872517,0.07791604471928595,-4.342083955280714,8.600839552807141,0.4222222222222222,0.42777777777777776,-0.68,-0.0066349374450996096,-0.0013181550394513483,0.0
1590512646.7972517,0.06981934346772417,-4.369458030403172,8.718193434677243,0.4222222222222222,0.42777777777777776,-0.6522222222222223,-5.9119711939662525e-05,-0.0031936660649031514,5.9119711939662525e-05
1590512646.8072517,0.06,-4.3352702940658565,8.617635147032928,0.4222222222222222,0.42777777777777776,-0.6522222222222223,-0.0009508033761855008,0.0008328653412404707,0.0019826651412094415
1590512646.8172517,0.06,-4.325575765338798,8.6044242346612,0.4222222222222222,0.42777777777777776,-0.6522222222222223,0.005328541401471095,0.00020274054891794,-0.0017761804671570318
1590512646.8272517,0.06189866796196312,-4.3424053281521475,8.612277355353372,0.4222222222222222,0.42777777777777776,-0.6522222222222223,-0.0002071125458649183,0.0006766056907666193,-0.0002071125458649183
1590512646.8372517,0.06973452650064454,-4.3110618939974215,8.745486950510957,0.4222222222222222,0.42777777777777776,-0.6522222222222223,-0.0010618721159930565,-0.001032913449489657,-0.0010618721159930565
1590512646.8472517,0.07,-4.340329703229669,8.666593316118409,0.4222222222222222,0.438730170610714,-0.6724420243753353,-0.00522640252085967,-0.001090830782496456,0.0005633979128488301
1590512646.8572516,0.07,-4.373456085975755,8.704793221706678,0.4222222222222222,0.44222222222222224,-0.6788888888888889,0.0007892303849518162,-0.0003016003975446397,-0.001015430683110296
1590512646.8672516,0.07,-4.411916848533754,8.535565866451483,0.4222222222222222,0.44222222222222224,-0.6788888888888889,-0.0025671043123723612,-0.003657935094868817,-0.00017634700877925172
1590512646.8772516,0.0686467164822532,-4.36,8.651353283517746,0.4222222222222222,0.44222222222222224,-0.6788888888888889,0.003329980806963513,0.0028296313519083774,0.0009432104506361258
1590512646.8872516,0.06111276763902859,-4.36,8.658887232360971,0.4222222222222222,0.44222222222222224,-0.6788888888888889,-0.00242280351139656,0.00036415235832548904,0.00012138411944182968
1590512646.8972516,0.0682900755767701,-4.321969470962609,8.672900755767701,0.4222222222222222,0.4211111111111111,-0.6644444444444444,-0.0029277568436335867,0.0009043069628362873,0.001090830782496456
1590512646.9072516,0.0620329644343549,-4.373901106696935,8.59,0.4222222222222222,0.4211111111111111,-0.6644444444444444,-0.004105602491792433,-0.00022176201847148204,0.0008690687640249739
1590512646.9172516,0.07,-4.35,8.591830076955489,0.4222222222222222,0.4211111111111111,-0.6644444444444444,0.004456001773789331,-0.001090830782496456,0.0
1590512646.9272516,0.07,-4.346014368264876,8.612953303139154,0.4222222222222222,0.4211111111111111,-0.6644444444444444,0.0001086912446092049,-0.0009821395378872512,-0.0003260737338276147
1590512646.9372516,0.07,-4.313261752303608,8.719399305013276,0.4222222222222222,0.4211111111111111,-0.6644444444444444,0.0010018802870551064,-8.895049544134959e-05,-0.0030056408611653187
1590512646.9472516,0.06153206069505629,-4.353064121390112,8.662339696524718,0.43,0.4355555555555555,-0.7022222222222222,-0.004363323129985824,-0.0012579526791784877,-0.0020145396683108802
1590512646.9572515,0.0681093977912065,-4.37,8.606765784538444,0.43,0.4355555555555555,-0.7022222222222222,-0.004569555838666597,-0.001975428856312138,-0.000884598073815682
1590512646.9672515,0.06,-4.367608283275372,8.558769627990305,0.43,0.4355555555555555,-0.7022222222222222,-0.004758431718819243,-0.0009169002340806969,-0.00017393054841575908
1590512646.9772515,0.05868335085611295,-4.34,8.66394994743166,0.43,0.4355555555555555,-0.7022222222222222,0.002697995781129527,0.001090830782496456,-0.0018944132818129913
1590512646.9872515,0.05080880144187444,-4.34,8.687573595674376,0.43,0.4355555555555555,-0.7022222222222222,-0.0007379245786067945,0.001090830782496456,-0.00017645310194483064
1590512646.9972515,0.06923243989064057,-4.34,8.718848659835961,0.3990144023984124,0.4419663688524358,-0.6883321267456485,-4.1863909735280654e-05,-0.0020560698357870704,0.0
1590512647.0072515,0.07,-4.3622903062194895,8.634274234451278,0.3977777777777778,0.44222222222222224,-0.6877777777777778,-0.005204320259926111,0.0001249168262780843,-0.0019318279124367435
1590512647.0172515,0.07,-4.375586128193749,8.601034679515628,0.3977777777777778,0.44222222222222224,-0.6877777777777778,-0.003753971071114571,0.0008500914206838545,-0.00048147872362520297
1590512647.0272515,0.07049784055095133,-4.339004318898097,8.651493521652855,0.3977777777777778,0.44222222222222224,-0.6877777777777778,0.0011994427420469961,-5.4305979775270047e-05,-0.001036524802721186
1590512647.0372515,0.07865763978055329,-4.322684720438894,8.67597291934166,0.3977777777777778,0.44222222222222224,-0.6877777777777778,0.0029796347777751335,-0.0009444019976393386,-0.00014642878485711733
1590512647.0472515,0.07,-4.331823005595104,8.676353988809792,0.4222222222222222,0.42777777777777776,-0.6788888888888889,-0.003322207112984426,0.001090830782496456,0.0020822320340027965
1590512647.0572515,0.07,-4.367332857822159,8.591998573466476,0.4222222222222222,0.42777777777777776,-0.6788888888888889,-0.004508793169430014,0.0009453607430522662,-0.00014547003944418975
1590512647.0672514,0.07,-4.352521811001928,8.54882633850675,0.4222222222222222,0.42777777777777776,-0.6788888888888889,-0.004491349738492616,-0.00013754345342709468,-0.0009532873290693613
1590512647.0772514,0.07,-4.3676837181528665,8.613088375796178,0.4222222222222222,0.42777777777777776,-0.6788888888888889,0.00226588394965262,-0.0010066083978367475,8.422238465970846e-05
1590512647.0872514,0.07,-4.342638136942675,8.646482484076433,0.4222222222222222,0.42777777777777776,-0.6788888888888889,0.003176566981305663,-9.592536618370506e-05,0.000994905416312751
1590512647.0972514,0.07,-4.34,8.687409777884117,0.42804152100419596,0.42777777777777776,-0.6680816197223661,0.0024563376018423705,0.0016323094912939948,-0.0005414787087975389
1590512647.1072514,0.07072212362836504,-4.33144424725673,8.663500887344714,0.43,0.42777777777777776,-0.6644444444444444,-7.877146825886123e-05,0.0029574064744539233,0.0009332878459787336
1590512647.1172514,0.08,-4.3488884793476,8.586669123914396,0.43,0.42777777777777776,-0.6644444444444444,-0.0013333269710999898,-0.000969582688194689,-0.000969582688194689
1590512647.1272514,0.0793573136898498,-4.3387146273797,8.643856117860901,0.43,0.42777777777777776,-0.6644444444444444,-0.002921961342188919,0.0,7.010620106008984e-05
1590512647.1372514,0.07133224911508658,-4.322664498230173,8.69200650530948,0.43,0.42777777777777776,-0.6644444444444444,0.0014550323926478606,0.0,0.0009455049480274456
1590512647.1472514,0.07952700529599692,-4.3788175132399925,8.7,0.4222222222222222,0.42777777777777776,-0.6877777777777778,0.0021042679875302567,0.0,2.5797859154218378e-05
1590512647.1572514,0.061540770599712684,-4.333851926499282,8.7,0.4222222222222222,0.42777777777777776,-0.6877777777777778,-0.0008387227826566379,0.0,0.0010067947825498497
1590512647.1672513,0.06663207955036748,-4.349896238651103,8.600518806744487,0.4222222222222222,0.42777777777777776,-0.6877777777777778,-0.004708069045249511,0.0,-0.0003560645226047662
1590512647.1772513,0.07,-4.36,8.59346009516809,0.4222222222222222,0.42777777777777776,-0.6877777777777778,-0.004648680310195543,0.0009481521923915963,-0.002038982974888052
1590512647.1872513,0.0757977507818138,-4.36,8.617393252345442,0.4222222222222222,0.42777777777777776,-0.6877777777777778,-0.0012011406189631263,0.001090830782496456,-0.0015492250627883724
1590512647.1972513,0.0745924952660664,-4.343777485798199,8.657037523669668,0.42642805923750393,0.42777777777777776,-0.6877777777777778,0.002860432568577483,0.001090830782496456,-0.001090830782496456
1590512647.2072513,0.06004073442359787,-4.359877796729207,8.659633390187619,0.43,0.42777777777777776,-0.6877777777777778,0.001077500473546113,0.002181661564992912,-0.00217277469235935
1590512647.2172513,0.06845710845791111,-4.334628674626267,8.5838860238788,0.43,0.42777777777777776,-0.6877777777777778,-0.001676751488543715,0.002181661564992912,-0.0003366067176327984
1590512647.2272513,0.07,-4.343653539540816,8.57,0.43,0.42777777777777776,-0.6877777777777778,-0.0029263466260506608,0.002181661564992912,-0.0007446850610577488
1590512647.2372513,0.07,-4.342901104897012,8.626791160823899,0.43,0.42777777777777776,-0.6877777777777778,-0.0017237536874789856,-0.0009158157550278523,-0.001090830782496456
1590512647.2472513,0.05785366516012647,-4.3521463348398735,8.674292669679748,0.42527642534004917,0.42777777777777776,-0.6776558320778832,0.0008966086081800249,-0.002181661564992912,0.00023412881128786448
1590512647.2572513,0.06586880210618692,-4.33619679684072,8.69,0.4222222222222222,0.42777777777777776,-0.6711111111111111,0.0004506437831155827,-0.0013161526740542474,-0.0006401869993808732
1590512647.2672513,0.07,-4.340437322282717,8.582186611413583,0.4222222222222222,0.42777777777777776,-0.6711111111111111,-0.004363323129985824,-0.0020862526434211543,-9.540892157175782e-05
1590512647.2772512,0.07,-4.34968258866577,8.628412943328852,0.4222222222222222,0.42777777777777776,-0.6711111111111111,-0.004363323129985824,-6.924841081821153e-05,-0.0021124131541747004
1590512647.2872512,0.0773229072500452,-4.364645814500091,8.644645814500091,0.4222222222222222,0.42777777777777776,-0.6711111111111111,-0.0019669073362710908,-0.002396415793714733,0.0010135594932933986
1590512647.2972512,0.06016664230375676,-4.340249963455635,8.679750036544364,0.4222222222222222,0.44761113547402104,-0.6788240835485391,-9.088927730199932e-06,-0.002190750492723112,0.003263403419759168
1590512647.3072512,0.06006131744919411,-4.3400613174491935,8.629632095304837,0.4222222222222222,0.4477777777777778,-0.6788888888888889,0.0021615954766673814,0.0021682841727758916,-0.0021682841727758916
1590512647.3172512,0.07,-4.35,8.571544494164321,0.4222222222222222,0.4477777777777778,-0.6788888888888889,-0.001315468352873546,5.6159392594272496e-05,-0.00011231878518854499
1590512647.3272512,0.0698812399647047,-4.350118760035295,8.600593800176476,0.4222222222222222,0.4477777777777778,-0.6788888888888889,-0.00545415391248228,0.001090830782496456,-0.002155752144546814
1590512647.3372512,0.06381406315545848,-4.3561859368445415,8.630929684222707,0.4222222222222222,0.4477777777777778,-0.6788888888888889,-0.00545415391248228,0.001090830782496456,-0.0008320994992719345
1590512647.3472512,0.0662473929087117,-4.3475052141825765,8.68748435745227,0.43471700803964564,0.4401420753337968,-0.6788888888888889,-0.0006837599658613275,0.0017723156320137348,0.0013629696990345578
1590512647.3572512,0.07932362450287546,-4.3586472490057515,8.682029126491374,0.44222222222222224,0.4355555555555555,-0.6788888888888889,0.002181661564992912,0.0011646119037754356,0.00014756224255795935
1590512647.3672512,0.08,-4.342776012881326,8.585268070847295,0.44222222222222224,0.4355555555555555,-0.6788888888888889,0.00030281603035575504,0.0029696763171336137,-0.0009394227673185784
1590512647.3772511,0.05728023850085179,-4.34,8.600293015332197,0.44222222222222224,0.4355555555555555,-0.6788888888888889,-0.0033044553618998265,0.0007941508260644985,0.0005613968984534573
1590512647.3872511,0.0647438279798248,-4.347371913989912,8.646859569949562,0.44222222222222224,0.4355555555555555,-0.6788888888888889,-0.0027550209887632817,0.0016083021412225422,0.0002866797118851849
1590512647.3972511,0.06388299024918744,-4.356117009750813,8.66,0.4347458769712291,0.4307978813049235,-0.6741312146382569,-0.0015143993116911794,0.00017987480508771438,0.0006672622533017324
1590512647.4072511,0.06,-4.351431489689728,8.685705530930814,0.43,0.42777777777777776,-0.6711111111111111,0.0017132076594783424,0.0026478871401366087,0.001090830782496456
1590512647.417251,0.06,-4.343732128803778,8.633589159233997,0.43,0.42777777777777776,-0.6711111111111111,0.002181661564992912,0.0019050549791769,-0.00027660658581601157
1590512647.427251,0.06695481905866996,-4.34695481905867,8.59304518094133,0.43,0.42777777777777776,-0.6711111111111111,-9.429764977415172e-05,0.001090830782496456,-0.0018494838540854771
1590512647.437251,0.056826500157084514,-4.336826500157084,8.629520499528747,0.43,0.42777777777777776,-0.6711111111111111,-0.001809333739589678,0.001090830782496456,-0.002181661564992912
1590512647.447251,0.06730003874194344,-4.364600077483887,8.658650019370972,0.4232722071559109,0.43450557062186684,-0.6595777519498155,-0.0002945200851835956,0.001090830782496456,-0.0012380908250882536
1590512647.457251,0.049064273942501374,-4.356042849295001,8.6669785753525,0.4222222222222222,0.4355555555555555,-0.6577777777777778,0.0015224889624955115,0.001090830782496456,0.0004316581799990555
1590512647.467251,0.06903236849111864,-4.340322543836294,8.573225438362938,0.4222222222222222,0.4355555555555555,-0.6577777777777778,7.036814906675234e-05,3.518407453337617e-05,3.518407453337617e-05
1590512647.477251,0.07,-4.348279940361057,8.63623952288846,0.4222222222222222,0.4355555555555555,-0.6577777777777778,0.0,0.0018064027646152424,0.0
1590512647.487251,0.07,-4.35,8.670623109373393,0.4222222222222222,0.4355555555555555,-0.6577777777777778,0.0,0.0014317841471499938,0.0
1590512647.497251,0.07,-4.366938629073105,8.674353790308965,0.41532129926651284,0.4273999193351717,-0.6653060573658244,0.0006159059335410726,0.00047492484895538336,-0.0024636237341642904
1590512647.507251,0.06140396870210535,-4.337019843510527,8.67,0.41,0.4211111111111111,-0.6711111111111111,0.002028512337201101,0.0,0.00032508464353740024
1590512647.517251,0.0689036529468957,-4.338903652946896,8.616578082318625,0.41,0.4211111111111111,-0.6711111111111111,0.0031528994361068223,-0.0009712378711139102,0.001090830782496456
1590512647.527251,0.056432934055315506,-4.34,8.637134131889368,0.41,0.4211111111111111,-0.6711111111111111,0.0025325236894583074,-0.001090830782496456,0.0003508621244653955
1590512647.537251,0.05610746688783332,-4.352214933775667,8.656107466887834,0.41,0.4211111111111111,-0.6711111111111111,0.0008492189881276287,0.0002416117943688273,0.0006662212884326416
1590512647.547251,0.06,-4.354915531125675,8.67016893774865,0.4037856491536029,0.4245007570273277,-0.6795852259016527,-0.000554629516075873,0.001090830782496456,-1.842824965528995e-05
1590512647.557251,0.0658076076928536,-4.344192392307146,8.656769569228587,0.3977777777777778,0.42777777777777776,-0.6877777777777778,-0.0017243425068992483,0.001090830782496456,-0.0017243425068992483
1590512647.567251,0.07,-4.34,8.589231028478347,0.3977777777777778,0.42777777777777776,-0.6877777777777778,0.0005873562815823753,-0.0026011930129372605,-0.002181661564992912
1590512647.577251,0.07,-4.34,8.61147061361871,0.3977777777777778,0.42777777777777776,-0.6877777777777778,0.0019490586344799994,-0.0024142644955058245,-0.0013234337130093685
1590512647.587251,0.07,-4.355667301959635,8.651334603919269,0.3977777777777778,0.42777777777777776,-0.6877777777777778,0.0010423032145771573,-0.0010423032145771573,-0.001090830782496456
1590512647.597251,0.07,-4.355135517322649,8.68,0.4038336781278096,0.42777777777777776,-0.6877777777777778,-0.0005404878423446577,0.0005404878423446577,-0.0005503429401517983
1590512647.607251,0.07,-4.34,8.68,0.41,0.42777777777777776,-0.6877777777777778,-0.0023721485453779955,0.0004501719010556863,-0.0006406588814407697
1590512647.617251,0.05331703531237874,-4.348341482343811,8.588243694218082,0.41,0.42777777777777776,-0.6877777777777778,-0.0005427486338055705,0.0018198291424558648,0.0016389129311873416
1590512647.627251,0.06253398106709701,-4.343733009466451,8.588800971600646,0.41,0.42777777777777776,-0.6877777777777778,0.0020508678562825796,0.00013079370871033232,0.0008144163274711922
1590512647.637251,0.059191510584062954,-4.34,8.63782971295578,0.41,0.42777777777777776,-0.6877777777777778,0.002682980699129804,-0.001090830782496456,-0.0005895116483595638
1590512647.647251,0.055082992542699064,-4.34,8.675082992542698,0.41621254644107664,0.4317312164220992,-0.6725288001496806,0.0010727246184376983,-0.001090830782496456,-0.0016452992557740628
1590512647.657251,0.06680752091314206,-4.34,8.686807520913142,0.4222222222222222,0.4355555555555555,-0.6577777777777778,-0.0007425853364543734,-0.00034824544604208257,4.6094444370208595e-05
1590512647.6672509,0.05245174698012729,-4.348774126509936,8.5934846083907,0.4222222222222222,0.4355555555555555,-0.6577777777777778,-0.001090830782496456,-0.0009571087286556773,0.0001337220538407787
1590512647.6772509,0.0694151396084704,-4.356471713202824,8.618830279216942,0.4222222222222222,0.4355555555555555,-0.6577777777777778,0.00032107801292925687,-0.001090830782496456,-0.0007059543977128564
1590512647.6872509,0.07422323620450422,-4.342669708613513,8.651553527590991,0.4222222222222222,0.4355555555555555,-0.6577777777777778,0.00046068360536266964,0.0001694635717711167,0.0001694635717711167
1590512647.6972508,0.07,-4.3380083407439205,8.66,0.41243425020187463,0.4293268460880616,-0.6746842749038328,0.0,0.0019644052425153895,-0.0006563181375414111
1590512647.7072508,0.06176795708413646,-4.356464085831727,8.63530387125241,0.41,0.42777777777777776,-0.6788888888888889,-0.001795953163091167,-0.001410244761189422,-0.00019285420095087249
1590512647.7172508,0.06,-4.344586027298851,8.583758081896551,0.41,0.42777777777777776,-0.6788888888888889,-0.0013409597698442201,-0.0013409597698442201,0.0
1590512647.7272508,0.06652954129195564,-4.34,8.576529541291956,0.41,0.42777777777777776,-0.6788888888888889,0.00033369414487292035,-0.001090830782496456,-0.002136787391054065
1590512647.7372508,0.07,-4.351460232595334,8.648761395572006,0.41,0.42777777777777776,-0.6788888888888889,0.0017158895069744559,-0.00046577205801845607,-0.0020223748985333683
1590512647.7472508,0.07,-4.352140129110758,8.684280258221516,0.41,0.4338910106916325,-0.6858754407904373,0.0013242826537496267,-0.002572136733729856,-0.0019482096937397412
1590512647.7572508,0.07596879085515068,-4.35,8.68,0.41,0.4355555555555555,-0.6877777777777778,-0.00021135737731988575,-0.0006681160278566847,-0.0008794734051765702
1590512647.7672508,0.06670974930362117,-4.35,8.613548746518106,0.41,0.4355555555555555,-0.6877777777777778,-0.0018157015108317054,0.00036596005416120647,0.0007248707283352495
1590512647.7772508,0.07121466664394882,-4.35,8.608036666609873,0.41,0.4355555555555555,-0.6877777777777778,0.0002649991531382067,-0.0006116651795327797,-0.00013249957656910334
1590512647.7872508,0.06277293681882379,-4.345693234204706,8.647227063181177,0.41,0.4355555555555555,-0.6877777777777778,0.002181661564992912,0.0007883502985073783,-0.0015606260527474146
1590512647.7972507,0.04,-4.344782356085431,8.67478235608543,0.41584510188219315,0.4318359452668871,-0.6734307095214855,0.002181661564992912,0.003272492347489368,-0.002181661564992912
1590512647.8072507,0.05265714285714286,-4.343671428571429,8.692657142857142,0.4222222222222222,0.42777777777777776,-0.6577777777777778,0.000800981460290255,0.0012014721904353822,-0.0014913215126415836
1590512647.8172507,0.06721587563302321,-4.347215875633023,8.613409492403722,0.4222222222222222,0.42777777777777776,-0.6577777777777778,-0.0007871299263167808,0.002361389778950343,-0.0018779607088132368
1590512647.8272507,0.07,-4.35,8.602105919765165,0.4222222222222222,0.42777777777777776,-0.6577777777777778,-0.00028703685732178025,0.003272492347489368,-0.002181661564992912
1590512647.8372507,0.07,-4.362136047009378,8.640340117523445,0.4222222222222222,0.42777777777777776,-0.6577777777777778,0.0006619186827827076,0.0006248176163585377,-0.0015197428822102043
1590512647.8472507,0.05639862327909888,-4.349597934918648,8.673601376720901,0.4222222222222222,0.43306720205812815,-0.6668453622583785,0.0003489907619219731,0.002618369320375958,-0.001090830782496456
1590512647.8572507,0.05622898664571877,-4.333771013354281,8.68,0.4222222222222222,0.4355555555555555,-0.6711111111111111,0.0,0.003004369054603947,-0.00041135374480551744
1590512647.8672507,0.06679160195914467,-4.343583203918289,8.605292378449409,0.4222222222222222,0.4355555555555555,-0.6711111111111111,-0.000740848847949824,-4.088497885656019e-05,0.0
1590512647.8772507,0.0634271509227269,-4.35,8.583145698154546,0.4222222222222222,0.4355555555555555,-0.6711111111111111,-0.001090830782496456,-0.0003738441722771624,-0.0007169866102192936
1590512647.8872507,0.06,-4.353667385621849,8.61567169935294,0.4222222222222222,0.4355555555555555,-0.6711111111111111,-0.0006907810697367178,0.0012001491382792144,-0.0006907810697367178
1590512647.8972507,0.06,-4.35965847248211,8.657609307374766,0.4222222222222222,0.4355555555555555,-0.6711111111111111,-3.7254872958462915e-05,0.0031607277286139794,-3.7254872958462915e-05
1590512647.9072506,0.06643045316685485,-4.36286090633371,8.696430453166855,0.4222222222222222,0.4355555555555555,-0.6877777777777778,0.0007014536259807079,0.0007014536259807079,0.0
1590512647.9172506,0.05458969625776137,-4.35,8.635896962577613,0.4222222222222222,0.4355555555555555,-0.6877777777777778,0.000590172586468967,0.0,-0.000590172586468967
1590512647.9272506,0.05500953335056877,-4.344990466649431,8.615047666752844,0.4222222222222222,0.4355555555555555,-0.6877777777777778,-2.079854452148675e-06,-0.0005464553184743023,-0.0016372861009707582
1590512647.9372506,0.06,-4.343239490259265,8.652957961037059,0.4222222222222222,0.4355555555555555,-0.6877777777777778,-0.0007374572130561217,-0.001090830782496456,-0.001121540856671909
1590512647.9472506,0.06,-4.345914947058441,8.688170105883117,0.4222222222222222,0.4355555555555555,-0.6755226189531021,0.0013368304490339394,-0.0006452206328184762,0.001090830782496456
1590512647.9572506,0.06,-4.345277477087392,8.678890091650429,0.4222222222222222,0.4355555555555555,-0.6577777777777778,0.0026968089014046035,0.0,0.0005151473364116915
1590512647.9672506,0.07038472612106816,-4.355192363060534,8.613268732455193,0.4222222222222222,0.4355555555555555,-0.6577777777777778,0.0010488636729272948,-0.0011327978920656172,0.0005663989460328086
1590512647.9772506,0.07439808682855041,-4.36,8.57560191317145,0.4222222222222222,0.4355555555555555,-0.6577777777777778,-0.001222147865657913,0.0002626341663229141,0.0017019047153254124
1590512647.9872506,0.07,-4.354960594195836,8.63039405804164,0.4222222222222222,0.4355555555555555,-0.6577777777777778,-0.0016319476673255639,0.0010822337696582158,0.0010822337696582158
1590512647.9972506,0.07,-4.35,8.685019191143791,0.4261260375562828,0.4416901225090793,-0.6611239052069725,4.186858079962977e-06,0.0005475088202882095,-0.0005475088202882095
1590512648.0072505,0.07,-4.35,8.703889084300622,0.43,0.4477777777777778,-0.6644444444444444,0.0026058948520770657,0.001090830782496456,-0.0003332987477061513
1590512648.0172505,0.0488172804532578,-4.35,8.625269121813032,0.43,0.4477777777777778,-0.6644444444444444,0.0017320415115843158,0.002631281618401508,0.0007702254179525259
1590512648.0272505,0.06054873580065959,-4.35,8.61739831440088,0.43,0.4477777777777778,-0.6644444444444444,0.0025851770193462183,0.0017781461106396057,0.001090830782496456
1590512648.0372505,0.07,-4.35742681737939,8.644853634758782,0.43,0.4477777777777778,-0.6644444444444444,0.0024623522461475083,0.001090830782496456,0.001090830782496456
1590512648.0472505,0.07,-4.368478117671858,8.666956235343715,0.43,0.4477777777777778,-0.6644444444444444,0.001256842391583999,0.001090830782496456,0.001090830782496456
1590512648.0572505,0.07,-4.352942681024119,8.691770724096479,0.43666666666666665,0.4211111111111111,-0.6577777777777778,0.0,-0.00032099670441777437,-0.00012784066924313264
1590512648.0672505,0.07746534189923791,-4.363732670949619,8.664009935755717,0.43666666666666665,0.4211111111111111,-0.6577777777777778,0.0,-0.0006836595452189924,0.000552976615883058
1590512648.0772505,0.08355250085800474,-4.363552500858004,8.579671248712993,0.43666666666666665,0.4211111111111111,-0.6577777777777778,0.0007033130534207926,0.0003516565267103963,-0.0018300050382825156
1590512648.0872505,0.06708704659804664,-4.35,8.607282383504883,0.43666666666666665,0.4211111111111111,-0.6577777777777778,0.0017050306791686358,0.0007730768586136053,-0.0007730768586136053
1590512648.0972505,0.05581212452211906,-4.34709393773894,8.664530311305297,0.4347292918259603,0.42724613144001455,-0.6577777777777778,-0.0004568263484534585,-0.0001398241314319597,0.001090830782496456
1590512648.1072505,0.06891872252298079,-4.341081277477019,8.696756167568942,0.43,0.44222222222222224,-0.6577777777777778,0.001090830782496456,0.001827814338087111,0.001090830782496456
1590512648.1172504,0.056399461864845284,-4.35,8.637595156783608,0.43,0.44222222222222224,-0.6577777777777778,0.0006980729993585413,8.744256691728815e-05,0.001090830782496456
1590512648.1272504,0.06294301815904822,-4.35431433938635,8.588628678772698,0.43,0.44222222222222224,-0.6577777777777778,0.0,0.0017110401441162318,0.001561452203373136
1590512648.1372504,0.0755998009758603,-4.351199601951721,8.626401194144838,0.43,0.44222222222222224,-0.6577777777777778,0.0004799872544642454,0.0006108435280322106,0.0012216870560644213
1590512648.1472504,0.07,-4.345470973746461,8.665470973746462,0.4245290262535386,0.43492759056027375,-0.6562580628482052,0.0007924354538529535,-0.00029839532864350257,0.0008951859859305076
1590512648.1572504,0.0759733374511015,-4.342079987646696,8.697920012353304,0.41,0.4155555555555556,-0.6522222222222223,0.0006515900365900438,-0.001090830782496456,0.003272492347489368
1590512648.1672504,0.07366001253676649,-4.349019962389701,8.614900188051498,0.41,0.4155555555555556,-0.6522222222222223,0.001090830782496456,-0.00039924543394278167,0.0025809069989356937
1590512648.1772504,0.057115690144913585,-4.36,8.605095084492802,0.41,0.4155555555555556,-0.6522222222222223,0.00038810069243892006,0.0007027300900575359,0.002181661564992912
