time,acc_x,acc_y,acc_z,mag_x,mag_y,mag_z,gyr_x,gyr_y,gyr_z
1590515622.5484235,0.03,-4.36,8.71,0.4033333333333333,0.27111111111111114,-0.6266666666666667,0.009817477042468105,-0.016362461737446838,0.007635815477475192
1590515622.5584235,0.03842889009465244,-4.309426659432085,8.667855549526738,0.4033333333333333,0.27111111111111114,-0.6266666666666667,0.01533417270898391,-0.02095970812621001,0.016830308255001536
1590515622.5684235,0.030734958731537792,-4.3277951238053864,8.687795123805387,0.4033333333333333,0.27111111111111114,-0.6266666666666667,0.01029850640740369,-0.015752660319885967,0.030672033962526057
1590515622.5784235,0.0,-4.281677045619117,8.72,0.4355555555555555,0.2577777777777778,-0.6133333333333333,0.005637091210980599,-0.013266113679962327,0.043646817316845166
1590515622.5884235,0.011615033915267432,-4.293318581118648,8.716681418881352,0.4355555555555555,0.2577777777777778,-0.6133333333333333,0.005820982607292219,-0.008907646781893278,0.057256546953647236
1590515622.5984235,0.0765602601049287,-4.313280130052464,8.708747013473237,0.4355555555555555,0.2577777777777778,-0.6133333333333333,0.002181661564992912,-0.010056014831256094,0.07209668980620958
1590515622.6084235,0.13459104892329066,-4.346886573384936,8.782295524461645,0.4355555555555555,0.2577777777777778,-0.6133333333333333,0.002557265876703362,-0.011999138607461015,0.08143670437552375
1590515622.6184235,0.16788905428202838,-4.396833581423043,8.798944527141014,0.4355555555555555,0.2577777777777778,-0.6133333333333333,0.005281452569781591,-0.011999138607461015,0.07871251768244551
1590515622.6284235,0.18,-4.4151659460091155,8.72677729733941,0.4033333333333333,0.2577777777777778,-0.6055555555555555,0.0030967211842391406,-0.008938621226216968,0.06552225455577755
1590515622.6384234,0.18,-4.390657940867126,8.710438627244752,0.4033333333333333,0.2577777777777778,-0.6055555555555555,0.0022055849700237055,-0.004482940155139793,0.054828619985192326
1590515622.6484234,0.1974390634679883,-4.416158595201982,8.640243746128048,0.4033333333333333,0.2577777777777778,-0.6055555555555555,0.002181661564992912,-0.0005587096802276178,0.042176545413108626
1590515622.6584234,0.2126600309666003,-4.4063300154833005,8.634893312688934,0.4033333333333333,0.2577777777777778,-0.6055555555555555,0.002315105967729631,-0.0010241085811280965,0.02524582796075791
1590515622.6684234,0.13844105286441052,-4.369220526432205,8.684372631423727,0.4033333333333333,0.2577777777777778,-0.6055555555555555,0.003664445067051281,-0.0003494390314672714,0.01580045426550636
1590515622.6784234,0.08415066238143765,-4.357924668809281,8.725849337618563,0.4033333333333333,0.2577777777777778,-0.6170022993911839,0.0009055340586844453,-0.002593341803476034,0.00745051875366318
1590515622.6884234,0.08664045371360235,-4.353359546286398,8.736640453713603,0.4033333333333333,0.2577777777777778,-0.62,0.0028974445282161387,-0.005445575743651471,0.0058206235629247
1590515622.6984234,0.09,-4.36819397473275,8.68541807580175,0.4033333333333333,0.2577777777777778,-0.62,0.006347977899430493,-0.008529639464423405,0.0024771717583152754
1590515622.7084234,0.10975873364586806,-4.350080422118044,8.700241266354132,0.4033333333333333,0.2577777777777778,-0.62,0.010890762440573373,-0.015245312878363605,-0.0021728888727973183
1590515622.7184234,0.08507718561817149,-4.358307604793943,8.724922814381829,0.4033333333333333,0.2577777777777778,-0.62,0.009095869617354964,-0.01255297364353599,-0.001275442461188114
1590515622.7284234,0.08733891397731028,-4.345322172045379,8.75201674193193,0.4074105077651724,0.2675629964141915,-0.6093993464772185,0.007125543604662938,-0.007996381969189243,-0.002691933437805166
1590515622.7384233,0.07142220782376286,-4.330711103911882,8.765022272616829,0.4088888888888889,0.27111111111111114,-0.6055555555555555,0.00693283171329569,-0.008416368645318084,0.000935691975169674
1590515622.7484233,0.08840730541832023,-4.33920365270916,8.705574431035878,0.4088888888888889,0.27111111111111114,-0.6055555555555555,0.011564798538258116,-0.004710795185348143,-0.0009170947548152962
1590515622.7584233,0.09047099176793413,-4.340156997255978,8.680941983535869,0.4088888888888889,0.27111111111111114,-0.6055555555555555,0.012016264351419849,-0.00545415391248228,0.002130284333116413
1590515622.7684233,0.11513367306938455,-4.348377891023127,8.730267346138769,0.4088888888888889,0.27111111111111114,-0.6055555555555555,0.01291302474950391,-0.00545415391248228,-0.0005599968611357739
1590515622.7784233,0.11,-4.339898890817174,8.74,0.4033333333333333,0.2577777777777778,-0.62,0.009795418440664058,-0.005443124611580256,0.001090830782496456
1590515622.7884233,0.10952827435242612,-4.330471725647574,8.734811017876687,0.4033333333333333,0.2577777777777778,-0.62,0.007481443620295194,-0.004260408558532491,0.00103937349676979
1590515622.7984233,0.10187723458591755,-4.338122765414083,8.650649580445094,0.4033333333333333,0.2577777777777778,-0.62,0.004977646711671579,-0.002591210619450082,0.00020477452722858502
1590515622.8084233,0.09025582612443432,-4.34,8.668976695502263,0.4033333333333333,0.2577777777777778,-0.62,0.002237474167292857,-0.0011187370836464284,0.0
1590515622.8184233,0.10204976772132421,-4.346024883860662,8.694099535442648,0.4033333333333333,0.2577777777777778,-0.62,-0.0004471899454776126,0.0021952336055916996,-0.0019716386328528937
1590515622.8284233,0.10454659208008243,-4.333639776240247,8.726360223759754,0.39909179384006416,0.2650489883376679,-0.6084872499468407,-0.0027765360878485162,0.001983825038563406,-0.0014878687789225545
1590515622.8384233,0.1,-4.338549934173406,8.721450065826595,0.3955555555555556,0.27111111111111114,-0.5988888888888889,0.0017862174549192018,0.0030352258814451416,0.0
1590515622.8484232,0.09068734578780402,-4.349312654212196,8.654811420514628,0.3955555555555556,0.27111111111111114,-0.5988888888888889,-0.000865897399429686,0.0012407863712076356,0.0
1590515622.8584232,0.08122678418851464,-4.341226784188515,8.711412510680399,0.3955555555555556,0.27111111111111114,-0.5988888888888889,-0.0030048495562270275,0.001090830782496456,-0.0009570093868652858
1590515622.8684232,0.08747730393261881,-4.3325226960673815,8.742431911797857,0.3955555555555556,0.27111111111111114,-0.5988888888888889,-0.0008255503575546473,-0.002987405867394745,-0.001090830782496456
1590515622.8784232,0.09638257086241062,-4.349147712587232,8.75638257086241,0.40406565003876976,0.2746569838124504,-0.5988888888888889,-0.000696230476818245,-0.002274631699531089,-0.001787061259314701
1590515622.8884232,0.10913277164439279,-4.36,8.732601685066822,0.4088888888888889,0.2766666666666667,-0.5988888888888889,-0.001090830782496456,-9.45999385750121e-05,0.0008070309667714192
1590515622.8984232,0.11,-4.332518367984993,8.668166327966235,0.4088888888888889,0.2766666666666667,-0.5988888888888889,0.0011575049791442778,0.0007494452538802446,0.0003413855286162114
1590515622.9084232,0.11839974721763859,-4.3451992416529155,8.665199241652916,0.4088888888888889,0.2766666666666667,-0.5988888888888889,0.0012653912819739987,0.001090830782496456,0.0
1590515622.9184232,0.08466446124763705,-4.364134215500945,8.740671077504725,0.4088888888888889,0.2766666666666667,-0.5988888888888889,0.0003199289147529776,0.001090830782496456,-0.0015418037354869567
1590515622.9284232,0.07920611697495385,-4.351587766050092,8.77,0.41502630020552483,0.2521170214001231,-0.6183240247249026,0.0,-0.0019218639525663864,-0.00017319840828435018
1590515622.9384232,0.08,-4.331375343366281,8.779312328316859,0.4155555555555556,0.25,-0.62,0.0,-0.003197479003467296,-0.0010158174384743838
1590515622.9484231,0.08937859083151037,-4.348757181663021,8.648699728358855,0.4155555555555556,0.25,-0.62,0.0020460911150901096,-0.001226401232399258,-6.778522495140115e-05
1590515622.9584231,0.12022628194847419,-4.349773718051526,8.69,0.4155555555555556,0.25,-0.62,0.0011278560797342962,-0.0032601505817434215,-3.7025297237840256e-05
1590515622.9684231,0.13245687958359456,-4.337543120416405,8.69,0.4155555555555556,0.25,-0.62,0.0031290829380419428,-0.002593074962307539,-0.002038252155545487
1590515622.978423,0.12217585748078061,-4.335941380839739,8.725648285038439,0.41159463499572907,0.2625429151061174,-0.6114180054537092,0.004363323129985824,-0.0015335574539406304,-0.0013281800143325232
1590515622.988423,0.07007158117305025,-4.339856837653899,8.759355769442548,0.4088888888888889,0.27111111111111114,-0.6055555555555555,7.80829470104064e-06,0.0021660449755908306,0.0
1590515622.998423,0.07930951699226924,-4.321380966015462,8.676214347069577,0.4088888888888889,0.27111111111111114,-0.6055555555555555,0.0010155107705341101,0.00015064002392469172,0.0
1590515623.008423,0.07212308191929853,-4.335753836161403,8.701507672322807,0.4088888888888889,0.27111111111111114,-0.6055555555555555,0.001090830782496456,0.0017184769427264132,-0.0008592384713632066
1590515623.018423,0.09133428203564412,-4.34,8.752668564071287,0.4088888888888889,0.27111111111111114,-0.6055555555555555,0.001090830782496456,0.0006301887938634629,-0.00031509439693173144
1590515623.028423,0.09386339717954115,-4.34,8.77,0.4088888888888889,0.27111111111111114,-0.601464487008583,0.0004214312568453473,0.0020081985769533264,-0.0013387990513022174
1590515623.038423,0.12660175343316005,-4.34,8.75169912328342,0.4088888888888889,0.27111111111111114,-0.5988888888888889,0.0029944739503677247,0.003272492347489368,0.0008128123853748128
1590515623.048423,0.11703995305393906,-4.352960046946061,8.665759694850603,0.4088888888888889,0.27111111111111114,-0.5988888888888889,0.003272492347489368,0.003272492347489368,0.0003839698749283335
1590515623.058423,0.10198637419761353,-4.3519863741976135,8.676095380616704,0.4088888888888889,0.27111111111111114,-0.5988888888888889,0.003272492347489368,0.003272492347489368,-0.0017483019409302077
1590515623.068423,0.1,-4.338156695339581,8.678156695339581,0.4088888888888889,0.27111111111111114,-0.5988888888888889,0.003272492347489368,0.003272492347489368,-0.001535709500489498
1590515623.078423,0.10596772446658724,-4.33,8.693870897866349,0.41684585484433856,0.27111111111111114,-0.5988888888888889,-0.0032372852021212385,0.00587640336733361,-0.0017418085374575165
1590515623.088423,0.14544370860927153,-4.250251655629139,8.550503311258277,0.4222222222222222,0.27111111111111114,-0.5988888888888889,-0.012468701527078695,0.010535547107237293,0.0007180700647691904
1590515623.098423,0.0063309301501004445,-4.491420872237324,8.88019335775913,0.4222222222222222,0.27111111111111114,-0.5988888888888889,-0.03267979987557046,0.023641697640612996,0.004029305355338404
1590515623.108423,0.003379680665694676,-4.479860958002916,8.879860958002915,0.4222222222222222,0.27111111111111114,-0.5988888888888889,-0.015203378874234817,0.013413133973328545,0.004363323129985824
1590515623.118423,0.10699767132401862,-4.317736748724773,8.653071634508759,0.4222222222222222,0.27111111111111114,-0.5988888888888889,0.01711822917246989,-0.010704245779048445,0.00013100130155729254
1590515623.128423,0.11731254438364175,-4.3070802873971346,8.69245519862985,0.3985069691020232,0.26298016718418576,-0.6076974114763913,0.0061700358210169115,-0.005425925094663799,-0.0015164502705247006
1590515623.138423,0.06528911865727134,-4.35,8.814710881342728,0.38333333333333336,0.2577777777777778,-0.6133333333333333,-0.029392445283942074,0.02502912215395625,0.0016047082206301219
1590515623.148423,0.05071582860300397,-4.294294971618024,8.708589943236047,0.38333333333333336,0.2577777777777778,-0.6133333333333333,-0.03381575425739013,0.02438870115249611,0.006232645544919469
1590515623.158423,-0.5232899500481187,-3.645048806195866,8.520846890609963,0.38333333333333336,0.2577777777777778,-0.6133333333333333,-0.05042694101011176,0.015204119522304698,0.03488171503785681
1590515623.168423,-0.3948443026964338,-3.2447405044940565,8.72406765245965,0.38333333333333336,0.2577777777777778,-0.6133333333333333,-0.09257089215950703,-0.019722604293940516,0.11308194772010785
1590515623.178423,-0.34904148984673655,-2.771502121839161,9.187539368007576,0.4145260446501986,0.2577777777777778,-0.6337699372995554,-0.14389551204077816,0.008458232947798426,0.2790851898001796
1590515623.188423,-0.3974435168697824,-2.5227824156510876,9.209488703373957,0.4155555555555556,0.2577777777777778,-0.6344444444444445,-0.09229258846795113,-0.01295377635536925,0.45233028998760083
1590515623.198423,-0.35698789702730205,-2.4583854764327624,8.719662026111244,0.4155555555555556,0.2577777777777778,-0.6344444444444445,-0.0293918989582758,-0.05359269796417596,0.6472203677284049
1590515623.208423,-0.3227737926272584,-2.490839311059112,8.789744140550079,0.4155555555555556,0.2577777777777778,-0.6344444444444445,-0.030772148494743124,-0.06296561154658692,0.8147646469845846
1590515623.218423,-0.3051512537382102,-2.5584874626178973,8.801815044858524,0.4155555555555556,0.2577777777777778,-0.6344444444444445,-0.03070825414350817,-0.07282167485349068,0.9622494490504789
1590515623.2284229,-0.3,-2.6631640211640213,8.781349794238684,0.41161747991377623,0.25318335619570187,-0.6088469527728787,-0.023156009637184907,-0.08825596988801279,1.1355263713943644
1590515623.2384229,-0.3,-2.7737302020753685,8.80385581649372,0.4088888888888889,0.25,-0.5911111111111111,-0.023157068550320722,-0.10076333391454838,1.2581312196022203
1590515623.2484229,-0.3,-2.850935025982632,8.8,0.4088888888888889,0.25,-0.5911111111111111,-0.02990363096977895,-0.1125595616219927,1.368109254264086
1590515623.2584229,-0.3,-2.8719882299223785,8.817982344883568,0.4088888888888889,0.25,-0.5911111111111111,-0.033595662226443536,-0.12238351029831313,1.4396283940031926
1590515623.2684228,-0.3211174735380878,-2.916955578691654,8.840558736769044,0.4088888888888889,0.25,-0.5911111111111111,-0.03433069528528908,-0.13108254007967043,1.5134487802199406
1590515623.2784228,-0.35593151479976787,-2.960621009866512,8.855310504933255,0.4200999548590959,0.24704971948152446,-0.6029122331850132,-0.03381575425739013,-0.13648933114778206,1.5895297469075318
1590515623.2884228,-0.3834038715048914,-3.0102116145146742,8.880105807257337,0.43,0.24444444444444444,-0.6133333333333333,-0.03454682203949827,-0.13707337381283363,1.667008729499883
1590515623.2984228,-0.39,-3.03,8.795280218042002,0.43,0.24444444444444444,-0.6133333333333333,-0.035767612155479384,-0.13549282069646418,1.7297055491860647
1590515623.3084228,-0.4284622495435742,-3.083847149361004,8.77,0.43,0.24444444444444444,-0.6133333333333333,-0.03851476416835451,-0.1335847847989129,1.7795652701692393
1590515623.3184228,-0.4596069368890343,-3.1457495194077465,8.802678228148391,0.43,0.24444444444444444,-0.6133333333333333,-0.03998283651350655,-0.13807185387000653,1.82037420694818
1590515623.3284228,-0.5351777509856952,-3.2188833132392713,8.828147218873212,0.4399577119561479,0.19556113120517304,-0.6241962918309493,-0.03947201523850531,-0.14516078951136063,1.8634186420713055
1590515623.3384228,-0.5725848715765869,-3.237528290525529,8.83,0.44222222222222224,0.18444444444444444,-0.6266666666666667,-0.0409123263788371,-0.14945616127245448,1.890214188810984
1590515623.3484228,-0.6215833771699105,-3.231683324566018,8.680299842188322,0.44222222222222224,0.18444444444444444,-0.6266666666666667,-0.04054436117772335,-0.16142115067021465,1.9223565703613124
1590515623.3584228,-0.6431238907287797,-3.21687610927122,8.682809726821949,0.44222222222222224,0.18444444444444444,-0.6266666666666667,-0.04250813055132979,-0.16434041457412205,1.944677125462925
1590515623.3684227,-0.6726129279051976,-3.2175376426350657,8.733919391857796,0.44222222222222224,0.18444444444444444,-0.6266666666666667,-0.046099919083994495,-0.1671821359411011,1.9594335362808037
1590515623.3784227,-0.7165173297274215,-3.2365173297274215,8.793910397836452,0.44482915411319085,0.1809685352564863,-0.6266666666666667,-0.04918291345074788,-0.17069168854103553,1.9709401674942812
1590515623.3884227,-0.7923593843878541,-3.3002246152424086,8.832134769145446,0.4622222222222222,0.15777777777777774,-0.6266666666666667,-0.041218702545127786,-0.16557341174972376,1.9873098219629326
1590515623.3984227,-0.8535090210491146,-3.3435090210491145,8.82298195790177,0.4622222222222222,0.15777777777777774,-0.6266666666666667,-0.04516433057057913,-0.16141420897420336,1.997751431239235
1590515623.4084227,-0.8941208187718422,-3.367060409385921,8.82137360625728,0.4622222222222222,0.15777777777777774,-0.6266666666666667,-0.04613555245782863,-0.1597317910363072,2.003685325051859
1590515623.4184227,-0.9440702355203077,-3.3751859528959383,8.83,0.4622222222222222,0.15777777777777774,-0.6266666666666667,-0.04419893100540487,-0.15873616316753275,2.0034121536262335
1590515623.4284227,-0.9938331294662975,-3.3382224940449365,8.83,0.47899368369850565,0.1268829803214661,-0.6266666666666667,-0.04363323129985824,-0.15730386641981742,1.9849849083394635
1590515623.4384227,-1.0244866056056745,-3.338162201868558,8.732053577577302,0.4833333333333333,0.11888888888888888,-0.6266666666666667,-0.03829108266915422,-0.15173748404878565,1.9586897483856303
1590515623.4484227,-1.104193830480313,-3.3474193830480314,8.695161233903937,0.4833333333333333,0.11888888888888888,-0.6266666666666667,-0.04113489231284197,-0.15458129369247336,1.9293980572033778
1590515623.4584227,-1.15737669179762,-3.3636883458988103,8.70368834589881,0.4833333333333333,0.11888888888888888,-0.6266666666666667,-0.037316316343603384,-0.15225588463002293,1.9015418381880134
1590515623.4684227,-1.1960036716301667,-3.3647992656739665,8.767208077586368,0.4833333333333333,0.11888888888888888,-0.6266666666666667,-0.037175833477655844,-0.148832711656184,1.87273548380087
1590515623.4784226,-1.2467410305502373,-3.3533147423624405,8.813314742362442,0.49967507422514496,0.09734750316786445,-0.6266666666666667,-0.03708216272388164,-0.14726215563702155,1.826700887928092
1590515623.4884226,-1.3247724889914028,-3.304659257706018,8.81,0.5077777777777778,0.08666666666666667,-0.6266666666666667,-0.035997415822383035,-0.1465555973885142,1.791057454805382
1590515623.4984226,-1.3802366098381393,-3.286745536612713,8.776272316936435,0.5077777777777778,0.08666666666666667,-0.6266666666666667,-0.038940711415024774,-0.1446996770582042,1.757806113205067
1590515623.5084226,-1.4158618359935815,-3.2835345410016044,8.785861835993583,0.5077777777777778,0.08666666666666667,-0.6266666666666667,-0.03683437810315966,-0.14398966328953214,1.7263527484640673
1590515623.5184226,-1.43,-3.243540280246352,8.810417062786756,0.5077777777777778,0.08666666666666667,-0.6266666666666667,-0.03433842240233698,-0.14058068746423447,1.696604785682841
1590515623.5284226,-1.4498327448036707,-3.206033451039266,8.835866195842936,0.5157108756992461,0.06639319420069215,-0.6381255858865653,-0.03165233740406607,-0.13484857837056458,1.663870120329944
1590515623.5384226,-1.499776119402985,-3.211865671641791,8.867910447761194,0.5277777777777778,0.03555555555555556,-0.6555555555555556,-0.029655944333093945,-0.12874245391926456,1.6188091622811958
1590515623.5484226,-1.550393126232976,-3.209606873767024,8.818820621301072,0.5277777777777778,0.03555555555555556,-0.6555555555555556,-0.028853411461613944,-0.12155258626399586,1.5593519762245105
1590515623.5584226,-1.5900942507068805,-3.181962299717248,8.768037700282752,0.5277777777777778,0.03555555555555556,-0.6555555555555556,-0.025741550235469618,-0.11649455887628128,1.5085058794630275
1590515623.5684226,-1.6265015755801,-3.1569968488398,8.79625393895025,0.5277777777777778,0.03555555555555556,-0.6555555555555556,-0.026152925814043524,-0.11382802028437784,1.4545366534875899
1590515623.5784225,-1.6464038906901342,-3.110788327929597,8.810788327929597,0.5114122793474345,0.012074623025063045,-0.6612479028356749,-0.027663044235653755,-0.11165701448788086,1.3806642687816832
1590515623.5884225,-1.6749465818563576,-3.0875267090718213,8.80623664546409,0.5022222222222222,-0.0011111111111111113,-0.6644444444444444,-0.024549519621713145,-0.10922380235911483,1.3262503615143524
1590515623.5984225,-1.7307055961070559,-3.0683698296836983,8.763479318734793,0.5022222222222222,-0.0011111111111111113,-0.6644444444444444,-0.022273119043090654,-0.10608926529914438,1.2765453867388514
1590515623.6084225,-1.76,-3.053539311274764,8.781685509801889,0.5022222222222222,-0.0011111111111111113,-0.6644444444444444,-0.02252136746369064,-0.09978649242332914,1.2203086399653449
1590515623.6184225,-1.7709321329907464,-3.05,8.82639819948612,0.5022222222222222,-0.0011111111111111113,-0.6644444444444444,-0.021118680354727914,-0.09529517356448691,1.17119192356697
1590515623.6284225,-1.8187268534693593,-3.0435455244217735,8.904544755782265,0.5058080419879036,-0.014020062267564191,-0.6723332479289436,-0.02033902814949632,-0.08958700290733454,1.1112594491757697
1590515623.6384225,-1.845175809864887,-3.034824190135113,8.90894514081068,0.5077777777777778,-0.021111111111111112,-0.6766666666666666,-0.01959659832243918,-0.08500808950972952,1.062562763109122
1590515623.6484225,-1.862672981878089,-3.034224327292696,8.841981054365734,0.5077777777777778,-0.021111111111111112,-0.6766666666666666,-0.018083320677818444,-0.08152073159586673,1.0061678472379945
1590515623.6584225,-1.8981786377783674,-3.0218213622216323,8.79,0.5077777777777778,-0.021111111111111112,-0.6766666666666666,-0.01613130467511021,-0.07566468358774203,0.9235114683347846
1590515623.6684225,-1.8995255817757963,-3.015237209112102,8.816186045560508,0.5077777777777778,-0.021111111111111112,-0.6766666666666666,-0.012986467389409773,-0.06794404440479618,0.8635797825120217
1590515623.6784225,-1.8864431053223745,-3.0306706840328763,8.83288621064475,0.5141011460935563,-0.03059616358477893,-0.6818044034232367,-0.010132313784074233,-0.06055220624167831,0.8139217065261952
1590515623.6884224,-1.889263970922308,-3.038420036347115,8.817684007269424,0.5255555555555556,-0.04777777777777778,-0.6911111111111111,-0.00796873941120622,-0.0541165562097884,0.7642923719409747
1590515623.6984224,-1.948742063971032,-2.996407242003621,8.795628968014483,0.5255555555555556,-0.04777777777777778,-0.6911111111111111,-0.007805608522388581,-0.04987120341564262,0.7142068994571761
1590515623.7084224,-2.005820483749055,-2.99,8.787461451247164,0.5255555555555556,-0.04777777777777778,-0.6911111111111111,-0.01295151303383448,-0.0519039630615824,0.6984491589398563
1590515623.7184224,-2.033535951045385,-2.9824800271970084,8.822480027197008,0.5255555555555556,-0.04777777777777778,-0.6911111111111111,-0.014615389529587226,-0.05361476869866712,0.7054568251211782
1590515623.7284224,-2.202444444444444,-2.8417777777777777,8.797333333333333,0.5217037037037037,-0.06639506172839506,-0.7206419753086419,-0.02036217460660051,-0.06273489033557396,0.7829013729397343
1590515623.7384224,-2.2402252624367835,-2.7997747375632165,8.804045052487357,0.5188888888888888,-0.08,-0.7422222222222222,-0.03766411365031863,-0.08041485139617237,0.8819660843192474
1590515623.7484224,-2.2967242449596506,-2.7786869450217266,8.711472025046557,0.5188888888888888,-0.08,-0.7422222222222222,-0.022835079638995535,-0.08578211897711185,1.0113463704689938
1590515623.7584224,-2.1615828756513165,-2.938417124348683,8.813294841102193,0.5188888888888888,-0.08,-0.7422222222222222,-0.019967687428815564,-0.0853641782468205,1.1251926946248554
1590515623.7684224,-2.0988982161594962,-3.05,8.9002203567681,0.5188888888888888,-0.08,-0.7422222222222222,-0.023536992004695306,-0.09044280616889556,1.1877991146790055
1590515623.7784224,-2.184128809278522,-2.9866179256256022,8.894875544182646,0.5188888888888888,-0.07024891163470805,-0.7563071276387551,-0.01857127534976586,-0.08692468756341404,1.230158450135415
1590515623.7884223,-2.250167687633037,-2.872593633719513,8.947406366280488,0.5188888888888888,-0.06,-0.7711111111111111,-0.032026765541550276,-0.09734429765794739,1.2396355890657327
1590515623.7984223,-2.299703213146922,-2.8124258032867306,8.95663232769193,0.5188888888888888,-0.06,-0.7711111111111111,-0.0478290636106528,-0.11397001085751848,1.2422620147223564
1590515623.8084223,-2.3609552712874735,-2.775778183875038,8.829799634512465,0.5188888888888888,-0.06,-0.7711111111111111,-0.03226439477617884,-0.09221637484517346,1.272703689371541
1590515623.8184223,-2.3728912114014253,-2.735490736342043,8.883872684085512,0.5188888888888888,-0.06,-0.7711111111111111,-0.030404381791274138,-0.09666149534104866,1.2898914912735449
1590515623.8284223,-2.306664257989925,-2.7666673548600214,8.893333677430011,0.49925723291215895,-0.07000103229003221,-0.7859274552444921,-0.03163352966552542,-0.09344757428798955,1.2969979129936604
1590515623.8384223,-2.2671611898227133,-2.7298716712410056,8.824807506861509,0.46,-0.09,-0.8155555555555556,-0.01369530319930811,-0.08093622939919258,1.2878525748213006
1590515623.8484223,-2.3788846837548023,-2.663543972322572,8.859516600722518,0.46,-0.09,-0.8155555555555556,-0.019582223403724872,-0.0794454538005651,1.242890179099244
1590515623.8584223,-2.4944594890396825,-2.6543240876825416,8.965269708246037,0.46,-0.09,-0.8155555555555556,-0.04911692520601268,-0.09953098359836618,1.1962137548181573
1590515623.8684223,-2.5285526264094607,-2.5719298314540526,8.836206144658783,0.46,-0.09,-0.8155555555555556,-0.043384448339405954,-0.09034279997563134,1.1575891506762193
1590515623.8784223,-2.4456965157929016,-2.629394334093129,8.909394334093129,0.42742074604725205,-0.11374420203335867,-0.80782488512609,-0.030510227959144598,-0.07469878483547793,1.124203526609942
1590515623.8884223,-2.402911984589277,-2.644936017979177,8.900632023116085,0.3944444444444444,-0.13777777777777778,-0.8,-0.04461366818602948,-0.0739002958362429,1.0846584303597504
1590515623.8984222,-2.464812104823637,-2.545563685529089,8.770751580705452,0.3944444444444444,-0.13777777777777778,-0.8,-0.03725221607868698,-0.05905516760579881,1.069027830969344
1590515623.9084222,-2.4620761283306143,-2.522404839586732,8.723442903752039,0.3944444444444444,-0.13777777777777778,-0.8,-0.025464670536808173,-0.05277129693489217,1.0728113138036508
1590515623.9184222,-2.5126122392595662,-2.4773877607404335,8.795527006492609,0.3944444444444444,-0.13777777777777778,-0.8,-0.030532261682366266,-0.05580234602593453,1.0597286186149735
1590515623.9284222,-2.593638667173445,-2.3881806664132776,8.874090333206638,0.3812644818897194,-0.1655011472894407,-0.788183481847488,-0.04070700482409633,-0.0550862635045529,1.0171525085912578
1590515623.9384222,-2.5897971398935535,-2.3920811440425784,8.899797139893554,0.3622222222222222,-0.20555555555555555,-0.7711111111111111,-0.04908738521234052,-0.05785828868204259,0.9766754681668298
1590515623.9484222,-2.6248494692705777,-2.3630268575529785,8.903327919011824,0.3622222222222222,-0.20555555555555555,-0.7711111111111111,-0.04723590258664969,-0.048624071597775105,0.9377479096318352
1590515623.9584222,-2.6439669077003933,-2.3219007231011797,8.847768353902753,0.3622222222222222,-0.20555555555555555,-0.7711111111111111,-0.04318245974722981,-0.03776440393382215,0.8620090048657226
1590515623.9684222,-2.6744416198033023,-2.34,8.887778034563336,0.3622222222222222,-0.20555555555555555,-0.7711111111111111,-0.04436061988727749,-0.03405813308698574,0.8013986955316126
1590515623.9784222,-2.771721217485767,-2.3329672695085395,8.88,0.3656083517181105,-0.21571394404322042,-0.7661621526171205,-0.035178431420493046,-0.03260512936836069,0.7394957345936046
1590515623.9884222,-2.820635994058322,-2.3084805722773827,8.889116566335705,0.37666666666666665,-0.2488888888888889,-0.75,-0.02181661564992912,-0.025917827263223295,0.6972875882900975
1590515623.9984221,-2.88,-2.289056712545939,8.877988037760323,0.37666666666666665,-0.2488888888888889,-0.75,-0.0178375240443969,-0.02895162526768788,0.6474116460348796
1590515624.0084221,-2.8926643926473377,-2.2775986355884026,8.785197271176804,0.37666666666666665,-0.2488888888888889,-0.75,-0.007869071769870303,-0.023969585285300937,0.6132084262313506
1590515624.0184221,-2.93,-2.3,8.855869649503722,0.37666666666666665,-0.2488888888888889,-0.75,0.000620507282312219,-0.01980491002086448,0.5733777632598784
1590515624.028422,-2.918288148721921,-2.292192099147947,8.862672347017815,0.3640872708494707,-0.2792529477579826,-0.7582416731216112,0.0029809845086347765,-0.022055736572815638,0.5413663896140506
1590515624.038422,-2.9090960336587557,-2.270903966341244,8.851836117805645,0.34444444444444444,-0.32666666666666666,-0.7711111111111111,0.006147480450435993,-0.02072578486743266,0.5025648703574761
1590515624.048422,-2.894644163618224,-2.2938077818423674,8.873096109078816,0.34444444444444444,-0.32666666666666666,-0.7711111111111111,-0.0002464980102116201,-0.021647749095472152,0.47258983047412473
1590515624.058422,-2.755372871694466,-2.32430593075417,8.829074574338893,0.34444444444444444,-0.32666666666666666,-0.7711111111111111,0.001444149761813074,-0.018912879204029672,0.4596589894725003
1590515624.068422,-2.495946436208651,-2.4874456914477854,8.870264574453966,0.34444444444444444,-0.32666666666666666,-0.7711111111111111,0.011648355278124292,-0.011619494682259578,0.45011903894790256
1590515624.078422,-2.192849853259988,-2.8152848525963394,8.981606176353473,0.34444444444444444,-0.32666666666666666,-0.7711111111111111,0.01704634846587763,-0.004872003197567901,0.4372988051269883
1590515624.088422,-2.1489499160965533,-2.5624893507164064,9.07890731896218,0.3422222222222222,-0.3466666666666667,-0.6677777777777778,0.06325713204589861,0.04965547050884005,0.41618566676654506
1590515624.098422,-2.2626920899957548,-2.3722267817555776,8.645546436488845,0.3422222222222222,-0.3466666666666667,-0.6677777777777778,0.08313943211482357,0.10147818533715697,0.43555945468133894
1590515624.108422,-2.5310863329173623,-2.244568335413189,8.778913667082637,0.3422222222222222,-0.3466666666666667,-0.6677777777777778,0.013637992394132437,0.0053641514893636305,0.400218482727911
1590515624.118422,-2.5747156321091973,-2.166806629834254,8.851942151446213,0.3422222222222222,-0.3466666666666667,-0.6677777777777778,-0.07224391117280704,-0.14601385100545622,0.32399297901172963
1590515624.128422,-2.833928713501472,-2.2408330018298988,9.381814185694964,0.3485053173150874,-0.3353570954995094,-0.6677777777777778,-0.11258273660661738,-0.14271360650675385,0.2086732643185095
1590515624.138422,-2.9385026737967914,-2.04,8.604625668449197,0.3644444444444445,-0.30666666666666664,-0.6677777777777778,-0.029052848728468444,-0.01917558015915227,0.15789629743643885
1590515624.148422,-3.0152416280969234,-2.0590520351211543,8.730501803702696,0.3644444444444445,-0.30666666666666664,-0.6677777777777778,0.03910771651153022,0.02331905092129467,0.09027133314244756
1590515624.158422,-3.0518032786885247,-2.1077049180327867,8.945409836065574,0.3644444444444445,-0.30666666666666664,-0.6677777777777778,-0.011677254114265338,-0.009942654345377534,0.01666646375879831
1590515624.168422,-3.178766336810199,-2.128630649906392,9.004384416510653,0.3644444444444445,-0.30666666666666664,-0.6677777777777778,-0.018409823818564597,-0.01554077451148397,-0.08396382337315303
1590515624.178422,-3.324036967271015,-2.0478890981869555,8.879753551526568,0.3681989465330648,-0.30136619312979096,-0.6649066879453035,0.016152360588381123,0.01962151240588025,-0.14523010766534256
1590515624.188422,-3.2948422187612314,-2.156104468671379,9.019368875044925,0.38333333333333336,-0.28,-0.6533333333333333,0.0058446679347963935,0.021610080491350298,-0.1819277829918995
1590515624.198422,-3.22641620751865,-2.2005972987468914,8.803949973182506,0.38333333333333336,-0.28,-0.6533333333333333,0.01554065538802206,0.022207546765602673,-0.14389929703571866
1590515624.208422,-3.204099322799097,-2.22948532731377,8.737169300225734,0.38333333333333336,-0.28,-0.6533333333333333,0.03208125944206167,0.026767460731841924,-0.09705783849930769
1590515624.218422,-3.203122249596466,-2.2930240421374566,8.865365729334806,0.38333333333333336,-0.28,-0.6533333333333333,0.028622395178660418,0.01838454377585247,-0.06663653665348118
1590515624.228422,-3.1177675542165404,-2.391913524957251,8.901913524957251,0.38379399674896786,-0.27961020787907853,-0.6531207194491944,0.011929560876579526,0.002959392558522671,-0.0434716629264879
1590515624.238422,-3.0452895694929247,-2.4441119618661564,8.949401531359081,0.3977777777777778,-0.2677777777777778,-0.6466666666666666,0.012258161275533825,-0.004618128721505799,-0.00943632292432635
1590515624.248422,-3.0138043763840408,-2.404755470480051,8.878559846864091,0.3977777777777778,-0.2677777777777778,-0.6466666666666666,0.028572044747641474,0.00826125296700024,-0.036053711747238835
1590515624.258422,-2.9131113893894502,-2.453311138938945,8.88648911151156,0.3977777777777778,-0.2677777777777778,-0.6466666666666666,0.022921972629584137,0.018908944079701784,-0.16699153000348843
1590515624.268422,-2.771834022206013,-2.42775103330902,8.775917011103006,0.3977777777777778,-0.2677777777777778,-0.6466666666666666,0.036978712660515035,0.026315729045083475,-0.27706651009295163
1590515624.2784219,-2.767413147634473,-2.414942098422982,8.814478885806839,0.403818120294756,-0.26420848447229067,-0.6450193005256726,0.035289824175001434,0.03491921720439981,-0.45021013165735974
1590515624.2884219,-2.7987386978530284,-2.4409233723162855,8.94890766276837,0.4222222222222222,-0.2533333333333333,-0.64,0.006544984694978735,0.031634092692397225,-0.74176493209759
1590515624.2984219,-2.8727544518595525,-2.5327544518595526,8.89868322210671,0.4222222222222222,-0.2533333333333333,-0.64,0.01255426644958797,0.03914569488565877,-0.7931442910994989
1590515624.3084219,-2.8797873838827592,-2.5397873838827594,8.79318924175861,0.4222222222222222,-0.2533333333333333,-0.64,0.027897743933825818,0.058325041740956096,-0.9243310235897325
1590515624.3184218,-2.85,-2.6230868747059746,8.900868747059745,0.4222222222222222,-0.2533333333333333,-0.64,0.042447634913864364,0.09072848615420068,-1.2231075711450488
1590515624.3284218,-2.8455428685897437,-2.643371394230769,8.963314302884616,0.4222222222222222,-0.2523428596866097,-0.64,0.037580671919053336,0.11164495727488366,-1.517694588156025
1590515624.3384218,-2.8217299129394564,-2.7024051305908157,8.898649564697282,0.4222222222222222,-0.2488888888888889,-0.64,0.04735678692432594,0.13785434728278947,-1.7177090570068079
1590515624.3484218,-2.7921344421344423,-2.773596673596674,8.81498821898822,0.4222222222222222,-0.2488888888888889,-0.64,0.0456579583738974,0.14812015490114733,-1.8782060483391858
1590515624.3584218,-2.743587484599828,-2.886412515400172,8.799542527720309,0.4222222222222222,-0.2488888888888889,-0.64,0.04467415959787219,0.15699646187201882,-2.0448174404849864
1590515624.3684218,-2.7040763781672874,-2.9555417309962766,8.857038189083642,0.4222222222222222,-0.2488888888888889,-0.64,0.054822964748778555,0.17606502680319314,-2.206448889022373
1590515624.3784218,-2.6831774827005797,-3.097991397045072,8.843177482700579,0.4339721131267793,-0.232211624379195,-0.6453064023439935,0.06475662776165889,0.19972403719745896,-2.377823214473155
1590515624.3884218,-2.67,-3.21,8.83,0.4566666666666666,-0.2,-0.6555555555555556,0.06763150851478028,0.2083486794568231,-2.484912522526926
1590515624.3984218,-2.635974755752325,-3.307012622123837,8.769611970796706,0.4566666666666666,-0.2,-0.6555555555555556,0.06821236702536357,0.2142419194025484,-2.662631242001398
1590515624.4084218,-2.58814133833646,-3.3467279549718576,8.696021263289555,0.4566666666666666,-0.2,-0.6555555555555556,0.0653241865181827,0.2216899697099899,-2.7913134500766383
1590515624.4184217,-2.556683767484714,-3.439985342155959,8.816661780718654,0.4566666666666666,-0.2,-0.6555555555555556,0.06144906813213472,0.23525370686140445,-2.9194025338929968
1590515624.4284217,-2.500191429404334,-3.4775478573510834,8.817739286755417,0.4612984916701756,-0.18910158822703765,-0.6555555555555556,0.06462650343574194,0.24134109020016786,-3.004862935021276
1590515624.4384217,-2.448017134625591,-3.472747858171801,8.785495716343602,0.4755555555555556,-0.15555555555555556,-0.6555555555555556,0.06485035729384032,0.2433634130261073,-3.0779319301193264
1590515624.4484217,-2.387607073827201,-3.4991434093823948,8.788035369136004,0.4755555555555556,-0.15555555555555556,-0.6555555555555556,0.06561743516137233,0.24835495111487074,-3.1192814113334904
1590515624.4584217,-2.3800305280080924,-3.559755775935259,8.750152640040463,0.4755555555555556,-0.15555555555555556,-0.6555555555555556,0.07305569162540239,0.25414026169800524,-3.1349843972019986
1590515624.4684217,-2.2395184200531713,-3.697555639954425,8.80585187998481,0.4755555555555556,-0.15555555555555556,-0.6555555555555556,0.0714090227854991,0.2594844070750956,-3.1530059833379873
1590515624.4784217,-2.1782471579342957,-3.7502837368074915,8.814123578967148,0.48322754968177917,-0.14886296493480736,-0.6555555555555556,0.07430579684922377,0.2616391332753108,-3.1575053026400983
1590515624.4884217,-2.0719008662175167,-3.8181641000962463,8.755507699711261,0.5277777777777778,-0.11,-0.6555555555555556,0.06842548424073114,0.26100541207319855,-3.160633897561638
1590515624.4984217,-1.9599226650803092,-3.840916121356335,8.687251635930993,0.5277777777777778,-0.11,-0.6555555555555556,0.06743164183958164,0.2611997877735535,-3.158246479408942
1590515624.5084217,-1.8321693103268157,-3.85,8.668349206901956,0.5277777777777778,-0.11,-0.6555555555555556,0.0672713613294043,0.2570759174837876,-3.1472834425504033
1590515624.5184216,-1.7597166456349662,-3.8515584490076864,8.690708385912584,0.5277777777777778,-0.11,-0.6555555555555556,0.07199483164476607,0.2618148423823361,-3.1392564461929333
1590515624.5284216,-1.6961852387843706,-3.968762952243126,8.757525904486252,0.5324026692394276,-0.1131643994211288,-0.647766264672777,0.07056099693691385,0.26384610838688066,-3.125396042332823
1590515624.5384216,-1.500674296910468,-4.010725191751691,8.80927480824831,0.5488888888888889,-0.12444444444444445,-0.62,0.06622980490384876,0.266863562734601,-3.1092521573259826
1590515624.5484216,-1.39588560551124,-4.040234318346628,8.72859408992023,0.5488888888888889,-0.12444444444444445,-0.62,0.06949216009650862,0.2631856683983699,-3.0949312594260885
1590515624.5584216,-1.2815462235497879,-4.124605035266949,8.651993272923518,0.5488888888888889,-0.12444444444444445,-0.62,0.07061910178619153,0.2584931620867654,-3.0809934290354373
1590515624.5684216,-1.138470133729569,-4.2244029717682015,8.74889925705795,0.5488888888888889,-0.12444444444444445,-0.62,0.06868570812984073,0.26038497089864765,-3.0689872808764522
1590515624.5784216,-1.0335857793711256,-4.1576391067294045,8.749153782956158,0.578821918490303,-0.15402112845536553,-0.6014700292943627,0.07443402671513441,0.25874312257069404,-3.059255582704481
1590515624.5884216,-0.9908473726713263,-4.272881568321684,8.685763136643368,0.7355555555555555,-0.3088888888888889,-0.5044444444444445,0.06336061940420734,0.254662770703216,-3.0537622614565896
1590515624.5984216,-0.9327391865822744,-4.354543468902954,8.780934904261594,0.7355555555555555,-0.3088888888888889,-0.5044444444444445,0.061234731971969554,0.25560181052586844,-3.043021867226011
1590515624.6084216,-0.8524949380609983,-4.367917510323167,8.60707236579883,0.7355555555555555,-0.3088888888888889,-0.5044444444444445,0.0648819359888572,0.2534134881157359,-3.038645222405746
1590515624.6184216,-0.7568257897594788,-4.390418756188712,8.720418756188712,0.7355555555555555,-0.3088888888888889,-0.5044444444444445,0.05981936987715485,0.2548624712660223,-3.0179825225436456
1590515624.6284215,-0.6831405117066471,-4.33682946305938,8.66682946305938,0.7355555555555555,-0.3088888888888889,-0.5044444444444445,0.06493434430095371,0.2526703393701085,-3.0099447055919613
1590515624.6384215,-0.6107545446510121,-4.399229545387585,8.79306590848826,1.2711111111111109,-0.20555555555555555,0.07444444444444444,0.05840233639772973,0.25172978007435953,-2.988034172924985
1590515624.6484215,-0.4874778854999646,-4.400017691600028,8.689964616799944,1.2711111111111109,-0.20555555555555555,0.07444444444444444,0.06353751583558562,0.2481630380908486,-2.9594142636419334
1590515624.6584215,-0.43270161878372465,-4.417644013416946,8.620115210733557,1.2711111111111109,-0.20555555555555555,0.07444444444444444,0.058353163092828494,0.24517992779290823,-2.9357831742984675
1590515624.6684215,-0.36865465378488527,-4.3958834847011605,8.624036038645345,1.2711111111111109,-0.20555555555555555,0.07444444444444444,0.0587581077483524,0.24057856881613573,-2.9061835083143177
1590515624.6784215,-0.31978395939086296,-4.45,8.736285076142131,1.2400502199661587,-0.14972850535815002,0.015934393683023115,0.05494677445470209,0.23848670603684455,-2.8774395962691663
1590515624.6884215,-0.2261041624365482,-4.45,8.702219695431472,0.9552257868020304,0.3621984658770446,-0.5205953525098703,0.05866273104436698,0.23477074944717963,-2.8458539652570143
1590515624.6984215,-0.13522529259993268,-4.360090117039973,8.72027035111992,0.9366666666666666,0.3955555555555556,-0.5555555555555556,0.05999569303730508,0.22989504497215885,-2.7828174588338124
1590515624.7084215,-0.05290675015174264,-4.331636903811137,8.633273807622274,0.9366666666666666,0.3955555555555556,-0.5555555555555556,0.059936173535132635,0.22883638631556596,-2.744271610737006
1590515624.7184215,0.08769054441260746,-4.364422636103152,8.696633954154727,0.9366666666666666,0.3955555555555556,-0.5555555555555556,0.05818121011464389,0.224469923814215,-2.6906506313811405
1590515624.7284214,0.1477808022922636,-4.379445200573066,8.7191678008596,0.9366666666666666,0.3955555555555556,-0.5555555555555556,0.055723148751270914,0.22365057002642402,-2.652141003354964
1590515624.7384214,0.22,-4.34,8.71,0.5633333333333334,0.3533333333333333,-0.6766666666666666,0.05781403147231216,0.21489366415180186,-2.5994497546890547
1590515624.7484214,0.2940041422160856,-4.272723507076286,8.71,0.5633333333333334,0.3533333333333333,-0.6766666666666666,0.05561241338972439,0.21562753684599778,-2.5598206292024748
1590515624.7584214,0.3510774169802061,-4.190819360379519,8.632716137739244,0.5633333333333334,0.3533333333333333,-0.6766666666666666,0.05684072865057503,0.20832052984845753,-2.4999258774792894
1590515624.7684214,0.4000724350240588,-4.189891347463912,8.670181087560147,0.5633333333333334,0.3533333333333333,-0.6766666666666666,0.04908540985349116,0.20615714109758337,-2.4215238402523216
1590515624.7784214,0.4290071227773658,-4.146489315833952,8.742517806943415,0.5633333333333334,0.3533333333333333,-0.6766666666666666,0.0482963386514104,0.20221178508717957,-2.3733904969253947
1590515624.7884214,0.5473742681279088,-4.13,8.750477405794925,0.4169138767952759,0.3771942818062019,-0.6972738494386896,0.04693176209418996,0.191129732958461,-2.2858921575923326
1590515624.7984214,0.5972755364806867,-4.13,8.734241487839771,0.4133333333333333,0.37777777777777777,-0.6977777777777778,0.04432724312473924,0.18745741290673534,-2.2240351130200504
1590515624.8084214,0.6719119200168979,-4.091836759839471,8.688088079983102,0.4133333333333333,0.37777777777777777,-0.6977777777777778,0.04249436033891698,0.17816629490658262,-2.1254832036730202
1590515624.8184214,0.6866774625079208,-3.951564106174752,8.673322537492078,0.4133333333333333,0.37777777777777777,-0.6977777777777778,0.05054771447365063,0.17252894701226906,-2.070720395556831
1590515624.8284214,0.7208020688737188,-3.81,8.74919793112628,0.41021417660220444,0.3797383905802016,-0.6977332183959045,0.04110160116801142,0.16881629486181024,-1.9717761310782589
1590515624.8384213,0.7367533134305653,-3.81,8.733246686569435,0.34818155888113483,0.4187303217191597,-0.6968470381427464,0.03414155773531655,0.16359626228728907,-1.8978256696058757
1590515624.8484213,0.838287350920767,-3.882896556353628,8.724609205432861,0.33555555555555555,0.4266666666666667,-0.6966666666666667,0.03324150047430643,0.15469735939846133,-1.7755452719919675
1590515624.8584213,0.9026217170545633,-3.8319662877909226,8.619176009690971,0.33555555555555555,0.4266666666666667,-0.6966666666666667,0.03665926915496247,0.14465151662211162,-1.6854438819032478
1590515624.8684213,0.9433322265624999,-3.8544462890625,8.75,0.33555555555555555,0.4266666666666667,-0.6966666666666667,0.030543261909900768,0.13756620396141594,-1.582193271416669
1590515624.8784213,0.9679082031249999,-3.813486328125,8.75,0.33555555555555555,0.4266666666666667,-0.6966666666666667,0.030543261909900768,0.13041734216293957,-1.4973005375597617
1590515624.8884213,1.0260829439523909,-3.797989632005951,8.732010367994048,0.3055555555555556,0.4633333333333333,-0.7088888888888889,0.02944677626387369,0.1178040696460866,-1.364077617374043
1590515624.8984213,1.094090884539906,-3.7872727436400626,8.72909097456025,0.3055555555555556,0.4633333333333333,-0.7088888888888889,0.025089107997418484,0.11166141626612407,-1.2604550575519216
1590515624.9084213,1.1167452244207192,-3.772169850386187,8.668679401544749,0.3055555555555556,0.4633333333333333,-0.7088888888888889,0.025089107997418484,0.10177659574647288,-1.1789052882647995
1590515624.9184213,1.1527209784316852,-3.729098776960394,8.668180244607921,0.3055555555555556,0.4633333333333333,-0.7088888888888889,0.02330445547208425,0.09767945320167258,-1.0806332897924975
1590515624.9284213,1.1718876809691368,-3.749719202422842,8.699719202422843,0.3055555555555556,0.4633333333333333,-0.7088888888888889,0.01966558434901765,0.08995184305868716,-0.9952443648675301
1590515624.9384212,1.1872482625482625,-3.690269111969112,8.785234362934364,0.2846161304161305,0.45447434577434576,-0.7072781638781639,0.0158719669384911,0.07955016149964086,-0.8734193208539816
1590515624.9484212,1.1729958186439287,-3.63957202590801,8.76614823317209,0.2766666666666667,0.4511111111111111,-0.7066666666666667,0.02030562228514453,0.06739808485795354,-0.7360523129099241
1590515624.9584212,1.2331747560875626,-3.6309750348446337,8.688775313601704,0.2766666666666667,0.4511111111111111,-0.7066666666666667,0.011865546045244561,0.06270915361356466,-0.6432114742710245
1590515624.9684212,1.2404897043832823,-3.6490205912334353,8.721224260958207,0.2766666666666667,0.4511111111111111,-0.7066666666666667,0.015138084801048422,0.05110879139265108,-0.5278734756769442
1590515624.9784212,1.2575918450560652,-3.6148163098878694,8.763979612640163,0.2766666666666667,0.4511111111111111,-0.7066666666666667,0.010474199427934372,0.04551212894491421,-0.44858742433400534
1590515624.9884212,1.3484886556184652,-3.6458474191015413,8.784717526966151,0.19111111111111112,0.4455555555555555,-0.6555555555555556,0.007491758372649493,0.03593578976627391,-0.32346371788168005
1590515624.9984212,1.4698264247634003,-3.749851221225772,8.750049592924743,0.19111111111111112,0.4455555555555555,-0.6555555555555556,0.00654633713220132,0.028372419842688533,-0.2270307513559665
1590515625.0084212,3.954622890918862,-6.594713164965073,5.338144653412144,0.19111111111111112,0.4455555555555555,-0.6555555555555556,0.005562990806460754,0.02246963701379997,-0.10708954836006918
1590515625.0184212,8.809524660409764,-6.476295820828201,-2.9705563554984993,0.19111111111111112,0.4455555555555555,-0.6555555555555556,-1.4127218832380228,-0.8671789827031083,3.1520265769091695
1590515625.0284212,7.317875197335322,-0.9753836545634336,-0.8895234460385475,0.19111111111111112,0.4455555555555555,-0.6555555555555556,-1.8810198925547974,-0.1004402081268303,6.338834216581795
1590515625.0384212,-0.5734344093033366,-4.223582001956308,12.66753896315618,0.15777777777777774,0.5188888888888888,-0.67,-1.8187047119180304,-0.7941822380272755,6.839874940204879
1590515625.0484211,1.8366116980159752,-1.3380365885081165,5.785096624581294,0.15777777777777774,0.5188888888888888,-0.67,-0.5570471720013414,-1.3760550657026704,6.52807246127258
1590515625.0584211,0.6219811967662768,-3.1232162191424857,8.172676483326114,0.15777777777777774,0.5188888888888888,-0.67,1.088651483059619,-0.7072368387259191,6.371575788462394
1590515625.0684211,-2.91262631730908,-3.9179352533564313,17.800129926375053,0.15777777777777774,0.5188888888888888,-0.67,2.059583947330816,-0.7237492956012797,6.287362258398053
1590515625.078421,-3.1950915431560594,-2.042206576631409,9.476092678192494,0.15777777777777774,0.5188888888888888,-0.67,2.466305021186228,-0.5363444902702521,6.1516223868722895
1590515625.088421,-0.23890795926065644,0.01784798189362513,0.06366465484722772,0.2321207929921623,0.5141579697388826,-0.651752168992833,1.4730338583106386,-0.762892526191393,5.71871206111932
1590515625.098421,-1.325515707326772,-0.8526088577393379,5.898884829505915,0.28,0.5111111111111111,-0.64,-0.7024917435190119,0.03457122424906541,5.289080086451922
1590515625.108421,0.2322647832357682,-1.9596869432425554,8.522940527700008,0.28,0.5111111111111111,-0.64,-1.0169880074339508,-0.10764534162272835,5.058311115142085
1590515625.118421,-2.1785592177823023,-3.6677246118605242,15.212754729787054,0.28,0.5111111111111111,-0.64,-0.12615503809466933,-0.605463765665268,4.882667577614405
1590515625.128421,-0.9256851902661405,-1.6543173423946307,4.999271015808024,0.28,0.5111111111111111,-0.64,0.4677707601792839,-0.2822039161979774,4.82510054845739
1590515625.138421,-0.8212579563858236,-1.955891680162706,5.798765771534028,0.34621018668474507,0.40276716926334644,-0.668590762432049,0.09399386184308456,-0.4383975825780827,4.616933049502522
1590515625.148421,-0.9974830713182592,-2.9568760147309234,8.637999049617868,0.37777777777777777,0.3511111111111111,-0.6822222222222222,-0.3835898908931623,-0.08140073637124695,4.376878925976915
1590515625.158421,-1.3862341374185436,-2.7057345375557333,8.283765862581456,0.37777777777777777,0.3511111111111111,-0.6822222222222222,-0.12298053927292474,-0.3007441792604397,4.323969167860606
1590515625.168421,2.490480334912416,-14.280380081524733,5.001641511512615,0.37777777777777777,0.3511111111111111,-0.6822222222222222,-0.23331244466409684,-0.24896647327795474,4.025225074162758
1590515625.178421,-0.07050967596759694,-2.193904140414041,8.727474122412241,0.37777777777777777,0.3511111111111111,-0.6822222222222222,-0.4989208155668303,-0.3114791942746662,1.2455312798565608
1590515625.188421,-2.0605953150644054,1.5792579698612423,12.322262893519671,0.4533333333333333,0.27111111111111114,-0.6822222222222222,0.5978469347683542,0.001967206197050977,-0.11390005070589766
1590515625.198421,-0.6004023474411895,0.9465076838911822,4.319014770975281,0.4533333333333333,0.27111111111111114,-0.6822222222222222,0.6896239042605726,-0.007134642017053337,-0.07142475904007754
1590515625.208421,-1.07771611278619,0.15532470759749512,7.75447334415692,0.4533333333333333,0.27111111111111114,-0.6822222222222222,-0.28801926455377225,-0.03921000120781058,-0.0992394517730588
1590515625.218421,-1.2583791126867898,-1.4220022530731253,8.921834266591564,0.4533333333333333,0.27111111111111114,-0.6822222222222222,-0.4441615294739416,0.19500339617244347,-0.12122064440745156
1590515625.228421,-1.126010762751521,-1.9680828848853533,8.39046823818437,0.4533333333333333,0.27111111111111114,-0.6822222222222222,0.013088916587669808,-0.053986967543981246,-0.08639614604185196
1590515625.238421,-1.4248479193879455,-3.033892517260683,8.067279343161037,0.44762663017561316,0.23116418900707014,-0.6716240592150277,0.08134821199305768,0.046490479236768606,-0.05714943686420413
1590515625.248421,-0.02381065168843466,-2.9670663869526965,9.408493604926575,0.4455555555555555,0.21666666666666667,-0.6677777777777778,-0.11611888881407137,0.031783281906136496,-0.38421515396164946
1590515625.258421,0.53,-1.29,7.79,0.4455555555555555,0.21666666666666667,-0.6677777777777778,0.08944812416470939,-0.04581489286485115,-0.9206611804270088
1590515625.268421,-0.4622312244833371,-2.0418770769376837,8.320011709972466,0.4455555555555555,0.21666666666666667,-0.6677777777777778,0.05449003045224361,0.0630930144701384,-0.8978039653073197
1590515625.278421,-1.2251559941585166,-3.1697999734478026,9.362583971323627,0.4455555555555555,0.21666666666666667,-0.6677777777777778,-0.04212700914313591,0.07260155407207089,-0.8389496662998425
1590515625.288421,-1.4973342915116672,-5.037685999323639,7.967811971592831,0.46,0.2411111111111111,-0.6844444444444444,0.0523364525497898,0.07161560471057389,-0.8439791333874507
1590515625.298421,-0.6728713645586742,-3.823154590801488,9.386242813662497,0.46,0.2411111111111111,-0.6844444444444444,0.02332517707406555,0.05227475439342439,-0.983233255670927
1590515625.308421,-0.7513565290886041,-3.395930412734188,8.703855472601775,0.46,0.2411111111111111,-0.6844444444444444,0.015706795453616387,0.10116591171388739,-1.0403712154433358
1590515625.318421,-0.9167020975724723,-4.365519208107472,8.769831015790714,0.46,0.2411111111111111,-0.6844444444444444,0.013260625405376078,0.08762620794827819,-1.0519690810474056
1590515625.3284209,-0.8013790959950271,-4.184183465056389,8.565631826658377,0.46,0.2411111111111111,-0.6844444444444444,0.029926406353295014,0.08617563181722003,-1.1125145920898358
1590515625.3384209,-0.6351303662216905,-3.927524537125146,9.119136510698459,0.4578537832032843,0.2518421950946896,-0.6908830948345915,0.031671401768397896,0.10092493570816105,-1.2236029590124489
1590515625.3484209,-0.6578216569220775,-3.766980886928574,8.757452217321434,0.4577777777777778,0.25222222222222224,-0.6911111111111111,0.02556434873426568,0.1014472627721704,-1.2727077099944997
1590515625.3584208,-0.6381094116481121,-4.0906597073106274,8.725535000495524,0.4577777777777778,0.25222222222222224,-0.6911111111111111,0.021168084660117457,0.10492598631678662,-1.3395972451106195
1590515625.3684208,-0.598298124767588,-4.1012347493492465,8.683915499442211,0.4577777777777778,0.25222222222222224,-0.6911111111111111,0.024183923004070355,0.11411011743008667,-1.4034114115626743
1590515625.3784208,-0.4924804607157548,-3.9874860433683965,8.702513956631604,0.4577777777777778,0.25222222222222224,-0.6911111111111111,0.028907624709091015,0.11958247677440771,-1.4919968956776286
1590515625.3884208,-0.4325741692534731,-3.9128708462673654,8.62118670805557,0.44375120858989364,0.26789897602044566,-0.6911111111111111,0.037833554197428926,0.12809171083853033,-1.5871054987480475
1590515625.3984208,-0.3291409075961855,-3.9208590924038145,8.659312726076948,0.4388888888888889,0.2733333333333333,-0.6911111111111111,0.040210799042114505,0.13966382513710995,-1.687867561375719
1590515625.4084208,-0.28603933738901677,-3.9639606626109836,8.624831469911213,0.4388888888888889,0.2733333333333333,-0.6911111111111111,0.03268815591316863,0.14154448591934643,-1.7602730014918235
1590515625.4184208,-0.2602399737015122,-3.979880013149244,8.71880013149244,0.4388888888888889,0.2733333333333333,-0.6911111111111111,0.026245381455064713,0.15474090869413729,-1.8534045130466688
1590515625.4284208,-0.15580583847367668,-4.002327320327069,8.868848802180462,0.4388888888888889,0.2733333333333333,-0.6911111111111111,0.03429838154772361,0.15814534822162019,-1.9185480281096636
1590515625.4384208,-0.05,-3.95,8.58,0.4122222222222222,0.3033333333333333,-0.6822222222222222,0.04472406208235469,0.16144295580947549,-2.0376719017033795
1590515625.4484208,-0.04692206619035887,-3.955001642440667,8.591157510059949,0.4122222222222222,0.3033333333333333,-0.6822222222222222,0.04480799970600577,0.16203051917503303,-2.041742876450457
1590515625.4584208,0.0720941813568629,-4.055445060875163,8.834921515535948,0.4122222222222222,0.3033333333333333,-0.6822222222222222,0.04843631127361609,0.17786252748412723,-2.1821298251688153
1590515625.4684207,0.1693270583144001,-4.001716975008114,8.78656604998377,0.4122222222222222,0.3033333333333333,-0.6822222222222222,0.04885961247511038,0.18299887198969403,-2.2831719668399106
1590515625.4784207,0.27334688484602093,-4.068911474743368,8.732197377782295,0.4122222222222222,0.3033333333333333,-0.6822222222222222,0.04448214798870623,0.196229692483077,-2.4051720051632532
1590515625.4884207,-8.756584659913168,-16.053158465991316,7.340709117221419,0.3953277255185721,0.33418415340086827,-0.6822222222222222,0.016618001871913722,0.2512106531384853,-2.455866291682766
1590515625.4984207,-4.014977592335033,-8.700873641374338,10.978453613557924,0.38666666666666666,0.35,-0.6822222222222222,-0.1376353899568258,0.15015873195221802,-1.0556924106653571
1590515625.5084207,3.280741132295578,-1.808988006270278,8.268635120848675,0.38666666666666666,0.35,-0.6822222222222222,0.1866955432770861,-0.19155495163953318,0.6616585203484016
1590515625.5184207,1.7527202605416523,-2.307719403496743,6.5290083990401095,0.38666666666666666,0.35,-0.6822222222222222,0.3452354151211452,-0.13734427130449503,0.6588821732509811
1590515625.5284207,0.3730101461484927,-2.6099783890699975,8.393400974323285,0.38666666666666666,0.35,-0.6822222222222222,-0.028480428620324294,-0.017064163880306175,0.01587028732702994
1590515625.5384207,0.27204508581675346,-3.5035308684143116,8.716673640167365,0.37420283873661037,0.3580648298370952,-0.6822222222222222,-0.24406428257897192,0.08062996212950055,-0.33040790289557137
1590515625.5484207,-2.832969292858396,-7.831297771538867,7.819794700824707,0.36777777777777776,0.3622222222222222,-0.6822222222222222,0.046768178288459694,0.05599064628188968,-0.6145416001631687
1590515625.5584207,0.25715432806847227,-5.906030397952881,8.785776714021,0.36777777777777776,0.3622222222222222,-0.6822222222222222,-0.01792110424769662,0.04989547396504933,-0.2875026114852667
1590515625.5684206,0.40488042492550846,-2.8498769270630913,8.519463661095998,0.36777777777777776,0.3622222222222222,-0.6822222222222222,0.044821571246744185,-0.03137449220691387,0.1476782795289945
1590515625.5784206,0.38,-2.66,8.49,0.36777777777777776,0.3622222222222222,-0.6822222222222222,0.05017821599483697,-0.0370882466048795,0.17453292519943295
1590515625.5884206,0.057570356472795514,-4.143176360225141,8.76636826588046,0.3544711575687185,0.38371753179070245,-0.6904109115816432,-6.695262642500421e-05,-0.005936242059697075,0.0006846417698664897
1590515625.5984206,0.0478251033978475,-4.430425930580627,8.64739917281722,0.3533333333333333,0.3855555555555555,-0.6911111111111111,0.0004977197419027317,0.0006163419500214763,-0.001542088705543683
1590515625.6084206,0.04120612997824236,-4.458793870021758,8.700350960174061,0.3533333333333333,0.3855555555555555,-0.6911111111111111,0.005887142840999461,0.002050093194197057,-0.0009592624117006011
1590515625.6184206,0.031731265569944114,-4.402118858989609,8.635581390129497,0.3533333333333333,0.3855555555555555,-0.6911111111111111,0.003839047680400762,0.002181661564992912,-0.0001888517776371313
1590515625.6284206,0.043761692889115224,-4.385412769036962,8.716331850223806,0.3533333333333333,0.3855555555555555,-0.6911111111111111,0.0012709352511281044,0.001681272290902596,-0.0005003892740903159
1590515625.6384206,0.058826062322946175,-4.385282719546742,8.820021529745043,0.35300723953415164,0.3847077116776833,-0.691502423670129,-0.001346944253468995,0.001090830782496456,-0.0010268024147533212
1590515625.6484206,0.04829410904838474,-4.449264727379038,8.684882327145155,0.3477777777777778,0.3711111111111111,-0.6977777777777778,-0.0013827926539700724,-0.0002662896370076134,-0.00045237347316802305
1590515625.6584206,0.05321352825329496,-4.43357294349341,8.62498939554613,0.3477777777777778,0.3711111111111111,-0.6977777777777778,0.0021424554442313172,-0.0014413723364080765,-0.00035054155391162057
1590515625.6684206,0.04478441153546376,-4.382628526890102,8.647802650038972,0.3477777777777778,0.3711111111111111,-0.6977777777777778,0.001090830782496456,-0.0005218983379015001,0.0
1590515625.6784205,0.04,-4.366273656381984,8.717254731276398,0.3477777777777778,0.3711111111111111,-0.6977777777777778,-9.622184675856156e-05,0.0003956842097516725,0.0
1590515625.6884205,0.04,-4.397288630597675,8.74308454776093,0.351412374378036,0.3805610622717826,-0.7028662130181395,-0.0014680101913595442,-0.0010501233384036478,-0.0007136513736333678
1590515625.6984205,0.06173566993503225,-4.423471339870065,8.699283436818257,0.3533333333333333,0.3855555555555555,-0.7055555555555556,-0.0003004995210525921,0.0009796634807825435,-0.001090830782496456
1590515625.7084205,0.04747758075550543,-4.411846975944382,8.657477580755506,0.3533333333333333,0.3855555555555555,-0.7055555555555556,0.0030710185260231565,-0.0002751532558256135,-0.0004766270772918246
1590515625.7184205,0.05161217986545497,-4.418816239820607,8.654408119910304,0.3533333333333333,0.3855555555555555,-0.7055555555555556,0.0038824718408763865,-0.0006099794933870186,0.0
1590515625.7284205,0.04876946387697863,-4.4019236596924465,8.693691608369065,0.3533333333333333,0.3855555555555555,-0.7055555555555556,0.00020983872075683785,0.0,-0.0006125307253465061
1590515625.7384205,0.04,-4.391507865256255,8.702738202115617,0.3571692884187517,0.37724431953714904,-0.6921297127565912,-0.0034369749312273675,-0.0012553133662344554,-0.00046317409937922827
1590515625.7484205,0.04628400930514818,-4.381147972084555,8.677431981389704,0.36,0.3711111111111111,-0.6822222222222222,-0.0036778440512308446,-0.0014961824862379327,0.0006854790787549793
1590515625.7584205,0.05,-4.3963238414293695,8.61077135678392,0.36,0.3711111111111111,-0.6822222222222222,-0.0018367495202538037,0.0003449120447391084,0.0018087021961142383
1590515625.7684205,0.05,-4.424642998027613,8.675179487179488,0.36,0.3711111111111111,-0.6822222222222222,0.0029024274666424443,0.002688134082152016,-0.00021429338449042816
1590515625.7784204,0.04424399007297107,-4.4012199503648555,8.698487980145941,0.36,0.3711111111111111,-0.6822222222222222,0.003107556567434157,0.00013307594111020005,-0.001090830782496456
1590515625.7884204,0.04401180687328695,-4.404070841239721,8.710059034366434,0.3524221425726802,0.3711111111111111,-0.6822222222222222,0.0017440413219116857,-0.0013064210788304594,-0.0015284510255776822
1590515625.7984204,0.04572852591400903,-4.422914103656036,8.718642629570045,0.3411111111111111,0.3711111111111111,-0.6822222222222222,-0.0007729513853574931,0.0,-0.0017157160230294247
1590515625.8084204,0.0346783468707346,-4.431929918775593,8.658070081224407,0.3411111111111111,0.3711111111111111,-0.6822222222222222,-0.0021114877380551096,0.0,-0.001671333087213585
1590515625.8184204,0.041166062107405116,-4.448833937892595,8.63,0.3411111111111111,0.3711111111111111,-0.6822222222222222,-0.0006848213069622978,0.0004060094755341582,-0.0013696426139245955
1590515625.8284204,0.057693927067722826,-4.434612145864554,8.64614251052594,0.3411111111111111,0.3711111111111111,-0.6822222222222222,0.0002515535341209803,0.0008392772483754756,-0.0002515535341209803
1590515625.8384204,0.056497067074725835,-4.430508798775823,8.706497067074727,0.35338334891892653,0.3754424891609283,-0.6786127405140412,-0.0003266093697145726,-0.0014174401522110286,-0.0003821107063909417
1590515625.8484204,0.05363655051906671,-4.4009096515572,8.754544146366532,0.36,0.37777777777777777,-0.6766666666666666,-0.000396686124830143,-0.001487516907326599,0.002082433972998939
1590515625.8584204,0.030783614610569686,-4.39,8.712742651136994,0.36,0.37777777777777777,-0.6766666666666666,-0.0015721368533329302,-0.0005667851647188127,0.001176309876378795
1590515625.8684204,0.03806917250250107,-4.401227669001,8.6568415035015,0.36,0.37777777777777777,-0.6766666666666666,-0.0008229949550948683,-0.001837123044295875,-0.001090830782496456
1590515625.8784204,0.05078736122971819,-4.419212638770282,8.688425277540563,0.36,0.37777777777777777,-0.6766666666666666,-0.00041658371130009835,-0.0017650778536928138,-0.0005883592845642711
1590515625.8884203,0.04,-4.414503154574132,8.725496845425868,0.36,0.3728991412548195,-0.6781015597616543,-0.0010546991635178667,0.0002817406003687613,-0.0005634812007375226
1590515625.8984203,0.035864162693393015,-4.386543349226428,8.724505789627322,0.36,0.3588888888888889,-0.6822222222222222,-0.0005252376222735686,0.001090830782496456,-0.0017305117004484986
1590515625.9084203,0.03882067368735529,-4.414410336843678,8.646768989468967,0.36,0.3588888888888889,-0.6822222222222222,-0.0024389506538810895,-0.0008335416936082784,0.0008335416936082784
1590515625.9184203,0.044471543049207876,-4.4310569139015845,8.624471543049207,0.36,0.3588888888888889,-0.6822222222222222,0.0012061222043261083,-0.0008602479388371514,0.0020663701431632596
1590515625.9284203,0.048663925780829585,-4.409676259767097,8.658987666013733,0.36,0.3588888888888889,-0.6822222222222222,0.0026542054119425896,0.0001457430885971005,0.0001457430885971005
1590515625.9384203,0.06,-4.374371176165876,8.716556764248814,0.35587166695445077,0.3615601632124796,-0.6790652616579786,0.0023188496439989696,-0.0008524201066238563,-0.001090830782496456
1590515625.9484203,0.06,-4.38611547454044,8.73417321181066,0.34477982960069564,0.36873723444137996,-0.6705832683874601,-0.0002433587931605836,-0.00021186799733396804,-0.001090830782496456
1590515625.9584203,0.0389063674164621,-4.397031210861179,8.662656680527029,0.3411111111111111,0.3711111111111111,-0.6677777777777778,-0.0018578169070562357,0.0,-0.001090830782496456
1590515625.9684203,0.04928704198269415,-4.406429013994232,8.662145069971157,0.3411111111111111,0.3711111111111111,-0.6677777777777778,-0.0007790682917912944,0.0,-0.003194720692298883
1590515625.9784203,0.055040007863953605,-4.4050400078639536,8.689919984272093,0.3411111111111111,0.3711111111111111,-0.6677777777777778,0.0,0.0,-0.00219911828880992
1590515625.9884202,0.044689484482365587,-4.410621031035269,8.721242062070537,0.3476017411882198,0.37465145478953404,-0.6754485224143608,0.0005792873797560721,0.0017378621392682167,-0.0011585747595121443
1590515625.9984202,0.04,-4.42,8.703637546678737,0.3533333333333333,0.37777777777777777,-0.6822222222222222,0.0005241838766403984,0.0021391985357772526,-0.0027483084708489697
1590515626.0084202,0.0556432507759549,-4.42,8.63871349844809,0.3533333333333333,0.37777777777777777,-0.6822222222222222,0.0005688046494907725,0.0005220261330056835,-0.0015660783990170506
1590515626.0184202,0.05776313389273988,-4.40776313389274,8.640592165268151,0.3533333333333333,0.37777777777777777,-0.6822222222222222,0.001090830782496456,-0.0006674175115543461,0.0
1590515626.0284202,0.04547961108692498,-4.404520388913075,8.682601944565375,0.3533333333333333,0.37777777777777777,-0.6822222222222222,0.002570124595067836,0.00038846303007492445,0.0004930979375237934
1590515626.0384202,0.035556943813418146,-4.405556943813418,8.727772224746328,0.3533333333333333,0.37481574032005655,-0.6822222222222222,0.002909336392980382,0.0016969993193244313,0.00012150629115949469
1590515626.0484202,0.0344866056736655,-4.417946422694662,8.727566971631672,0.3533333333333333,0.3711111111111111,-0.6822222222222222,0.001580243540272214,0.00011200526694493998,-0.000601418024720698
1590515626.0584202,0.036700688252776476,-4.426802753011106,8.676904817769435,0.3533333333333333,0.3711111111111111,-0.6822222222222222,0.0014618634020081944,-0.0018106289454811737,0.0
1590515626.0684202,0.034667720328140285,-4.40466772032814,8.63466772032814,0.3533333333333333,0.3711111111111111,-0.6822222222222222,-0.0005091693018019884,-0.002254153743885391,0.0
1590515626.0784202,0.03664148334691258,-4.406641483346913,8.6668681332247,0.3533333333333333,0.3711111111111111,-0.6822222222222222,-0.0007244734476249824,-0.0007244734476249824,-0.000732714669742947
1590515626.0884202,0.03668696657183499,-4.410030449857753,8.716656516714083,0.35816280919076965,0.3759405869685475,-0.6851942073652599,0.0007294348978082409,0.00036471744890412044,-0.002181661564992912
1590515626.0984201,0.045515591116428625,-4.425515591116429,8.723453226650715,0.36777777777777776,0.3855555555555555,-0.6911111111111111,0.002670834690142934,0.0006016576573464338,-0.0016924884398428898
1590515626.1084201,0.0460479548032652,-4.432095909606531,8.655328632754287,0.36777777777777776,0.3855555555555555,-0.6911111111111111,0.0006335742392697781,-0.001319459054109795,-0.00043110125544155845
1590515626.1184201,0.05579652807749484,-4.422610415767516,8.640575696542463,0.36777777777777776,0.3855555555555555,-0.6911111111111111,0.00017377546921081987,-0.002181661564992912,-0.0012646062517072758
1590515626.12842,0.055073955243457026,-4.4050739552434575,8.679852089513085,0.36777777777777776,0.3855555555555555,-0.6911111111111111,-0.0005212135944212438,-0.002181661564992912,-0.0011069653137144454
1590515626.13842,0.05,-4.419146292813587,8.70435971961019,0.36086383870620486,0.3754505676817183,-0.6841971720395382,-9.312500781784262e-05,-0.0006152591471116102,0.0
1590515626.14842,0.05,-4.416684085979097,8.706010451587458,0.3533333333333333,0.3644444444444445,-0.6766666666666666,0.0011643128955512358,7.348211305477988e-05,-0.000508674334720838
1590515626.15842,0.054286208088489454,-4.411431040442447,8.659996543380574,0.3533333333333333,0.3644444444444445,-0.6766666666666666,0.0018702110892438375,0.0003118275344364222,-0.0006232780101854967
1590515626.16842,0.048548562548562546,-4.417097125097126,8.631451437451437,0.3533333333333333,0.3644444444444445,-0.6766666666666666,0.0012404280110206401,0.00030792449361380153,-0.0006245790237930369
1590515626.17842,0.04366317244557079,-4.407326344891142,8.658315862227854,0.3533333333333333,0.3644444444444445,-0.6766666666666666,-0.0002916505294521685,-0.0002916505294521685,-0.001090830782496456
1590515626.18842,0.04970265522405253,-4.419405310448105,8.688513276120263,0.3533333333333333,0.3644444444444445,-0.6766666666666666,0.0010259602155728534,0.0010259602155728534,-0.001090830782496456
1590515626.19842,0.06,-4.395470541905987,8.73,0.3411111111111111,0.3855555555555555,-0.6822222222222222,0.0,0.0007924590070970469,-0.0008951153261982273
1590515626.20842,0.05678073906426815,-4.411609630467866,8.717122956257073,0.3411111111111111,0.3855555555555555,-0.6822222222222222,0.0,0.0001755834462792321,-0.003096908901210136
1590515626.21842,0.04,-4.412929069304876,8.657070930695124,0.3411111111111111,0.3855555555555555,-0.6822222222222222,-0.0015426377726281237,0.0014764902256534868,-0.001796002121835881
1590515626.22842,0.04,-4.402727951497775,8.674091927246662,0.3411111111111111,0.3855555555555555,-0.6822222222222222,-0.0037681764365997696,0.0020328748916463983,-0.0009420441091499424
1590515626.23842,0.04268747550182576,-4.422687475501825,8.710749902007302,0.34618745372567084,0.38346529683191327,-0.6783403131640294,0.0002931581004596648,0.00021135648111746152,0.0
1590515626.24842,0.04759601864870865,-4.425192037297417,8.74,0.36,0.37777777777777777,-0.6677777777777778,0.001090830782496456,-0.002181661564992912,0.0
1590515626.25842,0.04,-4.413769008729935,8.694771895240777,0.36,0.37777777777777777,-0.6677777777777778,0.0006796957082853339,-0.0009482563423595458,-0.0008222701484222441
1590515626.26842,0.04,-4.422577632408575,8.627732897225725,0.36,0.37777777777777777,-0.6677777777777778,-0.0005623521554468252,0.0005284786270496307,-0.0016193094095460867
1590515626.27842,0.048006791289132204,-4.421993208710868,8.666013582578264,0.36,0.37777777777777777,-0.6677777777777778,-0.0013082561242719229,-0.0006541280621359614,-0.0008734054407209891
1590515626.28842,0.0544197023333714,-4.41,8.698370446499943,0.35255960311116186,0.3799478935370222,-0.6662276950926032,0.001217432094050325,0.0003043580235125813,-0.002181661564992912
1590515626.29842,0.05112766677954622,-4.398872333220454,8.725563833389774,0.3333333333333333,0.3855555555555555,-0.6622222222222223,0.00254256291091199,0.0029115910015702897,-0.002181661564992912
1590515626.30842,0.05444413059341384,-4.395555869406587,8.668885436527551,0.3333333333333333,0.3855555555555555,-0.6622222222222223,0.001090830782496456,0.002545169118315472,-0.0015756102277694614
1590515626.31842,0.05,-4.408430845716584,8.641077114291459,0.3333333333333333,0.3855555555555555,-0.6622222222222223,-0.00028866312202269553,0.001090830782496456,-0.0015506620840028398
1590515626.32842,0.05,-4.418439418514757,8.674681744455729,0.3333333333333333,0.3855555555555555,-0.6622222222222223,-0.002181661564992912,0.0009205977502267382,-0.0023518945972626298
1590515626.33842,0.05,-4.412081432187846,8.693755703436462,0.3333333333333333,0.3855555555555555,-0.6622222222222223,-0.002181661564992912,0.00022704903021811512,-0.0030454433172712528
1590515626.34842,0.06,-4.401439486742936,8.720959657828624,0.36,0.37777777777777777,-0.6822222222222222,-0.0021293203499865936,0.000933807137477501,-0.0010384895674901376
1590515626.35842,0.06,-4.427565143367315,8.738376762244878,0.36,0.37777777777777777,-0.6822222222222222,-0.001179364668026399,-0.001916059908403083,-8.853388552994301e-05
1590515626.36842,0.04840198464706984,-4.412267989764714,8.657732010235287,0.36,0.37777777777777777,-0.6822222222222222,-0.0015856293924436723,0.002603377303754336,0.0
1590515626.3784199,0.03840251856878935,-4.404201259284395,8.68680503713758,0.36,0.37777777777777777,-0.6822222222222222,0.001090830782496456,0.0009810608711559952,-0.0004582862952666745
1590515626.3884199,0.047811888549737815,-4.414376222900525,8.714376222900524,0.35854125903315853,0.3763190368109363,-0.6810066047498543,0.001090830782496456,-0.001942975632445016,-0.000613458917400664
1590515626.3984199,0.040700402610023605,-4.428599194779952,8.729299597389977,0.3533333333333333,0.3711111111111111,-0.6766666666666666,0.0010144287097809954,-0.0008616245643500744,0.0008616245643500744
1590515626.4084198,0.04728191050346288,-4.41,8.698255284027704,0.3533333333333333,0.3711111111111111,-0.6766666666666666,0.00029649756924029873,0.0015886664265123145,-0.000995671288031717
1590515626.4184198,0.04,-4.410478438556933,8.641435315670801,0.3533333333333333,0.3711111111111111,-0.6766666666666666,0.0010386412319528333,5.218955054362272e-05,0.0021294720144492893
1590515626.4284198,0.042645608683314414,-4.4147087826333715,8.677936826049944,0.3533333333333333,0.3711111111111111,-0.6766666666666666,0.0,0.00022505736543667113,0.0005136485044565996
1590515626.4384198,0.04963003264417846,-4.400554951033732,8.70036996735582,0.3534566557852738,0.37123443356305164,-0.6770571877644783,0.0,-0.0021211257979555677,-0.0010101164264466637
1590515626.4484198,0.03,-4.421603180194233,8.73259522970865,0.36,0.37777777777777777,-0.6977777777777778,-0.000457975475960307,-0.00028309564538446497,0.003272492347489368
1590515626.4584198,0.03430286873105931,-4.41430286873106,8.711274181420466,0.36,0.37777777777777777,-0.6977777777777778,-0.0006214606160083599,-0.0012429212320167198,0.0018643818480250797
1590515626.4684198,0.047478533430457145,-4.416260733284772,8.671217800145685,0.36,0.37777777777777777,-0.6977777777777778,0.0,-0.0004078907236935736,0.0
1590515626.4784198,0.05733265241986172,-4.41,8.698002042740415,0.36,0.37777777777777777,-0.6977777777777778,-0.0005819249696064532,-0.00021794332808677613,0.0005819249696064532
1590515626.4884198,0.05206350271866819,-4.408968248640666,8.721031751359334,0.3587389705608139,0.37777777777777777,-0.6977777777777778,-0.002181661564992912,0.0018440217221996542,0.002181661564992912
1590515626.4984198,0.0690150153325579,-4.400656656444962,8.730656656444962,0.3477777777777778,0.37777777777777777,-0.6977777777777778,-0.002110031458624053,-0.0011266458356808855,0.0021458465118084826
1590515626.5084198,0.04683937823834197,-4.415440414507772,8.745440414507772,0.3477777777777778,0.37777777777777777,-0.6977777777777778,-0.0004973736210346533,-0.0019329747544755854,0.0013395175930137827
1590515626.5184197,0.03852310690423163,-4.408523106904232,8.625907572383072,0.3477777777777778,0.37777777777777777,-0.6977777777777778,-0.00016110404513206288,-0.0018594534747287863,0.0014130388727605818
1590515626.5284197,0.03692912447885646,-4.4,8.673858248957712,0.3477777777777778,0.37777777777777777,-0.6977777777777778,-0.0007129056686321388,-0.0003779251138643171,0.002516642119760734
1590515626.5384197,0.0483031533818469,-4.4,8.706787386472612,0.35117147101408397,0.37664654669900904,-0.6926872379233185,0.00018509725242564108,-0.0009057335300708149,0.001090830782496456
1590515626.5484197,0.04041631409713996,-4.4,8.738334743611441,0.36694514958349783,0.3713886538425378,-0.6690267200691977,0.0010454179592617075,-4.541282323474848e-05,0.001090830782496456
1590515626.5584197,0.05769412476141882,-4.41,8.679247122852768,0.36777777777777776,0.3711111111111111,-0.6677777777777778,0.00025153196908407046,-0.000587766844328315,0.0014270656577407006
1590515626.5684197,0.0495408830896923,-4.41,8.611377350730923,0.36777777777777776,0.3711111111111111,-0.6677777777777778,0.001140912668349286,0.0009906670107907958,-0.0009906670107907958
1590515626.5784197,0.04,-4.412391554423007,8.656740880961049,0.36777777777777776,0.3711111111111111,-0.6677777777777778,0.0013990272102034633,-0.0008299526642333065,0.0005690745459701569
1590515626.5884197,0.04,-4.418499017109574,8.69949311976702,0.36777777777777776,0.3711111111111111,-0.6677777777777778,-0.0005996352802333268,-0.00016373183408770968,-0.0007633671143210366
1590515626.5984197,0.033708011219812546,-4.402472007479876,8.711236003739938,0.3411111111111111,0.3855555555555555,-0.67,-0.001090830782496456,0.0,0.0020468344723124535
1590515626.6084197,0.05661798221680095,-4.42,8.709853946650403,0.3411111111111111,0.3855555555555555,-0.67,-0.0009678571456676577,0.0002459472736575966,0.0008448835088388593
1590515626.6184196,0.03337430694821281,-4.416625693051787,8.646871534741065,0.3411111111111111,0.3855555555555555,-0.67,0.00036807978887022093,0.00144550198725247,1.3408584114206782e-05
1590515626.6284196,0.03731056563500534,-4.412689434364995,8.688068303094983,0.3411111111111111,0.3855555555555555,-0.67,0.0007974590032124571,0.0011734871171359953,0.0013015462271409152
1590515626.6384196,0.03,-4.42,8.712697850821746,0.34275979772439946,0.38450639134709924,-0.669700238797584,-0.00029428987229423987,0.003921888321544464,-0.001090830782496456
1590515626.6484196,0.03,-4.423530480713317,8.715878077146733,0.3533333333333333,0.37777777777777777,-0.6677777777777778,-0.0006411987493546237,0.001475946486406028,0.0004496320331418323
1590515626.6584196,0.03,-4.422871574221308,8.66148629688523,0.3533333333333333,0.37777777777777777,-0.6677777777777778,0.001015275624472078,0.0014040709379790225,0.0021061064069685343
1590515626.6684196,0.033510040160642574,-4.406489959839358,8.627550200803212,0.3533333333333333,0.37777777777777777,-0.6677777777777778,-0.0003250588114909117,-0.0015315439420110885,0.0
1590515626.6784196,0.04287962456887616,-4.4,8.671518498275505,0.3533333333333333,0.37777777777777777,-0.6677777777777778,0.0007767124703201363,-0.0034209681934568646,-0.00031411831217631974
1590515626.6884196,0.04869318181818182,-4.4,8.705227272727273,0.3533333333333333,0.3787941919191919,-0.668939393939394,0.0002851034999706646,-0.001090830782496456,-0.0008057272825257914
1590515626.6984196,0.04349804845717652,-4.403498048457177,8.733003903085647,0.3533333333333333,0.3855555555555555,-0.6766666666666666,0.0014185057778424346,0.0004354807918044985,0.0014724086760716946
1590515626.7084196,0.04752964869098233,-4.412470351309017,8.697766838218842,0.3533333333333333,0.3855555555555555,-0.6766666666666666,0.0008084205754370692,0.0027335452971979884,0.0019121880398472223
1590515626.7184196,0.04082584790461273,-4.419174152095387,8.637432631141515,0.3533333333333333,0.3855555555555555,-0.6766666666666666,0.0030022342526858396,0.001271002845698808,0.0011809168140976321
