time,acc_x,acc_y,acc_z,mag_x,mag_y,mag_z,gyr_x,gyr_y,gyr_z
1590512714.2604976,-3.61,-0.88,9.21,0.27,-0.3466666666666667,-0.6488888888888888,-0.008726646259971648,-0.030543261909900768,-0.02399827721492203
1590512714.2704976,-3.6454348326680996,-0.87,9.022175314706786,0.27,-0.3466666666666667,-0.6488888888888888,-0.0015888132877848863,-0.013374566705716257,-0.01823587234099051
1590512714.2804976,-3.6536386843397155,-0.8768193421698577,8.863180657830142,0.27,-0.3466666666666667,-0.6488888888888888,-0.004413286071569976,-0.005354228029313975,-0.011552256777321943
1590512714.2904975,-3.6394596509876873,-0.88,8.865135087253078,0.27,-0.3466666666666667,-0.6488888888888888,-0.006014305037128569,-0.003832643472135657,-0.007576872543882949
1590512714.3004975,-3.6231482729387214,-0.8831482729387214,8.901482729387213,0.27279846483441905,-0.33827127216340963,-0.6436417673243532,-0.006201561391652948,-0.0067672862532663315,-0.004423884002504919
1590512714.3104975,-3.63,-0.89,8.997045168759106,0.2788888888888889,-0.32,-0.6322222222222222,-0.004546409217090127,-0.011772202433612976,-0.001954725391144874
1590512714.3204975,-3.631762645914397,-0.89,9.091186770428015,0.2788888888888889,-0.32,-0.6322222222222222,-0.001090830782496456,-0.010812170403861272,-0.0011869682035997428
1590512714.3304975,-3.6432113120346257,-0.8832113120346257,9.010183031948062,0.2788888888888889,-0.32,-0.6322222222222222,-0.002571892743575164,-0.009447211552198428,-0.002181661564992912
1590512714.3404975,-3.6316841955656622,-0.8716841955656623,9.035052586696986,0.2788888888888889,-0.32,-0.6322222222222222,-0.005086719439128584,-0.009461515206679039,-0.001997944328316064
1590512714.3504975,-3.635203024574669,-0.88,9.093578827977316,0.2858178533921445,-0.3290609535811804,-0.6402171812644403,-0.003272492347489368,-0.014659775927006435,-0.001614099628179444
1590512714.3604975,-3.61728466362857,-0.88,9.15543067274286,0.2933333333333333,-0.3388888888888889,-0.6488888888888888,-0.002578978331301744,-0.01705597575363446,-0.002875175581180536
1590512714.3704975,-3.6220424787022987,-0.88,9.103766367137355,0.2933333333333333,-0.3388888888888889,-0.6488888888888888,0.0004455997282122293,-0.014826031226738152,-0.003272492347489368
1590512714.3804975,-3.617348307754853,-0.8863258461225735,8.996741538774266,0.2933333333333333,-0.3388888888888889,-0.6488888888888888,0.004251789867744596,-0.012399926622373577,-0.003272492347489368
1590512714.3904974,-3.61,-0.8854169793386363,8.937084896693182,0.2933333333333333,-0.3388888888888889,-0.6488888888888888,0.007453873918175418,-0.011999138607461015,-0.003272492347489368
1590512714.4004974,-3.6065902454850223,-0.8765902454850222,8.91,0.2975008110738618,-0.33472141114836046,-0.6511620585655408,0.010561370079606922,-0.010883299051752789,-0.005876117977475231
1590512714.4104974,-3.6295899882088114,-0.8742271411726873,8.948044270554186,0.3055555555555556,-0.32666666666666666,-0.6555555555555556,0.00784915246564807,-0.005498879260783802,-0.011369417396277108
1590512714.4204974,-3.662208107452059,-0.8761040537260296,8.976624322356178,0.3055555555555556,-0.32666666666666666,-0.6555555555555556,-0.0033431019943861357,0.0018840419033230315,-0.010299211358421307
1590512714.4304974,-3.65,-0.9006577925932692,8.982920909630577,0.3055555555555556,-0.32666666666666666,-0.6555555555555556,-0.014674535718191398,0.007882683250343928,-0.0022850212560144266
1590512714.4404974,-3.641075572055831,-0.9155377860279157,9.01892442794417,0.3055555555555556,-0.32666666666666666,-0.6555555555555556,-0.014902205629796208,0.006779638116437474,0.002064334854263543
1590512714.4504974,-3.6254484052532834,-0.9077242026266417,9.04137898686679,0.30277402543256204,-0.32666666666666666,-0.6570727538044612,-0.010607459560373605,0.002625566249277117,0.0027759903815725946
1590512714.4604974,-3.61,-0.8963549625433268,9.089112593641683,0.2933333333333333,-0.32666666666666666,-0.6622222222222223,-0.003374497283320444,-0.0020796566291618355,0.001090830782496456
1590512714.4704974,-3.618228228228228,-0.88,9.113543543543544,0.2933333333333333,-0.32666666666666666,-0.6622222222222223,-0.006931525332620122,0.003272492347489368,0.0015396110143343373
1590512714.4804974,-3.6258013295107276,-0.8758013295107274,9.085801329510728,0.2933333333333333,-0.32666666666666666,-0.6622222222222223,-0.0025313075238826426,0.003272492347489368,0.002181661564992912
1590512714.4904974,-3.624372038575171,-0.8787440771503429,9.066883884274485,0.2933333333333333,-0.32666666666666666,-0.6622222222222223,0.0028614925560353542,0.004703238625507046,0.002181661564992912
1590512714.5004973,-3.6342072774528913,-0.8857927225471085,9.033170890188435,0.2984755613313118,-0.32666666666666666,-0.6528727167713523,0.0056270991437552716,0.0056270991437552716,0.00172271878938118
1590512714.5104973,-3.6345600067222654,-0.8963199798332038,8.993680020166796,0.3055555555555556,-0.32666666666666666,-0.64,0.006143556767163831,0.003769911917593155,0.000497419570103787
1590512714.5204973,-3.6338848147437126,-0.8983455557688617,8.948921482050299,0.3055555555555556,-0.32666666666666666,-0.64,0.00636451282545379,0.002848724796815567,0.00042376755067380075
1590512714.5304973,-3.64,-0.8762579281183932,8.914968287526428,0.3055555555555556,-0.32666666666666666,-0.64,0.0019141428107231676,0.0009570714053615838,0.001090830782496456
1590512714.5404973,-3.6318534524776607,-0.8659267262388302,8.95221982128351,0.3055555555555556,-0.32666666666666666,-0.64,-0.003958962526680558,-0.0015351560229183675,0.0006465055420745446
1590512714.5504973,-3.62,-0.8613071770334928,8.971307177033493,0.30294120148856996,-0.3282643274853801,-0.6417429027113237,-0.0068301664842400096,-0.0018964797757316375,-0.0001425908946306372
1590512714.5604973,-3.621280429321763,-0.8738412879652889,8.985121717287052,0.2855555555555556,-0.3388888888888889,-0.6533333333333333,-0.009564685291365706,-0.0002793463437980191,-0.001090830782496456
1590512714.5704973,-3.63,-0.9014469329639037,9.012765335180482,0.2855555555555556,-0.3388888888888889,-0.6533333333333333,-0.015587302758397368,-0.0020238256632694194,-0.0009329948807729636
1590512714.5804973,-3.6262729197383843,-0.9286354013080791,9.03336036444747,0.2855555555555556,-0.3388888888888889,-0.6533333333333333,-0.01623360835648165,0.00012885338096518774,0.0
1590512714.5904973,-3.6179006160558047,-0.9432049284464367,9.135801232111609,0.2855555555555556,-0.3388888888888889,-0.6533333333333333,-0.011890727541846748,0.0026396760911143475,0.00022900726306071772
1590512714.6004972,-3.613966183254972,-0.8839661832549721,9.127932366509944,0.2855555555555556,-0.3375668278038982,-0.6524519592766729,-0.0034888140866666446,0.004363323129985824,0.001090830782496456
1590512714.6104972,-3.63,-0.8954033510420923,9.137016755210462,0.2855555555555556,-0.3322222222222222,-0.6488888888888888,-0.004112614821005028,0.005616864674889802,0.0005894141645348648
1590512714.6204972,-3.63,-0.8840128218492651,9.023884603356615,0.2855555555555556,-0.3322222222222222,-0.6488888888888888,0.00022935533079280167,0.009379746082682834,-0.001090830782496456
1590512714.6304972,-3.6327457888362877,-0.8872542111637124,8.972745788836288,0.2855555555555556,-0.3322222222222222,-0.6488888888888888,0.004256077518539238,0.009026165358457409,-0.001090830782496456
1590512714.6404972,-3.632102423476202,-0.8839487882618993,8.991846364785697,0.2855555555555556,-0.3322222222222222,-0.6488888888888888,0.001521576761460494,0.008955985084540029,-0.001090830782496456
1590512714.6504972,-3.6254345599781526,-0.89,9.012717279989076,0.2876689955470593,-0.3322222222222222,-0.6488888888888888,0.002478070830667514,0.005560950617752978,-0.0022764678451948636
1590512714.6604972,-3.6349527331504703,-0.89,8.974574598354232,0.2933333333333333,-0.3322222222222222,-0.6488888888888888,0.003272492347489368,0.0,-0.00545415391248228
1590512714.6704972,-3.6338522249614247,-0.89,8.906886650231453,0.2933333333333333,-0.3322222222222222,-0.6488888888888888,0.0015916421198801226,0.00042021255690231137,-0.004613728798677657
1590512714.6804972,-3.64,-0.8872556263429713,8.905676857541373,0.2933333333333333,-0.3322222222222222,-0.6488888888888888,-0.001090830782496456,0.0007914660561205296,-0.002973127621113442
1590512714.6904972,-3.64,-0.88,9.02631987011696,0.2933333333333333,-0.3322222222222222,-0.6488888888888888,-0.001911131482921875,0.0,-0.0009512105143547837
1590512714.7004972,-3.64,-0.8846435292414592,9.082382744643892,0.2962570369298076,-0.3322222222222222,-0.6531884530013511,-0.0031036488596224983,0.0,0.0009219872946295863
1590512714.7104971,-3.6338405460931806,-0.9038405460931805,9.125362184372722,0.31222222222222223,-0.3322222222222222,-0.6766666666666666,-0.001509769372500231,0.00033594609624634043,-0.00033594609624634043
1590512714.7204971,-3.619930470022647,-0.8899304700226469,9.069235170249117,0.31222222222222223,-0.3322222222222222,-0.6766666666666666,-7.58454396030354e-06,0.0011135844143773665,-0.001105999870417063
1590512714.7304971,-3.6141029799801494,-0.88,8.96,0.31222222222222223,-0.3322222222222222,-0.6766666666666666,0.0006994319624290986,0.004810888816217212,-0.003272492347489368
1590512714.740497,-3.6135138425217184,-0.8702707637825774,8.982701551173987,0.31222222222222223,-0.3322222222222222,-0.6766666666666666,0.002564962323746439,0.005807918924353744,-0.0036262573593608322
1590512714.750497,-3.6024256962054237,-0.8475743037945765,9.033638544308134,0.3104703305183053,-0.3322222222222222,-0.6738366877603393,0.001090830782496456,0.0060157798770065895,-0.004627925538971896
1590512714.760497,-3.6187556779570085,-0.8312443220429915,9.061244322042992,0.2977777777777777,-0.3322222222222222,-0.6533333333333333,0.001090830782496456,0.002453130522559718,-0.006273515737411929
1590512714.770497,-3.6224613326197486,-0.8493459994648114,9.013924003211132,0.2977777777777777,-0.3322222222222222,-0.6533333333333333,7.134039155529408e-05,0.0030040026087309415,-0.0013048519571623382
1590512714.780497,-3.65,-0.8741517304038986,8.896919550673164,0.2977777777777777,-0.3322222222222222,-0.6533333333333333,-0.002181661564992912,-0.00030192235501326703,0.007114726865055248
1590512714.790497,-3.653810350125626,-0.9076207002512517,8.974293151130633,0.2977777777777777,-0.3322222222222222,-0.6533333333333333,-0.003012951006817299,-0.003012951006817299,0.019947160845416458
1590512714.800497,-3.665227427019688,-0.9252274270196877,9.045682281059063,0.29981066606321183,-0.33077015916119784,-0.6521716828845138,-0.0037930992993529178,-0.004648435045302277,0.025138724876187842
1590512714.810497,-3.6660784494056515,-0.9446405168647828,9.094640516864782,0.3055555555555556,-0.32666666666666666,-0.6488888888888888,-0.001169257836433099,-0.004947952048202373,0.02886780220918776
1590512714.820497,-3.6364460986373115,-0.9454820328791038,9.045784394549246,0.3055555555555556,-0.32666666666666666,-0.6488888888888888,0.0029570025658682596,-0.0018991543250956068,0.024524093517623878
1590512714.830497,-3.615523189848797,-0.9265695695463912,8.993430430453609,0.3055555555555556,-0.32666666666666666,-0.6488888888888888,0.00703332892701121,0.00011414231843150688,0.010730615589920159
1590512714.840497,-3.61743017524644,-0.9025698247535597,9.019906900328587,0.3055555555555556,-0.32666666666666666,-0.6488888888888888,0.008716490661229896,-0.0005504931906191041,0.0005504931906191041
1590512714.850497,-3.6346575848849945,-0.8853424151150054,9.04287677984666,0.3055555555555556,-0.32666666666666666,-0.6488888888888888,0.011222115826084705,0.0007023193918083014,-0.0007023193918083014
1590512714.860497,-3.631385640556608,-0.88,9.074457437773567,0.2977777777777777,-0.3322222222222222,-0.6533333333333333,0.012150288544723378,0.000788530907971731,-0.0004534498117870876
1590512714.870497,-3.633530279422458,-0.88,9.001181676534745,0.2977777777777777,-0.3322222222222222,-0.6533333333333333,0.01132562679992399,-0.001443699300503152,-0.00221388679346928
1590512714.880497,-3.624671747360032,-0.88,8.927007621040048,0.2977777777777777,-0.3322222222222222,-0.6533333333333333,0.007381011186056725,-0.003200878730666777,0.0002548042914184663
1590512714.890497,-3.6376081882614932,-0.88,8.954783623477013,0.2977777777777777,-0.3322222222222222,-0.6533333333333333,0.005762266133888904,-0.005762266133888904,0.0003081122214066241
1590512714.900497,-3.6286832864447502,-0.88,8.9726334271105,0.299679697357583,-0.3322222222222222,-0.6533333333333333,0.0025543365085909475,-0.0034161235152690523,-0.0018943992294335437
1590512714.910497,-3.6200702301989858,-0.88,8.98985953960203,0.3121207786014653,-0.3322222222222222,-0.6533333333333333,-0.0021433569335357608,-0.0043556622036943935,-1.532185258286108e-05
1590512714.920497,-3.6371460165433174,-0.8828539834566826,9.007146016543317,0.31222222222222223,-0.3322222222222222,-0.6533333333333333,-0.0024929828657214172,-0.004988378191336209,0.0
1590512714.930497,-3.630340210052513,-0.89,9.001020630157539,0.31222222222222223,-0.3322222222222222,-0.6533333333333333,-0.0031611588681505513,-0.001276386581394484,-3.7111159779605614e-05
1590512714.940497,-3.6369707742394195,-0.89,9.039087677281742,0.31222222222222223,-0.3322222222222222,-0.6533333333333333,0.000991311812031824,-0.005223235612269637,-0.0007603935118191813
1590512714.950497,-3.63,-0.8915208150816055,9.066083260326423,0.3081667153379409,-0.33036344823359326,-0.6546851689614271,0.003936073109689425,-0.0025134519460929404,0.0
1590512714.960497,-3.6336981335079757,-0.8963018664920241,9.1,0.2855555555555556,-0.32,-0.6622222222222223,0.007635815477475192,-0.003959919343157657,0.0008068075736563346
1590512714.970497,-3.6437447573397246,-0.8862552426602757,9.058807669263032,0.2855555555555556,-0.32,-0.6622222222222223,0.00886128445122046,-0.003272492347489368,0.0005477029333325525
1590512714.980497,-3.6380640373197624,-0.88,8.99,0.2855555555555556,-0.32,-0.6622222222222223,0.009606296273931364,-0.0037064961978337664,-0.001313653864304115
1590512714.9904969,-3.6275447778374645,-0.8774850740541785,8.984970148108358,0.2855555555555556,-0.32,-0.6622222222222223,0.006812807886254859,-0.004088987266245713,-0.0002743358637401109
1590512715.0004969,-3.6468570332284553,-0.8710476555905149,8.97209531118103,0.2855555555555556,-0.32,-0.6622222222222223,0.004706167620262279,-0.0033867738442481866,-0.0009765492857376376
1590512715.0104969,-3.622474876419143,-0.8924748764191428,9.002474876419143,0.2855555555555556,-0.32666666666666666,-0.6533333333333333,0.004093355991898266,-0.006275017556891177,-0.0016307650586715719
1590512715.0204968,-3.635610087676091,-0.894389912323909,8.998779824647817,0.2855555555555556,-0.32666666666666666,-0.6533333333333333,0.003578475163968573,-0.005148171096003074,-0.0020485610815725486
1590512715.0304968,-3.65,-0.88,8.978150540865386,0.2855555555555556,-0.32666666666666666,-0.6533333333333333,0.0032964198255910028,-0.004363323129985824,0.0007351963476981823
1590512715.0404968,-3.6420199388240624,-0.88,9.030640081567917,0.2855555555555556,-0.32666666666666666,-0.6533333333333333,-0.002181661564992912,-0.0032026702797301634,-0.0008006675699325409
1590512715.0504968,-3.62,-0.8806390820873766,9.060639082087377,0.2855555555555556,-0.3274477669956825,-0.6539014062998904,-0.0023210876476834133,-6.971304134525058e-05,0.0
1590512715.0604968,-3.62,-0.8893732039481904,9.06937320394819,0.2855555555555556,-0.33812280482556606,-0.6616650701761693,-0.004226577444453596,-0.0010224579397303418,0.0
1590512715.0704968,-3.624907918172543,-0.8824539590862716,9.037730204568643,0.2855555555555556,-0.3388888888888889,-0.6622222222222223,-0.003004806936460175,0.002449346976022105,-0.0008231453714672629
1590512715.0804968,-3.63941378892943,-0.889706894464715,9.001465527676425,0.2855555555555556,-0.3388888888888889,-0.6622222222222223,-0.002213634419033817,0.0032405194934484634,-3.197285404090496e-05
1590512715.0904968,-3.6224345774345776,-0.88,9.012434577434577,0.2855555555555556,-0.3388888888888889,-0.6622222222222223,0.00026557120080083173,0.003272492347489368,0.0019160903641920802
1590512715.1004968,-3.6293551793551795,-0.88,9.019355179355179,0.2855555555555556,-0.3388888888888889,-0.6622222222222223,0.0010204917616404986,0.003272492347489368,0.0011611698033524133
1590512715.1104968,-3.6226189488530305,-0.8826189488530303,9.04214315344091,0.3055555555555556,-0.32666666666666666,-0.6533333333333333,0.003272492347489368,0.00132461255699216,0.001038929554325243
1590512715.1204967,-3.631864695182773,-0.888135304817227,9.005082438537816,0.3055555555555556,-0.32666666666666666,-0.6533333333333333,0.002865678966421042,-0.0008874240919622932,-0.0015714414933904234
1590512715.1304967,-3.636747746098577,-0.8767477460985768,8.962765777309963,0.3055555555555556,-0.32666666666666666,-0.6533333333333333,0.00038129904886311525,0.0,0.00038129904886311525
1590512715.1404967,-3.634531940830771,-0.8722659704153854,9.01,0.3055555555555556,-0.32666666666666666,-0.6533333333333333,-0.00207954689502795,0.000494358056265747,-0.0013380098106293295
1590512715.1504967,-3.649794763559615,-0.8798973817798075,9.01,0.3055555555555556,-0.32666666666666666,-0.6533333333333333,-0.005409378267109888,0.0021592737423067163,-0.002170467653649814
1590512715.1604967,-3.623139208173691,-0.8868607918263091,9.010582375478927,0.2855555555555556,-0.3322222222222222,-0.6488888888888888,-0.00545415391248228,0.0,0.000342434490852655
1590512715.1704967,-3.6280473729716687,-0.88,8.99,0.2855555555555556,-0.3322222222222222,-0.6488888888888888,-0.00460215964478694,0.00021299856692383497,0.000877832215572621
1590512715.1804967,-3.620623539340431,-0.8812470786808622,8.993117696702155,0.2855555555555556,-0.3322222222222222,-0.6488888888888888,-0.0011588483731604293,0.0011588483731604293,6.801759066397338e-05
1590512715.1904967,-3.6250595981382676,-0.8975297990691339,9.049880803723465,0.2855555555555556,-0.3322222222222222,-0.6488888888888888,-0.0016427473221248706,0.0035289471721630158,0.001090830782496456
1590512715.2004967,-3.611362394935744,-0.889545868354752,9.080454131645249,0.28646381884605165,-0.3331809445844125,-0.6491916433190542,4.9538077794230685e-05,0.007734891633063653,0.001239445015879148
1590512715.2104967,-3.6380024559100628,-0.880665848029979,9.089334151970021,0.3042238594955975,-0.35192765415893307,-0.6551116568689028,0.00101819802973988,0.009672211536954953,0.004145424871716096
1590512715.2204967,-3.64,-0.88,9.010055419206713,0.3055555555555556,-0.3533333333333333,-0.6555555555555556,-0.0008732691557634125,0.009817477042468105,0.0008732691557634125
1590512715.2304966,-3.64,-0.88,8.943642625286992,0.3055555555555556,-0.3533333333333333,-0.6555555555555556,-0.00014881795617115764,0.009817477042468105,0.00014881795617115764
1590512715.2404966,-3.6312087426543145,-0.8812087426543146,8.946043713271573,0.3055555555555556,-0.3533333333333333,-0.6555555555555556,-0.0019179548259043392,0.004363323129985824,0.001090830782496456
1590512715.2504966,-3.6373861879022638,-0.8873861879022638,8.976930939511318,0.3055555555555556,-0.3533333333333333,-0.6555555555555556,-0.0005702453391744733,0.004363323129985824,0.001090830782496456
1590512715.2604966,-3.648891992209033,-0.8811080077909669,9.025567968836132,0.2877715711374894,-0.32369335930322296,-0.6496275607495334,0.0,0.004363323129985824,0.001090830782496456
1590512715.2704966,-3.6241953730914553,-0.88,9.038601542302848,0.2855555555555556,-0.32,-0.6488888888888888,-0.006567978984624572,0.0062398885541642725,0.0020291134945856805
1590512715.2804966,-3.6412924803936644,-0.8974150392126711,8.97163232354298,0.2855555555555556,-0.32,-0.6488888888888888,-0.003272492347489368,0.004081347650149357,0.0
1590512715.2904966,-3.649354720898047,-0.8812905582039059,9.044192488082425,0.2855555555555556,-0.32,-0.6488888888888888,-0.003272492347489368,0.0023224396265353,0.0
1590512715.3004966,-3.630361859683945,-0.88,9.079457210474082,0.2855555555555556,-0.32,-0.6488888888888888,-0.0011303035507156571,-0.002102716028554509,-0.0010710943983868553
1590512715.3104966,-3.639097769246045,-0.8981955384920898,9.11639107698418,0.2926315983024793,-0.3371846752425292,-0.6488888888888888,-9.841810793292309e-05,-0.004166486914119978,0.0008939945666306098
1590512715.3204966,-3.6273575129533677,-0.89,9.023575129533679,0.2933333333333333,-0.3388888888888889,-0.6488888888888888,0.0022438332676222436,-0.0002882506212814469,0.001090830782496456
1590512715.3304965,-3.622212737210588,-0.8888936313947061,8.951106368605293,0.2933333333333333,-0.3388888888888889,-0.6488888888888888,0.005816212191914945,-0.001211516875640678,0.0009701446893522341
1590512715.3404965,-3.63589694958116,-0.88205152520942,8.97436067646594,0.2933333333333333,-0.3388888888888889,-0.6488888888888888,0.008950432944921925,-0.002629234934893465,0.0
1590512715.3504965,-3.6226385332701123,-0.8886807333649439,9.020765133554606,0.2933333333333333,-0.3388888888888889,-0.6488888888888888,0.009673567376884133,-0.004075503798817879,0.0
1590512715.3604965,-3.62,-0.89,9.048469150281285,0.28444077949419616,-0.3388888888888889,-0.6488888888888888,0.011160591552693349,-0.0036917658748732013,0.0
1590512715.3704965,-3.636716227528202,-0.89,9.051641886235899,0.2788888888888889,-0.3388888888888889,-0.6488888888888888,0.008352223496465569,-0.0023607635697405066,0.0
1590512715.3804965,-3.6327163489312535,-0.8827163489312536,8.984447140381283,0.2788888888888889,-0.3388888888888889,-0.6488888888888888,0.006841292398000015,-0.0029761846444680893,-0.0015890461589503544
1590512715.3904965,-3.629343416811307,-0.8893434168113067,8.990656583188693,0.2788888888888889,-0.3388888888888889,-0.6488888888888888,0.0,-0.005382531797132648,-0.0001074331730244464
1590512715.4004965,-3.615476816265807,-0.8754768162658071,9.004523183734193,0.2788888888888889,-0.3388888888888889,-0.6488888888888888,0.0,-0.0038699203247713346,-0.002376350381566418
1590512715.4104965,-3.6198410051576375,-0.8798410051576375,9.059205025788188,0.29310367411658755,-0.32030032359112903,-0.6620102290990724,-0.006440922813994469,-0.005419466618820857,-0.005419466618820857
1590512715.4204965,-3.610081071121484,-0.88,9.078783933177743,0.2933333333333333,-0.32,-0.6622222222222223,-0.0032901793224665863,8.843487488609028e-06,-0.013134186827400515
1590512715.4304965,-3.62,-0.88,8.946022797135404,0.2933333333333333,-0.32,-0.6622222222222223,-0.005279372309112336,0.0009160491791265122,-0.018718904905809693
1590512715.4404964,-3.62,-0.88,9.015715235199309,0.2933333333333333,-0.32,-0.6622222222222223,-0.0045191457416389825,0.00015582261165315837,-0.019479131473283052
1590512715.4504964,-3.645454961832061,-0.8884849872773537,9.055454961832062,0.2933333333333333,-0.32,-0.6622222222222223,-0.004363323129985824,0.0018511370622456397,-0.01963495408493621
1590512715.4604964,-3.65,-0.89,9.091758035694589,0.2968620039660653,-0.33499685018911124,-0.6454610367167449,-0.0017651249104399512,0.002181661564992912,-0.01963495408493621
1590512715.4704964,-3.659018160604677,-0.8890181606046771,9.048217927256125,0.2977777777777777,-0.3388888888888889,-0.6411111111111111,-0.0013050349096736377,0.003272492347489368,-0.011570730353106651
1590512715.4804964,-3.65,-0.8816474957445711,8.94,0.2977777777777777,-0.3388888888888889,-0.6411111111111111,-0.00309277844026836,0.00309277844026836,-0.00691695984859116
1590512715.4904964,-3.643245578387547,-0.8933772108062265,8.960263264837359,0.2977777777777777,-0.3388888888888889,-0.6411111111111111,-0.001997463289672336,0.0023658598403134877,-0.003272492347489368
1590512715.5004964,-3.6136023110765585,-0.9081988444617206,9.049193066770323,0.2977777777777777,-0.3388888888888889,-0.6411111111111111,-0.001189068577757414,0.00317425455222841,-0.003272492347489368
1590512715.5104964,-3.616023677636581,-0.88,9.095301763151225,0.3055555555555556,-0.32,-0.6555555555555556,0.004363323129985824,0.0012354139436680112,-0.0038508249921755887
1590512715.5204964,-3.593245899858803,-0.88,9.125672133521597,0.3055555555555556,-0.32,-0.6555555555555556,0.004363323129985824,0.0020636373155634683,-0.007163718479757417
1590512715.5304964,-3.2973832710779085,-0.8866015208110992,9.026601520811099,0.3055555555555556,-0.32,-0.6555555555555556,0.005934230053284815,0.007505136976583807,-0.027446850838668164
1590512715.5404963,-3.008665301490824,-0.9144763855013108,9.054476385501312,0.3055555555555556,-0.32,-0.6555555555555556,0.0084170921333393,0.012666180300658804,-0.05595670671251809
1590512715.5504963,-2.8171922158890816,-0.9418296834444169,9.081829683444417,0.3055555555555556,-0.32,-0.6555555555555556,0.013191143237201237,0.02340779528434816,-0.0846010133356897
1590512715.5604963,-2.6795692433053073,-0.933923108263269,9.011338568095114,0.3130888798350556,-0.32,-0.6590324744537864,0.027171742700383215,0.03964581429974193,-0.14003913389652795
1590512715.5704963,-2.594638663704815,-0.8932530363788478,8.946746963621152,0.32,-0.32,-0.6622222222222223,0.022473763859838562,0.041602718228888655,-0.2483413184852713
1590512715.5804963,-2.5060571806817893,-0.8530285903408946,8.866814328267012,0.32,-0.32,-0.6622222222222223,0.011569043739248419,0.037336022572735945,-0.3546399487638445
1590512715.5904963,-2.299108952116586,-0.8113671061762665,8.867726578764746,0.32,-0.32,-0.6622222222222223,0.011751146820961473,0.04383095857285482,-0.4413826854125334
1590512715.6004963,-2.0249296839558446,-0.8614486617269016,8.854637834568274,0.32,-0.32,-0.6622222222222223,0.019540023929889072,0.06508604424438952,-0.5342376335392156
1590512715.6104963,-2.0443521758732475,-0.88,8.871088043968312,0.31375169067605574,-0.32859142532042335,-0.6622222222222223,0.034085142318341574,0.0724375666958212,-0.6089076724650005
1590512715.6204963,-2.2319328621037853,-0.9104832155259464,9.129033568948108,0.3111111111111111,-0.3322222222222222,-0.6622222222222223,0.008594869667401021,0.05028363726889347,-0.717245378384065
1590512715.6304963,-2.313271471527908,-0.9310904905093028,9.08563803796279,0.3111111111111111,-0.3322222222222222,-0.6622222222222223,0.004105170778386752,0.055552648648055335,-0.7878759544616548
1590512715.6404963,-2.3712556452209967,-0.9515695565262456,9.011883467831495,0.3111111111111111,-0.3322222222222222,-0.6622222222222223,0.01844139606801793,0.07308566242726255,-0.851537784961384
1590512715.6504962,-2.4023084326645443,-0.9903855408306804,9.058462648996816,0.3111111111111111,-0.3322222222222222,-0.6622222222222223,0.015900895836087333,0.07308566242726255,-0.8955731223148478
1590512715.6604962,-2.391424355190556,-1.0697626074682407,9.089762607468241,0.3111111111111111,-0.3388888888888889,-0.6488888888888888,0.017712247601121077,0.07869518938845149,-0.9666023313908992
1590512715.6704962,-2.4375569650418876,-1.0620738391596856,9.082073839159685,0.3111111111111111,-0.3388888888888889,-0.6488888888888888,0.026099392751576397,0.0837274764787247,-1.0060219135980393
1590512715.6804962,-2.5214777661674215,-1.1329555323348426,8.920738883083711,0.3111111111111111,-0.3388888888888889,-0.6488888888888888,0.03910870888739692,0.09094195315339458,-1.0747422126259805
1590512715.6904962,-2.5397413717341903,-1.1710345130632382,8.92948274346838,0.3111111111111111,-0.3388888888888889,-0.6488888888888888,0.0370882466048795,0.09596489689233124,-1.1205747692418508
1590512715.7004962,-2.5344755244755244,-1.1920979020979021,8.91895104895105,0.3111111111111111,-0.3388888888888889,-0.6488888888888888,0.0370882466048795,0.09539048206376351,-1.1487210958416703
1590512715.7104962,-2.5483887660142717,-1.2178808997204023,8.925761799440805,0.31432184803423796,-0.33392684091678376,-0.6523915109868454,0.03622857380400125,0.09633506607865541,-1.1863978559977424
1590512715.7204962,-2.624972567039298,-1.2816209450654963,8.9783241890131,0.3233333333333333,-0.32,-0.6622222222222223,0.031091669772947902,0.10126446015115469,-1.2676802923331152
1590512715.7304962,-2.6527849969255994,-1.3203799959007994,8.896455011272801,0.3233333333333333,-0.32,-0.6622222222222223,0.024743860837276855,0.1014472627721704,-1.3118969078241147
1590512715.7404962,-2.672759873284055,-1.3427598732840549,8.914659556494192,0.3233333333333333,-0.32,-0.6622222222222223,0.020123673920625328,0.10283914902807052,-1.3517114074141534
1590512715.7504961,-2.6919547875545273,-1.4037965439953728,8.945977393777262,0.3233333333333333,-0.32,-0.6622222222222223,0.02050022084184233,0.10754111941596847,-1.3913749717233865
1590512715.7604961,-2.730441701224805,-1.4643533609798438,8.998706721959687,0.347010212063737,-0.29497015677071614,-0.6541044352289409,0.026465559917389907,0.11083804392749358,-1.429088160967029
1590512715.7704961,-2.7432256740407883,-1.52506891634981,9.008156757690978,0.3622222222222222,-0.2788888888888889,-0.6488888888888888,0.03416762071118928,0.1186994887470856,-1.4792821095528663
1590512715.7804961,-2.806654856550294,-1.6247433460076044,8.97191151054269,0.3622222222222222,-0.2788888888888889,-0.6488888888888888,0.04108667119018474,0.11474574561623106,-1.5030045683379938
1590512715.790496,-2.7808339246825065,-1.649444050211662,9.008888100423324,0.3622222222222222,-0.2788888888888889,-0.6488888888888888,0.04145156973486533,0.12832384169186498,-1.5254658175699005
1590512715.800496,-2.773599705135042,-1.6756011794598324,8.997199410270083,0.3622222222222222,-0.2788888888888889,-0.6488888888888888,0.04284789746601539,0.1287180323345818,-1.5393373781584676
1590512715.810496,-2.763509449437818,-1.7029811011243634,8.970528348313456,0.3795303570547069,-0.26735013233389915,-0.638071304618586,0.040801194360427236,0.1287180323345818,-1.5560021696331254
1590512715.820496,-2.7735127986348123,-1.7843203924914677,8.878923208191127,0.3888888888888889,-0.2611111111111111,-0.6322222222222222,0.04074392584072535,0.12945504117000828,-1.5764560352963843
1590512715.830496,-2.78,-1.8488965343324448,8.78220693133511,0.3888888888888889,-0.2611111111111111,-0.6322222222222222,0.0382994468191357,0.1308595707556548,-1.5964947878477724
1590512715.840496,-2.8232305091907883,-1.8759383055144727,8.81458440735263,0.3888888888888889,-0.2611111111111111,-0.6322222222222222,0.0372359339840098,0.12995655049620855,-1.6073508430118393
1590512715.850496,-2.8063971731073236,-1.9224850884068174,8.862485088406817,0.3888888888888889,-0.2611111111111111,-0.6322222222222222,0.03605837899974084,0.1287789955119396,-1.6146396760105353
1590512715.860496,-2.7784151405323665,-1.9742262919136884,8.911584859467633,0.3905911453541245,-0.26005453813268903,-0.6331026997042406,0.03507946638920911,0.12739669308632198,-1.621838949536346
1590512715.870496,-2.751619945153006,-2.052699908588343,8.941079963435337,0.4211111111111111,-0.2411111111111111,-0.6488888888888888,0.03800236878349051,0.12391180996967953,-1.6378671303388366
1590512715.880496,-2.779006224698559,-2.098343707830932,8.959337483132373,0.4211111111111111,-0.2411111111111111,-0.6488888888888888,0.035014989108856226,0.13486553544333854,-1.6468292693627398
1590512715.890496,-2.807673611903512,-2.173796298409366,9.006122686505854,0.4211111111111111,-0.2411111111111111,-0.6488888888888888,0.03893154873684812,0.1322442942568394,-1.654198168039331
1590512715.900496,-2.7816027553689175,-2.2154965557888535,8.995801377684458,0.4211111111111111,-0.2411111111111111,-0.6488888888888888,0.03539783459716402,0.13276493939661285,-1.6563391264762068
1590512715.910496,-2.7891852424426014,-2.260488854534439,8.97967409697704,0.44222222222222224,-0.21444444444444444,-0.6677777777777778,0.038196852639853604,0.13420773675201939,-1.6580983398995683
1590512715.920496,-2.745373221634947,-2.286776067019032,8.962149288653979,0.44222222222222224,-0.21444444444444444,-0.6677777777777778,0.039152682658660905,0.13611939678963395,-1.660009999937183
1590512715.930496,-2.731430534208933,-2.341416794746402,8.797180149969726,0.44222222222222224,-0.21444444444444444,-0.6677777777777778,0.04394382670709553,0.13915819893439088,-1.6621140183744954
1590512715.940496,-2.722503245801399,-2.379987016794405,8.814980525191608,0.44222222222222224,-0.21444444444444444,-0.6677777777777778,0.043906293057490324,0.13799080210981762,-1.66079057447487
1590512715.950496,-2.7093953110081688,-2.4218140669754944,8.840604688991831,0.44222222222222224,-0.21444444444444444,-0.6677777777777778,0.043054835240303686,0.13628788647544435,-1.660244450959606
1590512715.960496,-2.6529990828492815,-2.4852506878630387,8.8793755732192,0.46506989028159923,-0.19029119535310302,-0.6690833588097422,0.041901524926942164,0.137826519391239,-1.659603575369186
1590512715.970496,-2.594006217011245,-2.4905046627584335,8.9,0.4811111111111111,-0.17333333333333334,-0.67,0.04003382880298199,0.13466424689795467,-1.659862490643051
1590512715.980496,-2.5277251792083666,-2.488712470131939,8.769312948020916,0.4811111111111111,-0.17333333333333334,-0.67,0.036418758986422425,0.12913937549862117,-1.658343684837306
1590512715.990496,-2.5411948988078734,-2.553584696423621,8.848909527770077,0.4811111111111111,-0.17333333333333334,-0.67,0.032144074480462054,0.1271766957978134,-1.6565214528578447
1590512716.000496,-2.5568935146000844,-2.662722175201016,8.903787029200169,0.4811111111111111,-0.17333333333333334,-0.67,0.03204719349497298,0.1265363707695889,-1.6528732646594757
1590512716.010496,-2.491209606560578,-2.719654398125549,8.949308796251097,0.5193279963552345,-0.11764587197761073,-0.6765514660418497,0.03594086684791212,0.13404023863996528,-1.6515178046996344
1590512716.020496,-2.407399937946013,-2.6924666459820044,8.959177784672667,0.52,-0.11666666666666667,-0.6766666666666666,0.04200426184402347,0.13016762223263714,-1.6575246507212749
1590512716.030496,-2.3929481527934042,-2.7816740136857443,8.84717044469447,0.52,-0.11666666666666667,-0.6766666666666666,0.04485011211928666,0.134424286320928,-1.6596012637958963
1590512716.0404959,-2.327101493170185,-2.8357246267074534,8.862898506829815,0.52,-0.11666666666666667,-0.6766666666666666,0.04495724752206332,0.13892678384042045,-1.665390323016333
1590512716.0504959,-2.302731231637947,-2.8545375367241053,8.865462463275895,0.52,-0.11666666666666667,-0.6766666666666666,0.04868856022243646,0.1404192397875627,-1.6770971308187974
1590512716.0604959,-2.242925477517897,-2.8790248408273675,8.850487579586316,0.52,-0.09130021223017627,-0.6904068294864323,0.04602763959351935,0.14486774734336044,-1.689271388629674
1590512716.0704958,-2.1610593055013654,-2.9589406944986347,8.85,0.52,-0.09,-0.6911111111111111,0.040074163561467216,0.13742618833418338,-1.7069190699971621
1590512716.0804958,-2.10574614483701,-3.0142538551629903,8.690686121413234,0.52,-0.09,-0.6911111111111111,0.03926990816987242,0.14214666390676856,-1.731537631201674
1590512716.0904958,-2.085771009286506,-3.0555724767837353,8.719801467497229,0.52,-0.09,-0.6911111111111111,0.03849383711616564,0.14289883250703572,-1.7491662941897936
1590512716.1004958,-2.0150287160303666,-3.0522805589173725,8.781345362526132,0.52,-0.09,-0.6911111111111111,0.03817907738737596,0.14032164426949412,-1.7718984525808184
1590512716.1104958,-1.9039885455702468,-3.1142628862334725,8.90901718164463,0.542003818143251,-0.048742840981404224,-0.6911111111111111,0.03907916896849267,0.13943560095816662,-1.8033103441662732
1590512716.1204958,-1.9019876873228028,-3.13,8.864067719724584,0.5466666666666666,-0.04,-0.6911111111111111,0.04319286967266915,0.1435493016623431,-1.8258137602763456
1590512716.1304958,-1.9170133626660149,-3.1790935386621038,8.812986637333985,0.5466666666666666,-0.04,-0.6911111111111111,0.04504985367636111,0.15229163836244541,-1.8571758482187795
1590512716.1404958,-1.8603066416018488,-3.235816015038891,8.81,0.5466666666666666,-0.04,-0.6911111111111111,0.042770601496815795,0.15359566405747083,-1.8815994762817638
1590512716.1504958,-1.8308421144808664,-3.270842114480866,8.875052686885198,0.5466666666666666,-0.04,-0.6911111111111111,0.04618233462409716,0.15626438321642772,-1.9091490847436625
1590512716.1604958,-1.78496915982993,-3.2721384514042757,8.898553805617103,0.5623897638581152,0.0010547537776713217,-0.7024666813049352,0.04760553023294462,0.16011885616511332,-1.9437161556363902
1590512716.1704957,-1.6940410826017365,-3.27,8.830920842023573,0.5666666666666667,0.012222222222222223,-0.7055555555555556,0.051508963941966024,0.16219342114482638,-1.966806921440717
1590512716.1804957,-1.63800515622413,-3.3791865938172614,8.727611343693088,0.5666666666666667,0.012222222222222223,-0.7055555555555556,0.04686276536420807,0.16344997195790892,-1.981034617579843
1590512716.1904957,-1.5361457853244391,-3.3658711946634323,8.66733899332929,0.5666666666666667,0.012222222222222223,-0.7055555555555556,0.04581489286485115,0.16548605494601626,-1.9933682692220702
1590512716.2004957,-1.4899365511464768,-3.4050951732802845,8.795285519840855,0.5666666666666667,0.012222222222222223,-0.7055555555555556,0.046634746250786924,0.15760774508010358,-2.0033280350453757
1590512716.2104957,-1.410645300746462,-3.4806853618468456,8.831330662593308,0.5724462249377948,0.06327498695052086,-0.7180779318096665,0.04596004563664082,0.16057203917873747,-2.01549458911805
1590512716.2204957,-1.4226850613832502,-3.5051233742555,8.82243831287225,0.5733333333333334,0.07111111111111111,-0.72,0.048289449190818255,0.16226780791813117,-2.019420673161914
1590512716.2304957,-1.3912784193899217,-3.5177443161220157,8.765789787145891,0.5733333333333334,0.07111111111111111,-0.72,0.04401874216317357,0.16168901275044412,-2.0210633830249645
1590512716.2404957,-1.3728207565512325,-3.54871697379507,8.757179243448768,0.5733333333333334,0.07111111111111111,-0.72,0.04254240051736178,0.1606598218345803,-2.0236588418906187
1590512716.2504957,-1.3360437687349387,-3.5656593718775103,8.805274975020081,0.5733333333333334,0.07111111111111111,-0.72,0.04254240051736178,0.1615868084376956,-2.021495223786631
1590512716.2604957,-1.2823602332646575,-3.583819883367671,8.819270174948494,0.5733333333333334,0.11487407510873657,-0.7445686815425265,0.04480367364555676,0.16027251346377694,-2.012343959016355
1590512716.2704957,-1.2101864187967983,-3.530186418796798,8.852723986573714,0.5733333333333334,0.13444444444444445,-0.7555555555555555,0.04581489286485115,0.160193387038594,-1.9990572806232456
1590512716.2804956,-1.1847250620556187,-3.63456203458286,8.75307543438933,0.5733333333333334,0.13444444444444445,-0.7555555555555555,0.04498177423932843,0.16118524365250173,-1.9839812647426478
1590512716.2904956,-1.154587098268957,-3.6750825803462086,8.72,0.5733333333333334,0.13444444444444445,-0.7555555555555555,0.045832909101585856,0.16476949686716896,-1.9687694000387561
1590512716.3004956,-1.1177288691173026,-3.6881807539217983,8.756813392648093,0.5733333333333334,0.13444444444444445,-0.7555555555555555,0.04690572364734761,0.1666493677741653,-1.9459941000085383
1590512716.3104956,-1.0654477909360056,-3.7276417672511957,8.81,0.5610481034439131,0.17513926845314912,-0.7686086123130647,0.04389047458732694,0.160946386831939,-1.9120049536236206
1590512716.3204956,-0.9801627314930365,-3.7089612139969055,8.77120151749613,0.5555555555555556,0.19333333333333333,-0.7744444444444445,0.04084949735618698,0.15841484266389516,-1.883429256724127
1590512716.3304956,-0.9380582039634603,-3.7,8.699660060899516,0.5555555555555556,0.19333333333333333,-0.7744444444444445,0.040959108615866775,0.15218676682700705,-1.8569752081174717
1590512716.3404956,-0.902543118689349,-3.682543118689349,8.719827525242604,0.5555555555555556,0.19333333333333333,-0.7744444444444445,0.037008318918188114,0.1466274055203534,-1.816745775754799
1590512716.3504956,-0.7974336579787863,-3.5527493001064627,8.807026536808486,0.5555555555555556,0.19333333333333333,-0.7744444444444445,0.03179626995139343,0.1421323562425317,-1.7729443337058628
1590512716.3604956,-0.7873151260504202,-3.7008039215686273,8.908858543417367,0.5292693744164333,0.204724011826953,-0.7805778867102396,0.03312390170857568,0.1413467666919963,-1.7140871097742703
1590512716.3704956,-0.8056506822366661,-3.737397271053336,8.862191813160008,0.5222222222222223,0.20777777777777776,-0.7822222222222223,0.025186240881184322,0.1381096388490225,-1.6731999484728335
1590512716.3804955,-0.7936609692032434,-3.725446343598919,8.71741215881838,0.5222222222222223,0.20777777777777776,-0.7822222222222223,0.025673370402143646,0.1364512248795112,-1.6213158815933468
1590512716.3904955,-0.7213760907291081,-3.766639943294307,8.698623909270893,0.5222222222222223,0.20777777777777776,-0.7822222222222223,0.02284113752923909,0.13424724035340505,-1.5482153323972982
1590512716.4004955,-0.6877547877591313,-3.761632181638697,8.787348667324778,0.5222222222222223,0.20777777777777776,-0.7822222222222223,0.023642190420098803,0.13374922818709473,-1.4943704608260644
1590512716.4104955,-0.6707006608434615,-3.7453503304217306,8.811401321686922,0.5072399535811323,0.21036092754348293,-0.7755060328313889,0.021107936075501477,0.12960738381309195,-1.4400843088203557
1590512716.4204955,-0.66,-3.765004608294931,8.758744239631335,0.49,0.21333333333333332,-0.7677777777777778,0.017999210598188067,0.12162712956135827,-1.381396685016228
1590512716.4304955,-0.6383911326582477,-3.7983911326582476,8.69480197052039,0.49,0.21333333333333332,-0.7677777777777778,0.021117301721767318,0.11327090117749775,-1.3143566256062305
1590512716.4404955,-0.57,-3.7490549967828235,8.668079007077788,0.49,0.21333333333333332,-0.7677777777777778,0.010336276443375016,0.10290057711500572,-1.2288872040473622
1590512716.4504955,-0.5596023757183076,-3.765443326005631,8.63951097227043,0.49,0.21333333333333332,-0.7677777777777778,0.00740897450484914,0.09840161139730709,-1.164626879549968
1590512716.4604955,-0.5001550071384866,-3.721906995716908,8.782062002855394,0.49793799714460535,0.21686133206426902,-0.7620447798400073,0.003081380040296943,0.09363724364331957,-1.074272091358609
1590512716.4704955,-0.4735138261745718,-3.7610829570474307,8.791082957047431,0.51,0.2222222222222222,-0.7533333333333333,-0.0014150636138799792,0.0847015020591671,-0.99843187496937
1590512716.4804955,-0.48,-3.7909706828416505,8.739706828416507,0.51,0.2222222222222222,-0.7533333333333333,-0.003939782840500388,0.07759182313641397,-0.9121562492078026
1590512716.4904954,-0.46441926345609064,-3.7644192634560905,8.649475920679887,0.51,0.2222222222222222,-0.7533333333333333,-0.010851139639479618,0.07108786610747797,-0.8429217186840532
1590512716.5004954,-0.43038334379577314,-3.701533375183093,8.728083281021133,0.51,0.2222222222222222,-0.7533333333333333,-0.02099939417042042,0.07046312627419853,-0.7590664578489035
1590512716.5104954,-0.41388295783197054,-3.6783511265040882,8.78,0.5324291546161078,0.25008874765435624,-0.7533333333333333,-0.03503425823962321,0.06496244535689413,-0.633447464612808
1590512716.5204954,-0.38565203761755484,-3.6960869905956115,8.767826018808776,0.5466666666666666,0.2677777777777778,-0.7533333333333333,-0.03926990816987242,0.06326818538479445,-0.5792311455056182
1590512716.5304954,-0.3755773868453786,-3.744619094763029,8.732113065773108,0.5466666666666666,0.2677777777777778,-0.7533333333333333,-0.03561951701577454,0.05900939570501358,-0.5396852413362244
1590512716.5404954,-0.3624268412125845,-3.821004037170636,8.71,0.5466666666666666,0.2677777777777778,-0.7533333333333333,-0.024418208369455616,0.04732565480188119,-0.43164977443930486
1590512716.5504954,-0.34024019675902967,-3.8353602951385444,8.749039212963881,0.5466666666666666,0.2677777777777778,-0.7533333333333333,-0.014285605779896116,0.03772536690263965,-0.34921477215692215
1590512716.5604954,-0.32648536750125295,-3.823514632498747,8.737280512518794,0.5579915936070737,0.2509856447282086,-0.7939468644299656,-0.008667316246829395,0.03343236732551057,-0.30082745960936264
1590512716.5704954,-0.3110394291599235,-3.8210394291599235,8.66688171252023,0.5788888888888889,0.22,-0.8688888888888889,-0.00882569354523437,0.027511874674309374,-0.2501977489773458
1590512716.5804954,-0.282847071438145,-3.792847071438145,8.712117678595362,0.5788888888888889,0.22,-0.8688888888888889,-0.011840009774373071,0.014881499221936908,-0.19554620633421596
1590512716.5904953,-0.30518984510428904,-3.8302712072918412,8.68,0.5788888888888889,0.22,-0.8688888888888889,-0.007087441673603183,0.015825921584069952,-0.14113537459046846
1590512716.6004953,-0.35518162393162395,-3.869878917378917,8.690121082621083,0.5788888888888889,0.22,-0.8688888888888889,-0.008201042966268762,0.015245214824889927,-0.09517692813532024
1590512716.6104953,-0.37,-3.8779091086405306,8.73581821728106,0.5410807706477689,0.16826257503846737,-0.7700571412059612,-0.007212702776846243,0.01308996938995747,-0.05224746830228767
1590512716.6204953,-0.3759584551779772,-3.9019169103559546,8.771916910355953,0.5155555555555555,0.13333333333333333,-0.7033333333333334,-0.007404053809761162,0.01308996938995747,-0.016730178517308257
1590512716.6304953,-0.3720440965474655,-3.9060220482737327,8.748176386189861,0.5155555555555555,0.13333333333333333,-0.7033333333333334,-0.006990937382252763,0.010486406073379143,0.011270082237328448
1590512716.6404953,-0.36698636128673107,-3.93143862579029,8.724452264503558,0.5155555555555555,0.13333333333333333,-0.7033333333333334,-0.004363323129985824,0.006163937797518344,0.043827593411129726
1590512716.6504953,-0.36597975627135365,-3.9759797562713537,8.751306341695138,0.5155555555555555,0.13333333333333333,-0.7033333333333334,-0.0028339517862547925,0.0013758303291995294,0.08540292430496653
1590512716.6604953,-0.35,-3.964369618696187,8.778065805658057,0.505359778597786,0.1595510455104551,-0.6877969113024464,0.0003391235919753743,-0.0023191894311748147,0.12310756626200006
1590512716.6704953,-0.3177396702441496,-3.859393155122799,8.74321901073245,0.4922222222222222,0.19333333333333333,-0.6677777777777778,0.0041925507507739376,-0.005112609154058509,0.1585686098864446
1590512716.6804953,-0.3082313512078577,-3.7824296522431644,8.763090655694187,0.4922222222222222,0.19333333333333333,-0.6677777777777778,-0.008852828769521114,-0.01641653995582518,0.1822228188952865
1590512716.6904953,-0.3320395772430852,-3.901907653099468,8.666646428303727,0.4922222222222222,0.19333333333333333,-0.6677777777777778,-0.004858657278877479,-0.019649344776617443,0.21614941553157702
1590512716.7004952,-0.3400270834945446,-3.924993229126364,8.635223438829994,0.4922222222222222,0.19333333333333333,-0.6677777777777778,-0.0016561880426887998,-0.018002400849884876,0.2449084981884438
1590512716.7104952,-0.3888311688311688,-3.944025974025974,8.742337662337663,0.47940836940836945,0.2130880230880231,-0.6506926406926408,-0.007975814682409151,-0.02124995030837252,0.2721126970154795
1590512716.7204952,-0.42596281605139563,-3.958074367897209,8.769442240770934,0.4655555555555556,0.2344444444444445,-0.6322222222222222,-0.00671447717657511,-0.02311750030977438,0.30228905783736226
1590512716.7304952,-0.43592276783628464,-3.819699107601738,8.610857590057469,0.4655555555555556,0.2344444444444445,-0.6322222222222222,-0.02492061355425943,-0.015599318499503061,0.32554515248812477
1590512716.7404952,-0.3451755291688178,-3.53402942694889,8.750795043882292,0.4655555555555556,0.2344444444444445,-0.6322222222222222,-0.0682949048295871,-0.035332048465893856,0.33212671818063616
1590512716.7504952,-0.2955258904519605,-3.4586812331637233,8.14084944627357,0.4655555555555556,0.2344444444444445,-0.6322222222222222,0.05088515008949765,-0.01883359668518783,0.35161906701638224
1590512716.7604952,-0.3393647912885662,-3.647459165154265,8.257931034482759,0.4693045832973238,0.25318958315328555,-0.6353464120070291,0.044005137568715616,-0.01983264418526419,0.3582724395776596
1590512716.7704952,-0.38128210535194634,-3.6966663152123487,9.122052633798658,0.4722222222222222,0.2677777777777778,-0.6377777777777778,-0.03862654757446009,-0.04036073895236887,0.35323339813368015
1590512716.7804952,-0.3980630733075582,-3.6924099764991283,8.961035554544765,0.4722222222222222,0.2677777777777778,-0.6377777777777778,-0.006795550783293823,-0.03420392495658188,0.36220742151790214
1590512716.7904952,-0.41381270292948086,-3.7547491882820765,8.605885958191967,0.4722222222222222,0.2677777777777778,-0.6377777777777778,0.008814235860944784,-0.026336812113416125,0.3728050995752899
1590512716.8004951,-0.423656655250139,-3.744626621000556,8.78642047949416,0.4722222222222222,0.2677777777777778,-0.6377777777777778,-0.010143311687372931,-0.02876047955569075,0.3789415089256791
1590512716.8104951,-0.4297956734287638,-3.769182693715055,8.52858171599192,0.4722222222222222,0.2677777777777778,-0.6377777777777778,0.011285904323984516,-0.029430142556045674,0.3869774649299382
1590512716.8204951,-0.44817632532969054,-3.800901767106254,8.836413072032785,0.48,0.2877777777777778,-0.6466666666666666,9.397356554580703e-05,-0.033319522632049146,0.3957704450163159
1590512716.830495,-0.4701448603132693,-3.8314486031326935,8.642028044385771,0.48,0.2877777777777778,-0.6466666666666666,0.02053616316078112,-0.03492238684877422,0.407053701768942
1590512716.840495,-0.49878048780487805,-3.9412682926829268,8.761219512195122,0.48,0.2877777777777778,-0.6466666666666666,0.01050390226657563,-0.035997415822383035,0.4229762873202112
1590512716.850495,-0.5337884643506237,-3.941057678246882,8.76030771480499,0.48,0.2877777777777778,-0.6466666666666666,0.016511403014565575,-0.035997415822383035,0.4339199018356543
1590512716.860495,-0.5196745328172473,-3.8388608648603655,8.736320181462522,0.4831052797084761,0.2877777777777778,-0.6427144924922424,0.02076128782959657,-0.03793743478364525,0.4442985284851981
1590512716.870495,-0.4619742294742295,-3.6319742294742294,8.571329966329966,0.4922222222222222,0.2877777777777778,-0.6311111111111111,0.01779514832072566,-0.0391107757072355,0.4593988918936449
1590512716.880495,-0.4825465384193395,-3.699596057491863,8.842732692096698,0.4922222222222222,0.2877777777777778,-0.6311111111111111,-0.016277786012915924,-0.02791101378626739,0.48120542031384517
1590512716.890495,-0.5153297345204044,-3.8371063126938725,8.946245014704106,0.4922222222222222,0.2877777777777778,-0.6311111111111111,-0.0013125300653266782,-0.04382702591577128,0.4904363421016296
1590512716.900495,-0.5314648166501487,-3.7590426164519326,8.704648166501485,0.4922222222222222,0.2877777777777778,-0.6311111111111111,0.014062527736769971,-0.048448238375262305,0.501302799820561
1590512716.910495,-0.5395031000089855,-3.649006200017971,8.636807440021565,0.4922222222222222,0.2847439622208245,-0.6393457533371272,-0.011434070815108421,-0.033878093045930674,0.5131389933965442
1590512716.920495,-0.510736027829908,-3.6211040417448617,8.937178559985353,0.4922222222222222,0.28,-0.6522222222222223,-0.02195042928553541,-0.019972958340994693,0.5290127854200992
1590512716.930495,-0.5064468088892052,-3.6040864366670817,9.05005053111044,0.4922222222222222,0.28,-0.6522222222222223,-0.007444775010024831,-0.03862759452263049,0.5334799327965837
1590512716.940495,-0.6119944836479564,-3.7360110327040874,8.82401654905613,0.4922222222222222,0.28,-0.6522222222222223,-0.001961088445847141,-0.041234005319027656,0.5362506074532729
1590512716.950495,-0.6228278658950194,-3.745450793055175,8.760409877469728,0.4922222222222222,0.28,-0.6522222222222223,-0.00452873696236456,-0.04097768358578068,0.5413381850868965
1590512716.960495,-0.6288812076953052,-3.7999308692577465,8.675663092265728,0.4922222222222222,0.28,-0.6522222222222223,-0.002547785490547294,-0.042298317900325524,0.5466207223450759
1590512716.970495,-0.5975645835239577,-3.6929520846677035,8.68306249428127,0.5244444444444445,0.29444444444444445,-0.6488888888888888,-0.0026848071386560684,-0.04110136737366858,0.5554985310167226
1590512716.980495,-0.600585438152288,-3.6611708763045763,8.825316494781696,0.5244444444444445,0.29444444444444445,-0.6488888888888888,-0.004556636335414342,-0.045174549888988086,0.5547841095021622
1590512716.990495,-0.6280532024991375,-3.693960098125647,8.665973398750431,0.5244444444444445,0.29444444444444445,-0.6488888888888888,-0.0006661054542508734,-0.037095500970350116,0.5497642056472726
1590512717.000495,-0.6598445730075123,-3.669922286503756,8.65139884293239,0.5244444444444445,0.29444444444444445,-0.6488888888888888,-0.007627338250083371,-0.04142613805268987,0.5409757730717157
1590512717.010495,-0.64,-3.66,8.804596157116137,0.532030314194487,0.29197462638629107,-0.6495945511912183,-0.00567900676337181,-0.037659490628411806,0.5295026352125602
1590512717.020495,-0.6430859901700665,-3.66,8.693659257970511,0.5722222222222222,0.2788888888888889,-0.6533333333333333,-0.0024373480112924815,-0.03490658503988659,0.5187553464838808
1590512717.030495,-0.6800316867715572,-3.656656104409481,8.813058714646505,0.5722222222222222,0.2788888888888889,-0.6533333333333333,-0.010533175928861563,-0.035636109888605064,0.501771790476626
1590512717.040495,-0.699769878743196,-3.650076707085601,8.641994384225635,0.5722222222222222,0.2788888888888889,-0.6533333333333333,-0.0033561667976989024,-0.03707151171483759,0.49531248225857955
1590512717.050495,-0.8021804012601559,-3.671278394959377,8.796015586138285,0.5722222222222222,0.2788888888888889,-0.6533333333333333,-0.012852124508680262,-0.03272492347489368,0.48678943150819465
1590512717.060495,-0.81,-3.6417171840625766,8.737474945001223,0.5947364132648904,0.2754545207637361,-0.6558137103126104,-0.012373770054395144,-0.033286870645294876,0.4805274914688418
1590512717.070495,-0.8139120990514808,-3.6460879009485194,8.823054811382232,0.7033333333333334,0.2588888888888889,-0.6677777777777778,-0.01034010590987662,-0.036424159629336074,0.4845182680667891
1590512717.0804949,-0.8247506359141444,-3.630498728171711,8.747624682042927,0.7033333333333334,0.2588888888888889,-0.6677777777777778,-0.005917965097460409,-0.037606460594037695,0.48884249194463125
1590512717.0904949,-0.8471997924724083,-3.596400103763796,8.711200830110368,0.7033333333333334,0.2588888888888889,-0.6677777777777778,-0.00933755677366672,-0.03887722040704796,0.5010402591897809
1590512717.1004949,-0.8691403404062648,-3.580859659593735,8.714842042437589,0.7033333333333334,0.2588888888888889,-0.6677777777777778,-0.008871449786430355,-0.03917613385514094,0.5137385534528265
1590512717.1104949,-0.8948429801127932,-3.5575785099436033,8.820628079548827,0.8101479502654926,0.2529696909732529,-0.6922617327924541,-0.013652512993848637,-0.04092328255626004,0.5267684986699306
1590512717.1204948,-0.9142039603453135,-3.520572277582806,8.785223762071881,1.1444444444444444,0.2344444444444445,-0.7688888888888888,-0.012457719542767245,-0.03972848910517865,0.5426502971472373
1590512717.1304948,-0.9123094991639462,-3.483845250418027,8.773856994983676,1.1444444444444444,0.2344444444444445,-0.7688888888888888,-0.012670517637718358,-0.039521835447890646,0.5554835144353404
1590512717.1404948,-0.9117719085925821,-3.484114045703709,8.70196198476543,1.1444444444444444,0.2344444444444445,-0.7688888888888888,-0.012427177282845115,-0.038393096725068014,0.5652228964827838
1590512717.1504948,-0.95656047554638,-3.46171976222681,8.709426745924397,1.1444444444444444,0.2344444444444445,-0.7688888888888888,-0.014055735534081992,-0.039207375850686454,0.5741799668645866
1590512717.1604948,-1.0054433434710095,-3.492151084077308,8.87544334347101,1.1700967330520946,0.17571420473745603,-0.7930222919868755,-0.016196777030543962,-0.04178293914867108,0.580887992574647
1590512717.1704948,-0.9807540468949278,-3.5579892082801923,8.850754046894927,1.309088328591517,-0.142503395576485,-0.9237841220009375,-0.015299048873764824,-0.04357839546222936,0.5898652741424383
1590512717.1804948,-0.9873635597505478,-3.526817798752739,8.743089836507668,1.3133333333333332,-0.15222222222222226,-0.9277777777777778,-0.011652014299799915,-0.04231434278895986,0.6058772751724534
1590512717.1904948,-0.9802941176470588,-3.4914705882352943,8.644117647058824,1.3133333333333332,-0.15222222222222226,-0.9277777777777778,-0.007796231769018788,-0.04462781230742853,0.6159023097524843
1590512717.2004948,-0.9372625463708266,-3.4745250927416533,8.807262546370827,1.3133333333333332,-0.15222222222222226,-0.9277777777777778,-0.010207479396845642,-0.04700933233859473,0.6395376646166645
1590512717.2104948,-0.9284984037701429,-3.461001064153238,8.801334752204317,1.3034524593763723,-0.1476432806324111,-0.9245150501672241,-0.00545415391248228,-0.050087216695369814,0.6490625154452847
1590512717.2204947,-0.8264579602671329,-3.5132289801335665,8.866457960267134,0.7211111111111111,0.12222222222222222,-0.7322222222222222,-0.005823455757442316,-0.0458319676172348,0.6445956186934871
1590512717.2304947,-0.7802931126534971,-3.4634014949279233,8.761172450613989,0.7211111111111111,0.12222222222222222,-0.7322222222222222,-0.0043952967605032055,-0.04676816132442947,0.6260952277215998
1590512717.2404947,-0.752940034888792,-3.425711513301352,8.648482991713912,0.7211111111111111,0.12222222222222222,-0.7322222222222222,-0.0035564270847475493,-0.04291826855105147,0.5907727345942806
1590512717.2504947,-0.7908616918041416,-3.5418276616391715,8.811723383608284,0.7211111111111111,0.12222222222222222,-0.7322222222222222,-0.010298831983562486,-0.04025536798926748,0.548138278843004
1590512717.2604947,-0.7563685257981216,-3.5487262948403755,8.742737051596244,0.7211111111111111,0.12222222222222222,-0.7322222222222222,0.00023650605067300837,-0.035740223117452265,0.5090070232872722
1590512717.2704947,-0.7379794608472401,-3.57949486521181,8.93292811296534,0.5966666666666667,0.21444444444444444,-0.7177777777777777,-0.008010324710823942,-0.026235040437541688,0.42330773744372446
1590512717.2804947,-0.6875290151989181,-3.5600232121591344,8.76508124255697,0.5966666666666667,0.21444444444444444,-0.7177777777777777,0.004910004548119657,-0.02400587337623566,0.3169458455788439
1590512717.2904947,-0.6485798304275138,-3.5385210174349173,8.672781526152377,0.5966666666666667,0.21444444444444444,-0.7177777777777777,0.0028077429416795124,-0.013251301360834213,0.22356162647727207
1590512717.3004947,-0.6373880360816585,-3.600447855673366,8.757835891755024,0.5966666666666667,0.21444444444444444,-0.7177777777777777,0.0022793685159175825,-0.004216762703598818,0.0924435499817498
1590512717.3104947,-0.6234857015554115,-3.6253469296824368,8.781861228127024,0.5928408088500036,0.21434104288183192,-0.7183981871534528,0.008828160506682017,0.006367782132875607,-0.011015190507355152
1590512717.3204947,-0.564023412184057,-3.5828738658457553,8.798850453661698,0.5579185119176209,0.21339719701879453,-0.7240612623316771,0.00975477901588181,0.01470734871567372,-0.13147559670332792
1590512717.3304946,-0.4800030880877017,-3.643992588589516,8.735991970971977,0.5555555555555556,0.21333333333333332,-0.7244444444444444,0.013962701387577115,0.032287715330802845,-0.3209122430954627
1590512717.3404946,-0.44762217246969815,-3.721706786072725,8.820182351578785,0.5555555555555556,0.21333333333333332,-0.7244444444444444,0.013256259397146346,0.04147146120640286,-0.427584983650509
1590512717.3504946,-0.40697686048097464,-3.7447095058417057,8.823778924398782,0.5555555555555556,0.21333333333333332,-0.7244444444444444,0.02836160034490785,0.057116350048529704,-0.6440018328890246
1590512717.3604946,-0.37092038722727927,-3.6790796127727208,8.874601936136395,0.5555555555555556,0.21231068085857854,-0.7244444444444444,0.028261201672974568,0.07576931735192188,-0.831672888484223
1590512717.3704946,-0.38742272146543,-3.66773183560371,8.946804493188871,0.5555555555555556,0.19111111111111112,-0.7244444444444444,0.029553588492606534,0.09123610638625741,-1.0738377387937836
1590512717.3804946,-0.38046342232325076,-3.6886097330302476,8.884170800909258,0.5555555555555556,0.19111111111111112,-0.7244444444444444,0.03866328976727488,0.10490065829825991,-1.213519825005365
1590512717.3904946,-0.36166437169635324,-3.7525034424554704,8.752083907075912,0.5555555555555556,0.19111111111111112,-0.7244444444444444,0.04208776252010845,0.12185570227426033,-1.451633202675423
1590512717.4004946,-0.33,-3.8032386305219505,8.783749957160971,0.5555555555555556,0.19111111111111112,-0.7244444444444444,0.040949538596781604,0.13543655404221855,-1.6094216208524763
1590512717.4104946,-0.33,-3.82480019877309,8.941868124335995,0.5555555555555556,0.19111111111111112,-0.7244444444444444,0.04486954232465515,0.15111656895371273,-1.728589734179832
1590512717.4204946,-0.24569783322874755,-4.002611568417556,8.710439629397216,0.4633333333333333,0.2311111111111111,-0.6877777777777778,0.03328223730090724,0.18348429282801826,-1.9265797395246265
1590512717.4304945,-1.025860919266492,-8.372036199095023,2.2605382233865208,0.4633333333333333,0.2311111111111111,-0.6877777777777778,-0.7041638729267072,1.175603064019071,-5.73842690832215
1590512717.4404945,-3.3915738179234034,-10.096265323215146,-2.1584721199969543,0.4633333333333333,0.2311111111111111,-0.6877777777777778,-1.471813531517599,1.6310191781929129,-13.667603201059727
1590512717.4504945,1.0347357069681338,-8.13052589011305,-0.3552632146515933,0.4633333333333333,0.2311111111111111,-0.6877777777777778,-1.4564889691978178,0.2899355836345161,-16.99709449604693
1590512717.4604945,0.29884581754590495,-8.467357913144856,-0.6212510929758088,0.46383116357394993,0.23471080669710806,-0.6870501797337997,-1.525953913864747,1.4274655812543366,-16.611484400107983
1590512717.4704945,-7.576276876127064,-13.496189485365516,-5.111131918435289,0.4777777777777778,0.33555555555555555,-0.6666666666666666,-1.627686503732248,2.411364895003401,-10.714528295965012
1590512717.4804945,0.42009461807950127,-0.032620617362279655,-0.34459794212573447,0.4777777777777778,0.33555555555555555,-0.6666666666666666,-0.9352341873915253,1.9486387030761683,-4.817680495612987
1590512717.4904945,0.1829062646547681,-0.1888178257151527,0.17605941905050893,0.4777777777777778,0.33555555555555555,-0.6666666666666666,0.047948769836795524,0.6417247721263273,-4.184732802352393
1590512717.5004945,0.11663071463363718,-1.7590738292394406,16.30516735091504,0.4777777777777778,0.33555555555555555,-0.6666666666666666,0.9172198753552642,0.5064853856769235,-3.573688253001581
1590512717.5104945,0.7538490841303289,-1.5106986545631382,13.142519857351273,0.4777777777777778,0.33555555555555555,-0.6666666666666666,2.186067856493808,0.5534574611790645,-3.245701302989837
1590512717.5204945,3.2467062766605728,4.623318098720292,18.38511578305911,0.32606845419459685,0.5362292639989166,-0.6409804319859164,3.6726195148547625,0.2953608807681149,-2.7851721707853567
1590512717.5304945,1.724136365720574,2.7247051675913614,3.163224815443165,0.2677777777777778,0.6133333333333333,-0.6311111111111111,3.02896393764426,-0.3782576655515718,-2.23919664909148
1590512717.5404944,-0.5385443037974684,-0.009917349218168281,1.2174192107222637,0.2677777777777778,0.6133333333333333,-0.6311111111111111,0.42929803830853597,0.135736712124387,-1.4409721124478931
1590512717.5504944,0.1251107594936709,2.0122786671630677,7.97889314966493,0.2677777777777778,0.6133333333333333,-0.6311111111111111,-0.1038590709508792,0.28733729590741564,-1.0653774076820755
1590512717.5604944,3.3655179514363187,-0.5629757997104936,20.6335046586067,0.2630854632895449,0.612263156344789,-0.6347332486107996,-1.5544267483812608,0.30894623333162874,-0.5037972912905379
1590512717.5704944,1.236258027686599,-1.2898315969744543,9.362964178678466,0.20892758035615183,0.5999113584827871,-0.6765393336821909,-1.1514588366923881,0.23618813816558237,-0.22489125982069325
1590512717.5804944,2.6681500465983223,-1.9908108108108107,13.667362534948744,0.20444444444444448,0.5988888888888889,-0.68,0.5074752190182488,-0.02383968485511826,0.0795676168253962
1590512717.5904944,0.522046037735849,-0.3435499371069182,2.1524322012578616,0.20444444444444448,0.5988888888888889,-0.68,0.942495221927174,-0.04379039325938923,0.39006901321584464
1590512717.6004944,1.4951612968387031,-1.3668031511968488,7.109098474901526,0.20444444444444448,0.5988888888888889,-0.68,0.05754267340572414,-0.18741808149731273,0.8131775833544288
1590512717.6104944,2.586041732934665,-2.863599465614861,15.386301927603537,0.2031407143513512,0.5998666864587089,-0.6793481349534534,-0.6210990893542934,-0.08498230360704065,1.233463690736138
1590512717.6204944,1.3344381625441697,-2.6251872791519437,10.473780918727915,0.19111111111111112,0.6088888888888889,-0.6733333333333333,-0.19971762543503488,0.06275707527257174,1.6087109837169749
1590512717.6304944,1.339955546633016,-2.7244702879430998,8.147497418836757,0.19111111111111112,0.6088888888888889,-0.6733333333333333,0.2531844274945957,-0.3816168628860374,1.767516965348227
1590512717.6404943,1.263227083745793,-3.1216491783805185,6.561762027321323,0.19111111111111112,0.6088888888888889,-0.6733333333333333,-0.013476759714932951,-0.16908028303026434,2.1448298828246997
1590512717.6504943,-0.7157411511429114,-1.6282669537136707,9.880918128284684,0.19111111111111112,0.6088888888888889,-0.6733333333333333,-0.41301058156435766,-0.33208879914057726,2.5361264510262616
1590512717.6604943,-0.6995729609390811,-1.9408864602307225,10.272819941982053,0.1924648631631024,0.608534334780034,-0.6729143148410504,-0.1950863613053054,-0.03087993807733794,3.0410182467787097
1590512717.6704943,-1.0108277676583688,-2.6199878567091686,7.113112055589286,0.23648069441633496,0.597006378975616,-0.6592903670721926,0.37799291952423,-0.2191627179549052,3.1757999088768587
1590512717.6804943,-0.26,-2.61,7.07,0.23777777777777775,0.5966666666666667,-0.6588888888888889,-0.07635815477475191,-0.20398535632683729,3.2354041008844883
1590512717.6904943,0.24522455586916825,-2.666136061763241,7.9182782666445295,0.23777777777777775,0.5966666666666667,-0.6588888888888889,-0.23897095098466575,-0.30196126701398196,3.2585373020189534
1590512717.7004943,0.23745699049385577,-3.081150011592859,8.50623000231857,0.23777777777777775,0.5966666666666667,-0.6588888888888889,-0.05434299932323233,-0.263774770304044,3.3240478479982705
1590512717.7104943,0.36934145113586303,-3.259828204644138,9.028568372034485,0.23777777777777775,0.5966666666666667,-0.6588888888888889,-0.011867958843736218,-0.2910862825580439,3.3749304945573875
1590512717.7204943,0.45982711198428294,-2.926969496432634,8.368355909419915,0.2855555555555556,0.5722222222222222,-0.6522222222222223,-0.15569149946947752,-0.2731185139341139,3.4254116636816527
1590512717.7304943,0.32954271667948887,-3.076520743812508,8.05580470230612,0.2855555555555556,0.5722222222222222,-0.6522222222222223,-0.05480177635238852,-0.28086398555672065,3.452509781470599
1590512717.7404943,0.39250483177903295,-3.383461054922785,9.149771452160696,0.2855555555555556,0.5722222222222222,-0.6522222222222223,-0.0565188016844302,-0.284298036220804,3.467104496792953
1590512717.7504942,0.05747960336387599,-7.675507510146019,8.519537676247856,0.2855555555555556,0.5722222222222222,-0.6522222222222223,-0.1231071294022893,-0.29478737761563173,3.599557654869012
1590512717.7604942,0.11991801516872908,-3.1590275432185955,9.701340927933185,0.28577390883068415,0.5720209277967131,-0.652259751691385,-0.1752251658043967,-0.319831136595324,4.074635920649451
1590512717.7704942,4.163214149471129,-8.252374891624761,7.74114756372464,0.3566666666666667,0.5066666666666667,-0.6644444444444444,-0.07395541413596295,-0.39768697969325023,4.40704791011501
1590512717.7804942,7.806953181897,-17.823553667418068,11.508526443558175,0.3566666666666667,0.5066666666666667,-0.6644444444444444,-0.19851196581116792,-0.42942113298629603,3.7604645367692004
1590512717.7904942,-2.3615702721870337,0.2431928786285491,1.9804372600327702,0.3566666666666667,0.5066666666666667,-0.6644444444444444,-0.19747502446956028,0.026390976962408164,-1.4527929572130107
1590512717.8004942,-5.857181766288837,-3.8474777786838454,3.394105846856397,0.3566666666666667,0.5066666666666667,-0.6644444444444444,0.5230559843208957,0.4873019439385283,-1.772090320799691
1590512717.8104942,-0.9301539888682745,-0.37244341372912804,7.679222634508348,0.3577247990105133,0.5060210265924552,-0.664354772211915,0.6127714599309159,0.08105520331481876,-0.9022961638485968
1590512717.8204942,-0.4027322201607917,-2.1103413729128015,9.78026345083488,0.41440582697725553,0.4714359925788497,-0.659551295265581,-0.22003925529377466,0.0404993021204114,0.13989618079838273
1590512717.8304942,-0.6023080847342338,-5.196058692061024,8.963199397531824,0.4222222222222222,0.4666666666666667,-0.6588888888888889,-0.38279505686363063,-0.15290064097801043,0.4886708318563743
1590512717.8404942,-0.5476428423517419,-4.778933879163414,8.73556905971742,0.4222222222222222,0.4666666666666667,-0.6588888888888889,0.023313256542895712,-0.03295947841735723,0.8266156647102137
1590512717.8504941,1.0691726532757768,-4.217725194730722,7.907118144602494,0.4222222222222222,0.4666666666666667,-0.6588888888888889,0.07287098531679975,-0.09490663938473728,1.154571222772814
1590512717.8604941,5.424858910722785,-12.504301013123005,8.31325831236826,0.4222222222222222,0.4666666666666667,-0.6588888888888889,-0.07203770239966396,-0.14771819514651904,1.055169434823627
1590512717.8704941,-2.2270530510700053,-3.502800902996936,6.9561528184100805,0.4222222222222222,0.4666666666666667,-0.6588888888888889,0.05226906503655371,0.09991960716824808,-0.4548396489368615
1590512717.880494,0.05528260183138611,-3.7371297758130724,8.754145879381118,0.4222222222222222,0.4666666666666667,-0.6588888888888889,0.1369318124641028,0.0867763292863308,-0.13462994251796326
1590512717.890494,2.302893030794165,-5.43235170178282,9.28540599675851,0.4222222222222222,0.4666666666666667,-0.6588888888888889,-0.1478057146711845,-0.11317599203087479,0.32539331965343327
1590512717.900494,-0.2764040123651505,-3.8039928080247303,8.607600151410006,0.4222222222222222,0.4666666666666667,-0.6588888888888889,-0.0490888303859215,-0.04036135831247501,0.11026295925184748
1590512717.910494,0.19017743276961463,-4.64,8.591508178541725,0.4222222222222222,0.4666469519144873,-0.6588888888888889,0.11852313449462114,0.031521189035027666,-0.0967678094015498
1590512717.920494,0.2400414822689299,-4.625615474388454,9.064591936956194,0.4222222222222222,0.46,-0.6588888888888889,-0.009330149464920983,-0.005700080208049667,0.008972572555539036
1590512717.930494,0.19642304981338757,-4.562611071952671,8.909504177114266,0.4222222222222222,0.46,-0.6588888888888889,-0.011973501065295872,-0.001999387967524818,0.005271880315014186
1590512717.940494,0.16,-4.51,8.78,0.4222222222222222,0.46,-0.6588888888888889,-0.014180800172453925,0.001090830782496456,0.002181661564992912
1590512717.950494,0.15740059661655612,-4.51693174235585,8.789531145739295,0.4222222222222222,0.46,-0.6588888888888889,-0.012290460687929902,0.0007127628855916514,0.002181661564992912
1590512717.960494,0.13270597009067003,-4.582784079758214,8.880078109667544,0.4222222222222222,0.46,-0.6588888888888889,0.005667978496530139,-0.0028789249513003577,0.002181661564992912
1590512717.970494,0.14516598647743192,-4.582417006761284,8.905165986477432,0.4222222222222222,0.46,-0.6647867725190013,0.009290167967125968,-0.0007909636130132066,0.0005273090753421378
1590512717.980494,0.15,-4.619582290156806,8.91,0.4222222222222222,0.46,-0.6666666666666666,-0.006374115661813279,0.0032383185408562764,0.0021588790272375176
1590512717.990494,0.17952824830443354,-4.640235875847783,8.534245765260097,0.4222222222222222,0.46,-0.6666666666666666,-0.00547988397604322,0.0010393706553745758,0.0010393706553745758
1590512718.000494,0.16551501787444456,-4.647242491062778,8.660364839129999,0.4222222222222222,0.46,-0.6666666666666666,-0.00624418713180562,-0.0004892356561502264,-0.0004892356561502264
1590512718.010494,0.16,-4.605757066241484,8.783738222930861,0.4222222222222222,0.46,-0.6666666666666666,0.0031073261153693786,0.001322246920090573,0.001322246920090573
1590512718.020494,0.14666369258846193,-4.576663692588462,8.923358612998074,0.41777678641837623,0.4496273164576926,-0.6651848547320512,0.006544984694978735,0.0014542788325258439,0.0014542788325258439
1590512718.030494,0.14953683974430862,-4.646294717954469,8.789263205113826,0.4155555555555556,0.4444444444444444,-0.6644444444444444,0.00446436902281324,-0.0009897848896690392,5.0522946413708364e-05
1590512718.040494,0.1591215489422732,-4.59527070634636,8.752635353173181,0.4155555555555556,0.4444444444444444,-0.6644444444444444,-0.006581749877321749,0.0018941891285874284,0.0009950066370279613
1590512718.050494,0.14994768226822683,-4.6396860936093605,8.641203307830784,0.4155555555555556,0.4444444444444444,-0.6644444444444444,-0.003232543492887366,-0.0010851238032675984,1.1413958457714942e-05
1590512718.060494,0.14208258325832585,-4.592495499549955,8.822100585058505,0.4155555555555556,0.4444444444444444,-0.6644444444444444,0.002773100982280313,-0.0002271745925293587,0.0017273123799341945
1590512718.070494,0.1490953869749882,-4.643667708824918,8.806332291175083,0.4286933367416496,0.4505080357611032,-0.6593914516805621,0.008331934366399604,-0.0029764584273103364,0.002181661564992912
1590512718.080494,0.18699745425995098,-4.640750636435012,8.790750636435012,0.43,0.4511111111111111,-0.6588888888888889,0.005699799111414709,-0.0002456451989324296,-0.0008451855835640266
1590512718.090494,0.15019576915939878,-4.6394126925218035,8.622544999072183,0.43,0.4511111111111111,-0.6588888888888889,-0.0033792678601571877,-0.00211759625739222,2.1355102533563947e-05
1590512718.100494,0.15992461495639265,-4.610226155130823,8.749019994433105,0.43,0.4511111111111111,-0.6588888888888889,-0.008685530096918281,0.0010661610846644364,0.0010826075498857827
1590512718.110494,0.14388429592054058,-4.666404964278108,8.70971073980135,0.43,0.4511111111111111,-0.6588888888888889,-0.0034527944325282306,0.001090830782496456,-0.0006671198266513497
1590512718.120494,0.13331629874753906,-4.60647928622293,8.833674025049218,0.4426247690324262,0.45556691194608506,-0.6588888888888889,0.0036509680887626956,0.001819909489215907,0.0003673266309424459
1590512718.1304939,0.13,-4.629534830692053,8.800775282179911,0.4488888888888889,0.4577777777777778,-0.6588888888888889,0.008709732226632289,-0.002147833498314194,8.457016669679435e-06
1590512718.1404939,0.1479855216098591,-4.5940289567802814,8.746043435170423,0.4488888888888889,0.4577777777777778,-0.6588888888888889,-0.00010197601510863324,-0.002181661564992912,0.0
1590512718.1504939,0.15,-4.617462847878952,8.721691434747367,0.4488888888888889,0.4577777777777778,-0.6588888888888889,-0.0070822947507720455,-0.0031802388930388436,0.0
1590512718.1604939,0.15769584424410818,-4.604608311511783,8.781566753952866,0.4488888888888889,0.4577777777777778,-0.6588888888888889,-0.007635815477475192,8.545317201918154e-05,-0.0008394863798771374
1590512718.1704938,0.16,-4.633369171695008,8.8,0.4331312244773572,0.4577777777777778,-0.663523496068751,-0.0003557915432103086,0.00018082779071334554,-0.001090830782496456
1590512718.1804938,0.14478727010763626,-4.60196817526909,8.87606364946182,0.43,0.4577777777777778,-0.6644444444444444,0.004409733592975333,0.0008297257026197193,0.0005686206227429825
1590512718.1904938,0.1486568176040225,-4.615970452812068,8.709550012711505,0.43,0.4577777777777778,-0.6644444444444444,0.0016769046641123028,-0.0007977938416885324,-0.0007977938416885324
1590512718.2004938,0.15,-4.6340989138058495,8.750494569029248,0.43,0.4577777777777778,-0.6644444444444444,-0.0027540515122998783,-0.001090830782496456,-0.001090830782496456
1590512718.2104938,0.16260416666666666,-4.64,8.748489583333333,0.43,0.4577777777777778,-0.6644444444444444,-0.005050773779371611,0.0009715211656609061,0.0009715211656609061
1590512718.2204938,0.160965418359335,-4.6309654183593345,8.811311234765986,0.43,0.4577777777777778,-0.6594252324218527,0.0014444859199480263,0.0011961415889314396,0.002181661564992912
1590512718.2304938,0.16,-4.599874924908735,8.813974984981748,0.43,0.4577777777777778,-0.6588888888888889,0.005467797488449796,0.001090830782496456,0.0002099800109187813
1590512718.2404938,0.16633494288069722,-4.605339771522789,8.778325285596514,0.43,0.4577777777777778,-0.6588888888888889,0.0055627102675888055,0.001090830782496456,0.00029123935742780176
1590512718.2504938,0.17,-4.59297053094044,8.71945579641066,0.43,0.4577777777777778,-0.6588888888888889,-0.0022707066690724398,-0.0003833980617387138,-0.0003833980617387138
1590512718.2604938,0.14523800555581715,-4.629523988888366,8.730952493055229,0.43,0.4577777777777778,-0.6588888888888889,-0.0047788752680892575,-0.00041555213810343355,-0.00041555213810343355
1590512718.2704937,0.13563045046226477,-4.620586846764146,8.766891351386795,0.41873909907547047,0.4540241441362679,-0.6588888888888889,-0.00252076252491788,0.0,0.000614186868355981
1590512718.2804937,0.14,-4.615827744440523,8.848873985174725,0.41,0.4511111111111111,-0.6588888888888889,0.0017265390853209,-0.000939123289272452,-0.0007874157960484479
1590512718.2904937,0.14688303307340683,-4.606233933853186,8.770520570045711,0.41,0.4511111111111111,-0.6588888888888889,0.0036833064356755836,0.0004108140881862157,0.0004108140881862157
1590512718.3004937,0.16689951823812801,-4.616899518238128,8.755349277357192,0.41,0.4511111111111111,-0.6588888888888889,0.0015981459244592774,0.0020125565176719712,-0.0007526206878545748
1590512718.3104937,0.17,-4.627093620327036,8.76,0.41,0.4511111111111111,-0.6588888888888889,-0.005099520747162648,-0.0009135141998366401,-0.00031703684128906796
1590512718.3204937,0.15366148744088926,-4.63,8.800846281397778,0.41453847571086416,0.4629111479593578,-0.6706889257371356,-0.0031801773675544593,0.002273976544927821,0.0008911276219841465
1590512718.3304937,0.13583006793344493,-4.622915033966723,8.795830067933444,0.4155555555555556,0.4655555555555556,-0.6733333333333333,0.0016825879560275654,0.0024996424432852725,0.001090830782496456
1590512718.3404937,0.16400451071294325,-4.602997744643528,8.755995489287058,0.4155555555555556,0.4655555555555556,-0.6733333333333333,0.004199821523224592,-0.0006003259622127627,0.002018159958231681
1590512718.3504937,0.16107829719801195,-4.626765108405964,8.758921702801988,0.4155555555555556,0.4655555555555556,-0.6733333333333333,-0.0005027108943608969,0.0028019964369809204,0.002181661564992912
1590512718.3604937,0.16665044837077156,-4.610048654887685,8.773300896741542,0.4155555555555556,0.4655555555555556,-0.6733333333333333,-0.0025417335425446594,0.001821589587441165,0.0007307588049447092
1590512718.3704937,0.1552259633849699,-4.636935091537575,8.80954807323006,0.42048023442723226,0.45981009687193275,-0.6840034708886329,-0.0016608949553489117,0.001090830782496456,0.0008057986960702281
1590512718.3804936,0.13915532297418776,-4.62288830743547,8.792888307435469,0.4222222222222222,0.4577777777777778,-0.6877777777777778,9.213997010235585e-05,-9.213997010235585e-05,0.0004993454061970501
1590512718.3904936,0.13515551800936948,-4.620622072037477,8.759688963981262,0.4222222222222222,0.4577777777777778,-0.6877777777777778,0.0039027296546639964,-0.0005284510080629479,0.0005623797744335081
1590512718.4004936,0.15014003180969504,-4.614649920475762,8.755070015904847,0.4222222222222222,0.4577777777777778,-0.6877777777777778,0.0054388788116278754,0.0011061058833508597,-1.5275100854403745e-05
1590512718.4104936,0.16,-4.612072072072072,8.782072072072072,0.4222222222222222,0.4577777777777778,-0.6877777777777778,0.001955633565016169,0.0007370478260111189,-0.000127754956508594
1590512718.4204936,0.16,-4.64,8.81,0.4222222222222222,0.46750056818550767,-0.660229871622543,-0.0034771625729118957,-0.001090830782496456,0.001886274712634936
1590512718.4304936,0.16,-4.64,8.793573708684177,0.4222222222222222,0.4711111111111111,-0.65,0.0019080833433578826,0.0007009996384588887,-0.0005060840664401051
1590512718.4404936,0.16,-4.61583112174984,8.75374668262476,0.4222222222222222,0.4711111111111111,-0.65,0.00393159625683147,0.0004317268731543535,-0.001090830782496456
1590512718.4504936,0.1530135885447107,-4.6,8.778904880187026,0.4222222222222222,0.4711111111111111,-0.65,0.0028391245950627367,0.0,0.0011954670198881746
1590512718.4604936,0.15637883377508519,-4.61275766755017,8.768105831124574,0.4222222222222222,0.4711111111111111,-0.65,-0.0026890982018107916,0.0013916456476582009,0.002181661564992912
1590512718.4704936,0.15242396068534997,-4.6048479213707,8.7803041572586,0.4222222222222222,0.46690220038075003,-0.6727281179439502,-0.002974900844335201,-0.0011240091925365263,0.0013552438756105523
1590512718.4804935,0.1417056527880863,-4.624883041635741,8.765116958364258,0.4222222222222222,0.4655555555555556,-0.68,0.0014374301387947408,-0.0012768886390459987,-0.0007187150693973704
1590512718.4904935,0.1562720815029442,-4.613727918497056,8.711183755491167,0.4222222222222222,0.4655555555555556,-0.68,0.003956670304863185,0.0033466910671792263,0.0015716823273089536
1590512718.5004935,0.15182113703676947,-4.61,8.749073177779383,0.4222222222222222,0.4655555555555556,-0.68,0.004363323129985824,-9.755461307018806e-05,0.00039731046777050734
1590512718.5104935,0.15,-4.61,8.788156325755095,0.4222222222222222,0.4655555555555556,-0.68,0.0012919444444203913,-0.0017051065196095425,0.0012285514742261731
1590512718.5204935,0.15,-4.630718380083438,8.804820404979141,0.42625079612733513,0.4546208549559633,-0.6765469366527603,-0.0027858492893821237,-0.0004866430581072442,0.0010516492270691334
1590512718.5304935,0.15,-4.635654647974756,8.79043643198317,0.43,0.4444444444444444,-0.6733333333333333,-0.002798487972497374,-0.0009956160941548104,0.0005216117191628166
1590512718.5404935,0.14558491136561214,-4.624415088634388,8.740264202290508,0.43,0.4444444444444444,-0.6733333333333333,0.0013172265124238114,-0.0018276579705372078,0.0006092193235124026
1590512718.5504935,0.15369327441657288,-4.620871150388951,8.740208672860767,0.43,0.4444444444444444,-0.6733333333333333,0.004861224638211453,0.0004979015082256291,0.0
1590512718.5604935,0.15976741704897046,-4.606589139016323,8.8,0.43,0.4444444444444444,-0.6733333333333333,0.003593817834577036,-2.537086424669031e-05,0.0007441344311620975
1590512718.5704935,0.15197422588151066,-4.617961338822266,8.811974225881512,0.41802577411848935,0.4524272616987849,-0.6593634031382376,-0.0026123708376235154,-0.002181661564992912,0.0015285688555870332
1590512718.5804935,0.1459934366745818,-4.622996718337291,8.805993436674582,0.41,0.4577777777777778,-0.65,-0.0028354440867506127,-0.0014177220433753063,0.001090830782496456
1590512718.5904934,0.1346596995200668,-4.625340300479933,8.735916394240801,0.41,0.4577777777777778,-0.65,0.0007310205106529689,-0.0028384400278839844,-7.424204776189619e-05
1590512718.6004934,0.14656205576817932,-4.63,8.735206852560598,0.41,0.4577777777777778,-0.65,0.0038747056892678017,-0.0037611097882073903,0.00011359590106041094
1590512718.6104934,0.1654153655106923,-4.619169268978616,8.790830731021385,0.41,0.4577777777777778,-0.65,0.0025911489107259813,-0.0020910428679828063,0.001090830782496456
1590512718.6204934,0.17,-4.61,8.812682081795586,0.42268208179558636,0.453550417179249,-0.6647957620948508,-0.001675970259256248,0.001675970259256248,-0.000292569738379896
1590512718.6304934,0.15191999850394586,-4.622053334330703,8.801919998503946,0.43,0.4511111111111111,-0.6733333333333333,-0.0019576775355241776,0.0019576775355241776,0.0008813914354513293
1590512718.6404934,0.14635431378569236,-4.636354313785692,8.73916548971446,0.43,0.4511111111111111,-0.6733333333333333,-0.00039768267458897507,0.001090830782496456,0.002874809672900393
1590512718.6504934,0.15,-4.6255884396942175,8.724411560305784,0.43,0.4511111111111111,-0.6733333333333333,0.0015720573605351642,0.00030480210222887387,0.0009144063066866214
1590512718.6604934,0.15571927704017072,-4.608561445919658,8.781473493361537,0.43,0.4511111111111111,-0.6733333333333333,0.002181661564992912,0.002495505379617381,0.0
1590512718.6704934,0.16,-4.604015205165591,8.82803041033118,0.432676803443727,0.4537879145548381,-0.6791330741280752,-8.293131339538132e-06,0.003049350312186354,-0.0008759818785329799
1590512718.6804934,0.16,-4.620131145026459,8.82986885497354,0.43666666666666665,0.4577777777777778,-0.6877777777777778,-0.002719924104649496,0.0005382625396565839,-0.0016290933221530398
1590512718.6904933,0.16,-4.635726581580398,8.751281021035217,0.43666666666666665,0.4577777777777778,-0.6877777777777778,-0.0009323152717177028,0.0006246731466376046,-0.0004661576358588514
1590512718.7004933,0.1711915093557392,-4.6176169812885215,8.739170282745087,0.43666666666666665,0.4577777777777778,-0.6877777777777778,0.00183120643617561,-0.00012997350828728403,0.00122080429078374
1590512718.7104933,0.16989882512865326,-4.605050587435674,8.78515176230702,0.43666666666666665,0.4577777777777778,-0.6877777777777778,0.003272492347489368,-0.0021926980314009256,0.0016307279405406772
1590512718.7204933,0.156559049849448,-4.613440950150553,8.806881900301105,0.43437269989963195,0.4531898442437084,-0.6797488940931564,0.001771094609386183,-0.002146444043911979,0.001090830782496456
1590512718.7304933,0.15,-4.62,8.799970832228494,0.43,0.4444444444444444,-0.6644444444444444,-0.0015277994375553605,0.0,0.0006538621274375515
1590512718.7404933,0.15,-4.643243748331405,8.732810002669751,0.43,0.4444444444444444,-0.6644444444444444,-0.003702961335822756,0.0005070999236099481,0.0005070999236099481
1590512718.7504933,0.15969115907143733,-4.650617681857125,8.719073477214312,0.43,0.4444444444444444,-0.6644444444444444,-0.004397012449162921,-0.0015520228758019422,3.36893191770968e-05
1590512718.7604933,0.14949989508288453,-4.624874973770721,8.785875183604952,0.43,0.4444444444444444,-0.6644444444444444,-0.0010362777986897159,-0.0026861622183860846,-0.0005317771452965429
1590512718.7704933,0.14433931484502446,-4.605660685154976,8.829559543230017,0.43,0.4508174732644553,-0.6644444444444444,0.001090830782496456,-0.0005694385814010863,-0.0005213922010953697
1590512718.7804933,0.16533409583433664,-4.60600228750301,8.834665904165663,0.43,0.4577777777777778,-0.6644444444444444,-7.28884040796453e-05,0.0,-0.0016726903757845065
1590512718.7904932,0.1535817399197681,-4.625472753360078,8.753381452958918,0.43,0.4577777777777778,-0.6644444444444444,-0.0016878155655147794,0.0005969847830183234,-0.000987691998956265
1590512718.8004932,0.1537586699571373,-4.636879334978568,8.731276009871412,0.43,0.4577777777777778,-0.6644444444444444,-0.002181661564992912,0.001090830782496456,-0.001500838071545455
1590512718.8104932,0.14896264336025372,-4.623443965040381,8.788630748239113,0.43,0.4577777777777778,-0.6644444444444444,-0.00037567830798887784,0.0004888363634951113,-0.002181661564992912
1590512718.8204932,0.14,-4.61,8.82,0.4269750799880447,0.4577777777777778,-0.6622837872930477,0.0019393188617157085,-0.0004242440396096262,-0.0004846854065544072
1590512718.8304932,0.14504682179341657,-4.615046821793417,8.830093643586833,0.4222222222222222,0.4577777777777778,-0.6588888888888889,0.0010704009210762617,-0.001090830782496456,0.0016311387083896354
1590512718.8404932,0.16304260674995338,-4.626521303374977,8.735659146000373,0.4222222222222222,0.4577777777777778,-0.6588888888888889,-0.002513558475180977,0.00033189691018806504,0.001090830782496456
1590512718.8504932,0.1568924196482717,-4.623446209824136,8.72587653123105,0.4222222222222222,0.4577777777777778,-0.6588888888888889,-0.002557584740903819,0.0018057383890820048,-0.0003389844306746414
1590512718.8604932,0.1447842112191361,-4.614784211219137,8.770863155123456,0.4222222222222222,0.4577777777777778,-0.6588888888888889,-0.00047479867784310827,0.0016127072692763108,-0.0005218764867798548
1590512718.8704932,0.1452324180353859,-4.604767581964614,8.81616209017693,0.426291880694189,0.44789432148871555,-0.6513309517266649,0.0022323673144741666,0.001090830782496456,-0.0005707682659888552
1590512718.8804932,0.15626283080790448,-4.606262830807904,8.833737169192096,0.43,0.4388888888888889,-0.6444444444444445,-0.0001433519679253075,0.0004076619194135208,-0.0004076619194135208
1590512718.8904932,0.15557993409257773,-4.618840131814845,8.77253914320351,0.43,0.4388888888888889,-0.6444444444444445,-0.002181661564992912,0.0,-0.00048215439524793404
1590512718.9004931,0.14633075856605268,-4.63,8.707338482867895,0.43,0.4388888888888889,-0.6444444444444445,-0.002181661564992912,0.0,-0.001090830782496456
1590512718.9104931,0.150200184664951,-4.635100092332475,8.76590083099228,0.43,0.4388888888888889,-0.6444444444444445,-0.0016253277940090703,0.0,-0.0022034983244641395
1590512718.9204931,0.14514720871312503,-4.630098139142083,8.814950930428958,0.4333006202859722,0.4482406463658102,-0.6444444444444445,0.0010694201430659948,0.0010801254627812254,-0.003272492347489368
1590512718.930493,0.1427718660783805,-4.611485422614413,8.824257288692793,0.43666666666666665,0.4577777777777778,-0.6444444444444445,0.0023436960362747195,0.0017172634093855878,-0.0023436960362747195
1590512718.940493,0.16347038299896915,-4.606940765997938,8.798766553009278,0.43666666666666665,0.4577777777777778,-0.6444444444444445,-4.484939820192024e-05,0.001090830782496456,-0.0007122707222636639
1590512718.950493,0.1587556830721695,-4.625622158463916,8.745622158463915,0.43666666666666665,0.4577777777777778,-0.6444444444444445,-0.003408226268295261,-0.00013573392080589298,0.0
1590512718.960493,0.15446506836864535,-4.62106986326271,8.76786027347458,0.43666666666666665,0.4577777777777778,-0.6444444444444445,-0.002415069520997991,-0.001090830782496456,-0.0009741268044939165
1590512718.970493,0.15384384130075793,-4.61,8.796156158699242,0.43837671074978946,0.4601718394941497,-0.6444444444444445,0.0,-0.00041929804138979667,-0.0018458951944395822
1590512718.980493,0.14345706702553176,-4.6065429329744685,8.80654293297447,0.44222222222222224,0.4655555555555556,-0.6444444444444445,0.00037710751286035006,0.0018450458082171562,-0.001467938295356806
1590512718.990493,0.16199420901528722,-4.611994209015287,8.758020268446495,0.44222222222222224,0.4655555555555556,-0.6444444444444445,-0.0028342649391750853,0.0019641271069321875,-0.0008732963244357317
1590512719.000493,0.15853320806209875,-4.61426660403105,8.741466791937901,0.44222222222222224,0.4655555555555556,-0.6444444444444445,-0.004203320950247792,0.001090830782496456,-0.0012508329622344884
1590512719.010493,0.15,-4.623344095223277,8.772240158705461,0.44222222222222224,0.4655555555555556,-0.6444444444444445,-0.0018168773640779427,0.0006056257880259809,-0.0016964565705224369
1590512719.020493,0.15,-4.62726924295217,8.81273075704783,0.43090599373526206,0.45659687467004545,-0.6538746348502447,0.0009258067781504606,-0.0004629033890752303,-0.001090830782496456
1590512719.030493,0.15,-4.614939733998337,8.815180798004988,0.4155555555555556,0.4444444444444444,-0.6666666666666666,0.0016428201747198288,-1.3148001950289692e-05,-0.0005519893922233728
1590512719.040493,0.14631822367319605,-4.623681776326804,8.770545789385569,0.4155555555555556,0.4444444444444444,-0.6666666666666666,0.0006892112873420078,0.0006892112873420078,-0.0008032389903088963
1590512719.050493,0.1436557065978163,-4.63,8.741934239586898,0.4155555555555556,0.4444444444444444,-0.6666666666666666,-0.0007975514577346783,0.0003987757288673391,-0.002181661564992912
1590512719.060493,0.15,-4.63,8.783188328598484,0.4155555555555556,0.4444444444444444,-0.6666666666666666,-0.001138283471010595,0.0003952453865082447,-0.002181661564992912
1590512719.070493,0.15,-4.63,8.789394383285984,0.4155555555555556,0.4444444444444444,-0.6666666666666666,0.000892643176283832,-0.0009587057116880401,-0.002181661564992912
1590512719.080493,0.1412799279927993,-4.607440144014402,8.8237599759976,0.43666666666666665,0.4655555555555556,-0.6588888888888889,0.0012304492678888916,0.0023212800503853476,0.001361362053066984
1590512719.090493,0.14722845235458737,-4.591285912742355,8.787428174515291,0.43666666666666665,0.4655555555555556,-0.6588888888888889,0.0028081057704314938,0.0029701633988122008,0.0
1590512719.100493,0.14066099944387067,-4.62,8.747768332406451,0.43666666666666665,0.4655555555555556,-0.6588888888888889,0.0006310820495860168,0.001090830782496456,0.0003876448788517238
1590512719.110493,0.16,-4.62,8.78,0.43666666666666665,0.4655555555555556,-0.6588888888888889,-0.002598475767340135,0.0002572023778020105,0.001090830782496456
1590512719.120493,0.16,-4.62,8.785447749131173,0.43485075028960907,0.46343698644898845,-0.6588888888888889,-0.002678235102729216,-0.001090830782496456,0.0004965735377363039
1590512719.130493,0.15770193313446712,-4.62,8.797701933134467,0.43,0.4577777777777778,-0.6588888888888889,-0.0005894703670647761,-0.001090830782496456,-0.000840150574780616
1590512719.140493,0.15750650720470902,-4.62,8.759973971181164,0.43,0.4577777777777778,-0.6588888888888889,0.001090830782496456,-0.001090830782496456,-0.0012282493691892012
1590512719.150493,0.16367069181373936,-4.61578046120916,8.71632930818626,0.43,0.4577777777777778,-0.6588888888888889,0.0006305505023977938,-0.0006305505023977938,-0.002582071927341375
1590512719.160493,0.14411307939421752,-4.612339238182653,8.760565396971087,0.43,0.4577777777777778,-0.6588888888888889,-0.0006421634210900201,0.00019349605968358428,0.0
1590512719.170493,0.1530603768906521,-4.626939623109348,8.796120753781304,0.43,0.4577777777777778,-0.6633094332864975,-0.0003338353318364123,-0.001090830782496456,0.0
1590512719.1804929,0.1647715847527942,-4.615228415247206,8.814771584752794,0.43,0.4577777777777778,-0.6733333333333333,-0.001090830782496456,-0.0021318290884241834,0.0010409983059277272
1590512719.1904929,0.16622927922961003,-4.613770720770391,8.7822927922961,0.43,0.4577777777777778,-0.6733333333333333,0.0001431347040655841,-0.002861170518635355,0.0013590179072848854
1590512719.2004929,0.1544334532374101,-4.617216726618706,8.733916366906476,0.43,0.4577777777777778,-0.6733333333333333,0.0012708374808670492,-0.0012708374808670492,0.0
1590512719.2104928,0.14576555383836864,-4.61,8.775765553838369,0.43,0.4577777777777778,-0.6733333333333333,-0.001090830782496456,0.00046190642199314485,0.0
1590512719.2204928,0.1572383987308013,-4.61,8.7872383987308,0.43,0.4577777777777778,-0.6733333333333333,-0.001090830782496456,-0.0007895868151541355,0.0
1590512719.2304928,0.16061662003560917,-4.61,8.798270775044513,0.4222222222222222,0.4444444444444444,-0.68,-0.0008349387897710057,-0.0024375535577183622,0.0008349387897710057
1590512719.2404928,0.1384885446524771,-4.618488544652477,8.734534366042569,0.4222222222222222,0.4444444444444444,-0.68,0.00046297829027588396,-0.0014205791863858323,0.0
1590512719.2504928,0.15739381227058205,-4.63,8.714787624541163,0.4222222222222222,0.4444444444444444,-0.68,0.001359677383321487,0.0005531375808463938,-0.0005376932016500622
1590512719.2604928,0.17984935557663337,-4.629849355576633,8.760301288846733,0.4222222222222222,0.4444444444444444,-0.68,0.002157012428859951,-0.0010661816463634947,-0.0021652288075709376
1590512719.2704928,0.15726097524252006,-4.61273902475748,8.804108537136221,0.42328739851679775,0.44627046094943107,-0.6758914628637801,-0.001090830782496456,0.0015840990610971098,-0.00044817187792185173
1590512719.2804928,0.14070381118204683,-4.629296188817953,8.829296188817953,0.43,0.4577777777777778,-0.65,-0.0011676046727406445,-0.002104887674748723,-0.0030421706767568024
1590512719.2904928,0.1470019911985677,-4.62,8.790019911985677,0.43,0.4577777777777778,-0.65,-0.0008735334502738381,-0.0014178628111762245,-0.0006540640573595369
1590512719.3004928,0.1401585161580259,-4.619920741920987,8.72023777423704,0.43,0.4577777777777778,-0.65,0.002177338707375469,-0.002181661564992912,-0.002177338707375469
