time,acc_x,acc_y,acc_z,mag_x,mag_y,mag_z,gyr_x,gyr_y,gyr_z
1590512744.6550019,0.21,-4.44,8.89,0.4355555555555555,0.3555555555555556,-0.5877777777777777,0.02399827721492203,-0.022907446432425576,-0.009817477042468105
1590512744.6650019,0.21702136184918985,-4.41404272369838,8.76,0.4355555555555555,0.3555555555555556,-0.5877777777777777,0.026412086234014632,-0.02717799799802889,-0.01353096213548952
1590512744.6750019,0.2177218376337319,-4.410295783511643,8.780591567023285,0.4355555555555555,0.3555555555555556,-0.5877777777777777,0.020412745951876726,-0.020412745951876726,-0.011718364667850537
1590512744.6850019,0.24057863831137913,-4.438842723377242,8.843471829868275,0.4355555555555555,0.35439827893279735,-0.5872634326121073,0.016362461737446838,-0.01623622244105001,-0.01090830782496456
1590512744.6950018,0.25,-4.414673761946134,8.881358166811468,0.4355555555555555,0.33555555555555555,-0.5788888888888889,0.017814967843462155,-0.015342805057266179,-0.010617806603761496
1590512744.7050018,0.24346496611345322,-4.404356689257698,8.80821655371151,0.4355555555555555,0.33555555555555555,-0.5788888888888889,0.020628512961912007,-0.018068882227232904,-0.00934223596726126
1590512744.7150018,0.22,-4.42,8.742442854890834,0.4355555555555555,0.33555555555555555,-0.5788888888888889,0.015005156823741102,-0.016362461737446838,-0.007092893511992897
1590512744.7250018,0.22,-4.42,8.78370734229576,0.4355555555555555,0.33555555555555555,-0.5788888888888889,0.010436498130260171,-0.016564665892320148,-0.00545415391248228
1590512744.7350018,0.22,-4.42,8.82437079886246,0.4355555555555555,0.33555555555555555,-0.5788888888888889,0.0052615206132658925,-0.018782513399603414,-0.00545415391248228
1590512744.7450018,0.22,-4.409955414643813,8.849732487862875,0.4488888888888889,0.35,-0.5877777777777777,0.0054833349598689875,-0.020759829422717153,-0.005463880928277849
1590512744.7550018,0.23411059819656055,-4.4,8.77588940180344,0.4488888888888889,0.35,-0.5877777777777777,0.012306984104905959,-0.02959298233468763,-0.007943660974920136
1590512744.7650018,0.27,-4.405502755297319,8.753756888243297,0.4488888888888889,0.35,-0.5877777777777777,0.012489711903271427,-0.03242479473155066,-0.008426517516628625
1590512744.7750018,0.2740172084130019,-4.415982791586998,8.7920086042065,0.4488888888888889,0.35,-0.5877777777777777,0.010250993635473627,-0.029223940664263804,-0.00719760601781457
1590512744.7850018,0.28982534468855103,-4.4000291092185755,8.8002328737486,0.4488112643060227,0.3499579533509474,-0.5877777777777777,0.007629464831140024,-0.019568272298416945,-0.005441452619811943
1590512744.7950017,0.24032826544460398,-4.408278622425899,8.866228979407195,0.426812562419824,0.3380419898292565,-0.5877777777777777,0.005829700241707895,-0.0006707441093795931,-0.0018419234409476864
1590512744.8050017,0.23,-4.401728092873628,8.851359535631861,0.4222222222222222,0.33555555555555555,-0.5877777777777777,0.007353056942240342,0.00962897135231154,-0.0009965779374181728
1590512744.8150017,0.23,-4.416394503112106,8.778027484439471,0.4222222222222222,0.33555555555555555,-0.5877777777777777,0.004953271178712358,0.008029114176626216,-0.00019664934957551146
1590512744.8250017,0.24,-4.4356528470952545,8.781086788226185,0.4222222222222222,0.33555555555555555,-0.5877777777777777,0.0060707838745072155,0.005596583054035695,-0.0009722805773785759
1590512744.8350017,0.24,-4.408018316285352,8.787995420928661,0.4222222222222222,0.33555555555555555,-0.5877777777777777,0.0030563241877783623,-0.0004323363194220116,-0.0002186656556963626
1590512744.8450017,0.26,-4.409118014091808,8.811763971816385,0.42777777777777776,0.35,-0.5877777777777777,0.0019892420893161127,-0.0031762826096509685,-0.0011870405203348556
1590512744.8550017,0.26,-4.401065524987041,8.827868950025918,0.42777777777777776,0.35,-0.5877777777777777,0.0002324614910766728,-0.0022978923105312484,-0.0020654308194545754
1590512744.8650017,0.24313780505036234,-4.417712601683454,8.760586584848912,0.42777777777777776,0.35,-0.5877777777777777,-0.00024951644955188305,-0.006794501144530619,-0.0004990328991037661
1590512744.8750017,0.220845312747606,-4.409154687252395,8.832535938242819,0.42777777777777776,0.35,-0.5877777777777777,-0.0014596680488665704,-0.008004652743845306,-0.002181661564992912
1590512744.8850017,0.23062951258815897,-4.4,8.860314756294079,0.4276029131699558,0.3497551895490493,-0.5877777777777777,-0.005522823083395561,-0.012239480705657502,-0.0021473269795362713
1590512744.8950016,0.24818512860222255,-4.4,8.869092564301111,0.4227263531660493,0.3429280055435801,-0.5877777777777777,-0.0074378437187783905,-0.018942052929497404,-0.0011898166618448567
1590512744.9050016,0.255765004014452,-4.408078331995183,8.78654832396628,0.4222222222222222,0.3422222222222222,-0.5877777777777777,-0.009145889182650309,-0.02525600598295801,-0.0034821138088286987
1590512744.9150016,0.26794905613716924,-4.404016981287611,8.74205094386283,0.4222222222222222,0.3422222222222222,-0.5877777777777777,-0.011346492509088311,-0.028571430831343884,-0.004144230787923948
1590512744.9250016,0.22140435727914096,-4.41929782136043,8.79,0.4222222222222222,0.3422222222222222,-0.5877777777777777,-0.013013373582471973,-0.02118535971234564,-0.0031193007325183743
1590512744.9350016,0.2400228794455099,-4.40997712055449,8.790022879445509,0.4222222222222222,0.34220696925854893,-0.5877777777777777,-0.012002882247978314,-0.027273265322756264,-0.001093326542841322
1590512744.9450016,0.2628408511427379,-4.404204255713689,8.827045106856428,0.4222222222222222,0.3288888888888889,-0.5877777777777777,-0.01682107489244477,-0.03007220870240207,-0.003272492347489368
1590512744.9550016,0.2723024384149262,-4.433092684755222,8.840068300605958,0.4222222222222222,0.3288888888888889,-0.5877777777777777,-0.02047462779765228,-0.030629464413275694,-0.00251902113814822
1590512744.9650016,0.2777505593093942,-4.412249440690606,8.746748322071818,0.4222222222222222,0.3288888888888889,-0.5877777777777777,-0.01963495408493621,-0.02714808160497575,-0.00024537591487129606
1590512744.9750016,0.2604125830885763,-4.429587416911423,8.801237749265729,0.4222222222222222,0.3288888888888889,-0.5877777777777777,-0.019589948251600563,-0.02622494461325059,-0.002136655731657264
1590512744.9850016,0.2668962745401144,-4.423103725459885,8.820688823620344,0.4222222222222222,0.3288888888888889,-0.5877777777777777,-0.01888268722964587,-0.026932205635205278,-0.001429394709702575
1590512744.9950016,0.26118382323293415,-4.428816176767065,8.865264707068263,0.4163447710441784,0.3347663400669328,-0.5877777777777777,-0.0175824276022952,-0.0272707695624114,-0.00012913508235190497
1590512745.0050015,0.2775237410810534,-4.4458729018017555,8.88596786612597,0.4155555555555556,0.33555555555555555,-0.5877777777777777,-0.010548150564402104,-0.020095509661448362,-0.00191154361957107
1590512745.0150015,0.25,-4.4032111581311,8.7364223162622,0.4155555555555556,0.33555555555555555,-0.5877777777777777,-0.006077940676729799,-0.012856447380833002,0.001557874800745392
1590512745.0250015,0.25,-4.424945159340185,8.77989031868037,0.4155555555555556,0.33555555555555555,-0.5877777777777777,-0.0029168583373050585,-0.011275906211120632,0.0047189571401701335
1590512745.0350015,0.25,-4.439649259547935,8.818947778643803,0.4155555555555556,0.33555555555555555,-0.5877777777777777,-7.651969635594788e-05,-0.008803165956327595,0.00545415391248228
1590512745.0450015,0.18855786618444847,-4.404890209248257,8.890219581503487,0.43311045093142736,0.33555555555555555,-0.5799756020551681,-0.0009574710129752862,-0.007769175246996361,0.010241508977358711
1590512745.0550015,0.18321614185264445,-4.401608070926322,8.852311219810455,0.4355555555555555,0.33555555555555555,-0.5788888888888889,-0.0016554215849319495,-0.01090830782496456,0.017064115044194788
1590512745.0650015,0.21804610244988865,-4.412005122494432,8.762005122494433,0.4355555555555555,0.33555555555555555,-0.5788888888888889,0.0013095557164567143,-0.010689582891004301,0.021381959669313437
1590512745.0750015,0.30038786993685834,-4.423895451226322,8.77908938619475,0.4355555555555555,0.33555555555555555,-0.5788888888888889,0.002464946772285278,-0.008967621420591007,0.024423205025860577
1590512745.0850015,0.3682093672553879,-4.449104683627694,8.840447658186154,0.4349586779740181,0.33585399434632424,-0.5799334246565793,0.004167995398188924,-0.003321324280438593,0.027124273763563723
1590512745.0950015,0.324880851632444,-4.43,8.847440425816222,0.4222222222222222,0.3422222222222222,-0.6022222222222222,-0.00027920623097482894,-0.004363323129985824,0.0217646273671234
1590512745.1050014,0.30214813110983324,-4.428037032777458,8.820370327774583,0.4222222222222222,0.3422222222222222,-0.6022222222222222,-0.0008767042753584513,-0.004149196622847819,0.015271630954950384
1590512745.1150014,0.2673716709521218,-4.42,8.747884987143635,0.4222222222222222,0.3422222222222222,-0.6022222222222222,-0.00014335311159775877,-0.003272492347489368,0.015558337178145901
1590512745.1250014,0.2516275970796344,-4.42,8.795117208761097,0.4222222222222222,0.3422222222222222,-0.6022222222222222,-0.0010020591326981294,-0.003272492347489368,0.017275749220346644
1590512745.1350014,0.26972153757407313,-4.406852308283952,8.826295383432097,0.4222222222222222,0.3422222222222222,-0.6022222222222222,-0.003242116808892398,-0.003272492347489368,0.016019101835679336
1590512745.1450014,0.2884179790520684,-4.416835958104137,8.84,0.4334461942916467,0.33661023618750996,-0.5947395741759393,-0.0025268049947045103,0.0004005439230732595,0.017108149090231697
1590512745.1550014,-0.14676069429953525,-4.155079578867495,8.682479749596888,0.4355555555555555,0.33555555555555555,-0.5933333333333334,-0.002181661564992912,-0.0020333135448901505,0.018234328601789945
1590512745.1650014,-0.15885881720616538,-4.307337240147719,8.992772508972381,0.4355555555555555,0.33555555555555555,-0.5933333333333334,-0.018129177529116376,-0.02022784993944461,0.04720496120548445
1590512745.1750014,-0.11522652010333409,-4.20552854690778,8.716434627321116,0.4355555555555555,0.33555555555555555,-0.5933333333333334,-0.002264026598849944,-0.0011896688231248925,0.10035321682187698
1590512745.1850014,0.08439508103497298,-4.30587005970998,8.882035115154963,0.4355555555555555,0.33555555555555555,-0.5933333333333334,-0.005196721569726504,-0.015718880880557402,0.15912932139888905
1590512745.1950014,0.0741547029464475,-4.365458539687434,8.89,0.42499202418652055,0.34083732124007304,-0.5818895076835454,-0.00286147324490996,-0.0111771004023022,0.18368625103512984
1590512745.2050014,0.10452275638288788,-4.368630689095722,8.860414823670054,0.4222222222222222,0.3422222222222222,-0.5788888888888889,-0.007486446828955739,-0.017677345492722474,0.20837811353822255
1590512745.2150013,0.047218683289215274,-4.354304670822303,8.760132695756127,0.4222222222222222,0.3422222222222222,-0.5788888888888889,-0.005923720656630613,-0.02002143475121016,0.22009855983066096
1590512745.2250013,-0.10938242280285035,-4.275662707838479,8.80433729216152,0.4222222222222222,0.3422222222222222,-0.5788888888888889,-0.0074813890769127485,-0.025793872778508833,0.23983819172721726
1590512745.2350013,-0.1575255159900204,-4.2474846904059875,8.832515309594012,0.4222222222222222,0.3422222222222222,-0.5788888888888889,-0.009273174996314283,-0.024542579261075854,0.2689087147519813
1590512745.2450013,-0.2762254640445924,-4.181346419176218,8.872163395205945,0.4222222222222222,0.3422222222222222,-0.5933333333333334,-0.008343784903080426,-0.024323385283636045,0.3267219901716025
1590512745.2550013,-0.39196434813002445,-4.119619014330654,8.887595246417337,0.4222222222222222,0.3422222222222222,-0.5933333333333334,-0.013393846402767562,-0.034423508283010315,0.3696475129189432
1590512745.2650013,-0.06506122685856885,-3.560709186930532,8.707489795523573,0.4222222222222222,0.3422222222222222,-0.5933333333333334,-0.028302050222682312,-0.03181719560187668,0.4476229697479284
1590512745.2750013,-0.25979397597353604,-3.828466716963612,8.675034337337744,0.4222222222222222,0.3422222222222222,-0.5933333333333334,-0.05573969518075622,0.03633437413269398,0.5795006826109288
1590512745.2850013,-0.42097787633982786,-3.907422250382808,8.707422250382809,0.4222222222222222,0.3422222222222222,-0.5933333333333334,-0.08857063290480477,0.11426093904931114,0.8173305800793877
1590512745.2950013,-0.5235844586590855,-3.7072336729053146,8.936162441759457,0.4534170417752507,0.3318239490378794,-0.5933333333333334,-0.11180662333649699,0.12400479570554358,0.9803268590342622
1590512745.3050013,-0.4161806329711857,-3.626727066603684,9.05818233349079,0.4622222222222222,0.3288888888888889,-0.5933333333333334,-0.11400169968746363,0.08546127935447946,1.1001729520533283
1590512745.3150012,-0.29095587157308317,-3.6463051605336463,8.976562454185602,0.4622222222222222,0.3288888888888889,-0.5933333333333334,-0.09304745794479327,-0.03357115292593899,1.2283577011921527
1590512745.3250012,-0.2734831928006958,-3.4775293984194806,8.675844519227132,0.4622222222222222,0.3288888888888889,-0.5933333333333334,-0.0627168099584545,-0.07758373597001414,1.3358749236849514
1590512745.3350012,-0.1193905149357743,-3.211671751987042,8.832359588654084,0.4622222222222222,0.3288888888888889,-0.5933333333333334,-0.11106195795937725,-0.057776515801825135,1.4899470983758718
1590512745.3450012,-0.1,-3.150283386347786,9.200971780435115,0.4570737723043426,0.31565001767148426,-0.5837719263429856,-0.1535598390907968,-0.03648982881300869,1.5995686795089912
1590512745.3550012,-0.06572338277549118,-3.0443084569387278,9.181478605265202,0.4544444444444444,0.3088888888888889,-0.5788888888888889,-0.10021945339409292,-0.11326774469559904,1.7622847793765897
1590512745.3650012,-0.18934953699355733,-3.1162330246623715,8.963161779898195,0.4544444444444444,0.3088888888888889,-0.5788888888888889,-0.04916327764492503,-0.1456564487912378,1.8895021512516275
1590512745.3750012,-0.29146314897736897,-3.1504877163257894,8.948211706805438,0.4544444444444444,0.3088888888888889,-0.5788888888888889,-0.06729456505995857,-0.16385515763303063,2.078138647810335
1590512745.3850012,-0.36760317076122473,-3.175867723587075,8.855151680180725,0.4544444444444444,0.3088888888888889,-0.5788888888888889,-0.049760546045582665,-0.1758521180112878,2.197185408486887
1590512745.3950012,-0.4587106646379418,-3.218755619337437,8.844932567950757,0.4811111111111111,0.28444444444444444,-0.5877777777777777,-0.05658255601962627,-0.18502420281083193,2.3664862775695217
1590512745.4050012,-0.5094750674320493,-3.2115035617954217,8.931957258454942,0.4811111111111111,0.28444444444444444,-0.5877777777777777,-0.06212009334191243,-0.19530820069507762,2.458251181767407
1590512745.4150012,-0.5521771044184097,-3.2040820707845183,8.60680345130753,0.4811111111111111,0.28444444444444444,-0.5877777777777777,-0.03874310485999967,-0.21185865705594348,2.5955764790749254
1590512745.4250011,-0.6207828824960642,-3.3327179046801203,8.8211965078002,0.4811111111111111,0.28444444444444444,-0.5877777777777777,-0.05651696232375334,-0.21934238651436608,2.679768435482179
1590512745.4350011,-0.6474352325385964,-3.3761528488078945,8.954611395231579,0.4811111111111111,0.28444444444444444,-0.5877777777777777,-0.07316902851962219,-0.22700442898786377,2.774762649172329
1590512745.4450011,-0.7172940840006536,-3.3276601568883803,8.940091518221932,0.4919113961976358,0.2537051715058742,-0.5985780628643024,-0.06140165964522367,-0.23043051548535312,2.85395408907001
1590512745.455001,-0.7574791057558844,-3.2837813413661734,8.80764625970881,0.4955555555555556,0.2433333333333333,-0.6022222222222222,-0.05958321268117015,-0.2436495111851179,2.9384876999225007
1590512745.465001,-0.8866779608411143,-3.4456557949460724,8.858211209683676,0.4955555555555556,0.2433333333333333,-0.6022222222222222,-0.0748770704841601,-0.24437397052978432,3.0175798394120257
1590512745.475001,-0.9032561903220586,-3.4566280951610295,8.866628095161028,0.4955555555555556,0.2433333333333333,-0.6022222222222222,-0.07888238910773875,-0.24579212132539943,3.067138465474569
1590512745.485001,-0.9650465688100738,-3.4678637955442966,8.925046568810073,0.4955555555555556,0.2433333333333333,-0.6022222222222222,-0.07042779360836555,-0.24652775684419906,3.136020402879236
1590512745.495001,-0.9861029833136693,-3.4394850834316535,8.93389701668633,0.5064053036687455,0.19518757608105322,-0.5934068018802554,-0.06962870513386409,-0.25118788228872796,3.1767641231583066
1590512745.505001,-1.0125990554710638,-3.4275330184903545,8.922466981509645,0.5133333333333333,0.16444444444444445,-0.5877777777777777,-0.07090400086226964,-0.2590939213943105,3.2172299327589826
1590512745.515001,-1.0451027853785169,-3.3986215182768538,8.84469164386445,0.5133333333333333,0.16444444444444445,-0.5877777777777777,-0.06953485631140523,-0.25933941246578857,3.235448949466439
1590512745.525001,-1.0822425088604877,-3.424485017720975,8.814828339240325,0.5133333333333333,0.16444444444444445,-0.5877777777777777,-0.06872233929727672,-0.2585268954516601,3.243566606469132
1590512745.535001,-1.09,-3.4327502035873128,8.870748574888811,0.5133333333333333,0.16444444444444445,-0.5877777777777777,-0.07188565973479334,-0.2553635750141435,3.22594165462874
1590512745.545001,-1.1307715008431702,-3.3284569983136594,8.879742833052278,0.5277777777777778,0.08,-0.5877777777777777,-0.07210704189389303,-0.2550299826059168,3.1669839014793277
1590512745.555001,-1.1490637901959644,-3.291872419608071,8.87364540326801,0.5277777777777778,0.08,-0.5877777777777777,-0.0747675475350077,-0.24970897132368747,3.1224204319906574
1590512745.565001,-1.248152689555359,-3.276780976119643,8.829314143282142,0.5277777777777778,0.08,-0.5877777777777777,-0.06526280854473199,-0.252445274833543,3.03734227058017
1590512745.575001,-1.3253323338330836,-3.230534732633683,8.838265867066466,0.5277777777777778,0.08,-0.5877777777777777,-0.05999569303730508,-0.2421502600008974,2.9402272536550984
1590512745.585001,-1.4167820717790396,-3.1639307569325763,8.919103864601135,0.5277777777777778,0.08,-0.5877777777777777,-0.05497031819087934,-0.2291722175320923,2.8226457361961867
1590512745.595001,-1.4622976119204416,-3.1351349253863723,8.969730149227257,0.5170418905568244,0.02549472641669808,-0.6183337644835682,-0.0558830004882241,-0.21797439822430437,2.7033721939943014
1590512745.605001,-1.4879796305068689,-3.0490916627190905,8.953030554239696,0.5133333333333333,0.006666666666666667,-0.6288888888888889,-0.05182001708611451,-0.20802920710662015,2.558671363448693
1590512745.615001,-1.514052811186483,-2.9037007366099297,8.885859170169377,0.5133333333333333,0.006666666666666667,-0.6288888888888889,-0.047770707197628,-0.19238990546057855,2.4401742740606385
1590512745.625001,-1.4244467668890852,-2.696266848889246,8.852626684888925,0.5133333333333333,0.006666666666666667,-0.6288888888888889,-0.033639780805327306,-0.17829048456744234,2.294615036086475
1590512745.635001,-1.4748961476319324,-2.67,8.75626112008721,0.5133333333333333,0.006666666666666667,-0.6288888888888889,-0.031634092692397225,-0.1657026976862831,2.1695912063110026
1590512745.645001,-1.71,-2.79,9.12,0.5022222222222222,-0.07222222222222223,-0.6233333333333333,-0.07417649320975901,-0.15817046346198613,1.9514962698861595
1590512745.655001,-1.71,-2.79,9.12,0.5022222222222222,-0.07222222222222223,-0.6233333333333333,-0.07417649320975901,-0.15817046346198613,1.9514962698861595
1590512745.665001,-1.8528726807421625,-2.6843634037108126,8.810799744081894,0.5022222222222222,-0.07222222222222223,-0.6233333333333333,-0.040459841940925806,-0.14308517404185758,1.720608639616334
1590512745.675001,-1.8740808344198174,-2.6327803129074314,8.820941981747067,0.5022222222222222,-0.07222222222222223,-0.6233333333333333,-0.028019204633192053,-0.1201332509645111,1.5262578623880514
1590512745.685001,-1.9514851587547832,-2.6589957596442235,8.988472437687454,0.5022222222222222,-0.07222222222222223,-0.6233333333333333,-0.033925299886700726,-0.11394166946683376,1.326982503687768
1590512745.695001,-1.9829375704622323,-2.634687852311161,9.01409420800451,0.5049687225980208,-0.08870122447701366,-0.6284339768883878,-0.025021007935884396,-0.09329339490785572,1.1563767074111617
1590512745.7050009,-1.9747882233502538,-2.560423553299492,8.977882233502537,0.51,-0.11888888888888888,-0.6377777777777778,-0.014042192679319656,-0.07113501335082675,0.9508145340101061
1590512745.7150009,-2.012366160210007,-2.530580303873996,8.958794447537985,0.51,-0.11888888888888888,-0.6377777777777778,-0.014628812210480274,-0.05697640602139829,0.7358137390695131
1590512745.7250009,-2.0798846240856648,-2.4327019078500864,8.85140864188221,0.51,-0.11888888888888888,-0.6377777777777778,-0.005607812905145229,-0.03875595667835308,0.5638005910100762
1590512745.7350008,-2.1333374397315263,-2.426674879463053,8.996699517852212,0.51,-0.11888888888888888,-0.6377777777777778,-0.006182270311257446,-0.03461641353290956,0.4139917714234479
1590512745.7450008,-2.154660768364807,-2.4506342260064375,9.153938067830472,0.5079236321418693,-0.12393149654434912,-0.643413633392704,-0.006757360207168147,-0.02587425225801287,0.2318160438350185
1590512745.7550008,-2.141360097670805,-2.3774805371894274,9.014281025543452,0.5027511490942019,-0.13649324108868416,-0.6574532302363725,0.006300542711610957,0.007495944089978182,0.01853696282829309
1590512745.7650008,-2.2071508504424977,-2.4371508504424977,8.865698299115005,0.5022222222222222,-0.13777777777777778,-0.6588888888888889,0.0012264216882946289,0.01640207392997647,-0.12779785739442603
1590512745.7750008,-2.2615924329501915,-2.4416815134099616,8.864955459770114,0.5022222222222222,-0.13777777777777778,-0.6588888888888889,0.01270368573067688,0.02652735375614106,-0.2614216197250004
1590512745.7850008,-2.2762505145966454,-2.4525010291932916,8.938755660563103,0.5022222222222222,-0.13777777777777778,-0.6588888888888889,0.015271630954950384,0.03177072720914014,-0.36134409595357475
1590512745.7950008,-2.2430161358511835,-2.46,9.024380636978579,0.5022222222222222,-0.14353082331203806,-0.6646419344231491,0.014464768205566464,0.039463793503077556,-0.49349816408836966
1590512745.8050008,-2.2821687929342493,-2.4926054955839057,9.020436702649656,0.5022222222222222,-0.14555555555555555,-0.6666666666666666,0.009912750781076724,0.04145156973486533,-0.5933102489907931
1590512745.8150008,-2.3327447755417956,-2.532744775541796,8.881112938596491,0.5022222222222222,-0.14555555555555555,-0.6666666666666666,0.015906049244796265,0.055510967139311154,-0.6958350390447879
1590512745.8250008,-2.3883390639253386,-2.5963955745795615,8.904452085233785,0.5022222222222222,-0.14555555555555555,-0.6666666666666666,0.015028807373984864,0.06351100896575995,-0.7852244847050418
1590512745.8350008,-2.364918294972533,-2.615846950837911,9.060326820109868,0.5022222222222222,-0.14555555555555555,-0.6666666666666666,0.015456406964001308,0.06882363993770672,-0.8483202730263746
1590512745.8450007,-2.129169738330718,-2.4882310864566985,9.054584869165359,0.5197914106946624,-0.13164661468154043,-0.6988768455328069,0.02786146870297862,0.06552664022665446,-0.9266686121839178
1590512745.8550007,-2.046987083954297,-2.4415896671634374,8.794898161947343,0.5288888888888889,-0.12444444444444445,-0.7155555555555555,0.04735739153468531,0.05746721989715183,-0.9877946891955823
1590512745.8650007,-2.0080338443161456,-2.5050662950428033,9.025596655385227,0.5288888888888889,-0.12444444444444445,-0.7155555555555555,0.02572206348192261,0.09892343258665162,-1.0561820617749322
1590512745.8750007,-1.9816154356093647,-2.507576846585953,8.82122954537525,0.5288888888888889,-0.12444444444444445,-0.7155555555555555,0.013557799960364868,0.12650908192164045,-1.124959197682572
1590512745.8850007,-2.0793767388206557,-2.6122945647010924,8.68163160751849,0.5288888888888889,-0.12444444444444445,-0.7155555555555555,0.04067469421897393,0.12576382541592698,-1.1993829532488187
1590512745.8950007,-2.1766736361908383,-2.7833472723816763,9.126045998859531,0.5282961414179813,-0.1007345456081438,-0.7274105049737059,0.017298117124083127,0.09772977118016593,-1.286612079505767
1590512745.9050007,-2.1437539903826726,-2.8370307512021657,8.907370186285206,0.5277777777777778,-0.08,-0.7377777777777778,0.021541296254953046,0.1032344585565612,-1.3641156967368384
1590512745.9150007,-2.1258568091013745,-2.898568091013747,8.814424900115121,0.5277777777777778,-0.08,-0.7377777777777778,0.033893852777387046,0.11717084574411875,-1.415413125457435
1590512745.9250007,-2.1372300624922405,-2.9906104374456812,8.932300624922403,0.5277777777777778,-0.08,-0.7377777777777778,0.01980393060353424,0.11435286130934817,-1.4949196851239028
1590512745.9350007,-2.065150567523743,-2.9827820245540884,8.86473708593931,0.5277777777777778,-0.08,-0.7377777777777778,0.028632223409085222,0.13051826951547038,-1.5537612239773004
1590512745.9450006,-1.987180683606926,-3.0485020800539693,8.912775185518326,0.5277777777777778,-0.03559478299977513,-0.7639451377957674,0.030235722199184564,0.1354216008165819,-1.6224881716849984
1590512745.9550006,-1.93116993959551,-3.103298036242694,8.926701963757306,0.5277777777777778,-0.017777777777777778,-0.7744444444444445,0.029208740848416147,0.1392550292681138,-1.6978552911677016
1590512745.9650006,-1.8876274113177758,-3.142372588682224,8.863347969806108,0.5277777777777778,-0.017777777777777778,-0.7744444444444445,0.03386655815786262,0.14866259959686778,-1.7693131598857068
1590512745.9750006,-1.7743390982087708,-3.304427471848719,8.866255523352496,0.5277777777777778,-0.017777777777777778,-0.7744444444444445,0.03490658503988659,0.15408105303620961,-1.8497991945814845
1590512745.9850006,-1.7335769274039312,-3.367371787660115,8.880948715064045,0.5277777777777778,-0.017777777777777778,-0.7744444444444445,0.03550374481091878,0.1614667285958509,-1.9142877392935798
1590512745.9950006,-1.7083943756840954,-3.419014060789762,8.913211248631809,0.4852238219527939,-0.007461667274751388,-0.7950766654504973,0.035997415822383035,0.1687960755600395,-2.011737737376101
1590512746.0050006,-1.7,-3.447316978282262,8.85683021717738,0.4544444444444444,0.0,-0.81,0.038391891365927855,0.18134382127265625,-2.1255759574791897
1590512746.0150006,-1.6402739346983952,-3.485835639180963,8.812082180409519,0.4544444444444444,0.0,-0.81,0.037315377253420885,0.18804727424633283,-2.212148081970021
1590512746.0250006,-1.5750285135330728,-3.51,8.8,0.4544444444444444,0.0,-0.81,0.03327344921010126,0.19320951441973558,-2.3090878730600286
1590512746.0350006,-1.5051750899110354,-3.497816686646897,8.787816686646897,0.4544444444444444,0.0,-0.81,0.0349565760019885,0.20123918002412994,-2.3936062671081753
1590512746.0450006,-1.4534377141776758,-3.550728381348522,8.829686857466971,0.4366553226352815,-0.003680507960516469,-0.7768754283553518,0.03227047295061396,0.2068828522296833,-2.4663565146265922
1590512746.0550005,-1.4130425351039193,-3.6269574648960807,8.849781901327939,0.4222222222222222,-0.006666666666666667,-0.75,0.032037354410746906,0.21864079084117244,-2.534380561731435
1590512746.0650005,-1.3689460603210855,-3.6296486867736952,8.741662524350104,0.4222222222222222,-0.006666666666666667,-0.75,0.034944907368041726,0.22644319318840248,-2.5796820280255
1590512746.0750005,-1.320644452581472,-3.653872207982424,8.746777737092641,0.4222222222222222,-0.006666666666666667,-0.75,0.031246849761738003,0.2243238982636107,-2.6308032510340684
1590512746.0850005,-1.221201366291408,-3.712513895345312,8.788086787800392,0.4222222222222222,-0.006666666666666667,-0.75,0.02004022626077245,0.23030846981624414,-2.6799807224821937
1590512746.0950005,-1.1534462511291779,-3.7955374887082205,8.792429990966577,0.45717554953327316,0.011538191307839004,-0.7405334738532571,0.028139886771229715,0.24675587547667235,-2.716926908838155
1590512746.1050005,-1.1349511384970874,-3.860097723005825,8.9403908920233,0.4755555555555556,0.021111111111111112,-0.7355555555555555,0.02669870435543521,0.2410416231528432,-2.749238234089159
1590512746.1150005,-1.094256520266456,-3.862851304053291,8.772687817545444,0.4755555555555556,0.021111111111111112,-0.7355555555555555,0.03647510536432623,0.2518375422523071,-2.766666810239935
1590512746.1250005,-0.9819508349458898,-3.888014047158317,8.767038629685374,0.4755555555555556,0.021111111111111112,-0.7355555555555555,0.04221553435943032,0.25361624154633866,-2.7768219045375178
1590512746.1350005,-0.9176046923501743,-3.9223953076498255,8.772005865437718,0.4755555555555556,0.021111111111111112,-0.7355555555555555,0.04559608688835032,0.25137117348248367,-2.7837119947203535
1590512746.1450005,-0.8765296775198629,-3.9752054837202055,8.867351612400686,0.5133688528846654,0.04066971317789202,-0.7355555555555555,0.04671644691802146,0.25025102621827355,-2.78963286430209
1590512746.1550004,-0.8218799510872455,-4.038120048912754,8.904255941304696,0.54,0.054444444444444434,-0.7355555555555555,0.052468096510339665,0.2481369482803163,-2.784782768762942
1590512746.1650004,-0.7360264064059985,-3.9424020456814524,8.762227429246725,0.54,0.054444444444444434,-0.7355555555555555,0.05087369035281282,0.23954932032827356,-2.774640058850037
1590512746.1750004,-0.6742699423115178,-3.973622687487567,8.70643251442212,0.54,0.054444444444444434,-0.7355555555555555,0.05820920537499247,0.2342160920711342,-2.748256476371393
1590512746.1850004,-0.63216630020374,-4.025566739959252,8.787934359429528,0.54,0.054444444444444434,-0.7355555555555555,0.05294515416509567,0.23222331319310055,-2.7200154371062784
1590512746.1950004,-0.5646939470151088,-4.003571469092147,8.910408070646522,0.5223809793947646,0.051927441500839375,-0.7133220295537108,0.048842498518132584,0.2259021585227374,-2.69138010005667
1590512746.2050004,-0.47178773204196933,-3.9527150928167876,8.988145278450363,0.4933333333333334,0.04777777777777778,-0.6766666666666666,0.05086440930547276,0.22025396611802572,-2.6442384390308407
1590512746.2150004,-0.4215232115140398,-3.93076160575702,8.691324961196557,0.4933333333333334,0.04777777777777778,-0.6766666666666666,0.055139306543712706,0.2288252294230906,-2.5754244452805137
1590512746.2250004,-0.36638941954445264,-3.949409257898604,8.520240999265246,0.4933333333333334,0.04777777777777778,-0.6766666666666666,0.061563892529614084,0.2199730403465065,-2.5061084626750443
1590512746.2350004,-0.30417028486709735,-3.9979148575664514,8.783106004447738,0.4933333333333334,0.04777777777777778,-0.6766666666666666,0.04931483896758096,0.20591634513973683,-2.4294242028140127
1590512746.2450004,-0.2717630593174989,-3.989407648293747,8.906705223727,0.49150290207055536,0.058760365354445954,-0.670809286625777,0.04844580985234754,0.20873331933180211,-2.369924508237211
1590512746.2550004,-0.19079250878734622,-3.8247550527240772,8.821433710456942,0.4711111111111111,0.1811111111111111,-0.6055555555555555,0.05874846870484668,0.1845932450899266,-2.2209723313895897
1590512746.2650003,-0.14333533383345837,-3.8611117779444863,8.509268817204301,0.4711111111111111,0.1811111111111111,-0.6055555555555555,0.04884548755344634,0.1906930417819771,-2.0958925874719023
1590512746.2750003,-0.09778323126801153,-3.9477341498559078,8.606552143371758,0.4711111111111111,0.1811111111111111,-0.6055555555555555,0.06234934415493268,0.1890200057818408,-1.9858868862681425
1590512746.2850003,-0.0806105896464406,-4.0193894103535595,8.924925270833729,0.4711111111111111,0.1811111111111111,-0.6055555555555555,0.047167719921764384,0.1664264510163824,-1.8972581812223361
1590512746.2950003,-0.04475962400430295,-4.037211535998771,9.042307712009835,0.461495729779417,0.20995725510619345,-0.6035523511114526,0.022047365628994203,0.14184471385342795,-1.7631759007263148
1590512746.3050003,0.011203642602613171,-3.977176323083014,8.92319453609608,0.4444444444444444,0.2611111111111111,-0.6,0.035997415822383035,0.1341721862470641,-1.6187928812247403
1590512746.3150003,0.03765435399613344,-3.9553087079922666,8.72168689070791,0.4444444444444444,0.2611111111111111,-0.6,0.03022004198716154,0.12839481241184256,-1.5526740473327612
1590512746.3250003,0.06563661422936172,-3.9695755905137586,8.77763937075234,0.4444444444444444,0.2611111111111111,-0.6,0.02617993877991494,0.11582625913689104,-1.3887446996932775
1590512746.3350003,0.1025761342448726,-3.9870913610938468,8.873241143567432,0.4444444444444444,0.2611111111111111,-0.6,0.02962768268568606,0.10503703840505962,-1.228426645220591
1590512746.3450003,0.15189384288747346,-3.963076008492569,8.836923991507431,0.43811955649917433,0.29857390894078795,-0.5907559330030667,0.030949856925134477,0.09858136543991473,-1.114376422836365
1590512746.3550003,0.18450321133652767,-3.9260256906922217,8.846955041288613,0.43,0.3466666666666667,-0.5788888888888889,0.027761993717008538,0.08704269160363742,-0.9958357799105023
1590512746.3650002,0.19,-3.9901641770959495,8.795925370551934,0.43,0.3466666666666667,-0.5788888888888889,0.02899004906147847,0.07744898555724837,-0.8955997536998076
1590512746.3750002,0.19512740183792815,-4.03145433027012,8.853163464216095,0.43,0.3466666666666667,-0.5788888888888889,0.029051761174156518,0.07446598408575987,-0.7896340558637589
1590512746.3850002,0.22357276615875896,-3.986427233841241,8.841436596952555,0.43,0.3466666666666667,-0.5788888888888889,0.019088517336684006,0.05765732305452355,-0.6520674463081421
1590512746.3950002,0.23,-3.98,8.863727779714187,0.4242143216761551,0.36330049184772084,-0.5864825916889354,0.017020838378426575,0.04990066058486052,-0.5394189777114877
1590512746.4050002,0.24518604416658266,-3.9989825552082285,8.80342442270848,0.4122222222222222,0.3977777777777778,-0.6022222222222222,0.022493311321394097,0.03881518451807849,-0.4175230992266643
1590512746.4150002,0.273967822075003,-4.033967822075003,8.765951733112503,0.4122222222222222,0.3977777777777778,-0.6022222222222222,0.022465849018761447,0.031210045614284917,-0.32371942351107735
1590512746.4250002,0.29992447025872954,-4.015264354094446,8.77015105948254,0.4122222222222222,0.3977777777777778,-0.6022222222222222,0.02184133269996066,0.020758740934141387,-0.18310550936032244
1590512746.4350002,0.3184813401187447,-3.9969626802374894,8.800888040712469,0.4122222222222222,0.3977777777777778,-0.6022222222222222,0.019006708646357194,0.012661778986107293,-0.08741667157133504
1590512746.4450002,0.3343186864555335,-4.011362627088933,8.831131821900199,0.40694382766545906,0.4006569020814668,-0.6022222222222222,0.01963495408493621,0.0043381461895226885,0.009326048660263615
1590512746.4550002,0.35709628391215137,-4.017096283912151,8.819891329128353,0.4,0.4044444444444445,-0.6022222222222222,0.012175292981866745,-0.0031081921262789435,0.10739265942476012
1590512746.4650002,0.3485936629078592,-4.035351584273036,8.785780988723578,0.4,0.4044444444444445,-0.6022222222222222,0.005377450122948593,-0.008956757628572709,0.1854371405966022
1590512746.4750001,0.33,-4.0602190564107685,8.750219056410769,0.4,0.4044444444444445,-0.6022222222222222,0.003811933901838368,-0.014204695520050839,0.25783033790451265
1590512746.4850001,0.33,-4.058359289403663,8.778656284238535,0.4,0.4044444444444445,-0.6022222222222222,0.0018561111510744402,-0.019667351195748337,0.32317748561626014
1590512746.4950001,0.3218187273014369,-4.025909363650719,8.822725090794252,0.39772742425039914,0.41489829289260843,-0.6022222222222222,-0.0017848768199180917,-0.027568030854758216,0.3920525065224514
1590512746.505,0.2957277139522025,-3.9581534271262107,8.8652425713174,0.3944444444444444,0.43,-0.6022222222222222,-0.0017685483037304566,-0.03480074333589797,0.4684545999921546
1590512746.515,0.28600790368532303,-3.9320553257972612,8.829960481573384,0.3944444444444444,0.43,-0.6022222222222222,-0.001858292042704467,-0.038726648174435566,0.5250431514444431
1590512746.525,0.29271529394098655,-4.025629176364592,8.774569412118026,0.3944444444444444,0.43,-0.6022222222222222,-0.008090935731122824,-0.043654893942847224,0.5825613366507851
1590512746.535,0.25275930506817007,-3.99724069493183,8.8324069493183,0.3944444444444444,0.43,-0.6022222222222222,-0.005266303601983336,-0.051081196466834476,0.6667282244043435
1590512746.545,0.25879149168728066,-3.9912085083127193,8.772085083127193,0.3944444444444444,0.43,-0.6022222222222222,-0.007240332056950065,-0.0530552249218012,0.7101568504136115
1590512746.555,0.18668065227734765,-3.951659673861326,8.791617717029283,0.4155555555555556,0.4088888888888889,-0.6022222222222222,-0.010365180823912754,-0.05944341247546758,0.811880688699624
1590512746.565,0.1647780396399181,-3.9639164702700613,8.829112158559672,0.4155555555555556,0.4088888888888889,-0.6022222222222222,-0.009059884253913597,-0.068770763535931,0.8953442804279138
1590512746.575,0.11716134997688396,-4.006048312528895,8.731725612575127,0.4155555555555556,0.4088888888888889,-0.6022222222222222,-0.018894243168712598,-0.07845887397238899,0.9965863817913246
1590512746.585,0.09,-4.0433166988958895,8.8197448693157,0.4155555555555556,0.4088888888888889,-0.6022222222222222,-0.019607123644536918,-0.08304229167172712,1.0624582949377
1590512746.595,0.0879192921042396,-4.149192921042396,8.824564955270324,0.42919575176109603,0.4098136479536713,-0.605227689182765,-0.020359883480102852,-0.08926517347104448,1.1612602231758309
1590512746.605,0.07952818532818533,-4.07,8.874338223938224,0.4811111111111111,0.4133333333333333,-0.6166666666666667,-0.027116368572116727,-0.0930294184927881,1.2247670292051591
1590512746.615,0.051113602800415686,-4.101477328665974,8.737965869933818,0.4811111111111111,0.4133333333333333,-0.6166666666666667,-0.02674519233969022,-0.10132578755075362,1.3018842545307385
1590512746.625,0.008560150624298078,-4.158481204994384,8.695759397502806,0.4811111111111111,0.4133333333333333,-0.6166666666666667,-0.03146841785795451,-0.10533939629580404,1.3427072998449716
1590512746.635,-0.00323112589456708,-4.093231125894567,8.75261788126197,0.4811111111111111,0.4133333333333333,-0.6166666666666667,-0.026817966485254165,-0.10465286050741597,1.3915656054042587
1590512746.645,-0.02463354906419451,-4.079513031310127,8.820486968689872,0.5129797290731347,0.4061791537908382,-0.6228452762715488,-0.03272492347489368,-0.11036009631175724,1.4201017844259651
1590512746.655,-0.07506858341859296,-4.037534291709297,8.828561395598868,0.59,0.3888888888888889,-0.6377777777777778,-0.029848400412610727,-0.11180267391546972,1.4408754240238615
1590512746.665,-0.10472533963378619,-4.045274660366213,8.76354400472534,0.59,0.3888888888888889,-0.6377777777777778,-0.025991153535218272,-0.10972739649093116,1.450745019123847
1590512746.675,-0.13775782634376849,-4.012242173656231,8.788318369757825,0.59,0.3888888888888889,-0.6377777777777778,-0.03229690286720768,-0.11423150315663787,1.4579515897889777
1590512746.685,-0.15325950291274074,-4.025110745630889,8.710965277671036,0.59,0.3888888888888889,-0.6377777777777778,-0.028337439396267736,-0.11418167555084242,1.4636929708559612
1590512746.695,-0.16615333773959023,-4.005769993390615,8.833456708526107,0.59,0.3888888888888889,-0.6377777777777778,-0.03255693697633342,-0.11277517635748721,1.467209218839349
1590512746.705,-0.25220453371221907,-3.963386398863343,8.826454404546629,1.022222222222222,0.2822222222222222,-0.5811111111111111,-0.03259600198613312,-0.11065486367901,1.464152753087765
1590512746.715,-0.2637466851875237,-3.9212665740623818,8.841319611062003,1.022222222222222,0.2822222222222222,-0.5811111111111111,-0.03354521610145844,-0.11194687064364753,1.4557151256013152
1590512746.725,-0.27211554094958057,-3.885768918100839,8.703653377151259,1.022222222222222,0.2822222222222222,-0.5811111111111111,-0.029913970565291166,-0.11080320037675165,1.4499865959390146
1590512746.735,-0.2793702326385886,-3.8712595347228227,8.681889302084233,1.022222222222222,0.2822222222222222,-0.5811111111111111,-0.031496698767669404,-0.10922047217437342,1.4396988626235563
1590512746.745,-0.37156123004734176,-3.9031224600946834,8.912193849763291,1.0857122441474527,0.2855181523221659,-0.5788560010427286,-0.03807778171393328,-0.11208397114427239,1.4132425033156593
1590512746.7549999,-0.381283033468756,-3.916150899593732,8.86679241632811,1.4288888888888889,0.3033333333333333,-0.5666666666666667,-0.03156411407226261,-0.10471975511965977,1.391031507884205
1590512746.7649999,-0.39443498973563385,-3.796002381959789,8.769914907620704,1.4288888888888889,0.3033333333333333,-0.5666666666666667,-0.028418592334452982,-0.10198803709408405,1.3539489690362825
1590512746.7749999,-0.381289392443546,-3.6448280131007786,8.651604531991914,1.4288888888888889,0.3033333333333333,-0.5666666666666667,-0.023399724571273976,-0.09553520711285389,1.3338734979835665
1590512746.7849998,-0.47461336229067835,-3.7515465508372863,8.884626507401268,1.4288888888888889,0.3033333333333333,-0.5666666666666667,-0.03188714648139837,-0.10589637107428373,1.2791284871898494
1590512746.7949998,-0.49437307276440673,-3.6881258259581116,8.811245044251333,1.3887676816217924,0.3018756424118644,-0.5720115333787194,-0.022021056323593906,-0.09190237329458868,1.249888597113176
1590512746.8049998,-0.56,-3.622727272727273,8.920363636363637,0.7866666666666666,0.28,-0.6522222222222223,-0.02264961370201732,-0.09639969124225498,1.1998642775287154
1590512746.8149998,-0.56,-3.56,8.800935076445823,0.7866666666666666,0.28,-0.6522222222222223,-0.018024208165468805,-0.09604410936824269,1.1662971534972169
1590512746.8249998,-0.5579076582803428,-3.547445949682057,8.758831075476914,0.7866666666666666,0.28,-0.6522222222222223,-0.01681893988850756,-0.09112294298348624,1.1264252815575961
1590512746.8349998,-0.5519015108323831,-3.501901510832383,8.845212086659066,0.7866666666666666,0.28,-0.6522222222222223,-0.018958968612282544,-0.08466995572488077,1.0813430578779613
1590512746.8449998,-0.5578797035347777,-3.5078797035347775,8.893037628278222,0.7866666666666666,0.28,-0.6522222222222223,-0.020263207936976068,-0.08336571640018725,1.0480849550982763
1590512746.8549998,-0.5911339066339066,-3.4905669533169537,8.904330466830467,0.5755555555555556,0.2611111111111111,-0.6666666666666666,-0.019449419045824867,-0.07464887386188432,0.9734881452954863
1590512746.8649998,-0.6056260590125621,-3.504373940987438,8.825308793456033,0.5755555555555556,0.2611111111111111,-0.6666666666666666,-0.01683958468443886,-0.06507470058777894,0.8917241772013311
1590512746.8749998,-0.5886187866187866,-3.516201663201663,8.875165753165755,0.5755555555555556,0.2611111111111111,-0.6666666666666666,-0.01805445552857709,-0.06725484099642438,0.82804904910811
1590512746.8849998,-0.5569098469098469,-3.429002079002079,8.764184464184465,0.5755555555555556,0.2611111111111111,-0.6666666666666666,-0.006813002086255505,-0.05860756911771546,0.7554119653269551
1590512746.8949997,-0.52,-3.3839566660160063,8.94366933437439,0.5718626672739497,0.2609352592881775,-0.6683372589845359,-0.017508270561723615,-0.04346058917640555,0.6284130708052958
1590512746.9049997,-0.52,-3.424892641030646,8.878171774350966,0.5336557572602858,0.25911588262086016,-0.6856213373240506,-0.006791257363929626,-0.041674420310106555,0.5391046274903459
1590512746.9149997,-0.48161166427291946,-3.362893314183356,8.835825035906208,0.5288888888888889,0.2588888888888889,-0.6877777777777778,-0.0018300509650028493,-0.02934862379246182,0.3953529196491949
1590512746.9249997,-0.48838026691626185,-3.417042135330095,8.734295996256073,0.5288888888888889,0.2588888888888889,-0.6877777777777778,-0.0003533709414338898,-0.01975020363926358,0.31487385836468657
1590512746.9349997,-0.5061429223634573,-3.4551786529543214,8.88325011413605,0.5288888888888889,0.2588888888888889,-0.6877777777777778,-0.002010266642563512,-0.010736912902535159,0.15339439284102374
1590512746.9449997,-0.47132201943877394,-3.41,8.82661009719387,0.5288888888888889,0.2540414842800511,-0.6886591240702938,0.009817477042468105,0.0029655601310317717,0.019206212818850335
1590512746.9549997,-0.4740308633763469,-3.4129845683118267,8.87,0.5288888888888889,0.2222222222222222,-0.6944444444444444,0.011119740637269646,0.017550592245853085,-0.13984720545833038
1590512746.9649997,-0.465050247561155,-3.4301004951223097,8.857374381097111,0.5288888888888889,0.2222222222222222,-0.6944444444444444,0.013629903622560377,0.025386480906946545,-0.27360938632730797
1590512746.9749997,-0.45258979494100743,-3.4550163263529106,8.822491836823545,0.5288888888888889,0.2222222222222222,-0.6944444444444444,0.01417367645712568,0.036530364711806845,-0.41467353513460936
1590512746.9849997,-0.3776421363524489,-3.447642136352449,8.842227418163919,0.5288888888888889,0.2222222222222222,-0.6944444444444444,0.02072578486743266,0.049163633290664165,-0.5420006049517543
1590512746.9949996,-0.4193420284880727,-3.4904386476746185,8.909122704650764,0.5283040253227314,0.22185668249337376,-0.6941276433461091,0.02094110554119745,0.05599123769692723,-0.6652444724852846
1590512747.0049996,-0.3737686792361732,-3.4970149433889386,8.87,0.5022222222222222,0.20555555555555555,-0.68,0.030543261909900768,0.07589006899731245,-0.8499769099572542
1590512747.0149996,-0.32383187090500776,-3.489401754913991,8.886168129094992,0.5022222222222222,0.20555555555555555,-0.68,0.031248729626388534,0.08540490568520263,-0.9930166254291075
1590512747.0249996,1.0598002194269385,-6.9142346847651375,6.564339040134718,0.5022222222222222,0.20555555555555555,-0.68,-0.05646875793183388,0.17967463387005303,-1.1853626128479051
1590512747.0349996,4.584026122343934,-12.310525020508614,-0.5044694301018191,0.5022222222222222,0.20555555555555555,-0.68,-0.6001243388321831,0.8496044572894758,-3.832699743843015
1590512747.0449996,6.520303205777799,-7.837522559474979,-6.374020170824686,0.5022222222222222,0.20555555555555555,-0.68,-1.5708305068261712,2.150748130536914,-10.484134426428051
1590512747.0549996,-0.28188998258351106,-8.152252402105635,-3.183417937026673,0.49737117560213,0.25730005283653945,-0.6702979067598155,-1.6722389787091774,0.331466355260005,-15.090901442331976
1590512747.0649996,-2.073170572491677,-10.491925713166655,7.8611769697760945,0.4955555555555556,0.2766666666666667,-0.6666666666666666,-1.667966997417764,1.3912183359293055,-16.02569039520213
1590512747.0749996,-8.395491877517198,-11.883424353959109,-0.12190295415566688,0.4955555555555556,0.2766666666666667,-0.6666666666666666,-0.8399743447501159,2.944282505623893,-13.493418072672767
1590512747.0849996,-11.027981823427583,-9.598079919215234,15.000118291979225,0.4955555555555556,0.2766666666666667,-0.6666666666666666,-0.46868901027165244,3.076841177530473,-8.797506042217373
1590512747.0949996,-3.289892286978265,-2.935658780534718,3.9610713598769003,0.4955555555555556,0.2766666666666667,-0.6666666666666666,0.8777555892798141,1.0161062512017036,-5.546531690468109
1590512747.1049995,0.9515673728023856,-1.231710256569547,10.230772193576442,0.3244444444444444,0.5255555555555556,-0.6166666666666667,1.4099351428850129,0.05902670568817687,-4.0029900825389015
1590512747.1149995,-2.8526681990433,-1.7354674784121267,12.845098465552587,0.3244444444444444,0.5255555555555556,-0.6166666666666667,2.3734793162076424,0.8150820157289419,-3.659070185866223
1590512747.1249995,1.9999993144110793,4.190661936103113,10.736958727546963,0.3244444444444444,0.5255555555555556,-0.6166666666666667,3.1136161645238145,-0.19187781519509073,-3.008655822359914
1590512747.1349995,-0.6023875634169751,0.21519247908953876,0.8737686822980937,0.3244444444444444,0.5255555555555556,-0.6166666666666667,0.8480945151835408,-0.48751701969536176,-2.5671574877878918
1590512747.1449995,2.7844301361074195,-0.1541267586270107,11.530588423995233,0.31100387496244697,0.5311284746090666,-0.6173223042023739,-0.3157543947956999,-0.10451114704233253,-1.9971376976112252
1590512747.1549995,2.56718736190897,1.3061031500536582,15.898196767880815,0.18777777777777774,0.5822222222222222,-0.6233333333333333,-0.1369606529919925,1.2790627891170674,-1.6505180773276071
1590512747.1649995,2.3031466710343134,-1.143677176316436,16.476765866841372,0.18777777777777774,0.5822222222222222,-0.6233333333333333,-0.3902839067715622,0.47157689389045926,-1.3089954382212696
1590512747.1749995,0.812420113012857,-0.20939693718778152,6.350816804520514,0.18777777777777774,0.5822222222222222,-0.6233333333333333,0.12303375966886798,-0.3886985529323348,-1.1096633224940367
1590512747.1849995,1.392913323136877,-0.384924050367701,6.419052777137589,0.18777777777777774,0.5822222222222222,-0.6233333333333333,0.3777520556926266,-0.15488334412250448,-0.7479745701464715
1590512747.1949995,1.7168623697085725,-0.956215698787492,8.901697511167836,0.18358103476801624,0.5831345576591269,-0.6227859320711905,-0.16169564985800525,0.08291218911885156,-0.44433637958259264
1590512747.2049994,1.5104079937231736,-1.8522818110490606,10.832837033276412,0.13666666666666666,0.5933333333333334,-0.6166666666666667,-0.18587435330970775,0.3737296416265179,-0.11805243901565939
1590512747.2149994,5.998550943923275,-5.771804278498103,8.998713657208036,0.13666666666666666,0.5933333333333334,-0.6166666666666667,-0.16875550103643364,-0.012040426599554385,0.05235713518397128
1590512747.2249994,16.105053102746695,-14.745478535096643,8.99149053916582,0.13666666666666666,0.5933333333333334,-0.6166666666666667,-0.021556392029893085,-0.221529555110974,0.15048151575880805
1590512747.2349994,-3.222830058708415,2.0418810176125244,13.554645479452056,0.13666666666666666,0.5933333333333334,-0.6166666666666667,0.0511443462470197,0.039427448897364076,0.09143253961560706
1590512747.2449994,-1.8964134637964776,0.30178003913894313,8.314643287671233,0.13666666666666666,0.5933333333333334,-0.6166666666666667,0.17792682210320826,0.2364058718377701,0.2167824451231381
1590512747.2549994,0.33054651700508697,-1.9251309538823727,8.743316937823181,0.12942905321767725,0.6036727811176039,-0.6363116174567808,-0.03931379453884917,0.030999460027539616,0.387638208350865
1590512747.2649994,1.6006673248387993,-2.0830638941165582,10.123231728010365,0.1288888888888889,0.6044444444444445,-0.6377777777777778,-0.28403112693971794,-0.3099919774404223,0.49342466565992815
1590512747.2749994,7.166647585131118,-7.334037142773052,7.139452276540013,0.1288888888888889,0.6044444444444445,-0.6377777777777778,0.06089379764658653,0.011157891911350283,0.6714068282012143
1590512747.2849994,4.382956706007005,-5.420635429849604,8.102325396591812,0.1288888888888889,0.6044444444444445,-0.6377777777777778,0.05550748154919724,-0.15716448613206455,0.6828527499081666
1590512747.2949994,-0.3080728304563726,-2.4576139112719866,9.11463211888608,0.12936969601429285,0.604481429607937,-0.6379996887587335,-0.037413509697035566,0.09469205649106383,0.7143095564344393
1590512747.3049994,0.8820808701820763,-3.319712425195991,9.679192207650472,0.14038963768687107,0.6053291174289046,-0.6430858156845388,-0.06986991701099787,-0.03513357276478536,0.7600814129028476
1590512747.3149993,2.216148629341055,-3.863164421922923,8.216599165603032,0.14333333333333334,0.6055555555555555,-0.6444444444444445,0.0073084394816767175,-0.08378882515698002,0.8773553251229491
1590512747.3249993,1.9285011334844646,-3.975027336978264,9.207384984664621,0.14333333333333334,0.6055555555555555,-0.6444444444444445,-0.05108852657449598,-0.08204563214037786,0.9357522911791218
1590512747.3349993,1.81,-3.696323104188042,8.670357242794514,0.14333333333333334,0.6055555555555555,-0.6444444444444445,-0.018918654419907286,-0.0843357387997885,1.023927986794309
1590512747.3449993,1.81,-3.8762856076858503,9.014633336442497,0.14333333333333334,0.6055555555555555,-0.6444444444444445,-0.021479201878740355,-0.07921464388212236,1.0811135467082473
1590512747.3549993,1.7548344507478082,-3.83,8.99320887055183,0.15555555555555556,0.5877777777777777,-0.6311111111111111,-0.014901232302451328,-0.09110242896048508,1.1834101929609981
1590512747.3649993,1.6667619408463377,-3.8159684103341305,9.161207227260887,0.15555555555555556,0.5877777777777777,-0.6311111111111111,-0.029656731031706195,-0.10176930182981758,1.2449218090275052
1590512747.3749993,1.647955751717973,-3.7246628303257165,8.541027431700094,0.15555555555555556,0.5877777777777777,-0.6311111111111111,-0.04096822547339936,-0.11353318516835004,1.3076095563060142
1590512747.3849993,1.7260662606849544,-3.9668054081233586,8.845658416671323,0.15555555555555556,0.5877777777777777,-0.6311111111111111,-0.046932599806634764,-0.11438523864452654,1.3689574065907213
1590512747.3949993,1.6208422109890834,-3.9419098348509047,8.769493850130901,0.15555555555555556,0.5877777777777777,-0.6311111111111111,-0.036236370142609824,-0.11453723216212787,1.4250848058037062
1590512747.4049993,1.429201608040201,-3.858500502512563,8.827497487437185,0.19405494137353435,0.584277833612507,-0.6395109771077611,-0.0245219198430141,-0.1179732943113745,1.5151957937980534
1590512747.4149992,1.3371229162482428,-3.8728770837517574,8.961096354689698,0.21666666666666667,0.5822222222222222,-0.6444444444444445,-0.028286946681695232,-0.13164696994802774,1.6240984672271246
1590512747.4249992,1.3735867386276022,-3.905775173477255,8.733586738627602,0.21666666666666667,0.5822222222222222,-0.6444444444444445,-0.05283731997972779,-0.14724557029929541,1.7474644207870356
1590512747.4349992,1.2765713184271394,-3.8216951426368544,8.636571318427139,0.21666666666666667,0.5822222222222222,-0.6444444444444445,-0.05565938415923427,-0.15359521470318496,1.811666380870808
1590512747.4449992,1.2309045978211688,-3.9173356305036373,8.791003445755456,0.21666666666666667,0.5822222222222222,-0.6444444444444445,-0.0497781194167176,-0.15698095636457865,1.9221856456214688
1590512747.4549992,0.8766638734466972,-3.8628196533682146,8.97486878678875,0.2088888888888889,0.5688888888888889,-0.6233333333333333,-0.036584856557504014,-0.16300946443646475,2.0579247509636125
1590512747.4649992,0.7706697958575474,-3.8289953062136792,8.855981224854716,0.2088888888888889,0.5688888888888889,-0.6233333333333333,-0.03978135192745327,-0.17075410922096812,2.1593539860918236
1590512747.4749992,0.7862945164655044,-3.8055582253017435,8.762232901206973,0.2088888888888889,0.5688888888888889,-0.6233333333333333,-0.0517121002723997,-0.18438925018662117,2.2496867949892745
1590512747.4849992,0.6696136395859918,-3.9507727208280166,8.645409045796116,0.2088888888888889,0.5688888888888889,-0.6233333333333333,-0.06641424158246234,-0.20088144551244316,2.3891920826973734
1590512747.4949992,0.6621801006663831,-3.965639798667234,8.749478590670636,0.2088888888888889,0.5688888888888889,-0.6233333333333333,-0.06398162165954396,-0.20412493874300103,2.478388146537714
1590512747.5049992,0.5415383321771668,-3.9099299993693637,8.88167833343844,0.27,0.5555555555555556,-0.6166666666666667,-0.059438823819653014,-0.2190815453882626,2.6519547140499995
1590512747.5149992,0.44440924515317626,-3.861118150969365,8.881613867729765,0.27,0.5555555555555556,-0.6166666666666667,-0.051878903525764096,-0.22343735338724427,2.761781066769727
1590512747.5249991,0.35,-3.8826368523949166,8.7368357771261,0.27,0.5555555555555556,-0.6166666666666667,-0.06292520814022945,-0.22178599794492154,2.8739473511455227
1590512747.5349991,0.3447813961118858,-3.9410895332622427,8.691741858748257,0.27,0.5555555555555556,-0.6166666666666667,-0.07706973149510324,-0.24811669133094144,2.9722784647170206
1590512747.5449991,0.27597161840702156,-4.087310310885079,8.8465638585842,0.27,0.5555555555555556,-0.6166666666666667,-0.08645220945225378,-0.2546844259009468,3.0698562354713865
1590512747.554999,0.1821637341561041,-3.9562679286190794,8.780148849232821,0.3054894003409681,0.5245023302572086,-0.6388475418797718,-0.07681397140676408,-0.2613516896333929,3.181978339201777
1590512747.564999,0.056515605846298916,-3.9443492692126356,8.833047807637907,0.3144444444444445,0.5166666666666667,-0.6444444444444445,-0.06820028342236088,-0.26886642836904395,3.28383198862912
1590512747.574999,-0.11073745494871085,-4.1866592736346,8.779262545051289,0.3144444444444445,0.5166666666666667,-0.6444444444444445,-0.07260057992792118,-0.2791178007712709,3.424060971200343
1590512747.584999,3.4374255275134464,-8.030548200248242,7.658366570128258,0.3144444444444445,0.5166666666666667,-0.6444444444444445,-0.1066172906941187,-0.29833623907572315,3.5068048304916264
1590512747.594999,-1.3781237070748862,0.21228382292097692,6.8948200248241625,0.3144444444444445,0.5166666666666667,-0.6444444444444445,-0.32146765107530384,-0.38825158813392846,1.9224017323501992
1590512747.604999,-3.0752002193071517,-0.9991355643097917,12.350425415262153,0.3944444444444444,0.4711111111111111,-0.6311111111111111,0.0999618846579551,0.2675601952744161,-1.4582283979410142
1590512747.614999,-4.599749827397149,-3.562763676237664,2.615452219469601,0.3944444444444444,0.4711111111111111,-0.6311111111111111,0.8079091132411826,0.282425228945455,-1.163714918333556
1590512747.624999,-1.018206824194873,-1.499040461636712,7.994702353799835,0.3944444444444444,0.4711111111111111,-0.6311111111111111,0.03942640223113281,0.0005922392105315866,-0.21850327804620362
1590512747.634999,-0.20203709562603814,-4.675446492130032,9.516105552479633,0.3944444444444444,0.4711111111111111,-0.6311111111111111,-0.44396687742438107,-0.01699642138959335,0.35483434183000123
1590512747.644999,-0.48402357035513727,-4.045123783912046,8.977013762556355,0.3944444444444444,0.4711111111111111,-0.6311111111111111,-0.14179557748720006,-0.10475275700009203,0.5493458073584261
1590512747.654999,-0.10259670338772467,-3.5876107015654766,8.69807736271018,0.3944444444444444,0.4477777777777778,-0.6233333333333333,0.08066491697788918,-0.057891915687876806,0.9423220276458086
1590512747.664999,-1.0058668102377204,-3.1846132692785556,9.420693448190177,0.3944444444444444,0.4477777777777778,-0.6233333333333333,-0.05576329128591921,-0.09957831265737381,0.8589492337068146
1590512747.674999,-1.864357632168044,-2.9676634743238015,7.6548247016646185,0.3944444444444444,0.4477777777777778,-0.6233333333333333,0.05015399897495727,0.05954840339491741,-0.2998962852161073
1590512747.684999,-0.26889569622809817,-3.758334876205544,8.318423913958224,0.3944444444444444,0.4477777777777778,-0.6233333333333333,0.09789890937563436,0.03952634419463347,-0.14973084121397762
1590512747.694999,0.8429702127659575,-5.22336170212766,9.235974468085107,0.3944444444444444,0.4477777777777778,-0.6233333333333333,-0.06099090205759122,-0.024981417469103942,0.11783757550831926
1590512747.704999,0.4341636592357344,-4.7828658926398715,8.880922851663195,0.42019045916882625,0.4396861731501149,-0.6328961388023895,-0.036648413987293335,-0.014407892555562171,0.05698509365902285
1590512747.714999,0.16757950075364877,-4.5836616300871285,8.973979633101724,0.43333333333333335,0.4355555555555555,-0.6377777777777778,0.01193312973028778,-0.0029424479616231938,-0.017321274765596827
1590512747.724999,0.1,-4.6,8.51,0.43333333333333335,0.4355555555555555,-0.6377777777777778,0.008726646259971648,0.0,-0.001090830782496456
1590512747.734999,0.11442586986091002,-4.58557413013909,8.564097011978413,0.43333333333333335,0.4355555555555555,-0.6377777777777778,0.01069366912354271,-0.0003934045727142126,-0.001090830782496456
1590512747.744999,0.11925697848721793,-4.497770935461654,8.768900862942106,0.43333333333333335,0.4355555555555555,-0.6377777777777778,0.002867236978389481,4.0525536909988714e-05,0.0006062036966132109
1590512747.754999,0.14360439815486378,-4.544650555571673,8.808953842583191,0.4042637345634242,0.4413694753095374,-0.6503746039114051,-0.007635815477475192,-0.0008117700078858275,-0.0006722396205805139
1590512747.764999,0.14234125040809664,-4.60595249755142,8.715753754489063,0.4,0.44222222222222224,-0.6522222222222223,-0.006800375496447156,-0.004432590706608599,-0.001090830782496456
1590512747.774999,0.14,-4.5344177293410475,8.630092410538733,0.4,0.44222222222222224,-0.6522222222222223,0.00745838159563044,-0.001719922901653167,-0.00015727302978917784
1590512747.784999,0.1250441848654139,-4.467654647028949,8.784513966480446,0.4,0.44222222222222224,-0.6522222222222223,0.004107484808321596,0.0005405955701168316,0.0008157131763066438
1590512747.794999,0.12,-4.4782206771318664,8.811779322868134,0.4,0.44222222222222224,-0.6522222222222223,0.0037208607309095892,-0.00044836838342022156,0.0003212311995381172
1590512747.8049989,0.12834098397589344,-4.506681967951787,8.77497704807232,0.41760874394910835,0.4366615662382932,-0.6281260462918634,-0.0056451391549498355,-0.001090830782496456,-0.0018197204154428474
1590512747.8149989,0.11711899530164174,-4.548643014095075,8.69915447415903,0.4211111111111111,0.4355555555555555,-0.6233333333333333,-0.006933265655752659,-0.0017933806042189889,0.0006285377218972197
1590512747.8249989,0.11,-4.498991373054906,8.677752156736274,0.4211111111111111,0.4355555555555555,-0.6233333333333333,-0.004608524792615842,-0.0012134316138114653,0.0012134316138114653
1590512747.8349988,0.11,-4.5257767777600115,8.751553555520022,0.4211111111111111,0.4355555555555555,-0.6233333333333333,0.010271580799697137,-0.00011517052051759186,0.00011517052051759186
1590512747.8449988,0.12434953957360094,-4.501300920852798,8.831747697868003,0.4211111111111111,0.4355555555555555,-0.6233333333333333,0.006520616788923775,0.0015652919481534972,-0.0007826459740767486
1590512747.8549988,0.13858200258275852,-4.515746007748275,8.791343979337931,0.41443622021341,0.4355555555555555,-0.6538471202942524,-0.001253584425656421,0.0003093590464454971,-0.002963133301043871
1590512747.8649988,0.1314488980244376,-4.545653305926687,8.754346694073313,0.4133333333333333,0.4355555555555555,-0.6588888888888889,-0.006845564194597779,-0.0009327805259209731,-0.0014069312956474214
1590512747.8749988,0.13,-4.524976100098411,8.708293500164018,0.4133333333333333,0.4355555555555555,-0.6588888888888889,-0.002176447415322607,-0.0020007254595218868,0.0007289585715544056
1590512747.8849988,0.10402860548271753,-4.468057210965435,8.81254270957489,0.4133333333333333,0.4355555555555555,-0.6588888888888889,0.003630901984805446,-0.00029296845807215096,-0.0017422088778846852
1590512747.8949988,0.12789197442504058,-4.4878919744250405,8.81605401278748,0.4133333333333333,0.4355555555555555,-0.6588888888888889,0.006645229951543684,-0.0030425424287438127,-0.0006603903506210056
1590512747.9049988,0.13154987527132536,-4.508450124728674,8.818450124728676,0.40769991684755025,0.44118897204133867,-0.6588888888888889,0.00026169054149694643,-0.004363323129985824,-0.0018435312339945614
1590512747.9149988,0.13,-4.570001614726304,8.699996770547392,0.4066666666666667,0.44222222222222224,-0.6588888888888889,-0.004363411199643704,-0.001908887817125388,0.000272773747867524
1590512747.9249988,0.1138771614029346,-4.525508645611739,8.668061419298533,0.4066666666666667,0.44222222222222224,-0.6588888888888889,-0.008971611641062464,-0.0028495596467865477,0.0002114663503514102
1590512747.9349988,0.10162700701855591,-4.51,8.720237957888665,0.4066666666666667,0.44222222222222224,-0.6588888888888889,-0.000683958556682112,-0.0014457886503321693,0.0
1590512747.9449987,0.110267232949487,-4.525400849424231,8.765935315323205,0.4066666666666667,0.44222222222222224,-0.6588888888888889,0.0050107655958232565,-0.0005308400948783416,-0.0005599906876181144
1590512747.9549987,0.11672717585721352,-4.533454351714427,8.8,0.404484783904809,0.44222222222222224,-0.6567070061270313,0.008369636527906742,0.0003570097320649055,-0.001090830782496456
1590512747.9649987,0.12508422950208242,-4.5149719234993055,8.784915770497918,0.4,0.44222222222222224,-0.6522222222222223,0.002151034853770958,-0.0011030814669852377,-0.0005423527201260325
1590512747.9749987,0.12524195206183447,-4.532137071907249,8.674072688401925,0.4,0.44222222222222224,-0.6522222222222223,-0.003272492347489368,-5.278575138750697e-05,-0.003219706596101861
1590512747.9849987,0.12,-4.54,8.657796160709818,0.4,0.44222222222222224,-0.6522222222222223,-0.0026254056837385726,0.001090830782496456,-0.003069149802484233
1590512747.9949987,0.11496659115023945,-4.519866364600958,8.725367497347365,0.4,0.44222222222222224,-0.6522222222222223,0.0016617565549533063,0.0016398905139173442,1.457736069064141e-05
1590512748.0049987,0.10275594257472347,-4.5,8.859684631678043,0.409658743233702,0.44222222222222224,-0.636929212102194,0.0038737457465495466,0.0013914574820265454,-0.000188950683906188
1590512748.0149987,0.1081828229797282,-4.516365645959456,8.832720239141903,0.4133333333333333,0.44222222222222224,-0.6311111111111111,0.0014872773086879885,-0.0006943842563049234,-0.00019822326309576629
1590512748.0249987,0.11,-4.526029112890618,8.729563306640728,0.4133333333333333,0.44222222222222224,-0.6311111111111111,-0.00351288857006632,-0.0017485049757197096,-0.0006576741932232536
1590512748.0349987,0.11,-4.5519799585349,8.706633264224834,0.4133333333333333,0.44222222222222224,-0.6311111111111111,-0.0033481293125968165,-0.0005832338738019521,-0.00029161693690097604
1590512748.0449986,0.12361592806679512,-4.519152215799615,8.767655748233782,0.4133333333333333,0.44222222222222224,-0.6311111111111111,0.002274140475262361,0.0014852673467517577,-0.0007426336733758788
1590512748.0549986,0.13,-4.492913661080901,8.811259016757296,0.4133333333333333,0.4319863993390794,-0.6460711599403198,0.005909322455616968,-0.00013733742345380454,-0.001863830445312028
1590512748.0649986,0.11742460603151748,-4.508863090952723,8.794849212063035,0.4133333333333333,0.42777777777777776,-0.6522222222222223,0.003801459326410536,0.00028093190178764423,-0.0014957802228508618
1590512748.0749986,0.11,-4.540053177802556,8.699787288789777,0.4133333333333333,0.42777777777777776,-0.6522222222222223,-0.0014641090406575358,-0.00036747745976372314,-0.0025491390247566353
1590512748.0849986,0.10373430789560621,-4.531202923686818,8.678797076313181,0.4133333333333333,0.42777777777777776,-0.6522222222222223,-0.006006416275936465,-0.0024577927467200047,-0.0019055303832658192
1590512748.0949986,0.10488762778881809,-4.515112372211181,8.733988650099363,0.4133333333333333,0.42777777777777776,-0.6522222222222223,-0.0039037130856756867,-0.0038056498320321545,-2.4515813410883047e-05
1590512748.1049986,0.12175709342560553,-4.504121453287197,8.821149826989618,0.4133333333333333,0.4238587466359093,-0.6398119569396385,0.002564999884267445,-0.004363323129985824,0.001090830782496456
1590512748.1149986,0.12501692440432735,-4.5,8.85,0.4133333333333333,0.4211111111111111,-0.6311111111111111,0.004363323129985824,-0.0011019077792258614,0.001090830782496456
1590512748.1249986,0.12,-4.50471315270341,8.78401586215226,0.4133333333333333,0.4211111111111111,-0.6311111111111111,0.0017926971042428368,0.002181661564992912,0.001090830782496456
1590512748.1349986,0.12,-4.5283559243744325,8.719177962187217,0.4133333333333333,0.4211111111111111,-0.6311111111111111,-0.0020919911499368586,-0.0003212393536080947,0.001090830782496456
1590512748.1449986,0.11444703751436831,-4.536117593785921,8.74943536869971,0.4133333333333333,0.4211111111111111,-0.6311111111111111,-0.0026667581061518607,-0.0026667581061518607,0.00018222942049019475
1590512748.1549985,0.1,-4.495820521917376,8.812538434247871,0.41658403850870734,0.4271481350082343,-0.6338974298328602,0.0011887208911511855,-0.0020026514519555128,-0.00035802022607479876
1590512748.1649985,0.11346739484248979,-4.498978263228326,8.80306521031502,0.4211111111111111,0.4355555555555555,-0.6377777777777778,0.0033839465397043664,-0.002782804052348639,0.0012022849747114544
1590512748.1749985,0.12503079470814804,-4.514969205291852,8.72030794708148,0.4211111111111111,0.4355555555555555,-0.6377777777777778,1.3436726234349917e-05,-0.0027237177746825525,0.0005420562096896405
1590512748.1849985,0.12580972054410103,-4.52,8.687429161632302,0.4211111111111111,0.4355555555555555,-0.6377777777777778,-0.005350372568596641,-0.0007375235446063851,-0.0008103958196657812
1590512748.1949985,0.1241189335947811,-4.525881066405219,8.723524265620876,0.4211111111111111,0.4355555555555555,-0.6377777777777778,-0.004428191343115916,0.001090830782496456,-0.0002570870843773463
1590512748.2049985,0.12,-4.503187018445016,8.79362596310997,0.4158974758087529,0.4355555555555555,-0.6415018029937479,0.0029368129238773375,0.00035962014122927746,-0.00037159050003790104
1590512748.2149985,0.13215437984569597,-4.502154379845696,8.82,0.4133333333333333,0.4355555555555555,-0.6433333333333333,0.00412831674469831,-0.000662918583891985,-0.001090830782496456
1590512748.2249985,0.12679530201342282,-4.51,8.734169463087248,0.4133333333333333,0.4355555555555555,-0.6433333333333333,0.00039167414002389553,-0.001090830782496456,-0.0018110353343628242
1590512748.2349985,0.1257703258462512,-4.515770325846251,8.707310977538754,0.4133333333333333,0.4355555555555555,-0.6433333333333333,-0.0023497205941215974,-0.0017202756883090266,-0.0009227717533677707
1590512748.2449985,0.12633005443606152,-4.527339891127877,8.734679782255755,0.4133333333333333,0.4355555555555555,-0.6433333333333333,-0.00207150547012024,-0.001781332605869869,-0.0004003289591230428
1590512748.2549984,0.11693523676880223,-4.5308057103064066,8.769194289693592,0.41571703806870935,0.43112867533271426,-0.6436738625812441,0.0006686276147307664,-0.001090830782496456,-0.001090830782496456
1590512748.2649984,0.12310154065790258,-4.490347689013146,8.822753851644755,0.4211111111111111,0.4211111111111111,-0.6444444444444445,0.00361081794976981,0.001052903794668892,-0.0003762525901080067
1590512748.2749984,0.11706892510919356,-4.492931074890807,8.749482475764355,0.4211111111111111,0.4211111111111111,-0.6444444444444445,0.0015422002216540923,-0.0006394613433388196,0.0
1590512748.2849984,0.11,-4.526089059244206,8.732611324055256,0.4211111111111111,0.4211111111111111,-0.6444444444444445,-0.003557343613744134,-4.725539674643167e-05,-0.0007114687227488268
1590512748.2949984,0.10446087888531619,-4.534460878885317,8.755539121114683,0.4211111111111111,0.4211111111111111,-0.6444444444444445,-0.0030372563845330043,0.00048660640050913714,-0.00048660640050913714
1590512748.3049984,0.11098921382015343,-4.526336928726615,8.770989213820153,0.4158200081606669,0.42355315862670073,-0.6420023969288549,0.00010790648854942732,0.0,-0.0003995790903486278
1590512748.3149984,0.1263547837377262,-4.516354783737726,8.786354783737725,0.4066666666666667,0.42777777777777776,-0.6377777777777778,0.002579292975767405,-0.0011928942323234798,-0.001090830782496456
1590512748.3249984,0.12460851877180984,-4.51,8.752348887369141,0.4066666666666667,0.42777777777777776,-0.6377777777777778,0.0022670695198887805,-0.0022670695198887805,-0.001090830782496456
1590512748.3349984,0.12587906223547166,-4.51,8.736483751058113,0.4066666666666667,0.42777777777777776,-0.6377777777777778,-0.0011567921006533763,-0.001090830782496456,-0.001090830782496456
1590512748.3449984,0.12491576436738093,-4.51491576436738,8.779663057469524,0.4066666666666667,0.42777777777777776,-0.6377777777777778,-0.0016821895842666539,-1.8377364208787888e-05,-0.0005546040733526219
1590512748.3549984,0.13,-4.52,8.8,0.4066666666666667,0.4319376189294283,-0.6377777777777778,0.0016742471397342158,-0.0006594182892168238,-0.0005834163572377599
1590512748.3649983,0.11640184931829976,-4.5064018493183,8.8271963013634,0.4066666666666667,0.4355555555555555,-0.6377777777777778,0.004406653767286481,-0.000698333430130533,-0.001090830782496456
1590512748.3749983,0.11679739345008505,-4.506797393450085,8.765228672049064,0.4066666666666667,0.4355555555555555,-0.6377777777777778,0.004712673310873024,-0.0007414806016092558,-0.0003493501808872002
1590512748.3849983,0.11352217083786724,-4.51,8.75591131664853,0.4066666666666667,0.4355555555555555,-0.6377777777777778,0.00012359385770124333,-0.0003842092371156927,-0.0021198646361422903
1590512748.3949983,0.1302356457267659,-4.525176734295075,8.764941088568309,0.4066666666666667,0.4355555555555555,-0.6377777777777778,-0.001629819933431684,-0.000551841631561228,-0.003272492347489368
1590512748.4049983,0.1296977029192722,-4.529848851459636,8.765075574270181,0.41399805172359616,0.43160788667874733,-0.6377777777777778,-0.0005371715172203112,-0.0021981493130487457,-0.0016115145516609334
1590512748.4149983,0.11614650352104439,-4.513853496478955,8.77,0.4211111111111111,0.42777777777777776,-0.6377777777777778,0.0020114385736434196,-0.0019315332983937548,-0.0020114385736434196
1590512748.4249983,0.126118517450938,-4.497762965098124,8.733288895294372,0.4211111111111111,0.42777777777777776,-0.6377777777777778,0.00393991906536186,-0.0017582575003689481,-0.000602785475999399
1590512748.4349983,0.11157232704402516,-4.520712788259958,8.740712788259959,0.4211111111111111,0.42777777777777776,-0.6377777777777778,0.003693274032980663,-0.0008415633709825908,-0.00024926741151386515
1590512748.4449983,0.11019579118246788,-4.534902104408766,8.7752936867737,0.4211111111111111,0.42777777777777776,-0.6377777777777778,0.0004920216290538919,-0.0016682824310612857,2.1357504877734298e-05
1590512748.4549983,0.12497841268001507,-4.53995682536003,8.799956825360029,0.4238768959333417,0.4316498765289006,-0.6405435626000083,-0.0016386009850598005,-0.0021863711876231448,0.0005477702025633445
1590512748.4649982,0.12419066276435045,-4.532571988293051,8.786762651057401,0.4266666666666667,0.4355555555555555,-0.6433333333333333,-0.00045713039424151664,-0.001090830782496456,0.0
1590512748.4749982,0.12426821951649902,-4.511463560967002,8.744390682901006,0.4266666666666667,0.4355555555555555,-0.6433333333333333,0.0018623620940197124,-0.001556421306001384,-0.0004655905235049281
1590512748.4849982,0.1337658719102018,-4.5,8.725063487640808,0.4266666666666667,0.4355555555555555,-0.6433333333333333,0.002309358628692394,-0.0013600757644755398,-0.0023232094832725146
1590512748.4949982,0.13015932450901466,-4.504920337745492,8.759840675490985,0.4266666666666667,0.4355555555555555,-0.6433333333333333,-0.0016275563698027176,-0.0005367255873062617,-0.0032898719553733
1590512748.5049982,0.12470683573267233,-4.51,8.79353417866336,0.41725299520132203,0.4355555555555555,-0.647517187317931,-0.002181661564992912,-0.0016042669130317791,-0.0032085338260635582
1590512748.5149982,0.13,-4.516058507834587,8.789707460827064,0.4066666666666667,0.4355555555555555,-0.6522222222222223,-0.0008599001966001819,-0.002181661564992912,-0.003041561761593094
1590512748.5249982,0.13,-4.52,8.745679053570576,0.4066666666666667,0.4355555555555555,-0.6522222222222223,0.0013265018512331086,0.00047134213747330534,-0.0015184106393763576
1590512748.5349982,0.12127255931710489,-4.515636279658552,8.743091161024342,0.4066666666666667,0.4355555555555555,-0.6522222222222223,0.0007536374225958287,0.0017056535175272176,-0.0006148227350307616
1590512748.5449982,0.11253273264817683,-4.51,8.775196395889061,0.4066666666666667,0.4355555555555555,-0.6522222222222223,-0.0002619959615569413,0.0002619959615569413,0.0
1590512748.5549982,0.12,-4.516714263947237,8.82,0.4115158572952265,0.4355555555555555,-0.6451349436112502,0.0010830426956751234,-0.002181661564992912,0.0
1590512748.5649981,0.12419758983025939,-4.5258024101697405,8.786419281357926,0.4211111111111111,0.4355555555555555,-0.6311111111111111,-0.0006329447625823547,-0.0026395475849070133,0.0
1590512748.5749981,0.13,-4.501698355301528,8.70949725883588,0.4211111111111111,0.4355555555555555,-0.6311111111111111,0.0013309331604937514,-0.001276092606748741,0.0
1590512748.5849981,0.11882133995037221,-4.506767990074442,8.734714640198511,0.4211111111111111,0.4355555555555555,-0.6311111111111111,0.0015719602405330443,-0.0006097013244598678,0.0006097013244598678
1590512748.5949981,0.11396305821837736,-4.516036941781622,8.781889174655133,0.4211111111111111,0.4355555555555555,-0.6311111111111111,-0.00020607698673302246,-0.0006585281927532965,-0.00020607698673302246
1590512748.604998,0.1134119775077661,-4.513294011246117,8.803294011246118,0.41635309486671995,0.4355555555555555,-0.6380651348529135,-0.0025409824515082993,-0.0010779626595461616,-0.0018223406784775248
1590512748.614998,0.1178249659815226,-4.508116689345651,8.804058344672827,0.4066666666666667,0.4355555555555555,-0.6522222222222223,-0.0006799561355431013,-3.182208255653402e-05,-0.00044269672950988926
1590512748.624998,0.12238381679389314,-4.507616183206107,8.758110992366413,0.4066666666666667,0.4355555555555555,-0.6522222222222223,0.00026003407386106356,0.0017662632106752157,0.0
1590512748.634998,0.10948955916473319,-4.518979118329466,8.694083526682133,0.4066666666666667,0.4355555555555555,-0.6522222222222223,-0.0009237894097707806,0.0009237894097707806,0.0
1590512748.644998,0.10505010770815773,-4.502525053854079,8.775050107708157,0.4066666666666667,0.4355555555555555,-0.6522222222222223,0.002732542859291019,-0.0005290176820985904,0.0002754406471490536
1590512748.654998,0.11814460990915052,-4.509072304954575,8.78814460990915,0.4066666666666667,0.4355555555555555,-0.6522222222222223,0.004160931467522072,0.0037561481425945685,0.00098963495126458
1590512748.664998,0.10829757462686568,-4.5265951492537315,8.811702425373134,0.4211111111111111,0.44222222222222224,-0.6433333333333333,-0.002343963346530398,-0.0018102499646093237,0.00018570580019179405
1590512748.674998,0.10074871383223265,-4.511123070748349,8.81588207392272,0.4211111111111111,0.44222222222222224,-0.6433333333333333,0.0021408255602188993,4.083600477401262e-05,0.0011316667872704686
1590512748.684998,0.12,-4.527908548784989,8.725114314018764,0.4211111111111111,0.44222222222222224,-0.6433333333333333,0.0014205739622561702,0.001090830782496456,0.0015221752054734835
1590512748.694998,0.12,-4.501623588389079,8.763247176778158,0.4211111111111111,0.44222222222222224,-0.6433333333333333,0.002181661564992912,0.0009137247632053299,0.0005313180578733782
1590512748.704998,0.12219368387044666,-4.512193683870446,8.784387367740893,0.4194049125452081,0.43905356774268817,-0.6435770759856052,0.0012244864078132418,0.0,0.0025546109796046154
1590512748.714998,0.12762565994069575,-4.521187170029652,8.798812829970348,0.4133333333333333,0.42777777777777776,-0.6444444444444445,-0.0020521614037527346,0.0,0.0
1590512748.724998,0.1143472452438089,-4.521305509512382,8.75087479280572,0.4133333333333333,0.42777777777777776,-0.6444444444444445,-0.00014240899629484167,0.0,0.0
1590512748.734998,0.11555167272388407,-4.514448327276115,8.708896654552232,0.4133333333333333,0.42777777777777776,-0.6444444444444445,0.0015760680148370423,0.0014557116970217593,0.0004852372323405864
1590512748.744998,0.11,-4.512564297296742,8.74974281081303,0.4133333333333333,0.42777777777777776,-0.6444444444444445,0.002181661564992912,0.0024613830076688336,0.0006852761125861887
1590512748.754998,0.11672619400771285,-4.5,8.813452388015426,0.4088492039948581,0.42553571310854016,-0.6422023797752069,0.0014479476177272745,0.0007239738088636372,-0.0003668569736328188
1590512748.764998,0.1252843373493976,-4.504715662650602,8.835284337349398,0.4,0.4211111111111111,-0.6377777777777778,0.0,0.0,-0.001090830782496456
1590512748.774998,0.11674219856424281,-4.5165156028715145,8.787648581335157,0.4,0.4211111111111111,-0.6377777777777778,-0.0007107420178770189,0.0007107420178770189,-0.0003800887646194371
