time,acc_x,acc_y,acc_z,mag_x,mag_y,mag_z,gyr_x,gyr_y,gyr_z
1590512834.7099905,0.21,-4.47,8.84,0.41,0.2911111111111111,-0.5933333333333334,-0.003272492347489368,0.0,0.0
1590512834.7199905,0.21685686927379164,-4.473143130726208,8.831711823464124,0.41,0.2911111111111111,-0.5933333333333334,0.0032102486898604654,0.001433693157452307,-0.0014959368150812098
1590512834.7299905,0.20251542102998135,-4.476257710514991,8.788711447425046,0.41,0.2911111111111111,-0.5933333333333334,0.004229492542303985,0.0025898820217190102,-0.000408220456726098
1590512834.7399905,0.2002918128532112,-4.47,8.80970818714679,0.41,0.2911111111111111,-0.5933333333333334,0.002742992878391685,0.0049564862876856864,3.183184430108972e-05
1590512834.7499905,0.21605976774857658,-4.451820696754271,8.806059767748577,0.41471315269333736,0.27495173044824023,-0.6061261763581062,0.003272492347489368,0.005883966575486078,0.0004298126630037987
1590512834.7599905,0.19990083763431762,-4.450049581182841,8.784876047042896,0.4177777777777778,0.2644444444444444,-0.6144444444444445,0.003272492347489368,0.00545415391248228,0.0
1590512834.7699904,0.16503638894412406,-4.474963611055876,8.740048518592166,0.4177777777777778,0.2644444444444444,-0.6144444444444445,0.003272492347489368,0.005998246164384071,-0.0010881845038035833
1590512834.7799904,0.17371388159224085,-4.466286118407759,8.725928470398062,0.4177777777777778,0.2644444444444444,-0.6144444444444445,0.005212579748486297,0.007191680495311045,-0.002828357365325222
1590512834.7899904,0.1807603925974604,-4.45923960740254,8.785437644415238,0.4177777777777778,0.2644444444444444,-0.6144444444444445,0.005537099877691505,0.005116103434257115,-0.003272492347489368
1590512834.7999904,0.17347779527559057,-4.463044409448819,8.846522204724408,0.4127542957130359,0.2621259142607174,-0.6090345406824147,0.004363323129985824,0.0010435557224424362,-0.00365186096167286
1590512834.8099904,0.18754681647940075,-4.45,8.8362265917603,0.4033333333333333,0.2577777777777778,-0.5988888888888889,0.004774938116264917,-0.0023256757413337363,-0.003540093157427637
1590512834.8199904,0.20593160406518138,-4.432205187804456,8.78847877154373,0.4033333333333333,0.2577777777777778,-0.5988888888888889,0.004160078651706088,-0.005010360760373919,-0.002828699195381008
1590512834.8299904,0.19782770641325628,-4.438258440380116,8.778258440380116,0.4033333333333333,0.2577777777777778,-0.5988888888888889,0.00393638797438958,-0.004790258285582068,-0.003272492347489368
1590512834.8399904,0.19508447256880188,-4.455084472568802,8.82050683541281,0.4033333333333333,0.2577777777777778,-0.5988888888888889,0.0032540632918242433,-0.004363323129985824,-0.0016086025902469978
1590512834.8499904,0.19514406421630756,-4.46,8.85,0.3995564943904615,0.26425235882270104,-0.5994284373092992,0.002711361988060688,-0.0022445214377147184,-0.0010594008461355527
1590512834.8599904,0.20979394370023616,-4.464948485925059,8.830206056299764,0.3955555555555556,0.27111111111111114,-0.6,0.004352084502250338,-0.0016193882321414547,-0.0016418654876124272
1590512834.8699903,0.21649158146782715,-4.4564915814678265,8.779606058302612,0.3955555555555556,0.27111111111111114,-0.6,0.005822538881425773,-0.002535722409602381,-0.0018276007203834432
1590512834.8799903,0.19498927151851983,-4.439978543037039,8.72997854303704,0.3955555555555556,0.27111111111111114,-0.6,0.007089229790442161,-0.0021793209734233075,-0.003272492347489368
1590512834.8899903,0.20211585552494643,-4.47,8.787594505662687,0.3955555555555556,0.27111111111111114,-0.6,0.008726646259971648,-0.006314180661186059,-0.003702505721841258
1590512834.8999903,0.19370422433679355,-4.47,8.833704224336794,0.39390923362809177,0.27111111111111114,-0.591768390362681,0.008726646259971648,-0.0072317472842905,-0.003959254936801133
1590512834.9099903,0.19078793353281018,-4.46078793353281,8.826181900299215,0.3911111111111111,0.27111111111111114,-0.5777777777777777,0.008726646259971648,-0.007047424978619437,-0.00377493263113007
1590512834.9199903,0.19875838689172964,-4.459379193445865,8.74903524260188,0.3911111111111111,0.27111111111111114,-0.5777777777777777,0.007191979321110894,-0.007635815477475192,-0.0028286561911250703
1590512834.9299903,0.20580286000738748,-4.465267620002463,8.722591419977837,0.3911111111111111,0.27111111111111114,-0.5777777777777777,0.004937931334903838,-0.008152038055053634,-0.0026394985152317814
1590512834.9399903,0.19,-4.454043451272502,8.790847920546245,0.3911111111111111,0.27111111111111114,-0.5777777777777777,0.004688202465455594,-0.007102249582622798,-0.003388685123576514
1590512834.9499903,0.19,-4.44604865307568,8.83395134692432,0.39245525623904004,0.27111111111111114,-0.5888669750831913,0.005124251064102594,-0.002612686650729996,-0.0017506364792558282
1590512834.9599903,0.20087940746922595,-4.4563735308435914,8.834505876625634,0.3955555555555556,0.27111111111111114,-0.6144444444444445,0.0039677367112273725,-0.0022775900387718095,-0.0028769059287309167
1590512834.9699903,0.21094642001341896,-4.45,8.805678520080514,0.3955555555555556,0.27111111111111114,-0.6144444444444445,0.003272492347489368,-0.0038695269429280016,-0.0007002730038194443
1590512834.9799902,0.2,-4.4459364000485495,8.748127199902902,0.3955555555555556,0.27111111111111114,-0.6144444444444445,0.0019426823730514019,-0.0014994123815720796,-0.00023897919194151027
1590512834.9899902,0.2044856684706354,-4.4444856684706355,8.782428342353176,0.3955555555555556,0.27111111111111114,-0.6144444444444445,-0.0004893105247842892,0.0020694518320650344,-0.0031602826145614906
1590512834.9999902,0.2016549092170695,-4.45,8.830862726957326,0.3937010909371266,0.27111111111111114,-0.6084174344345502,-0.0006356766870590541,0.002817338252051966,-0.0025427067482362165
1590512835.0099902,0.1943336515892907,-4.445666348410709,8.846999045232128,0.3911111111111111,0.27111111111111114,-0.6,-0.000472728055421297,0.0017089335095716149,0.0
1590512835.0199902,0.19579447430928867,-4.444205525690712,8.783739217402175,0.3911111111111111,0.27111111111111114,-0.6,0.0002854242815058235,-0.0002854242815058235,-0.0004587516880007598
1590512835.0299902,0.19505726510502205,-4.460114530210044,8.725057265105022,0.3911111111111111,0.27111111111111114,-0.6,0.0016299995198125904,-0.0016299995198125904,-0.001090830782496456
1590512835.0399902,0.2058412717860753,-4.464158728213925,8.759206358930376,0.3911111111111111,0.27111111111111114,-0.6,0.001728014689814354,-0.0014094227361554049,-0.0004536468751785579
1590512835.0499902,0.21868870034000062,-4.4513112996599995,8.823443501700003,0.3911111111111111,0.27111111111111114,-0.6,0.003129451744068921,-0.0021101412632826885,0.000947790179076009
1590512835.0599902,0.19257969471743305,-4.45,8.83,0.3955555555555556,0.2788888888888889,-0.5866666666666667,0.005735554953204225,-0.0027444636464368033,-0.004081922089263878
1590512835.0699902,0.2,-4.45,8.817233201581027,0.3955555555555556,0.2788888888888889,-0.5866666666666667,0.006196824277245183,-0.004247269657407973,-0.0030403854023336664
1590512835.0799901,0.19672888125723245,-4.446728881257233,8.729626712456605,0.3955555555555556,0.2788888888888889,-0.5866666666666667,0.002558844943926977,-0.002202021242145782,-0.001804478186058847
1590512835.0899901,0.1932762360269173,-4.443276236026918,8.78146682609421,0.3955555555555556,0.2788888888888889,-0.5866666666666667,0.001090830782496456,0.000178690955444264,-0.002736419481156576
1590512835.0999901,0.20275744265495363,-4.452757442654954,8.843621278672522,0.39837210563418474,0.280900710373624,-0.5914950382300309,0.003065931906489551,0.001485851007295075,0.0
1590512835.1099901,0.2055107308798584,-4.445170243626619,8.824148781866903,0.4033333333333333,0.28444444444444444,-0.6,0.004853026424701948,0.0016176754749006495,-0.0011279721801845252
1590512835.11999,0.21614458872961803,-4.45,8.773012121107326,0.4033333333333333,0.28444444444444444,-0.6,0.002431372088906086,0.001090830782496456,-0.0017611014357012708
1590512835.12999,0.21247900947958986,-4.4475209905204105,8.73495801895918,0.4033333333333333,0.28444444444444444,-0.6,0.0016316667525838845,0.001090830782496456,-0.0008204127974527418
1590512835.13999,0.20724230456718506,-4.444252565144272,8.767010260577086,0.4033333333333333,0.28444444444444444,-0.6,0.0018808436583064687,0.001090830782496456,0.0
1590512835.14999,0.19739835050223034,-4.453699175251115,8.808495876255575,0.4033333333333333,0.2823893470827138,-0.5975338831659233,0.0008070348467530983,0.0002837959357433577,-0.00040351742337654914
1590512835.15999,0.21475580379031742,-4.455244196209683,8.854267411370952,0.4033333333333333,0.2788888888888889,-0.5933333333333334,0.0027004392819920684,-0.0005720530654972994,-0.0016096084994956126
1590512835.16999,0.21554015480751923,-4.445540154807519,8.81648185769023,0.4033333333333333,0.2788888888888889,-0.5933333333333334,0.0027859987053766816,-0.0004864936421126864,-0.0012086742807675393
1590512835.17999,0.2149200453438171,-4.449840090687634,8.764760136031452,0.4033333333333333,0.2788888888888889,-0.5933333333333334,0.0037917426386871213,-0.0027009118561906655,-0.0005366936912314031
1590512835.18999,0.2132398789193389,-4.456619939459669,8.790140181620991,0.4033333333333333,0.2788888888888889,-0.5933333333333334,0.004348031687254032,-0.004363323129985824,-0.001090830782496456
1590512835.19999,0.200410604337425,-4.450410604337425,8.811231813012276,0.403013974404225,0.2788888888888889,-0.5936070695582834,0.002181661564992912,-0.004408113115054799,-0.001046040797427481
1590512835.20999,0.20416081056268673,-4.457080405281343,8.842919594718657,0.3955555555555556,0.2788888888888889,-0.6,0.002181661564992912,-0.004817197154177334,-0.0003184783791524731
1590512835.21999,0.1901585738369861,-4.450079286918493,8.849920713081506,0.3955555555555556,0.2788888888888889,-0.6,0.002181661564992912,-0.0032897900697576687,-0.0010821819213623054
1590512835.22999,0.20478819796539202,-4.45,8.760423604069215,0.3955555555555556,0.2788888888888889,-0.6,0.003226284311660219,-0.002181661564992912,-0.002181661564992912
1590512835.23999,0.19106833273363646,-4.45,8.787863334532727,0.3955555555555556,0.2788888888888889,-0.6,0.0002330740463598463,-0.002181661564992912,-0.002181661564992912
1590512835.24999,0.21189805103557827,-4.444305846893266,8.84,0.39703181747211647,0.2788888888888889,-0.5987346326429478,0.0028584018482177564,-0.000828180998543223,-0.003272492347489368
1590512835.25999,0.21915134370579914,-4.420848656294201,8.8391513437058,0.4033333333333333,0.2788888888888889,-0.5933333333333334,0.0013685529053385523,-0.004178175048091093,-0.003272492347489368
1590512835.26999,0.21,-4.4332697533353205,8.803841973317438,0.4033333333333333,0.2788888888888889,-0.5933333333333334,0.004363323129985824,-0.001824986806059138,-0.003272492347489368
1590512835.27999,0.21,-4.44,8.75,0.4033333333333333,0.2788888888888889,-0.5933333333333334,0.0039196059375484205,-0.0013866422441213917,-0.0031245866166769
1590512835.28999,0.21353799882629107,-4.443537998826291,8.764151995305165,0.4033333333333333,0.2788888888888889,-0.5933333333333334,0.001090830782496456,-0.0025006207418584395,-0.0014097899593619838
1590512835.29999,0.2176744105409154,-4.45,8.803953536754507,0.4066925181075666,0.2770800970873787,-0.5933333333333334,0.0018518781533220867,-0.00159819569638021,-0.00025368245694187694
1590512835.30999,0.2061127136437668,-4.4383381409313,8.857774572712465,0.4177777777777778,0.27111111111111114,-0.5933333333333334,0.003091211644658527,-0.0028484551857136022,-0.0006667936207206903
1590512835.31999,0.2,-4.432699458696164,8.83825135325959,0.4177777777777778,0.27111111111111114,-0.5933333333333334,0.0028224508408486787,-0.002874309588333801,-0.0010389720350113339
1590512835.32999,0.2,-4.442505250385028,8.77,0.4177777777777778,0.27111111111111114,-0.5933333333333334,0.007976270550884679,-0.007225894841797707,-0.00470377820339531
1590512835.33999,0.19749908838461755,-4.4149981767692354,8.77,0.4177777777777778,0.27111111111111114,-0.5933333333333334,0.007362212805542195,-0.010362693550092134,-0.004908141870361462
1590512835.34999,0.19161664469439849,-4.4032332893887975,8.77,0.4177777777777778,0.27111111111111114,-0.5933333333333334,0.0015871372173084895,-0.009079343419373534,-0.0010580914782056588
1590512835.35999,0.20924618728289338,-4.423015250868426,8.824723310980254,0.4177777777777778,0.27111111111111114,-0.6222222222222222,-0.007224674419446602,-0.006709441118190171,0.0
1590512835.3699899,0.2014548696895956,-4.454180521241618,8.770184087827168,0.4177777777777778,0.27111111111111114,-0.6222222222222222,-0.002975169885958884,-0.00840924293158526,0.0
1590512835.3799899,0.041510714066433356,-4.250387732547431,8.445361024129674,0.4177777777777778,0.27111111111111114,-0.6222222222222222,-0.02285932449976617,-0.02563160995224266,0.00198478693583172
1590512835.3899899,0.24206042869572097,-4.551909356956418,9.06301510717393,0.4177777777777778,0.27111111111111114,-0.6222222222222222,-0.03591501897058488,-0.04531593894448596,0.004050905328560555
1590512835.3999898,0.2608698051116322,-4.491739610223264,9.028261966224605,0.41589376930874955,0.27212557720981867,-0.6184542052841657,0.0046003967047814455,-0.014655119285831403,0.012331093201310756
1590512835.4099898,0.2030139712692376,-4.376027942538475,8.763778154373657,0.4039552639126998,0.27855400319230694,-0.5945771944920664,0.01992733551247905,-0.0038361036568683882,0.021346939558779934
1590512835.4199898,0.17,-4.409091910607491,8.77,0.4033333333333333,0.2788888888888889,-0.5933333333333334,0.0008923730575096916,-0.02261027487364349,0.024989879134925102
1590512835.4299898,0.17162310866574967,-4.4602497090255,8.76987514548725,0.4033333333333333,0.2788888888888889,-0.5933333333333334,-0.005399675854145773,-0.0395150594323867,0.021762137591592613
1590512835.4399898,0.2777052063555511,-4.474426301588888,8.782294793644448,0.4033333333333333,0.2788888888888889,-0.5933333333333334,-0.0007868326925368161,-0.06012085461464719,0.015933302070145094
1590512835.4499898,0.19817639380943503,-4.449088196904717,8.847274535396854,0.4033333333333333,0.277474395895056,-0.5971726714594513,0.001983821784812375,-0.06267303884935074,0.012792667321385965
1590512835.4599898,0.0824461030056426,-4.368402985410157,8.851913764809028,0.4033333333333333,0.27111111111111114,-0.6144444444444445,0.009759407953311535,-0.05884679316565205,0.023255860967364976
1590512835.4699898,0.024889950315627775,-4.30058373136836,8.768612437894536,0.4033333333333333,0.27111111111111114,-0.6144444444444445,0.00626627472018876,-0.05329934879659962,0.04626897150203128
1590512835.4799898,-0.03,-4.301491552695093,8.755263992644524,0.4033333333333333,0.27111111111111114,-0.6144444444444445,0.0019328553621492774,-0.04547998361851613,0.07910452593366243
1590512835.4899898,-0.02292611251049538,-4.338210187517492,8.868210187517493,0.4033333333333333,0.27111111111111114,-0.6144444444444445,0.00045245206259718644,-0.04369520685229226,0.11076893539516629
1590512835.4999897,0.004887008745588848,-4.303258005830393,8.831629002915196,0.4033333333333333,0.27056811013937904,-0.6127249413672928,0.004832215628846881,-0.03964995234249984,0.1401101283815623
1590512835.5099897,0.0598850125989282,-4.339961670866309,8.849923341732618,0.4033333333333333,0.2644444444444444,-0.5933333333333334,-0.0021858426248825245,-0.031614581079579034,0.17020723160845366
1590512835.5199897,0.003665467406549182,-4.3296381893204865,8.775972721913938,0.4033333333333333,0.2644444444444444,-0.5933333333333334,-0.005760181647100571,-0.016974517206683422,0.2084968375007819
1590512835.5299897,0.08154835045691569,-4.3732386803655325,8.73492901027415,0.4033333333333333,0.2644444444444444,-0.5933333333333334,-0.006360598305289366,-0.01817535052306101,0.23512824007272543
1590512835.5399897,0.07685012594458437,-4.352283375314862,8.720236146095719,0.4033333333333333,0.2644444444444444,-0.5933333333333334,-0.005007517782268681,-0.017032415932767237,0.25751334329827624
1590512835.5499897,0.2170536103443266,-4.403682987069592,8.770312363794856,0.4018601385054966,0.2664087042148934,-0.5928422683907212,-0.003674243914194078,-0.019876005024959037,0.2707670849991439
1590512835.5599897,0.18658506465204125,-4.441768669184949,8.876952273717857,0.386625865659354,0.2867210680097503,-0.5877641774420069,-0.007828747356574657,-0.022368707090387383,0.27325978706457227
1590512835.5699897,0.31987849917036876,-4.440415886099663,8.779046726971043,0.38333333333333336,0.2911111111111111,-0.5866666666666667,-0.007889153526249592,-0.013882095987727067,0.2772203708464633
1590512835.5799897,0.15524648075790826,-4.388032971150244,8.719180538457422,0.38333333333333336,0.2911111111111111,-0.5866666666666667,-0.01523584016815649,-0.012249498956192203,0.2780366693622307
1590512835.5899897,0.06049673328209071,-4.3009071867794,8.714622213681784,0.38333333333333336,0.2911111111111111,-0.5866666666666667,-0.020148571046187374,0.006544984694978735,0.288547128735795
1590512835.5999897,0.02019792467332821,-4.389564565718677,8.988654112221369,0.38333333333333336,0.2911111111111111,-0.5866666666666667,-0.03157795808756392,0.006544984694978735,0.2955805976843344
1590512835.6099896,-0.10790541876792248,-4.25667358845051,8.775831602887372,0.4177777777777778,0.2644444444444444,-0.5933333333333334,-0.03276971408919524,0.01113452604493793,0.3357899231063054
1590512835.6199896,-0.19171058378220995,-4.208289416217791,8.787236861260736,0.4177777777777778,0.2644444444444444,-0.5933333333333334,-0.040590370821853496,0.022950482557342822,0.38516363091109285
1590512835.6299896,-0.1718762799978995,-4.241257679987397,8.7781237200021,0.4177777777777778,0.2644444444444444,-0.5933333333333334,-0.04751973484083495,0.03409013746634661,0.4350435138715862
1590512835.6399896,-0.1650757634475275,-4.29,8.797716439311735,0.4177777777777778,0.2644444444444444,-0.5933333333333334,-0.05017821599483697,0.04472406208235469,0.4873912171693513
1590512835.6499896,-0.11296189711945544,-4.292591659979523,8.897408340020476,0.4182302898376946,0.2641976196844898,-0.5938681203132351,-0.04977434992577577,0.04343169066135886,0.5278001599046289
1590512835.6599896,-0.1813451284537082,-4.353076102762967,8.826538051381483,0.43,0.2577777777777778,-0.6077777777777778,-0.0385146281457726,0.001509396777370036,0.554981496039606
1590512835.6699896,-0.13648977211555716,-4.262081239906693,8.7608568096178,0.43,0.2577777777777778,-0.6077777777777778,-0.03548094473437574,-0.039710703239347035,0.5724769201670922
1590512835.6799896,-0.13787918181094633,-3.977622104900114,8.575385615366248,0.43,0.2577777777777778,-0.6077777777777778,-0.04102953950906357,-0.04300509127030141,0.5913676906489159
1590512835.6899896,-0.26684241847179246,-3.958012774736174,8.865614139490598,0.43,0.2577777777777778,-0.6077777777777778,-0.05400560131595047,-0.0181358515575349,0.622449786672321
1590512835.6999896,-0.33847459770478333,-4.211220321836174,8.88908475862287,0.4297627151985218,0.2576082886338648,-0.6077777777777778,-0.031926224700823375,-0.01792658017000119,0.6342312122167983
1590512835.7099895,-0.26038037249283663,-4.201531518624642,8.814224212034384,0.4222222222222222,0.25222222222222224,-0.6077777777777778,-0.008894802982316374,-0.06586914479927705,0.6032698209665681
1590512835.7199895,-0.0859860290166577,-3.8715260612573887,8.634288017195056,0.4222222222222222,0.25222222222222224,-0.6077777777777778,-0.022868174179643597,-0.05121101762770036,0.5676997570133813
1590512835.7299895,0.2617413065172335,-3.1374350195747294,8.428227373915712,0.4222222222222222,0.25222222222222224,-0.6077777777777778,-0.05096533577340969,-0.014684707555804442,0.5452220277383684
1590512835.7399895,0.4152585748471151,-2.708466830630152,8.814366192501994,0.4222222222222222,0.25222222222222224,-0.6077777777777778,-0.1844981763136059,0.09984121674605334,0.6022649032397658
1590512835.7499895,0.31767781175219356,-2.8827181932996546,9.72744333289019,0.4222222222222222,0.25222222222222224,-0.6077777777777778,-0.18753943631827547,0.04433822166083388,0.6722138833471657
1590512835.7599895,-0.050579608799025,-2.775216479191225,8.162411540228968,0.4222222222222222,0.24,-0.6077777777777778,0.06839605555379999,-0.066498527390965,0.8138752957792388
1590512835.7699895,-0.07571976583884438,-3.0014778925495995,9.134497612435316,0.4222222222222222,0.24,-0.6077777777777778,-0.040384451243658886,-0.064670283579243,0.9135145835180876
1590512835.7799895,-0.1214199211251876,-3.080422992356821,8.921903465605695,0.4222222222222222,0.24,-0.6077777777777778,-0.030279624483844577,-0.06918700739889821,1.0633919131427447
1590512835.7899895,-0.17265382333438034,-2.9925934457124908,8.526670505706209,0.4222222222222222,0.24,-0.6077777777777778,-0.009521403647170051,-0.0859532626900584,1.1360456860711055
1590512835.7999895,-0.30172632946861866,-3.138849113687588,9.002806960547423,0.4228616035068958,0.24,-0.6075539943281419,-0.05786913892600364,-0.09316001428805543,1.2554436794031834
1590512835.8099895,-0.35282543807996103,-3.104783041280026,8.789894008000163,0.44178719928887444,0.24,-0.6009300358044495,-0.027211874578743543,-0.1061661264353779,1.3492734884660096
1590512835.8199894,-0.3723895880741188,-3.2123895880741187,8.925662471555286,0.4444444444444444,0.24,-0.6,-0.042378089476493006,-0.1253491874050877,1.4980022803709518
1590512835.8299894,-0.38764940239043827,-3.2333864541832673,8.895298804780877,0.4444444444444444,0.24,-0.6,-0.03678403084880479,-0.13428518067074896,1.588575564767777
1590512835.8399894,-0.4223431580892544,-3.291171579044627,8.96,0.4444444444444444,0.24,-0.6,-0.04466016235805433,-0.14411746273813286,1.664137798672537
1590512835.8499894,-0.4533460223597894,-3.3066730111798948,8.96,0.4444444444444444,0.24,-0.6,-0.04381469039075786,-0.14580840667272585,1.7300846121216624
1590512835.8599894,-0.48313676260871313,-3.3208490168116174,8.861108321449375,0.4488888888888889,0.19111111111111112,-0.6,-0.03817907738737596,-0.14667043356212486,1.8423360905152655
1590512835.8699894,-0.46438589981447126,-3.2962655711635303,8.738771799628942,0.4488888888888889,0.19111111111111112,-0.6,-0.03831577094527799,-0.14869472031427308,1.9090330868706276
1590512835.8799894,-0.5162634508348795,-3.370376358335542,8.842526901669759,0.4488888888888889,0.19111111111111112,-0.6,-0.039932617504523454,-0.15273683671238675,1.9615806000461056
1590512835.8899894,-0.5822373555860622,-3.4377626444139375,8.945830081288273,0.4488888888888889,0.19111111111111112,-0.6,-0.05179040974607423,-0.1545393132354004,2.045906899285025
1590512835.8999894,-0.6016461260816585,-3.4183538739183414,8.822907868149496,0.4488888888888889,0.19111111111111112,-0.6,-0.04685035007443964,-0.16089081852750203,2.08895599070927
1590512835.9099894,-0.6744953526938949,-3.41,8.834495352693894,0.47857722584322143,0.14913794507222713,-0.6071661502993216,-0.05678466483317748,-0.16864986852064456,2.159747683703385
1590512835.9199893,-0.7073255684722932,-3.4119767054168797,8.849302273889172,0.4811111111111111,0.14555555555555555,-0.6077777777777778,-0.052721370283300935,-0.17737099101754872,2.212791473656074
1590512835.9299893,-0.6700337860365868,-3.30010135810976,8.700135144146346,0.4811111111111111,0.14555555555555555,-0.6077777777777778,-0.042551614229543615,-0.18652377146593035,2.2361819125797164
1590512835.9399893,-0.779198697068404,-3.3623992554676594,8.91059748720335,0.4811111111111111,0.14555555555555555,-0.6077777777777778,-0.05105077910098466,-0.18142703665672022,2.24215896912627
1590512835.9499893,-0.8184922894759099,-3.3035693947168108,8.91055397366863,0.4811111111111111,0.14555555555555555,-0.6077777777777778,-0.05622980357458429,-0.1836925394215925,2.2419861894403708
1590512835.9599893,-0.8654718661337419,-3.2975786443556236,8.892421355644377,0.4769007531357647,0.11187269175278372,-0.6128302073481936,-0.048456182137108395,-0.17939019111027665,2.2300834320564267
1590512835.9699893,-0.8986541187973601,-3.2932705939868003,9.025101197751162,0.4755555555555556,0.10111111111111112,-0.6144444444444445,-0.049580698835096984,-0.17285484295876727,2.1924025285501925
1590512835.9799893,-0.883502069699142,-3.205253104548713,8.694008278796568,0.4755555555555556,0.10111111111111112,-0.6144444444444445,-0.02789901322353746,-0.16461994402120803,2.155356254962413
1590512835.9899893,-0.9235334010152285,-3.2660572588832486,8.852619289340101,0.4755555555555556,0.10111111111111112,-0.6144444444444445,-0.04686107156902247,-0.16417523774508488,2.1057677386755054
1590512835.9999893,-0.9831478172588832,-3.3682534010152283,9.065527918781726,0.4755555555555556,0.10111111111111112,-0.6144444444444445,-0.06451186536993066,-0.1734651292192471,2.0583892921572784
1590512836.0099893,-1.0236407496752644,-3.261820374837632,8.79182037483763,0.5022222222222222,0.042222222222222223,-0.6288888888888889,-0.033122067656607926,-0.14874881488401454,1.9993869596844864
1590512836.0199893,-1.054773056225645,-3.2773865281128223,8.807386528112822,0.5022222222222222,0.042222222222222223,-0.6288888888888889,-0.036518075488135016,-0.14280580117884212,1.9518428500431075
1590512836.0299892,-1.1113869063693531,-3.259167856178388,8.81027738127387,0.5022222222222222,0.042222222222222223,-0.6288888888888889,-0.04775449360422315,-0.15120187232217078,1.8677474745939577
1590512836.0399892,-1.1518396281007677,-3.2348962231395393,8.818367925620153,0.5022222222222222,0.042222222222222223,-0.6288888888888889,-0.04069416174816068,-0.13884629157406145,1.8112648197454586
1590512836.0499892,-1.2047732553280401,-3.202016715419975,8.84238662766402,0.5022222222222222,0.042222222222222223,-0.6288888888888889,-0.036827905912652434,-0.135132846683447,1.754693749360583
1590512836.0599892,-1.2667294923966588,-3.173317626900835,8.920141357892481,0.49405487732324316,0.007325384926584327,-0.633343804288332,-0.040009121833573164,-0.13781685538541164,1.6571899378625061
1590512836.0699892,-1.3014212058370276,-3.149431517665189,8.927726070660755,0.49,-0.01,-0.6355555555555555,-0.0391148786623431,-0.12519749277504555,1.5320703916399976
1590512836.0799892,-1.3413205608721297,-3.133471775651148,8.863887102604592,0.49,-0.01,-0.6355555555555555,-0.03476253419493867,-0.11823374162719842,1.4554691290136794
1590512836.0899892,-1.3693219640474135,-3.1106780359525867,8.901525237459769,0.49,-0.01,-0.6355555555555555,-0.03311318781868319,-0.113908627972293,1.3734671233130793
1590512836.0999892,-1.3954760279538436,-3.1232140419307655,8.945476027953843,0.49,-0.01,-0.6355555555555555,-0.029348577938328017,-0.10222653398743797,1.2639230239203516
1590512836.1099892,-1.4,-3.103800644050026,9.048247584812401,0.4950943192124949,-0.02964951696248034,-0.6355555555555555,-0.024789217350931217,-0.09212083521922422,1.171723077982726
1590512836.1199892,-1.4879953598024174,-3.0284032481383076,8.897610672454439,0.4977777777777778,-0.04,-0.6355555555555555,-0.0113888807697062,-0.07107944488813386,1.0451951299102389
1590512836.1299891,-1.5397091990158558,-2.9869090008201202,8.903090999179879,0.4977777777777778,-0.04,-0.6355555555555555,-0.022812282032900102,-0.07016620651843583,0.9550479210815518
1590512836.1399891,-1.5920480358822253,-2.9780120089705564,8.871927946176662,0.4977777777777778,-0.04,-0.6355555555555555,-0.020712685112683735,-0.06391220405049318,0.8234396933599605
1590512836.1499891,-1.6531341636121293,-2.98,8.867590594801731,0.4977777777777778,-0.04,-0.6355555555555555,-0.017716117855720984,-0.05058527834823525,0.7186972551272407
1590512836.159989,-1.7073642234006157,-2.947364223400616,8.92472844680123,0.5188888888888888,-0.07444444444444444,-0.6577777777777778,-0.01000915612582758,-0.042159042350642835,0.587543085741967
1590512836.169989,-1.6804592884023264,-2.920459288402326,8.870918576804652,0.5188888888888888,-0.07444444444444444,-0.6577777777777778,-0.0119657382123076,-0.038245878177682796,0.5053666381098062
1590512836.179989,-1.7502582064216894,-2.9501291032108448,8.800602481650609,0.5188888888888888,-0.07444444444444444,-0.6577777777777778,-0.009831560018118956,-0.03381105993217318,0.421822910060942
1590512836.189989,-1.81,-2.979885324655199,8.94,0.5188888888888888,-0.07444444444444444,-0.6577777777777778,-0.013058696540931926,-0.03268114148625792,0.34540557472345973
1590512836.199989,-1.81,-2.963635905780257,8.94,0.5188888888888888,-0.07444444444444444,-0.6577777777777778,-0.008627354964315541,-0.026477263278994974,0.2904569391734166
1590512836.209989,-1.81,-2.96,8.966259628180829,0.51378285007595,-0.06860897151537149,-0.6716370259843261,-0.009784176284217112,-0.022940747190676566,0.2359107536706718
1590512836.219989,-1.8472761626819323,-2.96,9.00795712201145,0.5111111111111111,-0.06555555555555556,-0.6788888888888889,-0.009891758182294631,-0.012667668865899746,0.14976020588109976
1590512836.229989,-1.8663370589792139,-2.9763370589792135,8.895640587145504,0.5111111111111111,-0.06555555555555556,-0.6788888888888889,-0.000906993627474862,-0.0030886551924677735,0.09429073860656717
1590512836.239989,-1.9021355766886126,-2.9639322116556936,8.902135576688613,0.5111111111111111,-0.06555555555555556,-0.6788888888888889,-0.0032909787506553035,0.004167340657285656,0.03207414888517024
1590512836.249989,-1.91,-2.945521676887246,8.924478323112753,0.5111111111111111,-0.06555555555555556,-0.6788888888888889,-0.004363323129985824,0.008612834018546674,-0.023007227346933123
1590512836.259989,-1.91,-2.952331683273492,8.917668316726507,0.507000550019947,-0.07651705179865965,-0.697386413799127,-0.001672967187041453,0.010490066028204197,-0.07020900151373269
1590512836.269989,-1.9186189359783588,-2.968618935978359,8.901381064021642,0.5044444444444445,-0.08333333333333333,-0.7088888888888889,-0.0009401800677560077,0.016549388231500605,-0.13739730762026578
1590512836.279989,-1.91396596216259,-2.97603403783741,8.833625583788491,0.5044444444444445,-0.08333333333333333,-0.7088888888888889,0.0008838034822420823,0.018769715363102322,-0.17535821946468624
1590512836.289989,-1.9037906190266136,-2.9862093809733863,8.814837523893544,0.5044444444444445,-0.08333333333333333,-0.7088888888888889,0.0035363383461964213,0.02437632281914849,-0.2270936144251481
1590512836.299989,-1.8811180754536772,-3.0088819245463228,8.83,0.5044444444444445,-0.08333333333333333,-0.7088888888888889,0.0023036246771953868,0.025897637260551106,-0.2808560643907064
1590512836.309989,-1.87978555541567,-3.03957111083134,9.015925552897729,0.5098808641198167,-0.045278395605727856,-0.7578166659672387,-0.009583554288741265,0.022954230983170943,-0.35977841386082926
1590512836.319989,-1.8532524209167205,-3.04,8.96650484183344,0.51,-0.04444444444444445,-0.7588888888888888,-0.003982060518208173,0.03166057121881548,-0.4194191542489262
1590512836.329989,-1.754219752736882,-2.9703416383540957,8.768439505473763,0.51,-0.04444444444444445,-0.7588888888888888,-0.000423036654678517,0.04222310911759652,-0.4844537683766016
1590512836.339989,-1.7465944479609368,-3.019350031648431,8.838916719414053,0.51,-0.04444444444444445,-0.7588888888888888,-0.0021580280488082523,0.04794928739747474,-0.543409501493924
1590512836.349989,-1.7374220408163266,-3.0625779591836735,8.827110204081633,0.51,-0.04444444444444445,-0.7588888888888888,0.011819975216899148,0.06458466230629874,-0.6133190286504621
1590512836.359989,-1.7132346147011788,-3.086765385298821,9.007950008884677,0.48298910146301016,-0.04444444444444445,-0.7821741462483629,0.006095226175938408,0.06394156324507863,-0.7114652220821761
1590512836.369989,-1.6651785143868099,-3.143785782735828,8.843821166179326,0.4777777777777778,-0.04444444444444445,-0.7866666666666666,0.011095317343343746,0.07586729834504315,-0.7948300421983507
1590512836.379989,-1.652044869902585,-3.173865390292245,8.812044869902586,0.4777777777777778,-0.04444444444444445,-0.7866666666666666,0.013734678765265858,0.08872999658297986,-0.8696697519928781
1590512836.389989,-1.6413322222520899,-3.17133222225209,8.80133222225209,0.4777777777777778,-0.04444444444444445,-0.7866666666666666,0.010398768659150714,0.09068427785137649,-0.9568130091657281
1590512836.399989,-1.6334137611738309,-3.189758716478507,8.865862388261691,0.4777777777777778,-0.04444444444444445,-0.7866666666666666,0.009817477042468105,0.09700497979441848,-1.0236057860835328
1590512836.4099889,-1.6112529842759529,-3.2328072775170824,8.9,0.4595515124905098,-0.059025456674258854,-0.7804176614253177,0.008794985950881322,0.10137892308126073,-1.0925288576809646
1590512836.4199889,-1.5842327361155815,-3.293069055537675,8.865396416693487,0.4388888888888889,-0.07555555555555556,-0.7733333333333333,0.006377593682294392,0.10694186983779966,-1.1861780452582644
1590512836.4299889,-1.564273127753304,-3.3204845814977975,8.80330396475771,0.4388888888888889,-0.07555555555555556,-0.7733333333333333,0.007741534760360312,0.11360498030395909,-1.2640470220817743
1590512836.4399889,-1.4924695907269605,-3.29338973955352,8.890290855752719,0.4388888888888889,-0.07555555555555556,-0.7733333333333333,0.007535442811026248,0.12299448786358588,-1.3480926389296055
1590512836.4499888,-1.3853955530107835,-3.2163164424086266,8.825265769634507,0.4388888888888889,-0.07555555555555556,-0.7733333333333333,0.013793143541666941,0.12931367445095213,-1.4343915756282597
1590512836.4599888,-1.4125707180603047,-3.3009511967671745,8.865458501709668,0.4388888888888889,-0.07734742513729147,-0.7428715504438227,0.012809547550627484,0.15091882929522538,-1.5304627145017133
1590512836.4699888,-1.4426464204593252,-3.405878522755952,8.928969630688988,0.4388888888888889,-0.07777777777777778,-0.7355555555555555,-0.005645817845545466,0.15391953618817947,-1.5963480307353255
1590512836.4799888,-1.3727901614142968,-3.4808839354342815,8.808743274404303,0.4388888888888889,-0.07777777777777778,-0.7355555555555555,-0.007691572777272282,0.165349739845634,-1.683700247378006
1590512836.4899888,-1.3243099174290658,-3.4835774793572667,8.737887396786332,0.4388888888888889,-0.07777777777777778,-0.7355555555555555,-0.0033523889469884664,0.17678524282709465,-1.750346960761995
1590512836.4999888,-1.2773103448275862,-3.4745517241379313,8.796275862068965,0.4388888888888889,-0.07777777777777778,-0.7355555555555555,-0.005747549778119258,0.1787006510856608,-1.8166846311114253
1590512836.5099888,-1.2288050342634478,-3.475298741434138,8.86,0.46243885081839126,-0.0701240401506895,-0.7355555555555555,-0.006414634154032772,0.1749805776849717,-1.8853723670000302
1590512836.5199888,-1.1599590527537023,-3.5157435337473553,8.809959052753701,0.4833333333333333,-0.06333333333333334,-0.7355555555555555,0.008113523873795384,0.18279972966977243,-1.9621292830797405
1590512836.5299888,-1.0910000729447809,-3.570833272546016,8.732833418435577,0.4833333333333333,-0.06333333333333334,-0.7355555555555555,0.023780095144340277,0.186532063806894,-2.0261817485000604
1590512836.5399888,-1.0373280246086676,-3.5714656049217335,8.856550321252264,0.4833333333333333,-0.06333333333333334,-0.7355555555555555,0.02617993877991494,0.1846701476346221,-2.085921849486088
1590512836.5499887,-0.9865415770537276,-3.6496737754014994,8.86551385901791,0.4833333333333333,-0.06333333333333334,-0.7355555555555555,0.03329080660619658,0.18830088436761303,-2.1323197308000306
1590512836.5599887,-0.9175902831502398,-3.6450601887668266,8.894939811233174,0.4959504873897571,-0.10991974831089793,-0.7588487630443379,0.035997415822383035,0.18980455615438327,-2.18105705941801
1590512836.5699887,-0.91,-3.716165469507656,8.861917265246172,0.4977777777777778,-0.11666666666666667,-0.7622222222222222,0.03765908859642797,0.18980455615438327,-2.2209200163778413
1590512836.5799887,-0.91,-3.806888828526274,8.8202716317661,0.4977777777777778,-0.11666666666666667,-0.7622222222222222,0.03412549998951002,0.19547956451139561,-2.254539814415798
1590512836.5899887,-0.8468665439116164,-3.7984332719558083,8.822626691217677,0.4977777777777778,-0.11666666666666667,-0.7622222222222222,0.04030039437861936,0.20019508832412242,-2.2720245513205732
1590512836.5999887,-0.7989333040600938,-3.805822290526448,8.822622202706729,0.4977777777777778,-0.11666666666666667,-0.7622222222222222,0.04271207998372498,0.20099890192239248,-2.2816786380498595
1590512836.6099887,-0.7765248517079157,-3.850695029658417,8.814865207608918,0.4949204336265085,-0.11025694870571123,-0.7562758573668781,0.03926990816987242,0.19984948112069617,-2.288866245576024
1590512836.6199887,-0.6999772112871154,-3.8771558792645053,8.83282133202261,0.4566666666666666,-0.024444444444444446,-0.6766666666666666,0.04394844847050122,0.20195881748421501,-2.2887156185369846
1590512836.6299887,-0.6337315586914689,-3.932835551635664,8.737164448364336,0.4566666666666666,-0.024444444444444446,-0.6766666666666666,0.04802913416577093,0.20142922458903656,-2.2780943034972614
1590512836.6399887,-0.6039745231084368,-3.944658174369479,8.730683651261042,0.4566666666666666,-0.024444444444444446,-0.6766666666666666,0.04807112921384779,0.19714207249584362,-2.267897876105356
1590512836.6499887,-0.5460776127575114,-3.9312155225515024,8.757568954896994,0.4566666666666666,-0.024444444444444446,-0.6766666666666666,0.04621267168965035,0.19163969174052758,-2.2512307147857378
1590512836.6599886,-0.4739213136757335,-3.9360786863242665,8.790719124216178,0.45964420117116045,0.022005093825658812,-0.638554225009146,0.039619212853259325,0.18980455615438327,-2.2272766525591385
1590512836.6699886,-0.5083519241494702,-3.99835192414947,9.691056887897378,0.4622222222222222,0.06222222222222223,-0.6055555555555555,0.050650929613353275,0.18302321465014643,-2.195807991523865
1590512836.6799886,-0.28391829288783277,-3.4087647920117137,8.375366169799092,0.4622222222222222,0.06222222222222223,-0.6055555555555555,0.12946002035009715,0.07694325125984985,-2.1652429396485315
1590512836.6899886,-0.23570920566139933,-3.352109836799096,7.152394319760733,0.4622222222222222,0.06222222222222223,-0.6055555555555555,0.1457825736539147,0.13414503300454475,-2.084446174885286
1590512836.6999886,-0.2864502112007114,-3.585708078174579,8.691836536712545,0.4622222222222222,0.06222222222222223,-0.6055555555555555,-0.09596070074209742,0.2946106447355976,-1.9950863344552403
1590512836.7099886,-0.21154893948238956,-3.7064085100862685,8.349361743529869,0.44034420877386427,0.1333257659293853,-0.6000860521934661,0.037788226427882515,0.12807189711334827,-1.9333745543006235
1590512836.7199886,-0.16332209724105082,-3.7900337082768476,8.480168541384238,0.4355555555555555,0.14888888888888888,-0.5988888888888889,0.07780585464664533,0.17239171066305126,-1.846014975553893
1590512836.7299886,-0.15,-3.8589351598173516,8.85361095890411,0.4355555555555555,0.14888888888888888,-0.5988888888888889,0.007475528104960424,0.13197040159366347,-1.7682379934769994
1590512836.7399886,-0.10480812434092888,-3.7042964559167393,8.475613222685801,0.4355555555555555,0.14888888888888888,-0.5988888888888889,0.04936645704610927,0.13925534466440362,-1.6760028071988282
1590512836.7499886,-0.10992267876541631,-3.782817858436109,8.755017146995549,0.4355555555555555,0.14888888888888888,-0.5988888888888889,0.0448252753417441,0.13677931062029378,-1.593198659580429
1590512836.7599885,-0.08244675835775923,-3.839270502387931,8.905623014327587,0.4403242211609194,0.19538337854118695,-0.5911398072801726,0.03924173577177568,0.1275476257069851,-1.511583043858067
1590512836.7699885,-0.04511140898859354,-3.8642201370798452,8.893997319102658,0.4444444444444444,0.23555555555555555,-0.5844444444444444,0.03514964174829585,0.121737007767139,-1.4196827293182213
1590512836.7799885,-0.017311827956989247,-3.8602956989247312,8.747150537634408,0.4444444444444444,0.23555555555555555,-0.5844444444444444,0.03018551633069494,0.11238782634607974,-1.3130142459097796
1590512836.7899885,0.004167762292926637,-3.8633420983434132,8.7250328687878,0.4444444444444444,0.23555555555555555,-0.5844444444444444,0.035815849720537064,0.10635528420769416,-1.2268100247334564
1590512836.7999885,0.01977919175851229,-3.8879968185433476,8.851104041207439,0.4444444444444444,0.23555555555555555,-0.5844444444444444,0.0370882466048795,0.09987123270513665,-1.1432112760681206
1590512836.8099885,0.0773954200103201,-3.835654525720183,8.790013522891051,0.42878991872426153,0.25381916889576894,-0.5900974676211772,0.03751515756840345,0.0899221418756065,-1.0260389548913103
1590512836.8199885,0.14750335729520497,-3.8111051425863023,8.881105142586302,0.4044444444444445,0.2822222222222222,-0.5988888888888889,0.03784572729004698,0.0852663620157426,-0.9342929029672592
1590512836.8299885,0.1537266124271745,-3.887577958576085,8.820020788953622,0.4044444444444445,0.2822222222222222,-0.5988888888888889,0.03094977226490034,0.07594710897364285,-0.8095092668334894
1590512836.8399885,0.1336280715745402,-3.99318596421273,8.754603498978218,0.4044444444444445,0.2822222222222222,-0.5988888888888889,0.026527473563432727,0.06713929443543319,-0.7086840464469
1590512836.8499885,0.1595324379542486,-3.9655844525571893,8.763714204374184,0.4044444444444445,0.2822222222222222,-0.5988888888888889,0.024581944936587708,0.059565034637309194,-0.6315967590882517
1590512836.8599885,0.18,-3.95954350437618,8.82977175218809,0.40878744541692885,0.3012228514768415,-0.5950887630379651,0.020775580815286458,0.05134374069911412,-0.5372263914628281
1590512836.8699884,0.18689233241505968,-3.98689233241506,8.83310766758494,0.4133333333333333,0.3211111111111111,-0.5911111111111111,0.015536775957821651,0.043485533412916916,-0.43230442784682294
1590512836.8799884,0.21704367487801976,-3.996760918719505,8.728586219207426,0.4133333333333333,0.3211111111111111,-0.5911111111111111,0.012705796521015424,0.03702655878054982,-0.35156724494223424
1590512836.8899884,0.22318337102439495,-4.034083144878025,8.809515950536495,0.4133333333333333,0.3211111111111111,-0.5911111111111111,0.009024823119682102,0.032675848424052405,-0.2737606310197576
1590512836.8999884,0.23131490275670455,-4.05,8.807768034838125,0.4133333333333333,0.3211111111111111,-0.5911111111111111,0.009487212111670293,0.026697035001210286,-0.21092091987359124
1590512836.9099884,0.23172951075101278,-4.0375942661265185,8.834434403240884,0.4041439008344586,0.3298410719850421,-0.6090305044839168,0.00955505218609937,0.01929876472878507,-0.15446388233006297
1590512836.9199884,0.22671399544664497,-4.03342799089329,8.896359029596807,0.3911111111111111,0.3422222222222222,-0.6344444444444445,0.006171048896126919,0.011617458655094448,-0.09621216158824496
1590512836.9299884,0.259364668340657,-4.044508265327474,8.759651862314293,0.3911111111111111,0.3422222222222222,-0.6344444444444445,0.004539906926618764,0.006544984694978735,-0.029439135271978396
1590512836.9399884,0.263817821922166,-4.010181683220812,8.712727722597291,0.3911111111111111,0.3422222222222222,-0.6344444444444445,0.005116968404973478,0.005473972477474793,0.03556140739254776
1590512836.9499884,0.21290965007688556,-4.001638600307542,8.781454825038443,0.3911111111111111,0.3422222222222222,-0.6344444444444445,0.002499055152008908,0.0013681308253933912,0.09700710731988293
1590512836.9599884,0.22364101032228087,-4.06364101032228,8.847230907099473,0.41654706982198764,0.35352709276038957,-0.6344444444444445,0.00020137411836586988,-0.012592109716881406,0.22893474790520255
1590512836.9699883,0.19478384759423592,-4.015871733289913,8.81695961898559,0.4311111111111111,0.36,-0.6344444444444445,-0.0056199809725341,-0.01899444734301159,0.312971012011279
1590512836.9799883,0.18822648427096483,-4.014679452812895,8.788226484270965,0.4311111111111111,0.36,-0.6344444444444445,-0.009430555932373465,-0.02361135610482739,0.37457096933337886
1590512836.9899883,0.2,-4.017769869513642,8.791209964412811,0.4311111111111111,0.36,-0.6344444444444445,-0.01167952389420286,-0.02873685648598018,0.4380559032741284
1590512836.9999883,0.19239547139698426,-3.9285932070954765,8.781406792904523,0.4311111111111111,0.36,-0.6344444444444445,-0.011737833213618994,-0.035736110428541024,0.5067260529220962
1590512837.0099883,0.18,-3.9159177630187405,8.803945175345827,0.45500133959417344,0.3639451753458268,-0.6372937377497638,-0.01308996938995747,-0.0375185984758369,0.5531318227152552
1590512837.0199883,0.159541243541778,-3.9154494922501337,8.787265989666846,0.5522222222222222,0.38,-0.6488888888888888,-0.016660696000553744,-0.041501612301495086,0.6121582603837025
1590512837.0299883,0.11951266125179169,-3.9044704570791526,8.729512661251793,0.5522222222222222,0.38,-0.6488888888888888,-0.01762198127449084,-0.04548672287788892,0.6544800544536078
1590512837.0399883,0.0820545225191553,-3.95,8.787763735750326,0.5522222222222222,0.38,-0.6488888888888888,-0.014385088865765321,-0.05082081949588807,0.7043930970097539
1590512837.0499883,0.051367923640265836,-3.959316038179867,8.835341980910066,0.5522222222222222,0.38,-0.6488888888888888,-0.017453292519943295,-0.0539588194032019,0.7366413727958091
1590512837.0599883,0.032895124293182545,-3.97,8.847370745759095,0.6799293715992745,0.40412603577652123,-0.6569309008143959,-0.018084910659574658,-0.0545415391248228,0.7687214986357206
1590512837.0699883,0.04308576323209251,-3.9545711838395374,8.856056604446982,0.9933333333333332,0.4633333333333333,-0.6766666666666666,-0.01929834953282998,-0.05689777098956638,0.8138909250581143
1590512837.0799882,0.018293139779911025,-3.914715523296652,8.785284476703348,0.9933333333333332,0.4633333333333333,-0.6766666666666666,-0.019120570288179508,-0.06448314254525701,0.8808232536057029
1590512837.0899882,-0.02711139713384294,-3.9134222794267686,8.779733161719694,0.9933333333333332,0.4633333333333333,-0.6766666666666666,-0.024488020153466763,-0.0657940521832791,0.9277301008601782
1590512837.0999882,-0.060013789505068575,-3.920027579010137,8.760151684555755,0.9933333333333332,0.4633333333333333,-0.6766666666666666,-0.03380973745074846,-0.06436804137725341,0.9665527875765413
1590512837.1099882,-0.06517994081522258,-3.95928023673911,8.836259585706557,1.1491819136411365,0.37335889521748816,-0.723260572119515,-0.029452431127404314,-0.07511029600803762,1.0515525092195552
1590512837.1199882,-0.06506833083181926,-3.98,8.850683308318192,1.3166666666666669,0.2766666666666667,-0.7733333333333333,-0.030558169384849176,-0.08073638537968615,1.1086269469402126
1590512837.1299882,-0.08109433222200432,-3.9282264496306465,8.826037785186639,1.3166666666666669,0.2766666666666667,-0.7733333333333333,-0.031230691389097072,-0.08463611781033528,1.1487024325392234
1590512837.1399882,-0.1,-3.906224256292906,8.770363272311211,1.3166666666666669,0.2766666666666667,-0.7733333333333333,-0.027382785652490412,-0.08989962077291086,1.1865636645619213
1590512837.1499882,-0.1,-3.9568189612934836,8.85560632043116,1.3166666666666669,0.2766666666666667,-0.7733333333333333,-0.024870080025810534,-0.09171653510323681,1.2133920477791926
1590512837.1599882,-0.1000562510573507,-3.879943748942649,8.830450008458806,1.3130478486437718,0.27656041466944875,-0.7728833248745277,-0.0283370561909454,-0.09381758333318584,1.2316461300543486
1590512837.1699882,-0.10664909282623714,-3.873350907173763,8.879841835436135,0.6733333333333333,0.2577777777777778,-0.6933333333333334,-0.02399827721492203,-0.09490227807719166,1.249001245958442
1590512837.1799881,-0.09592717618054239,-3.877963588090271,8.807781528541627,0.6733333333333333,0.2577777777777778,-0.6933333333333334,-0.023554001055527116,-0.09401372575840183,1.2483348317193497
1590512837.1899881,-0.07160827674618914,-3.857412415119284,8.747412415119284,0.6733333333333333,0.2577777777777778,-0.6933333333333334,-0.02364740565861876,-0.09099665244937825,1.2168938109740908
1590512837.1999881,-0.07237515806551667,-3.858562737098275,8.76712547419655,0.6733333333333333,0.2577777777777778,-0.6933333333333334,-0.02381757819259309,-0.08926742514238045,1.1591199698668107
1590512837.209988,-0.09605565840186944,-3.864500925616825,8.834222633607478,0.6054030058099737,0.25470995653478734,-0.6902655120903429,-0.01854412330243975,-0.08141240471307386,1.0916556837570626
1590512837.219988,-0.11168540433925049,-3.8425281065088757,8.902162968441814,0.5011111111111111,0.25,-0.6855555555555556,-0.01854412330243975,-0.07390071956962788,1.0056172655809377
1590512837.229988,-0.10488412078661748,-3.8030243220976465,8.871164523408677,0.5011111111111111,0.25,-0.6855555555555556,-0.01626102545448804,-0.06588118559677587,0.9289318323024931
1590512837.239988,-0.07323131454278996,-3.7293878872567396,8.76523840359906,0.5011111111111111,0.25,-0.6855555555555556,-0.015909823286920463,-0.058199898780567874,0.839564728278985
1590512837.249988,-0.09323920863309353,-3.77,8.86,0.5011111111111111,0.25,-0.6855555555555556,-0.016039921124780622,-0.050946506164667206,0.723175488307604
1590512837.259988,-0.10099652375434531,-3.756494785631518,8.837491309385863,0.49310802111497354,0.24699884125144841,-0.6855555555555556,-0.008726646259971648,-0.04068685058838751,0.6183733898179793
1590512837.269988,-0.10575974643423137,-3.7084805071315374,8.841519492868462,0.4833333333333333,0.2433333333333333,-0.6855555555555556,-0.008153605708811703,-0.030784800542120107,0.49828085244656783
1590512837.279988,-0.12487462462462462,-3.6994984984984987,8.801755255255255,0.4833333333333333,0.2433333333333333,-0.6855555555555556,-0.006040598299378461,-0.0224304127005906,0.3907668698757345
1590512837.289988,-0.14033715441672287,-3.6993256911665546,8.776517194875254,0.4833333333333333,0.2433333333333333,-0.6855555555555556,-0.003799518817926799,-0.015688323900523035,0.27734023255476986
1590512837.299988,-0.1414423716218859,-3.6971152567562284,8.815721185810943,0.4833333333333333,0.2433333333333333,-0.6855555555555556,0.0009282236595160795,-0.007331676377454963,0.1702539026532092
1590512837.309988,-0.14295150587034203,-3.707048494129658,8.822951505870343,0.485132153593103,0.23397946798253075,-0.6880739039192332,0.004778997034597158,0.0013815519420377522,0.060798308397126605
1590512837.319988,-0.15639573793589293,-3.6609540331102504,8.871766819302572,0.4888888888888889,0.21444444444444444,-0.6933333333333334,0.0028716245224176696,0.011293768001435304,-0.055354897751778626
1590512837.329988,-0.12,-3.611390066626287,8.92559812235009,0.4888888888888889,0.21444444444444444,-0.6933333333333334,0.00771163185075894,0.024175182085917443,-0.14808787687895064
1590512837.339988,-0.1170351251056325,-3.68185949957747,8.766683874049308,0.4888888888888889,0.21444444444444444,-0.6933333333333334,0.011231725505067259,0.03616194021383501,-0.3127292257611226
1590512837.349988,-0.11106185416969873,-3.715309270848494,8.834247416678794,0.4888888888888889,0.21444444444444444,-0.6933333333333334,0.012230799250426933,0.047948196540694245,-0.4167636882835962
1590512837.359988,-0.10789850077546097,-3.757579700155092,8.867579700155092,0.473291400999483,0.2098727669596186,-0.6847278227736612,0.01602889647404171,0.0583072832340338,-0.5683703958726184
1590512837.369988,-0.050557154605263166,-3.758332648026316,8.868332648026316,0.4244444444444445,0.1955555555555556,-0.6577777777777778,0.02333153381106472,0.06599503807483853,-0.7033405074906312
1590512837.379988,-0.3639767170121608,-9.661652745921149,0.4657852598779595,0.4244444444444445,0.1955555555555556,-0.6577777777777778,-0.5723126526463985,0.9724607957404774,-2.9443342208438024
1590512837.389988,-1.8589838874255475,-12.405949075721981,-6.431094658408676,0.4244444444444445,0.1955555555555556,-0.6577777777777778,-1.726137712429793,1.1212147982808751,-11.205680679781942
1590512837.399988,-7.016900583558863,-14.830248012516915,-4.486632061907984,0.4244444444444445,0.1955555555555556,-0.6577777777777778,-2.706904520750687,1.44008958558321,-15.842497603742437
1590512837.409988,-6.969758064516129,-12.410065982404692,-1.2515175953079178,0.4244444444444445,0.22717497556207236,-0.6577777777777778,-2.6053925432115843,1.5190302482497318,-8.248171411112045
1590512837.419988,-0.08593054165084404,-0.3387444333206753,0.32955587392550145,0.4244444444444445,0.26666666666666666,-0.6577777777777778,-1.9485047416864316,-0.0715945113964377,-2.5849901745158124
1590512837.429988,0.05034802359233616,-0.15,-0.10875041213320145,0.4244444444444445,0.26666666666666666,-0.6577777777777778,-1.9578214260236224,0.08097891029294312,-2.337484046865113
1590512837.439988,1.8436543797066987,-1.1117197080972698,8.158030356018745,0.4244444444444445,0.26666666666666666,-0.6577777777777778,-1.3664299897233387,0.4666417473405955,-2.146268021453749
1590512837.449988,2.4943158584717517,-1.5767871637169992,11.859107289792616,0.4244444444444445,0.26666666666666666,-0.6577777777777778,0.03226020640708749,0.7841963828792818,-2.0315219881294233
1590512837.4599879,0.11940016456773073,-0.7695498096313962,4.570572918845794,0.4244444444444445,0.26666666666666666,-0.6577777777777778,1.6274764285403616,0.7861106423458418,-1.9619705608444125
1590512837.4699879,0.7302914101660029,-1.2551683851417028,7.491146391202424,0.2733333333333333,0.4955555555555556,-0.6,3.0075060805841156,0.0612045278892797,-1.6236804035456747
1590512837.4799879,0.3545798471478397,-1.1752297547123063,7.659017515104157,0.2733333333333333,0.4955555555555556,-0.6,4.1838275889666985,0.23821955101875647,-1.4266094910961096
1590512837.4899879,5.699086710678231,3.955318393084461,9.959105657361082,0.2733333333333333,0.4955555555555556,-0.6,4.098198805741053,-0.27135722780407134,-1.0240402525552796
1590512837.4999878,-0.4465943636178655,0.4306057584698342,-1.4926059619493337,0.2733333333333333,0.4955555555555556,-0.6,1.2098387450559724,-0.5838587806298651,-0.5288273276372784
1590512837.5099878,0.1350562744507975,0.32156685725749823,-0.14164790851640086,0.27063184761650005,0.4955555555555556,-0.6105357942956499,-0.0062768125531648955,-0.3514248198382652,-0.21107060262333047
1590512837.5199878,0.6995950244843979,0.2930264145548128,1.4824952639668298,0.26222222222222225,0.4955555555555556,-0.6433333333333333,-0.6475681829552118,0.2504564554350102,0.10165457403751457
1590512837.5299878,0.5635658464462985,-1.4623254831555603,7.6001214489386415,0.26222222222222225,0.4955555555555556,-0.6433333333333333,-0.5232242597176466,1.1017511287432993,0.32401781127608675
1590512837.5399878,0.41557103515308597,-0.7908051190669043,5.029458934067714,0.26222222222222225,0.4955555555555556,-0.6433333333333333,-0.11888871572262928,0.41403115854975403,0.28587736122060087
1590512837.5499878,2.129713093867381,-3.0614928556597896,12.693090469808793,0.26222222222222225,0.4955555555555556,-0.6433333333333333,0.03412071083866866,-0.6194074815721635,0.39843408145339393
1590512837.5599878,0.9224586505644526,-1.8468735232344449,7.020407915463377,0.2629169948367901,0.48374442110790233,-0.6478493553280242,0.08758688877240371,0.009702029114089517,0.6533134904823118
1590512837.5699878,1.0408193660047367,-2.834621971215158,9.888069320459099,0.2644444444444444,0.4577777777777778,-0.6577777777777778,-0.16255619343670258,0.14996240399868493,0.8993108358143236
1590512837.5799878,1.0885422998683738,-2.9499923417494314,10.640723704678713,0.2644444444444444,0.4577777777777778,-0.6577777777777778,-0.20891105056407544,-0.22246860090761178,1.0045531292194299
1590512837.5899878,0.7143506450103603,-2.1533658623532297,6.903214357329055,0.2644444444444444,0.4577777777777778,-0.6577777777777778,0.04274429279974482,-0.05238816726931511,1.1683317297365905
1590512837.5999877,0.6910713981498833,-2.7091962384367707,7.840891838021091,0.2644444444444444,0.4577777777777778,-0.6577777777777778,0.10626855680121486,0.14953186565680024,1.3184053196507832
1590512837.6099877,0.7196531457094669,-2.8878321606841686,8.798380381267144,0.2644444444444444,0.4577777777777778,-0.6577777777777778,-0.0924902373028322,-0.21914621124992228,1.3511420622090968
1590512837.6199877,0.7144689160795946,-2.917205784204672,9.244966753182549,0.2788888888888889,0.4566666666666666,-0.6644444444444444,-0.11024228987170234,-0.1614810560170065,1.5560215624529499
1590512837.6299877,0.6851156812339332,-2.7540874035989718,7.942853470437018,0.2788888888888889,0.4566666666666666,-0.6644444444444444,-0.19671128164869894,-0.22897351340351058,2.2989861642445035
1590512837.6399877,0.5551170805879372,-2.929438418651799,9.715042828180437,0.2788888888888889,0.4566666666666666,-0.6644444444444444,-0.21523194332781317,-0.3114015588916635,3.6148157247211268
1590512837.6499877,-0.4189951072638314,-2.67998870907038,9.304633044787353,0.2788888888888889,0.4566666666666666,-0.6644444444444444,0.25405641882742075,-0.2677137680221995,4.314307590986105
1590512837.6599877,-0.7092796924965278,-3.185916534771795,8.467789334280823,0.28197135279276175,0.45289921078415535,-0.6579370206473795,0.08926659503936879,-0.26507621401356757,4.260737892415297
1590512837.6699877,0.30645727365208547,-3.6090539165818925,10.787319430315362,0.2888888888888889,0.4444444444444444,-0.6433333333333333,-0.3284859905038628,-0.3932059351676003,4.180415609458002
1590512837.6799877,0.3437020880885958,-3.1943290218953417,9.343829064164341,0.2888888888888889,0.4444444444444444,-0.6433333333333333,-0.231127834082282,-0.39505058789430303,4.146335410088909
1590512837.6899877,-0.1597982923324034,-2.988673936934652,7.769503931016992,0.2888888888888889,0.4444444444444444,-0.6433333333333333,0.02724408206317608,-0.30299592315984347,4.138599723976771
1590512837.6999876,5.254032220694769,-7.314406944594615,6.123825705503467,0.2888888888888889,0.4444444444444444,-0.6433333333333333,-0.2413220941873393,-0.3382111565673507,2.692864118079406
1590512837.7099876,-0.35642143309494756,-0.7969515453885467,5.508360235399515,0.2888888888888889,0.4444444444444444,-0.6433333333333333,-0.3565148256584405,-0.17072233841611764,-0.19331450356462554
1590512837.7199876,-1.3668528117965346,-1.0392240969827142,14.441530327750357,0.3977777777777778,0.36777777777777776,-0.6355555555555555,0.5626598487306103,0.3750551568068454,-1.681968521373904
1590512837.7299876,-0.3184228584499257,0.009695017345888485,1.9203533986504517,0.3977777777777778,0.36777777777777776,-0.6355555555555555,0.676953340298188,0.044035155721833315,-1.370616215404263
1590512837.7399876,-1.3350258639572696,-2.9782835431094035,12.252608468550438,0.3977777777777778,0.36777777777777776,-0.6355555555555555,-0.4373171466939728,0.09151423107621942,-1.0519123170702207
1590512837.7499876,-0.5576361859509007,-2.653193314124922,10.358604525771284,0.3977777777777778,0.36777777777777776,-0.6355555555555555,-0.49359354953560725,0.13699789912630758,-0.9208576803157293
1590512837.7599876,-2.1658280014690816,-6.3965223358397925,8.400282604913691,0.398942089403497,0.3640907909630002,-0.6343912439298364,0.19945336802318692,0.10551262271062553,-0.527760497562463
1590512837.7699876,-4.281909226219241,-15.525669688593354,7.7516753329596195,0.40434715000311433,0.3469747657308789,-0.628986183330219,-0.03933489455132433,0.03829814880076311,0.3239176389532936
1590512837.7799876,2.601986621141384,-5.02935637470095,7.263932594708848,0.4044444444444445,0.3466666666666667,-0.6288888888888889,0.03376728471317915,-0.18886024882937363,1.4416058620915964
1590512837.7899876,5.41373514881311,-8.373501385709123,7.919534160742258,0.4044444444444445,0.3466666666666667,-0.6288888888888889,-0.013271016542603653,-0.07602174408614829,0.881301471607588
1590512837.7999876,-0.09135733170632498,-2.5201960545047792,10.285589180394549,0.4044444444444445,0.3466666666666667,-0.6288888888888889,-0.06860728848503295,-0.0002024592581057888,-0.2628864915210102
1590512837.8099875,-0.7985864225100492,-2.895943501563198,9.947096918267084,0.40233487171852517,0.348776239392586,-0.6334596297950474,0.1447923179184571,0.20759133401180718,-0.5648794615024538
1590512837.8199875,-2.092819152218177,-8.29771950391806,9.289800703399766,0.3911111111111111,0.36,-0.6577777777777778,-0.02007318443138123,0.01715802043733628,-0.33253222912048686
1590512837.8299875,1.1383794831636649,-4.754765857478465,9.348128112764291,0.3911111111111111,0.36,-0.6577777777777778,-0.07499980137325607,-0.06459438618593544,0.21009077978136415
1590512837.8399875,0.7376711041503524,-3.703727486296006,8.520435395458104,0.3911111111111111,0.36,-0.6577777777777778,0.008838377400418415,-0.06531095181647965,0.1190869447022474
1590512837.8499875,0.18917828892589508,-4.55671315570358,8.57040330974188,0.3911111111111111,0.36,-0.6577777777777778,-0.0183800672574036,0.010191229637803067,-0.07308730866439267
1590512837.8599875,0.18190258118234803,-4.527610324729392,8.839604496253122,0.3911111111111111,0.36,-0.6577777777777778,-0.007268874897851071,0.00384197686091591,-0.015150377075297372
1590512837.8699875,0.1013473244112885,-4.606526755887115,8.841347324411288,0.3911111111111111,0.34444444444444444,-0.6355555555555555,0.004436808277077944,0.00203469127080867,0.002108176417900791
1590512837.8799875,0.11853954460680835,-4.4346045539319165,8.858539544606808,0.3911111111111111,0.34444444444444444,-0.6355555555555555,0.005374498427514459,0.0001593109699356411,0.0011704862674642765
1590512837.8899875,0.1427040082598916,-4.463520041299458,8.649464028909621,0.3911111111111111,0.34444444444444444,-0.6355555555555555,-0.0040989116049022865,0.002830050030587205,-0.00014748077230072111
1590512837.8999875,0.1581702865149895,-4.540851432574947,8.703596002802463,0.3911111111111111,0.34444444444444444,-0.6355555555555555,-0.015065121672257924,0.00029938616888974985,-0.0009910353928665394
1590512837.9099874,0.1304553806822721,-4.540151793560757,8.729696412878486,0.3911111111111111,0.34444444444444444,-0.6355555555555555,-0.006694007674771732,0.0,-1.6558108865888377e-05
1590512837.9199874,0.13,-4.504530841441982,8.854142054953062,0.3911111111111111,0.34444444444444444,-0.6483638628126176,0.0021604565514963146,0.0009672712496083389,-0.0019345424992166778
1590512837.9299874,0.14671406915469573,-4.5234281383093915,8.825355518660217,0.3911111111111111,0.34444444444444444,-0.65,0.005843618219868944,0.0003584394515212494,-0.002002441839232287
1590512837.9399874,0.13184468999386126,-4.493689379987723,8.712912829957029,0.3911111111111111,0.34444444444444444,-0.65,-0.004077390199276195,0.0015779881761527922,-0.0008896063195497494
1590512837.9499874,0.14,-4.50465922163425,8.766439481089499,0.3911111111111111,0.34444444444444444,-0.65,-0.008024207840398642,-0.001090830782496456,0.0
1590512837.9599874,0.14,-4.482389784613207,8.751593189742138,0.3911111111111111,0.34444444444444444,-0.65,-0.009643687001159978,-0.001090830782496456,0.0
1590512837.9699874,0.1283785575298822,-4.53,8.776485769880471,0.38333333333333336,0.34444444444444444,-0.6355555555555555,0.0021520623975674197,-0.001090830782496456,0.0009139588466512954
1590512837.9799874,0.12046640971024783,-4.530932819420496,8.804869493187274,0.38333333333333336,0.34444444444444444,-0.6355555555555555,0.007330551035959042,-0.0008364437478996644,0.0
1590512837.9899874,0.12755688541772323,-4.545113770835447,8.726874260405044,0.38333333333333336,0.34444444444444444,-0.6355555555555555,0.002689845537404538,0.0030308108342290887,0.0
1590512837.9999874,0.14911951872587542,-4.511760962548249,8.766918315540563,0.38333333333333336,0.34444444444444444,-0.6355555555555555,-0.0082944410252196,0.006448939087256059,0.0010428079786351174
1590512838.0099874,0.14323718161867394,-4.51,8.756474363237349,0.38333333333333336,0.34444444444444444,-0.6355555555555555,-0.010202064353328311,0.0028564394615870734,0.001090830782496456
1590512838.0199873,0.14,-4.553656991879395,8.732537203248242,0.4017662854601892,0.35705646432071425,-0.6481675754318253,-0.0061460687636403265,0.0020432785947613026,-0.0017665126542980838
1590512838.0299873,0.12421918031783594,-4.528438360635671,8.753671229523246,0.4044444444444445,0.3588888888888889,-0.65,0.002292237834566443,0.002181661564992912,-0.0013209513708763872
1590512838.0399873,0.13846445158985354,-4.518464451589853,8.75230332261522,0.4044444444444445,0.3588888888888889,-0.65,0.000755826087736201,0.0028537364790390493,0.0
1590512838.0499873,0.12347945694891033,-4.50347945694891,8.774780814576634,0.4044444444444445,0.3588888888888889,-0.65,-0.0025133925982408515,-0.0012327868784322675,0.0
1590512838.0599873,0.12,-4.536439138921105,8.761780430539448,0.4044444444444445,0.3588888888888889,-0.65,-0.008241109150340188,-0.000194214843852584,0.0
1590512838.0699873,0.13595623920375094,-4.524043760796249,8.767978119601874,0.39912569804319414,0.3588888888888889,-0.65,-0.00611581272552241,0.0026108335344492374,-0.0008702778448164125
1590512838.0799873,0.1586284853051997,-4.5272569706103996,8.781770911831197,0.3977777777777778,0.3588888888888889,-0.65,0.0002992180895468802,0.0012404398272698961,0.0017328344306725917
1590512838.0899873,0.14754394090267003,-4.51,8.737368177291991,0.3977777777777778,0.3588888888888889,-0.65,0.0016458325915933143,0.0023156188083428113,-0.001090830782496456
1590512838.0999873,0.13,-4.51,8.79,0.3977777777777778,0.3588888888888889,-0.65,-0.0025922186152822165,0.003190380937431507,-0.001008719372438595
1590512838.1099873,0.13,-4.51,8.79,0.3977777777777778,0.3588888888888889,-0.65,-0.006830464827510693,0.0023427316949858118,-0.0001610701299928996
1590512838.1199872,0.1484095251503389,-4.53079523742483,8.781590474849661,0.3977777777777778,0.3511111111111111,-0.6433333333333333,-0.00728882769251584,0.003012251508769854,0.001177577728736294
1590512838.1299872,0.13153818306148307,-4.539230908469259,8.798461816938518,0.3977777777777778,0.3511111111111111,-0.6433333333333333,-0.0036080718340054437,0.0002516846148870569,0.0020977666933638933
1590512838.1399872,0.13028951071535677,-4.471737064292141,8.750289510715357,0.3977777777777778,0.3511111111111111,-0.6433333333333333,0.002118500124958168,0.0031777501874372524,3.158072001737185e-05
1590512838.1499872,0.13996516643982562,-4.529790998638954,8.759965166439825,0.3977777777777778,0.3511111111111111,-0.6433333333333333,7.599503940435449e-06,1.1399255910652956e-05,0.0010870310305262382
1590512838.1599872,0.14,-4.500048018347309,8.783961585322153,0.3977777777777778,0.3511111111111111,-0.6433333333333333,-0.0032672543583524604,0.0006534508716704922,0.0004373799108259638
1590512838.1699872,0.13447083036491728,-4.513175017810497,8.783412491094753,0.3940916646877226,0.347424998021056,-0.6586921378752297,-0.007866709288319451,0.002900247314374334,-0.0006031388439592928
1590512838.1799872,0.11182304640649507,-4.511823046406495,8.76270781437402,0.3911111111111111,0.34444444444444444,-0.6711111111111111,-0.004658699857232535,0.002181661564992912,-0.0018833662942742573
1590512838.1899872,0.13044922151450813,-4.528203113941967,8.693144550601556,0.3911111111111111,0.34444444444444444,-0.6711111111111111,0.003174487416252337,0.002083656633755881,0.001090830782496456
1590512838.1999872,0.13787013446567586,-4.498519462137296,8.74509094125973,0.3911111111111111,0.34444444444444444,-0.6711111111111111,0.0015554953599802611,0.0004646645774838054,0.001090830782496456
1590512838.2099872,0.14,-4.531557809894386,8.776623123957753,0.3911111111111111,0.34444444444444444,-0.6711111111111111,-0.005255724577533994,0.0009066507657186357,-0.0007224707489408154
1590512838.2199872,0.13258511979823456,-4.5177553593947035,8.802244640605297,0.3911111111111111,0.34444444444444444,-0.6612246041754238,-0.006544984694978735,0.0002819928252355277,-0.001090830782496456
1590512838.2299871,0.12901869377811095,-4.509018693778111,8.775093468890555,0.3911111111111111,0.34444444444444444,-0.6577777777777778,-0.005240066105703904,0.000983786879107268,0.000983786879107268
1590512838.2399871,0.1191434966426262,-4.499143496642626,8.732569510072121,0.3911111111111111,0.34444444444444444,-0.6577777777777778,-0.002992202279228901,-9.343002275348904e-05,-0.00018686004550697808
1590512838.2499871,0.11176788976727509,-4.491767889767275,8.765303669301826,0.3911111111111111,0.34444444444444444,-0.6577777777777778,-9.6423428910208e-05,-0.001090830782496456,-0.002085238136082704
1590512838.259987,0.12609097273208464,-4.506090972732085,8.808272918196254,0.3911111111111111,0.34444444444444444,-0.6577777777777778,-0.0008776264188234502,-0.001090830782496456,-0.0013040351461694618
1590512838.269987,0.14796353094407796,-4.504072938111844,8.793890592832234,0.3977777777777778,0.3511111111111111,-0.6433333333333333,-0.007746887634165254,0.0031614201907993063,0.0009797586258063942
1590512838.279987,0.1303411621360447,-4.539317675727911,8.741023486408134,0.3977777777777778,0.3511111111111111,-0.6433333333333333,-0.008708038751980658,0.0022002690729839023,1.860750799099033e-05
1590512838.289987,0.1299053714966189,-4.519905371496619,8.67075702802705,0.3977777777777778,0.3511111111111111,-0.6433333333333333,-0.003231202873733495,-1.0322368438968293e-05,-0.001090830782496456
1590512838.299987,0.12098626291838557,-4.510986262918386,8.742109896652915,0.3977777777777778,0.3511111111111111,-0.6433333333333333,0.0006604924020925463,-0.0009832461873954786,-0.001090830782496456
1590512838.309987,0.13191567515770983,-4.504042162421145,8.78574702547313,0.3977777777777778,0.3511111111111111,-0.6433333333333333,0.00044093151968354705,0.00020896774312936187,0.00020896774312936187
1590512838.319987,0.14,-4.50612610953556,8.81,0.39369370475407084,0.3470270380874042,-0.6474174063570403,-0.002673019543333734,0.0017590856683298893,0.0004225758966630225
1590512838.329987,0.13929193825042882,-4.539291938250429,8.77433550600343,0.3911111111111111,0.34444444444444444,-0.65,-0.004517798240453933,-7.723755523405438e-05,0.0
1590512838.339987,0.13,-4.5292707292707295,8.701701631701631,0.3911111111111111,0.34444444444444444,-0.65,-0.006412399534935043,-0.0010643137504877177,0.0
1590512838.349987,0.13,-4.505992340992341,8.756017871017871,0.3911111111111111,0.34444444444444444,-0.65,-0.002180269118106608,-0.0002178876671220304,0.0
1590512838.359987,0.13804411270952247,-4.5080441127095225,8.810220563547613,0.3911111111111111,0.34444444444444444,-0.65,-0.001090830782496456,-0.0008774765761418069,0.0017549531522836137
1590512838.369987,0.14,-4.51,8.813637306083159,0.39959470300023453,0.34444444444444444,-0.6408094421201164,-0.001090830782496456,-0.00039676854408697787,0.002181661564992912
1590512838.379987,0.13104222749005584,-4.5189577725099435,8.792084454980111,0.4044444444444445,0.34444444444444444,-0.6355555555555555,-0.005976537780720267,0.0,0.002181661564992912
1590512838.389987,0.14332351397565476,-4.52,8.696735402170416,0.4044444444444445,0.34444444444444444,-0.6355555555555555,-0.00509161477741214,-0.0007266849587832977,1.6066886430188276e-06
1590512838.399987,0.12371792344987978,-4.52,8.728846229650362,0.4044444444444445,0.34444444444444444,-0.6355555555555555,0.0004148932248140766,-0.00013518751153647588,-0.001090830782496456
1590512838.409987,0.12805108837749787,-4.52,8.788306530264988,0.4044444444444445,0.34444444444444444,-0.6355555555555555,-0.0006656442244583694,-0.0008782375034774127,0.0006656442244583694
1590512838.419987,0.11112766697588126,-4.51056383348794,8.828308499536178,0.39815366676973823,0.3643652404143476,-0.6428947961760462,-0.0021201568725081133,0.0030264735775501744,0.0031494829625197717
1590512838.429987,0.131834955872987,-4.51,8.793608406878354,0.3977777777777778,0.3655555555555556,-0.6433333333333333,-0.0037695443650399775,9.672674739523695e-05,0.003272492347489368
1590512838.439987,0.14952592749479332,-4.519525927494793,8.684740725052066,0.3977777777777778,0.3655555555555556,-0.6433333333333333,-0.004363323129985824,-5.171328818146556e-05,0.0011942573588593869
1590512838.449987,0.12811674661779765,-4.541883253382202,8.701883253382203,0.3977777777777778,0.3655555555555556,-0.6433333333333333,-0.002771928035954091,0.0,0.001090830782496456
1590512838.459987,0.12668490153172868,-4.523260393873085,8.776849015317287,0.3977777777777778,0.3655555555555556,-0.6433333333333333,-0.0007232422912394447,0.0014584192737534672,0.001090830782496456
1590512838.469987,0.13584064834850776,-4.51,8.827521945045524,0.4016715433434496,0.36166178998988374,-0.6387906068400495,0.0,0.002181661564992912,0.001090830782496456
1590512838.479987,0.14788044868281633,-4.502119551317183,8.824239102634367,0.4044444444444445,0.3588888888888889,-0.6355555555555555,-0.004298118001549849,0.002181661564992912,0.001090830782496456
1590512838.489987,0.14030811724008474,-4.509691882759915,8.723081172400848,0.4044444444444445,0.3588888888888889,-0.6355555555555555,-0.007568594723454735,0.0011244411595066844,3.361037701022848e-05
1590512838.499987,0.13251211453744494,-4.517487885462555,8.727487885462555,0.4044444444444445,0.3588888888888889,-0.6355555555555555,-0.005185410689966358,0.0035412355700052906,-0.001633603191672556
1590512838.5099869,0.13692352926763532,-4.513076470732364,8.75769411707054,0.4044444444444445,0.3588888888888889,-0.6355555555555555,-0.002097603475390301,0.002097603475390301,0.0008392979744677852
1590512838.5199869,0.12761009338701856,-4.51619495330649,8.800974766532454,0.3961845067024568,0.3588888888888889,-0.6314255866845617,-0.0017665953587812833,-0.0002606983700731986,0.002181661564992912
1590512838.5299869,0.14658913866013798,-4.511136953779954,8.766821722679724,0.3911111111111111,0.3588888888888889,-0.6288888888888889,-0.0031484699293444153,-0.001090830782496456,0.0012148532006414088
1590512838.5399868,0.13223423862545886,-4.527765761374541,8.712624636334557,0.3911111111111111,0.3588888888888889,-0.6288888888888889,-0.003272492347489368,0.00020113184295927856,0.0004448494697685887
1590512838.5499868,0.1309625668449198,-4.52355614973262,8.70192513368984,0.3911111111111111,0.3588888888888889,-0.6288888888888889,-0.004468322884450723,0.0004929155140157782,0.0
1590512838.5599868,0.14562773624945036,-4.51562773624945,8.759394153746152,0.3911111111111111,0.3588888888888889,-0.6288888888888889,-0.004226372325147959,0.0012277815873343214,0.0
1590512838.5699868,0.12978912790081593,-4.513263042633605,8.816947829465578,0.40009372093297074,0.3536490331594708,-0.6483512101695846,-0.00253760429992641,0.0014467735174299539,0.0007348880475629581
1590512838.5799868,0.12,-4.51,8.823937905468027,0.4044444444444445,0.3511111111111111,-0.6577777777777778,-0.0015203896328048379,0.0004295588503083819,0.0004295588503083819
1590512838.5899868,0.13719174384318286,-4.518595871921591,8.708253665019312,0.4044444444444445,0.3511111111111111,-0.6577777777777778,-0.0048414874602840125,0.0018753283388937784,-0.0018753283388937784
1590512838.5999868,0.14,-4.533292428603437,8.72987728581031,0.4044444444444445,0.3511111111111111,-0.6577777777777778,-0.006179143427220535,0.0036316405944694236,-0.0014566720502546563
1590512838.6099868,0.14607757805108798,-4.527844843897824,8.774310312204351,0.4044444444444445,0.3511111111111111,-0.6577777777777778,-0.004556101928633258,0.002374440363640346,0.000898051983849022
1590512838.6199868,0.1557385519737255,-4.53147710394745,8.801477103947452,0.4006187431286275,0.3555744293128976,-0.6577777777777778,-0.003272492347489368,0.002968767524465126,0.001555682651003355
1590512838.6299868,0.1346946117150231,-4.497824352858372,8.818435129428327,0.3977777777777778,0.3588888888888889,-0.6577777777777778,-0.0014322325805374988,-0.001157456170869783,0.00017070089902052141
1590512838.6399868,0.13780470244584783,-4.513414107337543,8.726343570649826,0.3977777777777778,0.3588888888888889,-0.6577777777777778,-0.0019421917501120738,0.0003724213378539418,0.0
1590512838.6499867,0.1314253201349091,-4.545724039595273,8.742873399325454,0.3977777777777778,0.3588888888888889,-0.6577777777777778,-0.004052366514371654,0.0038968882065645695,0.0
1590512838.6599867,0.13,-4.536375855100943,8.756812072449527,0.3977777777777778,0.3588888888888889,-0.6577777777777778,-0.0036202412979316856,0.0028771594658775473,-0.0007430818320541383
1590512838.6699867,0.14015782452539763,-4.509684350949205,8.805710210364289,0.38423401174391425,0.3588888888888889,-0.6538275126845676,-0.0016104221961641884,0.003289708332543032,-0.001090830782496456
1590512838.6799867,0.13610541784291735,-4.503894582157082,8.815263544607294,0.3711111111111111,0.3588888888888889,-0.65,0.0015156637926871752,0.0005741636482678864,-0.001090830782496456
1590512838.6899867,0.11352813119829713,-4.501764065599149,8.725876590392337,0.3711111111111111,0.3588888888888889,-0.65,0.002181661564992912,0.0007059713709175941,-0.00019242970578943095
1590512838.6999867,0.14303271812080537,-4.519819630872483,8.71,0.3711111111111111,0.3588888888888889,-0.65,1.9675219650732746e-05,0.0018114928976105155,-0.0014413242302281192
1590512838.7099867,0.15394968301300524,-4.523949683013005,8.746301901921969,0.3711111111111111,0.3588888888888889,-0.65,-0.0017508179838239657,0.00020169996101038288,-0.00020169996101038288
1590512838.7199867,0.15852745749462577,-4.511472542505374,8.804109829978504,0.3815335591600982,0.3645738605519728,-0.65,-0.002181661564992912,-0.00016062946933966763,0.00016062946933966763
1590512838.7299867,0.12608359918793505,-4.51,8.816783280162413,0.38333333333333336,0.3655555555555556,-0.65,-0.0007017794035013814,0.0014798821614915305,0.0007399410807457653
1590512838.7399867,0.12615017520440513,-4.51,8.747324211580178,0.38333333333333336,0.3655555555555556,-0.65,0.000880855412783806,0.0013008061522091058,-0.000670880043071156
1590512838.7499866,0.14307443482660787,-4.51,8.749611652239912,0.38333333333333336,0.3655555555555556,-0.65,-0.0003353688147643024,0.001803930581126835,0.0003353688147643024
1590512838.7599866,0.1389439456442611,-4.5155280271778695,8.776584081533608,0.38333333333333336,0.3655555555555556,-0.65,-0.001090830782496456,0.0009756331225735106,0.001090830782496456
1590512838.7699866,0.12447236653423917,-4.52,8.778944733068478,0.3980736892420289,0.3655555555555556,-0.65,-0.002296773330258353,-0.0006029712738809484,0.00048785950861550756
1590512838.7799866,0.12,-4.496809120653017,8.76226970688434,0.41,0.3655555555555556,-0.65,0.0009437284966523291,0.0005956575551602228,0.0
1590512838.7899866,0.13633226659245862,-4.514498399888687,8.719169333518854,0.41,0.3655555555555556,-0.65,0.0030724485223425297,0.001090830782496456,0.0008907869573496173
1590512838.7999866,0.1478349447513812,-4.5278349447513815,8.733504834254145,0.41,0.3655555555555556,-0.65,-0.0001461472180969009,0.001090830782496456,0.0002361708910998887
1590512838.8099866,0.14438360893430455,-4.518767217868609,8.762465564262781,0.41,0.3655555555555556,-0.65,-0.0017034840085963228,-0.00013447566970327765,-0.0006126532260998668
1590512838.8199866,0.1342441213301795,-4.51,8.797267636009462,0.3959300743626609,0.3617183031090086,-0.6544767945209715,-0.00029805467498642186,-0.00046296181916095935,0.0007927761075100341
1590512838.8299866,0.13,-4.51,8.80398568308663,0.3855555555555555,0.3588888888888889,-0.6577777777777778,0.0017468909849758217,-0.0013121204049587314,0.0008695411600341805
1590512838.8399866,0.13,-4.50222866929987,8.722286692998706,0.3855555555555555,0.3588888888888889,-0.6577777777777778,0.0013339408901268312,0.00036150045960533063,0.0
1590512838.8499866,0.12292691657551953,-4.521219250273441,8.749511583971362,0.3855555555555555,0.3588888888888889,-0.6577777777777778,0.00031927706983758263,0.0018623844951553294,-0.0015431074253177467
1590512838.8599865,0.13155290573083533,-4.512670641403747,8.781552905730834,0.3855555555555555,0.3588888888888889,-0.6577777777777778,-0.0018903397797712343,0.0009214350451454223,-0.0015515483050691672
1590512838.8699865,0.14,-4.514207642052781,8.79,0.3855555555555555,0.3552054261344642,-0.6509370612338462,-0.0017226790177029157,0.0,0.00045898254728999645
1590512838.8799865,0.14,-4.526217973728703,8.80134607881389,0.3855555555555555,0.3511111111111111,-0.6433333333333333,-0.00041255506769406866,0.0,0.002594216632686981
1590512838.8899865,0.1292950581395349,-4.509295058139535,8.766475290697676,0.3855555555555555,0.3511111111111111,-0.6433333333333333,0.0006607612334380787,0.0005838640053115116,0.002104764336866345
1590512838.8999865,0.12994233627913815,-4.5,8.749827008837414,0.3855555555555555,0.3511111111111111,-0.6433333333333333,0.0027239318881536706,0.0005485604593356975,0.001090830782496456
1590512838.9099865,0.13622555984033557,-4.503774440159664,8.783774440159664,0.3855555555555555,0.3511111111111111,-0.6433333333333333,0.002860764796204088,-0.0008234551025705606,-0.00014435187135938506
1590512838.9199865,0.13,-4.51,8.794984014059159,0.39496980433396617,0.3511111111111111,-0.6394568779539878,0.0010943183737678562,0.0005366964130697279,-0.0010943183737678562
1590512838.9299865,0.13,-4.51625081332831,8.774996746686757,0.4044444444444445,0.3511111111111111,-0.6355555555555555,-0.000681857959416041,0.002590634388073327,-0.000681857959416041
1590512838.9399865,0.13697331713462924,-4.5130266828653705,8.725133414326855,0.4044444444444445,0.3511111111111111,-0.6355555555555555,-0.00033015988384010127,0.002181661564992912,0.00043051101481625343
1590512838.9499865,0.14,-4.517037348088134,8.717037348088134,0.4044444444444445,0.3511111111111111,-0.6355555555555555,0.001535311184335739,-0.001656616395846436,0.0003231751903285864
1590512838.9599864,0.14,-4.526021957251724,8.762153700762068,0.4044444444444445,0.3511111111111111,-0.6355555555555555,0.0028385551990987644,-0.003272492347489368,-0.0006568936341058524
1590512838.9699864,0.14705431045460335,-4.537054310454604,8.797054310454604,0.39974157080804223,0.3511111111111111,-0.6410422414646915,0.0009639746495390018,-0.0017334805488557904,0.00044818101613712156
1590512838.9799864,0.1267231557960695,-4.532241051932023,8.831035792271907,0.3977777777777778,0.3511111111111111,-0.6433333333333333,-0.0008463699392340536,-0.00024446084326240234,0.001090830782496456
1590512838.9899864,0.12,-4.522267558051008,8.739478254663114,0.3977777777777778,0.3511111111111111,-0.6433333333333333,-0.001090830782496456,-0.0016869571403653081,0.0002473522123138019
1590512838.9999864,0.13367191124984182,-4.5131640443750785,8.744179778124604,0.3977777777777778,0.3511111111111111,-0.6433333333333333,0.0011462304645366015,-0.002181661564992912,0.0014913741646887051
1590512839.0099864,0.13234967556899663,-4.51,8.771475486646505,0.3977777777777778,0.3511111111111111,-0.6433333333333333,0.002181661564992912,-9.535921863711508e-05,0.0009298801571794341
1590512839.0199864,0.12043929519671735,-4.51,8.789341057204924,0.3977777777777778,0.3511111111111111,-0.6433333333333333,0.002181661564992912,0.003152693166693837,-0.001018951274019137
