time,acc_x,acc_y,acc_z,mag_x,mag_y,mag_z,gyr_x,gyr_y,gyr_z
1590512856.7975366,0.08,-4.44,8.86,0.3888888888888889,0.26222222222222225,-0.6222222222222222,0.00545415391248228,0.004363323129985824,0.02072578486743266
1590512856.8075366,0.23270414225427133,-4.3905531200065555,8.869877084442987,0.4155555555555556,0.2766666666666667,-0.5933333333333334,0.005420633894173092,0.004302987097029286,0.050218440016807996
1590512856.8175366,0.49548298377107347,-4.457721231970775,8.838860615985388,0.4155555555555556,0.2766666666666667,-0.5933333333333334,0.0024302365962376167,-0.0005936807200070454,0.03606618962179596
1590512856.8275366,0.2393294990612987,-4.423575409005572,8.827150818011145,0.4155555555555556,0.2766666666666667,-0.5933333333333334,0.006154968074649371,0.00841584871813392,0.0018708640231551849
1590512856.8375366,0.2976315683022532,-4.43,8.844122810565915,0.4155555555555556,0.2766666666666667,-0.5933333333333334,0.0068033405151929965,0.012515850247889537,0.002822763479919129
1590512856.8475366,0.28423305627648743,-4.421533887447025,8.833067774894051,0.4127335180378973,0.2766666666666667,-0.5905112958156751,0.010573665496144562,0.020518255018835897,0.0026434163740361406
1590512856.8575366,0.2950730094017805,-4.420146018803561,8.835365047008903,0.4088888888888889,0.2766666666666667,-0.5866666666666667,0.014750107834564305,0.029500215669128613,0.0027191128659537563
1590512856.8675365,0.2866575716234652,-4.443342428376535,8.828867667121418,0.4088888888888889,0.2766666666666667,-0.5866666666666667,0.020243616827147735,0.03854665610944503,0.003151950337418136
1590512856.8775365,0.2591559238217474,-4.44554123176233,8.808073460297088,0.4088888888888889,0.2766666666666667,-0.5866666666666667,0.03021503057537408,0.050152211969275114,0.003969021393220009
1590512856.8875365,0.2374306028408101,-4.4161459042612154,8.838715301420406,0.4088888888888889,0.2766666666666667,-0.5866666666666667,0.040391019175353725,0.05781403147231216,0.003692908974544858
1590512856.8975365,0.2241472027362987,-4.3962208041044475,8.83207360136815,0.4088888888888889,0.2766666666666667,-0.5866666666666667,0.046186995867440794,0.05781403147231216,0.00586640023407751
1590512856.9075365,0.26803943280735754,-4.37568453754114,8.747250776660207,0.4155555555555556,0.27,-0.6077777777777778,0.027164441158187252,0.0298168466522634,0.003058627643000659
1590512856.9175365,0.2567313935934818,-4.420388361560891,8.824822052650083,0.4155555555555556,0.27,-0.6077777777777778,0.003650223833166791,0.0010696489452285492,0.002181661564992912
1590512856.9275365,0.25,-4.38,8.692101223662299,0.4155555555555556,0.27,-0.6077777777777778,0.002181661564992912,0.003457943848271475,0.002181661564992912
1590512856.9375365,0.25,-4.38,8.790801353993194,0.4155555555555556,0.27,-0.6077777777777778,0.002181661564992912,0.0042861372359741905,0.002181661564992912
1590512856.9475365,0.23169655421977403,-4.401696554219774,8.891696554219775,0.4155555555555556,0.27207356626861273,-0.6064582356068424,-0.00018506535671037737,0.009262280972336973,0.002181661564992912
1590512856.9575365,0.23955087719298246,-4.409775438596491,8.9,0.4155555555555556,0.2822222222222222,-0.6,-0.001139822480798051,0.006618472242431128,0.002181661564992912
1590512856.9675364,0.22363132381001496,-4.4,8.85642411427982,0.4155555555555556,0.2822222222222222,-0.6,-0.004064724306124693,0.007836897145879792,0.002181661564992912
1590512856.9775364,0.2422442603550296,-4.4,8.788162840236687,0.4155555555555556,0.2822222222222222,-0.6,-0.006789795522899005,0.0016920399091523725,0.002181661564992912
1590512856.9875364,0.25102865617882303,-4.402990447940392,8.8,0.4155555555555556,0.2822222222222222,-0.6,-0.009052853526654955,-0.00120303976494299,0.002507868831676219
1590512856.9975364,0.23171293291076406,-4.410856466455382,8.803425865821529,0.4155555555555556,0.28117542988786637,-0.6,-0.009537199050356202,0.0009974047851258213,0.0031790663501187334
1590512857.0075364,0.24255861070911722,-4.412558610709118,8.81023444283647,0.4155555555555556,0.27,-0.6,-0.006139119869827015,-0.0008117296503034408,0.0005582022643860303
1590512857.0175364,0.23,-4.396980058467321,8.741880350803925,0.4155555555555556,0.27,-0.6,-0.005783578431000864,-0.0025110860835114964,-0.001852237046474328
1590512857.0275364,0.22231535311662706,-4.393842323441686,8.711526970325059,0.4155555555555556,0.27,-0.6,-0.007802382100928533,-0.007463817033988691,-0.0015099632511463884
1590512857.0375364,0.21,-4.396686767421701,8.763132325782987,0.4155555555555556,0.27,-0.6,-0.01343165312844645,-0.01924064669282361,-0.002181661564992912
1590512857.0475364,0.21666742366372813,-4.392666969465491,8.836667423663728,0.41392574088219986,0.2716298146733558,-0.5991110101781696,-0.02232585168134745,-0.03279802537468069,-0.002181661564992912
1590512857.0575364,0.25996387059479326,-4.409985548237917,8.879963870594795,0.4033421649657172,0.28221339058983835,-0.593338150587361,-0.03271625304007606,-0.054523410033840494,-0.002181661564992912
1590512857.0675364,0.2361616351021939,-4.413838364897806,8.843030189386837,0.4033333333333333,0.2822222222222222,-0.5933333333333334,-0.04254240051736178,-0.07342172748926175,-0.005872854570980357
1590512857.0775363,0.2699972521810813,-4.417997526962973,8.781996977399189,0.4033333333333333,0.2822222222222222,-0.5933333333333334,-0.04210612815247242,-0.07243140375020159,-0.004581459312430502
1590512857.0875363,0.33538595271210014,-4.4737621696801115,8.852138386648122,0.4033333333333333,0.2822222222222222,-0.5933333333333334,-0.03734957567620776,-0.059604647649004014,-0.004745644906326723
1590512857.0975363,0.2621642972927652,-4.393246445939147,8.767575040524678,0.4039345270257681,0.2793364924985353,-0.5940547657642551,-0.020872262806160318,-0.02815394596722221,-0.001090830782496456
1590512857.1075363,0.2777939669467683,-4.416690950420152,8.82227888431369,0.40827610192965785,0.25849693295986453,-0.5992646556489227,-0.014052532894625394,-0.01877681733886169,-0.001090830782496456
1590512857.1175363,0.29,-4.438748150187562,8.801237051312937,0.4088888888888889,0.25555555555555554,-0.6,-0.01036208530077681,-0.014725408430762634,0.0013639420445903307
1590512857.1275363,0.29,-4.431530784320473,8.750715490243316,0.4088888888888889,0.25555555555555554,-0.6,-0.007212915358232923,-0.011576238488218748,0.002938527015862274
1590512857.1375363,0.24813584395274627,-4.42,8.793728312094506,0.4088888888888889,0.25555555555555554,-0.6,-0.0023850094449650422,-0.005250806032510149,0.00586084967242654
1590512857.1475363,0.24723522352235222,-4.422067206720672,8.817235223522353,0.4083146647998133,0.25773760709404275,-0.6,-0.0030469950750201037,-0.004476071766220456,0.007748564113709824
1590512857.1575363,0.31211781649571446,-4.435764367008571,8.873646550512857,0.4033333333333333,0.2766666666666667,-0.6,-0.0006287948974556288,-0.004299064199880212,0.008957664202492062
1590512857.1675363,0.31948450892229874,-4.421030982155402,8.851546473233103,0.4033333333333333,0.2766666666666667,-0.6,0.0009783680753646907,-0.00028115676782941405,0.009761245688902222
1590512857.1775362,0.3086265796417164,-4.4157510530944775,8.752875526547239,0.4033333333333333,0.2766666666666667,-0.6,0.000149816920412303,-0.0018679902776315277,0.004199468763036743
1590512857.1875362,0.32160921700560086,-4.4320976957486,8.776781565988799,0.4033333333333333,0.2766666666666667,-0.6,-0.001724015346015994,-0.0004043614540310792,0.0006331845635195381
1590512857.1975362,0.29007668308085555,-4.439980829229786,8.839846633838288,0.4033333333333333,0.2766666666666667,-0.6,-4.1824132546944975e-06,0.0021753879451108706,-0.0010866483692417615
1590512857.2075362,0.2449816014288481,-4.421992640571539,8.876014718856922,0.4033333333333333,0.2766666666666667,-0.6070028619999569,-0.0009821490988021393,0.00512810886139933,0.0028377656127121014
1590512857.2175362,0.26133017015706805,-4.435467931937173,8.856009489528796,0.4033333333333333,0.2766666666666667,-0.6077777777777778,-0.0004943719351301019,0.0025309344447942152,0.002428847532557963
1590512857.2275362,0.29824777359984167,-4.421752226400158,8.745256679200475,0.4033333333333333,0.2766666666666667,-0.6077777777777778,-0.002946214563071172,-0.0005734147485586951,0.003081354097969803
1590512857.2375362,0.2900661103820536,-4.429933889617946,8.770066110382054,0.4033333333333333,0.2766666666666667,-0.6077777777777778,-0.006530561647021395,-0.0032869153954467084,0.002181661564992912
1590512857.2475362,0.30053212294579523,-4.42106424589159,8.781596368837386,0.40398370582263865,0.27631191803613653,-0.6058857850816168,-0.00424723191211659,-0.005396108303547663,0.002297752782862146
1590512857.2575362,0.30428459781171097,-4.44,8.81,0.4155555555555556,0.27,-0.5722222222222222,-0.0017660257889040255,-0.003116415801719164,0.0041555052419413804
1590512857.2675362,0.27906053709604006,-4.44,8.807651342740101,0.4155555555555556,0.27,-0.5722222222222222,0.00020495901093060402,0.002335380823190865,0.003170012842024066
1590512857.2775362,0.26,-4.433797731643185,8.770337113928024,0.4155555555555556,0.27,-0.5722222222222222,0.0048143648129803165,0.006807278961465757,0.001090830782496456
1590512857.2875361,0.26035827310944215,-4.41,8.812149638656653,0.4155555555555556,0.27,-0.5722222222222222,0.006584066228610758,0.011960057073828991,0.001090830782496456
1590512857.2975361,0.26929754013383184,-4.4103512299330845,8.87,0.4153214022668329,0.27023415328872274,-0.5734710397620768,0.007559188992926731,0.01094662106723879,0.001090830782496456
1590512857.3075361,0.25567678231418606,-4.423784521542791,8.87,0.4088888888888889,0.2766666666666667,-0.6077777777777778,0.005247740282687425,0.011173484088281598,0.001090830782496456
1590512857.317536,0.27687903348105214,-4.437919355654035,8.87,0.4088888888888889,0.2766666666666667,-0.6077777777777778,0.004476804674986129,0.008089741657476413,0.001090830782496456
1590512857.327536,0.3144884303456007,-4.434488430345601,8.8101396065792,0.4088888888888889,0.2766666666666667,-0.6077777777777778,0.00019025385102764553,0.005928536995686391,0.002181661564992912
1590512857.337536,0.4099987738443483,-4.529998773844349,8.92769079857766,0.4088888888888889,0.2766666666666667,-0.6077777777777778,-0.011831164156885135,0.003524253394103835,0.002181661564992912
1590512857.347536,0.24857396817872063,-4.425739681787206,8.851479363574413,0.4088888888888889,0.27460684292481874,-0.6077777777777778,-0.007797189010022517,-0.003280249136556334,0.008571090319224546
1590512857.357536,0.2643010300609628,-4.367338658818583,8.716451545091445,0.4088888888888889,0.26222222222222225,-0.6077777777777778,0.008920184452199314,0.021913384746042954,0.0069731076865534435
1590512857.367536,0.3033900393031032,-4.434745703056256,8.811864257640641,0.4088888888888889,0.26222222222222225,-0.6077777777777778,0.004880999027821005,0.018081926391430667,0.004936478014647099
1590512857.377536,0.2491778866340098,-4.44835577326802,8.844245206438067,0.4088888888888889,0.26222222222222225,-0.6077777777777778,0.007352092604670235,0.014255791926178527,0.0031828136908569793
1590512857.387536,0.2331112323407137,-4.424833424255535,8.776555616170356,0.4088888888888889,0.26222222222222225,-0.6077777777777778,0.017301771714473783,0.02708290756700601,0.001993799569587523
1590512857.397536,0.20155081924039203,-4.401163114430294,8.760775409620196,0.4088888888888889,0.26222222222222225,-0.6077777777777778,0.021605155479240693,0.026222230814052627,0.0011331228166341408
1590512857.407536,0.22,-4.370035169988277,8.752473622508793,0.44222222222222224,0.26222222222222225,-0.6,0.008437633649368835,0.010615458763778524,0.0013644975907663758
1590512857.417536,0.22610687022900763,-4.4,8.725419847328245,0.44222222222222224,0.26222222222222225,-0.6,-0.00828531777545018,-0.008876531405658184,0.002015122514230094
1590512857.427536,0.26691926403394256,-4.416144949412533,8.743822005548303,0.44222222222222224,0.26222222222222225,-0.6,-0.026514192615070414,-0.02408093951006266,0.0015940138625261326
1590512857.437536,0.28427157816259446,-4.463555525432919,8.88498763089227,0.44222222222222224,0.26222222222222225,-0.6,-0.033344400321044874,-0.030150017209497594,0.0034287108193735397
1590512857.447536,0.22741705920227726,-4.399594191602562,8.835239926801993,0.44222222222222224,0.26222222222222225,-0.6,-0.017839735469559272,-0.015420585600586276,0.0049791773045221
1590512857.457536,0.21,-4.370757745218656,8.87,0.43,0.26222222222222225,-0.6,-0.0046939518539054524,0.0007602020585768278,0.01023076294736764
1590512857.467536,0.21,-4.378576221899117,8.87,0.43,0.26222222222222225,-0.6,-0.008105405868016391,-0.0026512519555341113,0.014495080465006312
1590512857.477536,0.12489837647017704,-4.33,8.757652435294734,0.43,0.26222222222222225,-0.6,-0.008865771459647625,-0.00220383237990428,0.029496772757227046
1590512857.487536,0.09557837157686863,-4.33,8.801632442634698,0.43,0.26222222222222225,-0.6,-0.009665350556661815,-0.008600465156017785,0.04229003830945405
1590512857.497536,0.09990983893557423,-4.33,8.869459033613445,0.43,0.26222222222222225,-0.6,-0.010898472778518731,-0.01630345145877187,0.06634397680336726
1590512857.507536,0.09843111519446997,-4.334607778798618,8.833872774204838,0.3955555555555556,0.26222222222222225,-0.6077777777777778,-0.004700207869612305,-0.02634568473553511,0.09270983085542647
1590512857.517536,0.15695251402943364,-4.353047485970566,8.7708575420883,0.3955555555555556,0.26222222222222225,-0.6077777777777778,-0.0025140907155848996,-0.030377047334604775,0.11752909451745576
1590512857.527536,0.10129522108083967,-4.348497345044911,8.715699469008984,0.3955555555555556,0.26222222222222225,-0.6077777777777778,-0.004949717078246102,-0.02769324928262348,0.13581408930219288
1590512857.537536,-0.21224400467385054,-4.167784001335386,8.701051987313834,0.3955555555555556,0.26222222222222225,-0.6077777777777778,-0.010784388865400958,-0.013936017235023718,0.15536615211747817
1590512857.547536,-0.15778975091344102,-4.152225643118126,8.848856390377803,0.3955555555555556,0.26222222222222225,-0.6077777777777778,-0.017573003292798452,-0.019876054858996524,0.19694641548528782
1590512857.557536,-0.17728739361347526,-4.17542521277305,8.8908504255461,0.4155555555555556,0.26222222222222225,-0.6,-0.007432683059144037,-0.022408414559372654,0.3026463355876623
1590512857.5675359,-0.17430004935022209,-4.194300049350223,8.894199703898668,0.4155555555555556,0.26222222222222225,-0.6,-0.01005200835234191,-0.026109059003786288,0.3707735444687695
1590512857.5775359,-0.19183776687327825,-4.2044866993801655,8.807351067493114,0.4155555555555556,0.26222222222222225,-0.6,-0.010707838557322142,-0.035018569863244635,0.43177403767296446
1590512857.5875359,-0.19945882606470383,-4.181623521805888,8.839458826064703,0.4155555555555556,0.26222222222222225,-0.6,-0.009935542879929269,-0.04095106813967469,0.4777582009161403
1590512857.5975358,-0.1938096328421733,-4.19857110147348,8.833809632842174,0.4155555555555556,0.26222222222222225,-0.6,-0.011168005652610592,-0.047113382003081315,0.5116509271648768
1590512857.6075358,-0.1959793363103056,-4.227938008930916,8.871855354172139,0.4155555555555556,0.25823599801535185,-0.6046505949080154,-0.012651383018079025,-0.04735558031362536,0.5651625707223099
1590512857.6175358,-0.2,-4.253887993895201,8.8861120061048,0.4155555555555556,0.25555555555555554,-0.6077777777777778,-0.017634804764359892,-0.04396658951995429,0.6251647034454177
1590512857.6275358,-0.2320970650664709,-4.268322347946823,8.711677652053178,0.4155555555555556,0.25555555555555554,-0.6077777777777778,-0.02086303745507693,-0.043816234750050594,0.6888704240244984
1590512857.6375358,-0.2655663192837422,-4.241546944573006,8.738453055426994,0.4155555555555556,0.25555555555555554,-0.6077777777777778,-0.023053595021120858,-0.0467369781714425,0.7151571148170256
1590512857.6475358,-0.28,-4.029303064788291,8.790058077934308,0.415574914866992,0.25555555555555554,-0.6077164732915625,-0.024007780194701265,-0.049077882232561286,0.7756662131729933
1590512857.6575358,-0.28,-3.8317925675940825,8.806517286033827,0.4210613175668311,0.25555555555555554,-0.5903428647420721,-0.026700911822271536,-0.04638475060499101,0.7999043978211257
1590512857.6675358,0.2010745052386496,-2.7352339930151337,8.738738300349244,0.4222222222222222,0.25555555555555554,-0.5866666666666667,-0.04040157843777641,-0.01752966337356301,0.8175419369313622
1590512857.6775358,0.05875837643641553,-2.9414765459780368,8.718758376436416,0.4222222222222222,0.25555555555555554,-0.5866666666666667,-0.07347916975823268,0.03916559731995499,0.78153265844835
1590512857.6875358,-0.07090569931735197,-3.2746324813462455,8.676547864740435,0.4222222222222222,0.25555555555555554,-0.5866666666666667,-0.10073542598356083,0.14231332704972177,0.7025638610821934
1590512857.6975358,-0.31228270360374666,-3.7740331798698206,8.951218248928402,0.4222222222222222,0.25555555555555554,-0.5866666666666667,-0.14159255008979194,0.19678949252469657,0.670786097888458
1590512857.7075357,-0.3050010716442921,-3.9200021432885843,9.440603043469789,0.4488888888888889,0.2433333333333333,-0.6,-0.14342274924589624,0.11196368512731307,0.6582072473990582
1590512857.7175357,-0.10069208736823648,-3.511384174736473,8.860365528125792,0.4488888888888889,0.2433333333333333,-0.6,-0.08280305330651386,-0.043151419188165396,0.6671219085666145
1590512857.7275357,0.23990559115589688,-2.920917673531282,9.32623489703077,0.4488888888888889,0.2433333333333333,-0.6,-0.028464584418195445,-0.022607138471564155,0.7709405334984576
1590512857.7375357,0.1261088988383849,-2.93,9.123521158726556,0.4488888888888889,0.2433333333333333,-0.6,-0.12456476395717071,-0.02753607819022142,0.9108501177855354
1590512857.7475357,0.0049538861493387265,-2.93,8.543707883714692,0.4488888888888889,0.2433333333333333,-0.6,-0.012229089256454467,-0.09644787863687926,1.0250737870190367
1590512857.7575357,-0.05572902957678188,-3.0321698875574334,8.761492461499387,0.45611302235254575,0.2185648757436525,-0.5938078856025798,0.001482825663676175,-0.06988331308568976,1.1543656876057231
1590512857.7675357,-0.1375958466453674,-3.048621760738374,8.76275647852325,0.4566666666666666,0.21666666666666667,-0.5933333333333334,-0.050485677706339355,-0.10807250116955325,1.2626677060574665
1590512857.7775357,-0.21664099968027284,-3.0976007140573376,8.740959714377064,0.4566666666666666,0.21666666666666667,-0.5933333333333334,-0.01840388940801512,-0.1083063132626212,1.3874947578272134
1590512857.7875357,-0.2410767103628122,-3.1562045609674994,8.831332411572186,0.4566666666666666,0.21666666666666667,-0.5933333333333334,-0.03322261967295973,-0.11795506806540677,1.4588987993595244
1590512857.7975357,-0.32250481345587967,-3.2796941185018347,8.915315508409925,0.4566666666666666,0.21666666666666667,-0.5933333333333334,-0.0443152630722107,-0.11821852351976124,1.5688587320293874
1590512857.8075356,-0.3831007530458562,-3.3262015060917123,8.964651129568786,0.4566666666666666,0.20444444444444448,-0.6222222222222222,-0.03759560613558044,-0.13627773609096241,1.6639396650011182
1590512857.8175356,-0.40037264074850787,-3.3596273592514923,8.98850943700597,0.4566666666666666,0.20444444444444448,-0.6222222222222222,-0.04037428855234503,-0.14183510092449161,1.7265072739079632
1590512857.8275356,-0.4293701749130044,-3.3306298250869957,8.872519300347982,0.4566666666666666,0.20444444444444448,-0.6222222222222222,-0.04142866864844922,-0.1439438611166999,1.789770079674214
1590512857.8375356,-0.4628848320937571,-3.2724040267447974,8.848557583953122,0.4566666666666666,0.20444444444444448,-0.6222222222222222,-0.04118933109734834,-0.15468818020448316,1.8563110199291721
1590512857.8475356,-0.5101498760423709,-3.3117915633686423,8.824925061978815,0.4566666666666666,0.20444444444444448,-0.6222222222222222,-0.036892817357748665,-0.15125096921280343,1.9052912765606085
1590512857.8575356,-0.5303062527395042,-3.332143769176529,8.919387494520992,0.4833333333333333,0.16333333333333333,-0.6077777777777778,-0.04799655442984406,-0.15489797111449674,2.033308578573394
1590512857.8675356,-0.5382995064128219,-3.388096544889753,8.903400987174356,0.4833333333333333,0.16333333333333333,-0.6077777777777778,-0.04799655442984406,-0.15489797111449674,2.033308578573394
1590512857.8775356,-0.631430600091617,-3.4204768666972054,8.791430600091616,0.4833333333333333,0.16333333333333333,-0.6077777777777778,-0.037764481739076684,-0.15645696468220663,2.088321378582767
1590512857.8875356,-0.6602226650670029,-3.4300742216890012,8.820222665067003,0.4833333333333333,0.16333333333333333,-0.6077777777777778,-0.05126095044702432,-0.165854856921316,2.1413898856739437
1590512857.8975356,-0.6858096264513899,-3.43860320881713,8.84580962645139,0.4833333333333333,0.16333333333333333,-0.6077777777777778,-0.050330582276736396,-0.1714370659430435,2.1516239355471107
1590512857.9075356,-0.753383405995166,-3.44,8.88961462874698,0.4974185346655924,0.12195805441982224,-0.613059728277375,-0.05277098738329936,-0.17667254928187737,2.1472501647415916
1590512857.9175355,-0.8141913501113285,-3.4326347749814454,8.929460900074218,0.5011111111111111,0.1111111111111111,-0.6144444444444445,-0.05184386550827583,-0.17941226038097283,2.128792299412999
1590512857.9275355,-0.8599995559404072,-3.3699986678212217,8.869992895046515,0.5011111111111111,0.1111111111111111,-0.6144444444444445,-0.038179658660023666,-0.16362471425324301,2.087847647289464
1590512857.9375355,-0.8506869601900575,-3.3420608805701724,8.720991363040921,0.5011111111111111,0.1111111111111111,-0.6144444444444445,-0.05036981799133622,-0.16565640747512844,2.0360394701313855
1590512857.9475355,-0.9413332193464276,-3.3732120797623373,8.892666438692855,0.5011111111111111,0.1111111111111111,-0.6144444444444445,-0.0404004190906879,-0.15765480817447713,1.9896489560182022
1590512857.9575355,-1.0075021653488307,-3.38,8.939500433069766,0.5148339588785511,0.06255334208786194,-0.6218336701653737,-0.029888385515737394,-0.1414800911216257,1.9260228673639586
1590512857.9675355,-1.01,-3.3543150465874927,8.914315046587493,0.5155555555555555,0.06,-0.6222222222222222,-0.025716706083490942,-0.1332457208542161,1.8652309313605948
1590512857.9775355,-1.092076813655761,-3.374623044096728,8.82792318634424,0.5155555555555555,0.06,-0.6222222222222222,-0.040309533524456514,-0.14094371616856413,1.792830820621021
1590512857.9875355,-1.1013886025992308,-3.3541658077976924,8.982227948015383,0.5155555555555555,0.06,-0.6222222222222222,-0.05208745092842035,-0.14289883250703572,1.7133899646962363
1590512857.9975355,-1.1220214052485185,-3.2765953158382715,8.885212036925061,0.5155555555555555,0.06,-0.6222222222222222,-0.032631965185935016,-0.13248946092884006,1.6579464816016634
1590512858.0075355,-1.1886437418038758,-3.2751330322016607,8.806489290397785,0.5155555555555555,0.01718075995272557,-0.6333924587562938,-0.04062477626781155,-0.12506258097684222,1.5777299288967244
1590512858.0175354,-1.2450923515557208,-3.28,8.857975880571642,0.5155555555555555,0.008888888888888889,-0.6355555555555555,-0.040822481292307825,-0.12716545921214636,1.5112352352370688
1590512858.0275354,-1.3120531968128104,-3.2547680819123137,8.780661688286694,0.5155555555555555,0.008888888888888889,-0.6355555555555555,-0.029177865420997432,-0.1149561558588432,1.412538820251494
1590512858.0375354,-1.3753308133154492,-3.2592218022192414,8.8706616266309,0.5155555555555555,0.008888888888888889,-0.6355555555555555,-0.03129453985474853,-0.10732585773171355,1.3110129475115362
1590512858.0475354,-1.4108326371484265,-3.2291673628515736,8.941665274296854,0.5155555555555555,0.008888888888888889,-0.6355555555555555,-0.028270773721692472,-0.099333949000567,1.2211414703009982
1590512858.0575354,-1.4654221041000985,-3.23816884164004,8.969084420820021,0.5276681166489151,-0.01937375366228354,-0.6426212161933487,-0.023306943213759722,-0.09014724353204415,1.0975457096823205
1590512858.0675354,-1.4603008756829579,-3.220601751365916,9.115486864755631,0.5288888888888889,-0.022222222222222227,-0.6433333333333333,-0.016559384411451886,-0.06934592776495938,0.9817572564660718
1590512858.0775354,-1.395806807437756,-3.0824431587951913,8.771522668947819,0.5288888888888889,-0.022222222222222227,-0.6433333333333333,0.005645052982833174,-0.04971584931158035,0.8844431035490337
1590512858.0875354,-1.5366385588348026,-3.115824549635876,9.033277117669606,0.5288888888888889,-0.022222222222222227,-0.6433333333333333,-0.0403515406859009,-0.07698891544521712,0.7649663572168469
1590512858.0975354,-1.56497080348801,-3.082572991279975,9.06,0.5288888888888889,-0.022222222222222227,-0.6433333333333333,-0.029209979463099438,-0.06493309516715737,0.6878993870254986
1590512858.1075354,-1.5994669870384786,-3.1191116450641307,8.834086432704998,0.536528478121087,-0.05387194904132871,-0.6782571698233819,-0.0004263797603246862,-0.02999509627690846,0.5807622364631477
1590512858.1175354,-1.654772259271154,-3.0887015661307693,8.83,0.5366666666666666,-0.054444444444444434,-0.6788888888888889,-0.013656518043394695,-0.0405483520376625,0.5015596991338108
1590512858.1275353,-1.698736158658954,-3.1231042379884313,8.83,0.5366666666666666,-0.054444444444444434,-0.6788888888888889,-0.013535006715457147,-0.03579665969088594,0.41022005697858716
1590512858.1375353,-1.7179653955364487,-3.108138417854205,8.877792373218693,0.5366666666666666,-0.054444444444444434,-0.6788888888888889,0.0001653194968244901,-0.021429355235199996,0.3090259661659511
1590512858.1475353,-1.7413980928003996,-3.0946504767999,8.8739514303997,0.5366666666666666,-0.054444444444444434,-0.6788888888888889,0.002105407431819787,-0.015626411013265798,0.2399763367702653
1590512858.1575353,-1.7698699821225419,-3.1146749553063544,8.924154883796522,0.5399566607075139,-0.06595942358740993,-0.6821788829297362,-0.0005241412657972977,-0.012551645373859553,0.15436026759372448
1590512858.1675353,-1.8014651374476607,-3.1560988530857457,8.952436009466593,0.5433333333333333,-0.07777777777777778,-0.6855555555555556,0.002501304970692219,-0.002633205536090753,0.06911804099347232
1590512858.1775353,-1.8137497631050299,-3.151249289315089,8.813745972785506,0.5433333333333333,-0.07777777777777778,-0.6855555555555556,0.0031360092935144293,0.004772358832189419,-0.017727912466778052
1590512858.1875353,-1.8041307890929734,-3.1458692109070268,8.843907374512424,0.5433333333333333,-0.07777777777777778,-0.6855555555555556,-0.0027505587733126615,0.008204712685794941,-0.08961160795110948
1590512858.1975353,-1.810531862878253,-3.15,8.888936274243495,0.5433333333333333,-0.07777777777777778,-0.6855555555555556,0.0014389342222956734,0.017226971948511017,-0.15106829992107745
1590512858.2075353,-1.8360880693004331,-3.160725379533622,8.902176138600865,0.5397582068221259,-0.06645654382562112,-0.7016436248559886,0.0035409645252438334,0.022907446432425576,-0.2150858015596126
1590512858.2175353,-1.858108826518646,-3.194326479555938,8.962435306074584,0.5366666666666666,-0.05666666666666665,-0.7155555555555555,0.0,0.024676517947718083,-0.29231732121695414
1590512858.2275352,-1.8784339085218429,-3.2,8.853251912694995,0.5366666666666666,-0.05666666666666665,-0.7155555555555555,0.004691930800048306,0.032462142111780105,-0.3381053006200879
1590512858.2375352,-1.89,-3.180521188504627,8.838436434486118,0.5366666666666666,-0.05666666666666665,-0.7155555555555555,0.00621927633176864,0.03779651617773278,-0.3975124455850541
1590512858.2475352,-1.8832074868362148,-3.2311326184740667,8.87,0.5366666666666666,-0.05666666666666665,-0.7155555555555555,0.007676998647353066,0.03817907738737596,-0.45557655018894594
1590512858.2575352,-1.88,-3.2930125805461796,8.911265725682725,0.5366666666666666,-0.04016037639357676,-0.7393979748389077,0.007826367783236234,0.044481026724523864,-0.5247364327773805
1590512858.2675352,-1.8215699548678272,-3.316694298609192,8.878264253477019,0.5366666666666666,-0.03666666666666667,-0.7444444444444445,0.006725282736720459,0.049457023827870074,-0.5874982804287796
1590512858.2775352,-1.7768565436041661,-3.3117141359010414,8.803713087208331,0.5366666666666666,-0.03666666666666667,-0.7444444444444445,0.006544984694978735,0.052889758680454806,-0.6529099700822873
1590512858.2875352,-1.7297845206684257,-3.3421723834652597,8.854344766930518,0.5366666666666666,-0.03666666666666667,-0.7444444444444445,0.007422350350733361,0.06134699924411797,-0.7213447141643923
1590512858.2975352,-1.738992471182067,-3.383236824568617,8.874748117795516,0.5366666666666666,-0.03666666666666667,-0.7444444444444445,0.008671694087528967,0.06896551774009022,-0.7725115773645472
1590512858.3075352,-1.7544364998297584,-3.427418000226989,8.889272500283736,0.5329576665531721,-0.033163722115032976,-0.7537169447281807,0.0104243607668805,0.07587420771666786,-0.8285272677030578
1590512858.3175352,-1.7259022745066548,-3.46,8.917706823519964,0.5166666666666667,-0.017777777777777778,-0.7944444444444444,0.01308996938995747,0.08256274893547001,-0.9269148491623073
1590512858.3275352,-1.72,-3.4892729606721904,8.84145407865562,0.5166666666666667,-0.017777777777777778,-0.7944444444444444,0.01415436427649192,0.0920826754850835,-1.0151175277968734
1590512858.3375351,-1.6786404139120437,-3.530339896521989,8.81618963782696,0.5166666666666667,-0.017777777777777778,-0.7944444444444444,0.015835584825651068,0.09712101660108949,-1.0987476146709165
1590512858.3475351,-1.64,-3.54,8.854549767329425,0.5166666666666667,-0.017777777777777778,-0.7944444444444444,0.016858764363060216,0.10164888880397469,-1.1719813873111267
1590512858.3575351,-1.6151305578095416,-3.5499477768761833,8.855026111561909,0.489586607392612,-0.013909197881484255,-0.7828387047555638,0.017995859581640655,0.1090659882723404,-1.2509835244548744
1590512858.367535,-1.5676716742687367,-3.589771100975018,8.83511444951249,0.4622222222222222,-0.01,-0.7711111111111111,0.016920361633821768,0.11722685560298889,-1.3470055241467491
1590512858.377535,-1.5200878365476418,-3.605701737636051,8.790087836547642,0.4622222222222222,-0.01,-0.7711111111111111,0.016362461737446838,0.12201037075567527,-1.4084824976797845
1590512858.387535,-1.473597715038998,-3.620934856640668,8.78733714160167,0.4622222222222222,-0.01,-0.7711111111111111,0.014573250003572886,0.1285295365836352,-1.481644906685714
1590512858.397535,-1.4239267920691407,-3.6239877986781903,8.834048805287239,0.4622222222222222,-0.01,-0.7711111111111111,0.014401628244436688,0.1352696718182692,-1.5601953592951276
1590512858.407535,-1.3549525986687285,-3.657539501109393,8.857507900221878,0.45388011086457936,-0.025850011579521437,-0.7444163547666539,0.013633661220162959,0.1407206180641283,-1.6417554816105335
1590512858.417535,-1.323855055523086,-3.7022898889538283,8.83578258328463,0.4511111111111111,-0.031111111111111114,-0.7355555555555555,0.01397053951081317,0.1497331328122406,-1.7075849768241733
1590512858.427535,-1.2413882467711492,-3.6385347697919537,8.779974338854368,0.4511111111111111,-0.031111111111111114,-0.7355555555555555,0.013401235442562602,0.15318460822679003,-1.7620253733584375
1590512858.437535,-1.1602110368331366,-3.57888189802071,8.76,0.4511111111111111,-0.031111111111111114,-0.7355555555555555,0.010374402707407637,0.1551649236732752,-1.8171629398074174
1590512858.447535,-1.0551655980879395,-3.541291399521985,8.741291399521986,0.4511111111111111,-0.031111111111111114,-0.7355555555555555,0.008216448327500478,0.15751939569440668,-1.864210832897666
1590512858.457535,-0.9813665765987063,-3.554099729796119,8.86208220748383,0.4662665465760528,-0.023533393378640247,-0.7355555555555555,-0.011582652573007484,0.17909971287723886,-1.9162986001398001
1590512858.467535,-0.9575605031381563,-3.6448789937236876,8.905121006276314,0.4777777777777778,-0.017777777777777778,-0.7355555555555555,0.0003595625292822195,0.17735952845521094,-1.977597010243428
1590512858.477535,-0.8721687510217426,-3.6529244319110674,8.783866478666013,0.4777777777777778,-0.017777777777777778,-0.7355555555555555,0.008860458937495888,0.1873349398720394,-2.0145075518712425
1590512858.487535,-0.8618549960453467,-3.7082799894542577,8.820134985499605,0.4777777777777778,-0.017777777777777778,-0.7355555555555555,0.011406817204974936,0.1938717185831261,-2.0582542364273086
1590512858.497535,-0.83277350796016,-3.7362044153399734,8.83138675398008,0.4777777777777778,-0.017777777777777778,-0.7355555555555555,0.02485827636390966,0.19146069238827468,-2.0873167432788637
1590512858.507535,-0.7875386390308914,-3.722030911224713,8.806523183418534,0.49774343197254106,-0.014283788293694208,-0.7450392412980681,0.03419501611260577,0.1937248031882822,-2.107468212325432
1590512858.517535,-0.7447360342673568,-3.74579189719793,8.845967874353025,0.5222222222222223,-0.01,-0.7566666666666667,0.03322234854169333,0.1896509871161479,-2.128919439144959
1590512858.527535,-0.6899189333333333,-3.7699594666666667,8.769736533333333,0.5222222222222223,-0.01,-0.7566666666666667,0.03874107340651813,0.18818267985814677,-2.1413074582917004
1590512858.537535,-0.6554112554112554,-3.7878787878787876,8.748225108225109,0.5222222222222223,-0.01,-0.7566666666666667,0.044544618057528435,0.19171705168213687,-2.148114976772761
1590512858.547535,-0.6010766587261296,-3.825892334127387,8.851784668254775,0.5222222222222223,-0.01,-0.7566666666666667,0.041899646572670965,0.18871372537188688,-2.147261779414866
1590512858.557535,-0.5468350125944584,-3.856329974811083,8.833670025188917,0.5127141757626644,-0.019508046459557796,-0.7098578225580745,0.044323724437493904,0.184405493317944,-2.1359568542801464
1590512858.567535,-0.54,-3.8837799742919197,8.80622002570808,0.5077777777777778,-0.024444444444444446,-0.6855555555555556,0.0420569878299422,0.1859266457118171,-2.117954890872403
1590512858.577535,-0.47632538213896425,-3.87585008491977,8.84244974524069,0.5077777777777778,-0.024444444444444446,-0.6855555555555556,0.04267601339325275,0.18530762014850655,-2.0948697156799905
1590512858.587535,-0.4221498580196024,-3.9117752129705963,8.901775212970596,0.5077777777777778,-0.024444444444444446,-0.6855555555555556,0.042114241691402515,0.1813124230249896,-2.0726602216136594
1590512858.597535,-0.38733646798506427,-3.93,8.874672935970128,0.5077777777777778,-0.024444444444444446,-0.6855555555555556,0.03774325798056746,0.17442461148046845,-2.0450197354405995
1590512858.607535,-0.34926298331087385,-3.9230876611036245,8.77778894993262,0.47321608329590087,0.03853464327808684,-0.6402413339015391,0.04244677708710044,0.17016960206944715,-1.99199831441206
1590512858.6175349,-0.3392810656022215,-3.92503254078445,8.762940819160013,0.4577777777777778,0.06666666666666668,-0.62,0.045187504247497234,0.17001275491510867,-1.9712596739339427
1590512858.6275349,-0.33018201145435616,-3.9887259198195073,8.926723793821589,0.4577777777777778,0.06666666666666668,-0.62,0.03724708156262239,0.16802764924388994,-1.9176618208110374
1590512858.6375349,-0.2206657262886756,-3.8759985894330136,8.755332863144337,0.4577777777777778,0.06666666666666668,-0.62,0.040505977898049765,0.15293416796802517,-1.8205934986068055
1590512858.6475348,-0.19973342532773003,-3.885666436680675,8.796199586025216,0.4577777777777778,0.06666666666666668,-0.62,0.03649921303487938,0.1477639528495179,-1.7487329751917737
1590512858.6575348,-0.16103876289726152,-3.9148268728504565,8.830346254299087,0.44758771287125865,0.10903588390956187,-0.6232179152336377,0.03648617548642887,0.14248561381259311,-1.6784176393291548
1590512858.6675348,-0.10901824355019965,-3.92,8.82,0.43666666666666665,0.15444444444444444,-0.6266666666666667,0.03817907738737596,0.13510237750610704,-1.6005562917136698
1590512858.6775348,-0.07286990117848059,-3.92428252470538,8.78573980235696,0.43666666666666665,0.15444444444444444,-0.6266666666666667,0.03584332249966101,0.12965476979435622,-1.5306164717168225
1590512858.6875348,-0.04178701725554643,-3.909467543138866,8.723574034511092,0.43666666666666665,0.15444444444444444,-0.6266666666666667,0.030485179876453137,0.12340072973177212,-1.4539071666623173
1590512858.6975348,-0.019305025610570854,-3.901389948778858,8.732084923168287,0.43666666666666665,0.15444444444444444,-0.6266666666666667,0.028437410290611455,0.11695615407844692,-1.3790965219979232
1590512858.7075348,-0.0006235617251874395,-3.938752876549625,8.788129314824436,0.43666666666666665,0.15444444444444444,-0.6266666666666667,0.030475241877438664,0.11355976810040158,-1.328150732327243
1590512858.7175348,0.04048069919883467,-3.9875965040058268,8.851442097596504,0.4244444444444445,0.2288888888888889,-0.5911111111111111,0.028775925365353523,0.10289998242679149,-1.2012462156057129
1590512858.7275348,0.084168419682939,-3.9286105267723537,8.8059684240203,0.4244444444444445,0.2288888888888889,-0.5911111111111111,0.02866473637854212,0.09553840480923673,-1.114993260367649
1590512858.7375348,0.14158790305283478,-3.92,8.744735349491194,0.4244444444444445,0.2288888888888889,-0.5911111111111111,0.031117546193309868,0.08812634224492596,-1.0346117540664943
1590512858.7475348,0.17379007194491664,-3.92,8.77411064750425,0.4244444444444445,0.2288888888888889,-0.5911111111111111,0.0283266309760842,0.08192680667953146,-0.9617630564736375
1590512858.7575347,0.1821758945386064,-3.9243517890772126,8.843055367231639,0.417433228708935,0.2409771918811467,-0.5928034735300273,0.022670093158207796,0.07687834342022037,-0.8890576556480645
1590512858.7675347,0.20032859268655623,-3.9554928890298346,8.833192740223941,0.3922222222222223,0.28444444444444444,-0.5988888888888889,0.026323314386874446,0.06696063946744248,-0.7785460973171109
1590512858.7775347,0.2275677553856845,-3.9831758165392634,8.788783877692842,0.3922222222222223,0.28444444444444444,-0.5988888888888889,0.02862691707449351,0.06183092675823901,-0.699074712259459
1590512858.7875347,0.26308392766174227,-3.9258577432501274,8.804361309220582,0.3922222222222223,0.28444444444444444,-0.5988888888888889,0.026655683814894453,0.05666547779244851,-0.6101725634296089
1590512858.7975347,0.26107905524106967,-3.8820325980870583,8.781618582861604,0.3922222222222223,0.28444444444444444,-0.5988888888888889,0.028818735735683113,0.049779933937710366,-0.517742251408697
1590512858.8075347,0.2702237900507797,-3.946716397789062,8.783581988945311,0.39520728790624987,0.3004891724960929,-0.5988888888888889,0.029077971218740742,0.044341464937817564,-0.4441228830161349
1590512858.8175347,0.32329579599902547,-3.963352102000487,8.839943693998539,0.4011111111111111,0.3322222222222222,-0.5988888888888889,0.026545596384734887,0.037075962540952745,-0.36237406862652216
1590512858.8275347,0.30082117526970664,-3.966940391756569,8.78940391756569,0.4011111111111111,0.3322222222222222,-0.5988888888888889,0.024267006193528274,0.030722414562304932,-0.28919292645844513
1590512858.8375347,0.28,-3.9569881062031955,8.72602378759361,0.4011111111111111,0.3322222222222222,-0.5988888888888889,0.01690571477541592,0.025522845486482093,-0.2334118392148918
1590512858.8475347,0.28330617648556444,-3.93,8.776693823514435,0.4011111111111111,0.3322222222222222,-0.5988888888888889,0.012359786515742979,0.018553010360090317,-0.15325469861079707
1590512858.8575346,0.28796696830743007,-3.9249174207685753,8.784231221847989,0.3986262945979701,0.33289989945307885,-0.5988888888888889,0.011981122613934412,0.01580803834943531,-0.103631713053606
1590512858.8675346,0.27,-3.904177205918258,8.885822794081742,0.37666666666666665,0.3388888888888889,-0.5988888888888889,0.006401380037055475,0.007743518970917637,-0.014167004324381921
1590512858.8775346,0.27528536926401426,-3.924714630735986,8.807146307359858,0.37666666666666665,0.3388888888888889,-0.5988888888888889,0.00917867477795035,0.0014806013849621405,0.05249798197820621
1590512858.8875346,0.2954561268303424,-3.9509122536606847,8.785760211383904,0.37666666666666665,0.3388888888888889,-0.5988888888888889,0.004263811692533819,-0.0022148320441435806,0.1189043503215893
1590512858.8975346,0.3140498353725458,-3.9638006585098164,8.814049835372547,0.37666666666666665,0.3388888888888889,-0.5988888888888889,0.0015325992913380556,-0.008573714453588562,0.18296386191554587
1590512858.9075346,0.30705599836501124,-3.960710402615982,8.840710402615983,0.3804060449167745,0.3420529781774417,-0.5988888888888889,0.001616872947707704,-0.017492038972017253,0.24556957358174863
1590512858.9175346,0.2676409021057441,-4.001127216845952,8.883486314740209,0.3911111111111111,0.3511111111111111,-0.5988888888888889,-0.0012866883009884681,-0.02201247316842113,0.3212031136061476
1590512858.9275346,0.26,-3.9254026575189602,8.776476410902854,0.3911111111111111,0.3511111111111111,-0.5988888888888889,-0.0012079591068925545,-0.029364584884107238,0.4237512296600571
1590512858.9375346,0.251544434004253,-3.9015444340042533,8.70731665100638,0.3911111111111111,0.3511111111111111,-0.5988888888888889,0.0005054148460120322,-0.03503082139279146,0.5079205578470637
1590512858.9475346,0.2327456754490317,-3.9008814868264525,8.740780271856778,0.3911111111111111,0.3511111111111111,-0.5988888888888889,-0.007624774637018152,-0.04134437359794235,0.5944254905773692
1590512858.9575346,0.2232891934109628,-3.9101324197671117,8.833289193410963,0.40682614629682223,0.3511111111111111,-0.6058327416453659,-0.011683677532687651,-0.04941729104293152,0.6748631354698653
1590512858.9675345,0.2086345195317028,-3.8579517792975544,8.845341370117074,0.4388888888888889,0.3511111111111111,-0.62,-0.009607200979956033,-0.0562894984081462,0.7641423260621559
1590512858.9775345,0.20019220003732038,-3.83509610001866,8.799038999813398,0.4388888888888889,0.3511111111111111,-0.62,-0.015848495003764517,-0.061149421134933345,0.8174725372957682
1590512858.9875345,0.23002546380502,-3.8159694434339757,8.762015278283013,0.4388888888888889,0.3511111111111111,-0.62,-0.017890180366988983,-0.06566967970842796,0.8561045528629615
1590512858.9975345,0.2546366770369125,-3.7978777432102917,8.796089968889262,0.4388888888888889,0.3511111111111111,-0.62,-0.01873913922859328,-0.06782652444093382,0.8857608874069388
1590512859.0075345,0.23347649878079543,-3.8684116707306817,8.859570503657613,0.4388888888888889,0.3511111111111111,-0.62,-0.01950854502208944,-0.06859593023442996,0.9073042496248312
1590512859.0175345,0.15715456524522986,-3.865772826226149,8.85430913049046,0.5522222222222222,0.3644444444444445,-0.6344444444444445,-0.019945342866945062,-0.07200377173569704,0.9335825452895653
1590512859.0275345,0.1384679344694163,-3.864596196591751,8.813091847095304,0.5522222222222222,0.3644444444444445,-0.6344444444444445,-0.02072578486743266,-0.06737931320338561,0.9434835539721959
1590512859.0375345,0.1101612062734287,-3.9036020104557143,8.773279597908857,0.5522222222222222,0.3644444444444445,-0.6344444444444445,-0.019652538961474963,-0.06872233929727672,0.945767873300966
1590512859.0475345,0.09,-3.8716272197519954,8.778915186832002,0.5522222222222222,0.3644444444444445,-0.6344444444444445,-0.017334957760252442,-0.06872233929727672,0.943095287820671
1590512859.0575345,0.08249941538701379,-3.9105008184581806,8.773501052303375,0.6117268601519127,0.3611108512831173,-0.6301107733347191,-0.01658072992816072,-0.06888597666892801,0.9345147058561601
1590512859.0675344,0.04163204458648375,-3.967715137578923,8.847062319744328,0.935941335169451,0.34294757537177056,-0.6064985146499684,-0.02371343169918712,-0.06977756439030632,0.9327315304134035
1590512859.0775344,-0.0028687630504565715,-3.977212578302739,8.788524947798175,0.9488888888888888,0.3422222222222222,-0.6055555555555555,-0.019795857319690333,-0.06872233929727672,0.9278320321306128
1590512859.0875344,-0.01858081797105364,-3.972805501159205,8.77287122695658,0.9488888888888888,0.3422222222222222,-0.6055555555555555,-0.02243943541333437,-0.06872233929727672,0.9298558377060716
1590512859.0975344,-0.04005377539674517,-3.913351258465582,8.813458809259071,0.9488888888888888,0.3422222222222222,-0.6055555555555555,-0.022547746828800796,-0.06908790488671257,0.9319409198272202
1590512859.1075344,-0.07236304058436017,-3.92927228043827,8.85072771956173,1.103426896193391,0.331232852813902,-0.6319987256943259,-0.02399827721492203,-0.07048746934150682,0.9368648783846637
1590512859.1175344,-0.09516379925120343,-3.9209827955072205,8.849344802995185,1.4488888888888893,0.30666666666666664,-0.6911111111111111,-0.025053372544345972,-0.07304992697419002,0.9456073466121373
1590512859.1275344,-0.11439400502469028,-3.8656059949753097,8.833408992462964,1.4488888888888893,0.30666666666666664,-0.6911111111111111,-0.025736443253426517,-0.07284600663029374,0.9532180802398321
1590512859.1375344,-0.15,-3.8265835839127984,8.773167167825596,1.4488888888888893,0.30666666666666664,-0.6911111111111111,-0.021362376163682823,-0.0712766740456432,0.9603581393155034
1590512859.1475344,-0.15884225238770885,-3.82,8.792421592088266,1.4488888888888893,0.30666666666666664,-0.6911111111111111,-0.0164313937603809,-0.07199483164476607,0.9660282692487713
1590512859.1575344,-0.18181424941729835,-3.810928752913508,8.873628498834597,1.323100929289536,0.2984017526545297,-0.6901031947681676,-0.021222903916474523,-0.07199483164476607,0.9669731923409018
1590512859.1675344,-0.1877102189216369,-3.7665653283824554,8.888855109460819,0.7555555555555555,0.2611111111111111,-0.6855555555555556,-0.01841923511816693,-0.07211971982903889,0.9632953062526847
1590512859.1775343,-0.16223013072828504,-3.736115065364143,8.829495849733853,0.7555555555555555,0.2611111111111111,-0.6855555555555556,-0.015758170004431294,-0.07139053991175055,0.9462445916315794
1590512859.1875343,-0.14211225802196353,-3.728028064505491,8.767747419450583,0.7555555555555555,0.2611111111111111,-0.6855555555555556,-0.013735283771509847,-0.06872233929727672,0.9242559252610465
1590512859.1975343,-0.1144481086963691,-3.7211120271740925,8.82999175543317,0.7555555555555555,0.2611111111111111,-0.6855555555555556,-0.015998551695705118,-0.06872233929727672,0.8986055554535
1590512859.2075343,-0.09890569187762076,-3.735471540611896,8.88218861624476,0.7339125726907214,0.26244859881624133,-0.6839748882676744,-0.010772441030809854,-0.0608477828227161,0.8396970650959268
1590512859.2175343,-0.09076331728529274,-3.776183413573536,8.898473365429416,0.5728744974202343,0.27240038998464217,-0.6722136805232006,-0.017878003309152582,-0.05907139225313042,0.7810761762995994
1590512859.2275343,-0.06,-3.7166102947212876,8.814915442081931,0.5577777777777778,0.2733333333333333,-0.6711111111111111,-0.007654263153461914,-0.0483478662400184,0.6794957420985718
1590512859.2375343,-0.059018832829574513,-3.6936224133922346,8.788528249244361,0.5577777777777778,0.2733333333333333,-0.6711111111111111,-0.012661854449047445,-0.04440297587667217,0.593728720299634
1590512859.2475343,-0.03507300012953128,-3.5601460002590626,8.782171499417109,0.5577777777777778,0.2733333333333333,-0.6711111111111111,-0.003825870817579491,-0.0346856373567348,0.4656613719133589
1590512859.2575343,-0.02192482870608737,-3.53529327894174,8.852887243059131,0.5547835997905308,0.27301252854898544,-0.671378448431401,-0.0023916278053562044,-0.023578344734195445,0.37269171835618886
1590512859.2675343,-0.06,-3.6324114406779664,8.856880084745763,0.4955555555555556,0.26666666666666666,-0.6766666666666666,-0.0028199593485049796,-0.010718822198149127,0.21066630198565978
1590512859.2775342,-0.05024868975439317,-3.603747816257322,8.789502620491213,0.4955555555555556,0.26666666666666666,-0.6766666666666666,0.003981627639861434,-8.138353181506809e-05,0.09623344810515852
1590512859.2875342,-0.0335078569190133,-3.566492143080987,8.80895285848592,0.4955555555555556,0.26666666666666666,-0.6766666666666666,0.005071506081696991,0.008840871679690464,-0.021576786220156092
1590512859.2975342,-0.03457100902034823,-3.5681434864694777,8.810717432347388,0.4955555555555556,0.26666666666666666,-0.6766666666666666,0.004955534177835798,0.014570497009582406,-0.12608694940251883
1590512859.3075342,-0.016948428311545458,-3.5869484283115454,8.912371070778864,0.4955555555555556,0.2644627537805606,-0.6780229207504243,0.007543609194807005,0.020707809718734337,-0.2308536810003558
1590512859.3175342,-0.0005702857489166995,-3.5671485712554163,8.868859428502166,0.4955555555555556,0.25222222222222224,-0.6855555555555556,0.013463220539799899,0.03322259167468359,-0.33895316382582374
1590512859.3275342,-0.0078114321531835736,-3.5440742463149806,8.834680025072284,0.4955555555555556,0.25222222222222224,-0.6855555555555556,0.019396218367247274,0.044316398347132545,-0.48802393346542083
1590512859.3375342,0.005864783456096388,-3.6132434758397247,8.778324347583972,0.4955555555555556,0.25222222222222224,-0.6855555555555556,0.01854412330243975,0.05527268041928976,-0.5977426877382893
1590512859.3475342,0.06864433172112776,-3.4544020290197004,8.770845346230978,0.4955555555555556,0.25222222222222224,-0.6855555555555556,0.021501732681335414,0.0637118267916288,-0.7342735999046007
1590512859.3575342,0.06637883343355382,-3.616378833433554,8.867110042092603,0.4895311017571992,0.2456661989710697,-0.6832520879267723,0.03601184653628258,0.07175934863158735,-0.8650979467580991
1590512859.3675342,0.10819662844529526,-3.6636610474088256,8.955355810364699,0.4577777777777778,0.2111111111111111,-0.6711111111111111,0.01905072580383356,0.09777541210370846,-0.9977759681448519
1590512859.3775342,0.13601960606335664,-3.7051596623400203,8.809140056276664,0.4577777777777778,0.2111111111111111,-0.6711111111111111,0.03490658503988659,0.09512472161317756,-1.0998709250279661
1590512859.3875341,0.18931923391122812,-3.7508450576381955,8.801525823726967,0.4577777777777778,0.2111111111111111,-0.6711111111111111,0.03490658503988659,0.10675289656359027,-1.1895739889311503
1590512859.3975341,1.6661953153153153,-6.095255255255255,6.378503063063063,0.4577777777777778,0.2111111111111111,-0.6711111111111111,-0.0014891379792090972,0.1297307425990573,-1.3863079491999664
1590512859.4075341,7.095764894791422,-11.320412805673568,-2.584595390225136,0.4486775424941551,0.23113162873508106,-0.6668643346454205,-0.7819570818078242,0.8213575919035843,-4.629589694807408
1590512859.417534,3.665419621218921,1.1813436854860426,1.2934265326272327,0.4244444444444445,0.28444444444444444,-0.6555555555555556,-2.70343419527891,1.795165316641044,-10.576543455477319
1590512859.427534,-0.22481464859527822,-0.06102145229333078,-0.19364688986626,0.4244444444444445,0.28444444444444444,-0.6555555555555556,-3.322176600527765,0.2777406347420266,-6.315844923758156
1590512859.437534,-0.25711545988258316,-0.5314930476877124,-0.12849191471830262,0.4244444444444445,0.28444444444444444,-0.6555555555555556,-2.8862935341758655,-0.7476342511050853,-1.580206436008425
1590512859.447534,0.27731512050181584,-0.03918950148563882,0.5229440409376033,0.4244444444444445,0.28444444444444444,-0.6555555555555556,-2.8940348377341594,-0.608650444763762,-1.416237777275812
1590512859.457534,2.446465996808832,-0.8433744447798526,7.997466471171676,0.4091256869876043,0.3136893450438666,-0.6491893186903752,-2.714525840040776,-0.23794933637212887,-1.268396997208888
1590512859.467534,-0.23867229072031154,-1.6961054510058404,7.8835090850097345,0.3388888888888889,0.4477777777777778,-0.62,-1.4760224567020948,0.8875911693424675,-1.1863897180528058
1590512859.477534,1.6265676398743747,-1.187957194370129,6.241393276724439,0.3388888888888889,0.4477777777777778,-0.62,0.9246178623459043,1.0035840632106579,-1.17200397118236
1590512859.487534,0.7757424939139843,-0.8963375710035164,4.392986205031106,0.3388888888888889,0.4477777777777778,-0.62,2.7023221493734395,-0.03867861120256838,-1.2033453895533597
1590512859.497534,-0.06289328881155058,-1.5444288200159904,5.855645957767013,0.3388888888888889,0.4477777777777778,-0.62,3.401512650198331,0.5072485749978984,-1.147746005930893
1590512859.507534,0.617647321638527,-1.9685338381225603,8.311509899825989,0.3388888888888889,0.4477777777777778,-0.62,4.683957199138195,0.4039644502510637,-1.0616759019751976
1590512859.517534,7.456136685552408,2.2285339943342777,9.419557365439093,0.32666666666666666,0.5166666666666667,-0.5866666666666667,4.613629008601835,-0.25625136990644526,-0.6979401101220526
1590512859.527534,0.05118575475515996,0.20578713071630927,0.07673006879805833,0.32666666666666666,0.5166666666666667,-0.5866666666666667,2.022178661257206,-0.8371868005555986,-0.29676292029793605
1590512859.537534,1.7845408173931223,-0.8332419776314414,6.648519703146231,0.32666666666666666,0.5166666666666667,-0.5866666666666667,-0.12228221053195826,-0.4112566593789557,0.2058055284058025
1590512859.547534,4.648585465886273,-3.7354270090143977,21.48919511257316,0.32666666666666666,0.5166666666666667,-0.5866666666666667,-0.6017097999514692,0.202511217850658,0.49424411705950805
1590512859.557534,0.641051658752669,-2.679098122948469,10.117827846649034,0.3241005130819975,0.5094991342405218,-0.5917104857813612,-0.41754891539562566,1.54800210372391,0.7197082078331511
1590512859.567534,1.7409869081926719,-4.332496829971182,14.71382758336764,0.29444444444444445,0.4266666666666667,-0.65,-0.11304039137805078,0.2695160747493755,0.5211379080579689
1590512859.577534,0.7809083573487032,-2.253477809798271,8.400793083573486,0.29444444444444445,0.4266666666666667,-0.65,-0.03468250890681354,-0.7634517797512613,0.41866990790327396
1590512859.587534,0.8486916776750331,-2.7108317040951126,9.088935270805813,0.29444444444444445,0.4266666666666667,-0.65,0.031634092692397225,-0.12419867861393716,0.6407104260467898
1590512859.597534,0.7674282694848085,-3.5530161162483487,11.563775429326288,0.29444444444444445,0.4266666666666667,-0.65,0.031634092692397225,0.421368708447947,0.8252524225566444
1590512859.607534,0.5710614240828428,-2.295808293136257,7.558933486746028,0.2972749086653587,0.42702047469428095,-0.6508255520644334,-0.16483178670570212,-0.1642940950355319,0.8516767173456476
1590512859.617534,0.5781643860013654,-2.8605547804921487,9.130726053014337,0.3211111111111111,0.43,-0.6577777777777778,0.01238092452441954,-0.4012912885449725,0.8879907839204944
1590512859.627534,0.5376423605263791,-3.1342257078932807,9.06950008420141,0.3211111111111111,0.43,-0.6577777777777778,0.029206222009561265,0.22772112770017072,1.1154055333515034
1590512859.637534,0.48295531772266015,-3.0865377591826357,9.377297103626823,0.3211111111111111,0.43,-0.6577777777777778,-0.13148652510553482,-0.12004799399182668,1.1250281421966768
1590512859.647534,0.33,-2.6260225342777845,7.194447205998094,0.3211111111111111,0.43,-0.6577777777777778,-0.03434569350668049,-0.1741860336904969,1.1783454055972897
1590512859.657534,0.37598735589438453,-3.564734101896616,8.756682781703235,0.3241390851617702,0.42933763067641834,-0.6571154084541961,-0.06120903437997778,-0.060744548977985056,1.2766127733703505
1590512859.6675339,0.87,-0.93,6.68,0.3566666666666667,0.4222222222222222,-0.65,-0.1679879405044542,-0.16253378659197193,1.5380714033200031
1590512859.6775339,0.6299630860095976,-2.5751310446659286,10.684518272425247,0.3566666666666667,0.4222222222222222,-0.65,-0.33211669968020924,-0.2430015829193849,3.084841266058052
1590512859.6875339,15.63187721988238,-23.219091861886923,-0.33233177415911347,0.3566666666666667,0.4222222222222222,-0.65,0.3309910195507634,-0.4491997040445695,4.895820995543479
1590512859.6975338,1.8823426430914356,-2.940767036080974,9.721353958426333,0.3566666666666667,0.4222222222222222,-0.65,0.044165192059926695,-0.47583987378056053,2.625190528379178
1590512859.7075338,-1.3498215925488652,0.8176111767020858,4.893557654466745,0.3566666666666667,0.4222222222222222,-0.65,0.01309955690962522,0.10972830401355438,-0.5426377293934412
1590512859.7175338,-2.111213115271185,-1.8996235431419244,11.3867778005583,0.3911111111111111,0.3688888888888889,-0.65,0.19630155991583137,0.45780879561271515,-0.851395688016275
1590512859.7275338,-1.0131422398157932,-2.349435708991121,9.613988676329113,0.3911111111111111,0.3688888888888889,-0.65,-0.03387990660630946,0.04001861029509901,-0.7720227685258815
1590512859.7375338,-0.6517522734927584,-2.7701473560121253,9.872532839339845,0.3911111111111111,0.3688888888888889,-0.65,-0.10171225492504193,-0.07931568764487683,-0.553369197309149
1590512859.7475338,-0.30564129336476925,-2.861972718086898,9.533485348602223,0.3911111111111111,0.3688888888888889,-0.65,-0.005398859189422067,0.01237466509543328,-0.4377931224264051
1590512859.7575338,-4.3255837043861,-14.707030554276063,8.109182660320384,0.39329250331246335,0.36795400651688076,-0.649532558813996,-0.1499665383554263,-0.00021840063570940926,0.29391567023863824
1590512859.7675338,5.068492063492063,-10.082222222222223,7.2408730158730155,0.4222222222222222,0.3555555555555556,-0.6433333333333333,0.0045711004218899134,-0.12654502815675156,0.7197751687044075
1590512859.7775338,-1.1337167776144303,-1.185423115677497,7.598857595929896,0.4222222222222222,0.3555555555555556,-0.6433333333333333,0.29349636556448994,0.13411009399452467,0.049679748184549705
1590512859.7875338,-0.21918630965162955,-3.1876905796263566,7.432579329027569,0.4222222222222222,0.3555555555555556,-0.6433333333333333,0.09095374416759383,0.04568663614587973,-0.02287283261433845
1590512859.7975338,-0.024917873614370117,-5.178259567926208,9.218877740917549,0.4222222222222222,0.3555555555555556,-0.6433333333333333,-0.2198567721011464,-0.10665384161022089,-0.2509131013578108
1590512859.8075337,-0.8346892620740377,-6.1929556876685465,8.864164930129935,0.4208973468442701,0.35582053063114605,-0.6435983084089237,-0.03235547441237372,0.04369042704234572,-0.1760762408272307
1590512859.8175337,0.22870565675934804,-4.199530201342282,8.357353787152444,0.3888888888888889,0.3622222222222222,-0.65,0.04667145126452957,-0.006355684242790953,0.04185736296938941
1590512859.8275337,0.1049708680581164,-4.632601961796593,8.821359244782064,0.3888888888888889,0.3622222222222222,-0.65,0.01124085071451756,-0.0012941698785035203,0.008957519601521115
1590512859.8375337,0.13649657090787012,-4.472482854539351,8.716844995443864,0.3888888888888889,0.3622222222222222,-0.65,0.008073644014174286,-0.0008858324408719602,0.001090830782496456
1590512859.8475337,0.15380308596620135,-4.62085819250551,8.956991917707567,0.3888888888888889,0.3622222222222222,-0.65,-0.00734807980450221,-0.004972296846768195,0.0007695927386870661
1590512859.8575337,0.06268960372538825,-4.512390758867012,8.652689603725388,0.388955298857417,0.3626538870176549,-0.6504316647954327,-0.01183614402210709,-0.002116463730851342,-0.001156028616638026
1590512859.8675337,0.14802246987815632,-4.58824219544725,8.738022469878157,0.39106228320686803,0.3763492852890868,-0.6641270630668645,-0.00666482640221324,-4.793668289380156e-05,-0.0032245556645955666
1590512859.8775337,0.15,-4.533331950207469,8.690415456431536,0.3911111111111111,0.37666666666666665,-0.6644444444444444,0.0034999939334031767,0.0,-0.0001817296926026257
1590512859.8875337,0.1106528050215771,-4.559183993723028,8.73885759121224,0.3911111111111111,0.37666666666666665,-0.6644444444444444,0.01192792862621056,0.0010730282871838422,1.7802495312613763e-05
1590512859.8975337,0.13,-4.382774800598206,8.843948778664007,0.3911111111111111,0.37666666666666665,-0.6644444444444444,0.002612406496989425,-7.334287227777143e-05,7.334287227777143e-05
1590512859.9075336,0.13,-4.5483025922233296,8.765540877367895,0.3911111111111111,0.37666666666666665,-0.6644444444444444,-0.005940568735484811,-0.0010236734536637978,0.0010236734536637978
1590512859.9175336,0.12000307763329998,-4.5300092328999,8.76,0.4099941866926555,0.3622266676925444,-0.6577798295333112,-0.01744993534280243,-0.0021813258472788252,3.357177140866918e-07
1590512859.9275336,0.14989103146199453,-4.619237220233962,8.690272421345012,0.41,0.3622222222222222,-0.6577777777777778,-0.002116285135423924,0.001090830782496456,0.0010967740942754549
1590512859.9375336,0.13495486352224775,-4.514684044655734,8.72761284119438,0.41,0.3622222222222222,-0.6577777777777778,0.006844772333242946,0.001090830782496456,0.0019114156823360794
1590512859.9475336,0.12,-4.461554865383474,8.762073153844632,0.41,0.3622222222222222,-0.6577777777777778,0.005923083186570438,-0.001090830782496456,0.001090830782496456
1590512859.9575336,0.12,-4.486446361100671,8.795261814800895,0.41,0.3622222222222222,-0.6577777777777778,-0.004032800388684994,-0.001090830782496456,0.001090830782496456
1590512859.9675336,0.12949826139541915,-4.542006954418324,8.786989568372514,0.38333333333333336,0.3555555555555556,-0.6433333333333333,-0.008398259111185486,0.0019627367991354706,-0.0031082987730962873
1590512859.9775336,0.12157192531559452,-4.573712298737622,8.739431551893567,0.38333333333333336,0.3555555555555556,-0.6433333333333333,-0.003210484278214491,-0.0014957797561785252,-0.0005144113566107897
1590512859.9875336,0.13078568208103816,-4.51,8.656285456648305,0.38333333333333336,0.3555555555555556,-0.6433333333333333,0.009860329352430721,-0.001090830782496456,0.0032296400375267527
1590512859.9975336,0.1472297257561798,-4.51,8.787837806049438,0.38333333333333336,0.3555555555555556,-0.6433333333333333,0.01075721280390875,-0.001090830782496456,0.0023327565860487205
1590512860.0075336,0.1421760100500258,-4.439584090450232,8.856943939699844,0.38333333333333336,0.3555555555555556,-0.6433333333333333,0.0015201938376523168,-0.0019442956904339326,0.0013281966570554355
1590512860.0175335,0.14,-4.500416510786881,8.843194496404372,0.3967360851311469,0.3644907234207646,-0.6381211520786281,-0.007669891186543075,-0.0014506548534321765,-0.0003711826406250151
1590512860.0275335,0.14728451286636304,-4.525430974267274,8.749870358470007,0.4033333333333333,0.3688888888888889,-0.6355555555555555,-0.01011369073795253,-0.00029621369548442497,0.000498403391527606
1590512860.0375335,0.1425317511819783,-4.557341244090108,8.667722258273848,0.4033333333333333,0.3688888888888889,-0.6355555555555555,-0.002485540910631352,0.0,0.001090830782496456
1590512860.0475335,0.12189834267040149,-4.470440884687208,8.722406629318394,0.4033333333333333,0.3688888888888889,-0.6355555555555555,0.009872922514664323,0.0,0.00010353853103002358
1590512860.0575335,0.12819182722845648,-4.46,8.836493753969934,0.4033333333333333,0.3688888888888889,-0.6355555555555555,0.003759589980410185,0.0008935897305692968,0.0
1590512860.0675335,0.1217387176275706,-4.456375297967759,8.825942992202336,0.4155555555555556,0.3622222222222222,-0.65,-0.005770261697519484,-0.0010276092254890151,-0.0021184400079854713
1590512860.0775335,0.14715769059835965,-4.549578198860652,8.766632055270493,0.4155555555555556,0.3622222222222222,-0.65,-0.010391561393516498,-0.000103349286289612,-0.001194180068786068
1590512860.0875335,0.1431277671192444,-4.56,8.670660972550177,0.4155555555555556,0.3622222222222222,-0.65,-0.0034118646541520456,-0.0007496443170812514,0.0004084578516660468
1590512860.0975335,0.1300990569775735,-4.510495284887868,8.778514145336397,0.4155555555555556,0.3622222222222222,-0.65,0.007560177397224427,-1.080544003582355e-05,1.080544003582355e-05
1590512860.1075335,0.12202414202088993,-4.47809656808356,8.83583100585377,0.4155555555555556,0.3622222222222222,-0.65,0.0067657843374318676,0.0008700311400433243,0.0008700311400433243
1590512860.1175334,0.13938019465471962,-4.46030990267264,8.869380194654719,0.396175360900836,0.35576215733731575,-0.65,-0.0019112204650778312,0.004261907717517669,0.001090830782496456
1590512860.1275334,0.14762795550669822,-4.536279555066982,8.816604311453112,0.3955555555555556,0.3555555555555556,-0.65,-0.007174146769524771,0.001867080527719894,0.00025874991507447926
1590512860.1375334,0.13963016076685034,-4.540184919616575,8.641664276549173,0.3955555555555556,0.3555555555555556,-0.65,-0.004181778720943279,4.034320200945455e-05,-0.0010706591814917286
1590512860.1475334,0.12380141897501698,-4.548099290512491,8.712893614612424,0.3955555555555556,0.3555555555555556,-0.65,0.0035881367366806865,0.0017669910814814467,-0.00020733524175573263
1590512860.1575334,0.12,-4.474680358282325,8.782723749202374,0.3955555555555556,0.3555555555555556,-0.65,0.007918983423849618,-0.0019263876206193184,0.0
1590512860.1675334,0.12816823980914843,-4.49900943885489,8.840841199045743,0.4118920351738525,0.36644654196775345,-0.644554506793901,0.0033805458063923977,0.00029157462156346493,-0.0008910167422632083
1590512860.1775334,0.14873553030913436,-4.51,8.765690113608896,0.4155555555555556,0.3688888888888889,-0.6433333333333333,-0.005993255710046734,-0.0009528985362634555,-6.896612311650023e-05
1590512860.1875334,0.14178617370015353,-4.551069131499232,8.66964791070169,0.4155555555555556,0.3688888888888889,-0.6433333333333333,-0.004753005780988437,0.000701148131493842,0.000895989456995149
1590512860.1975334,0.13075673127582288,-4.550756731275823,8.686973074896708,0.4155555555555556,0.3688888888888889,-0.6433333333333333,0.002694666308667589,0.001090830782496456,8.254657697453994e-05
1590512860.2075334,0.12244023750771128,-4.519760950030845,8.795836674892042,0.4155555555555556,0.3688888888888889,-0.6433333333333333,0.007395703164964695,0.0002661886190013907,0.0008246421634950652
1590512860.2175333,0.12,-4.483091883614089,8.847938744257274,0.4155555555555556,0.3569297260507062,-0.6493129147524247,0.006769832816455034,-0.001956813443516613,0.0001124240607381494
1590512860.2275333,0.13777337541176202,-4.497773375411762,8.85888668770588,0.4155555555555556,0.3555555555555556,-0.65,-0.0021795005586282877,0.0016958874366102099,0.003877549001603122
1590512860.2375333,0.13177198350405747,-4.541140082479712,8.711895703073035,0.4155555555555556,0.3555555555555556,-0.65,-0.006862641816554464,-0.002306025271338458,-0.00012436370634554515
1590512860.2475333,0.13,-4.53259101630602,8.723522459234951,0.4155555555555556,0.3555555555555556,-0.65,-0.002888251651132102,0.00242458424412234,0.0008081947480407801
1590512860.2575333,0.12265432098765432,-4.544691358024691,8.774074074074074,0.4155555555555556,0.3555555555555556,-0.65,0.0010234955490090202,0.002471203068988885,0.0002895415039959729
1590512860.2675333,0.12948392442823997,-4.5025803778588,8.84690354656944,0.39658770669907567,0.3808460206975288,-0.6299783817626046,0.005285268576551191,-0.0009219454465653676,-0.0010345356705194263
1590512860.2775333,0.13,-4.506451025493578,8.791940770557792,0.3955555555555556,0.38222222222222224,-0.6288888888888889,0.0012319676002432662,-0.0003871330637899537,-0.001090830782496456
1590512860.2875333,0.138200981207384,-4.518200981207384,8.71899509396308,0.3955555555555556,0.38222222222222224,-0.6288888888888889,-0.00735294870587905,0.0026837648243068263,-0.001090830782496456
1590512860.2975333,0.13101020481323042,-4.546969385560309,8.68303061443969,0.3955555555555556,0.38222222222222224,-0.6288888888888889,-0.006765377196358298,0.0022918578156826933,0.0008704382811168933
1590512860.3075333,0.13,-4.53538988959907,8.738440441603718,0.3955555555555556,0.38222222222222224,-0.6288888888888889,-0.000170121430576437,0.002181661564992912,0.001090830782496456
1590512860.3175333,0.12172282432153086,-4.513445648643062,8.834494581106222,0.3900374384365762,0.3711859879842634,-0.6408448093133443,0.004890360971654444,0.001278761762772401,0.00018793098027594494
1590512860.3275332,0.12,-4.492277356499546,8.841138678249774,0.3888888888888889,0.3688888888888889,-0.6433333333333333,0.0015876728969810867,0.00012421052862115773,0.0
1590512860.3375332,0.1283989282658621,-4.506797856531724,8.722415004277929,0.3888888888888889,0.3688888888888889,-0.6433333333333333,-0.005322435862170925,-0.0018323618984763949,-0.0009161809492381974
1590512860.3475332,0.13,-4.5363818829054,8.717587921936934,0.3888888888888889,0.3688888888888889,-0.6433333333333333,-0.006544984694978735,-0.0012223892325453228,0.00370553087974149
1590512860.3575332,0.13702517768032663,-4.54,8.755125888401633,0.3888888888888889,0.3688888888888889,-0.6433333333333333,-0.0027133446618750686,-0.00032450277587572256,0.0020643391101236234
1590512860.3675332,0.1478165548098434,-4.51655033557047,8.809082774049218,0.40017946805866267,0.3584668158090977,-0.6485443698732289,0.0031724385173275,0.0008526538599647913,0.0019434846424612473
1590512860.3775332,0.11456827078056643,-4.4834262030854255,8.82,0.4033333333333333,0.3555555555555556,-0.65,0.0014645715617630285,0.00012458025975552438,-0.0007170900032298835
1590512860.3875332,0.11,-4.503559844103596,8.733613904953483,0.4033333333333333,0.3555555555555556,-0.65,-0.003192469747340175,0.0017133202119346523,-0.00023417067652912983
1590512860.3975332,0.11846092248558616,-4.518460922485586,8.735382767456759,0.4033333333333333,0.3555555555555556,-0.65,-0.006209210069104586,-0.0005871688436852318,0.0
1590512860.4075332,0.13449437752076712,-4.539325836694355,8.74483145917359,0.4033333333333333,0.3555555555555556,-0.65,-0.005490923816793574,-0.001090830782496456,0.000527030439092581
1590512860.4175332,0.14583022508038584,-4.555830225080386,8.752779849946409,0.40055348338692387,0.35648217220435874,-0.6490733833511969,-0.003302002067693238,-0.0007875961932700028,0.001090830782496456
1590512860.4275331,0.12,-4.521505071309214,8.786989857381572,0.38333333333333336,0.3622222222222222,-0.6433333333333333,0.004199145318591553,0.001090830782496456,0.0015541572680475486
1590512860.4375331,0.12,-4.500820001488206,8.782460004464617,0.38333333333333336,0.3622222222222222,-0.6433333333333333,0.0019493151765044743,0.0005901395344996267,0.000679587821002424
1590512860.4475331,0.13039726807057483,-4.500397268070575,8.755198634035287,0.38333333333333336,0.3622222222222222,-0.6433333333333333,-0.004449993578043026,0.0017012490097875863,-0.0005237477792339274
1590512860.4575331,0.14506099972618577,-4.51,8.754939000273815,0.38333333333333336,0.3622222222222222,-0.6433333333333333,-0.005440845836672821,0.0010642146308775398,0.0011041388583059141
1590512860.467533,0.13419803927594579,-4.5258019607240545,8.797405882172162,0.4087920478331985,0.3674895424635736,-0.6319208061437387,-0.0009158700936661604,-0.003676420559736204,0.0004579350468330802
1590512860.477533,0.1378028888888889,-4.514394222222222,8.825605777777778,0.4155555555555556,0.3688888888888889,-0.6288888888888889,0.0034046525569598274,-0.001809833712265953,0.0025534894177198708
1590512860.487533,0.1342609567459181,-4.498521913491836,8.795565740475508,0.4155555555555556,0.3688888888888889,-0.6288888888888889,0.0031112581212595853,0.0007872667305929022,0.0020204273387631295
1590512860.497533,0.13,-4.51109569396535,8.76296810201155,0.4155555555555556,0.3688888888888889,-0.6288888888888889,-0.0024207049061128285,0.0014146004864752887,0.002624952939531703
1590512860.507533,0.1233125926503862,-4.533374814699227,8.76,0.4155555555555556,0.3688888888888889,-0.6288888888888889,-0.005092806109191,-0.00036813517591389707,0.0018135263890790146
1590512860.517533,0.1276771653543307,-4.53232283464567,8.76767716535433,0.4002012248468942,0.37912510936132987,-0.6399781277340333,-0.004616705083400355,0.0005840668756673937,0.001090830782496456
1590512860.527533,0.13,-4.514495638257106,8.762247819128552,0.3955555555555556,0.38222222222222224,-0.6433333333333333,-0.001826427872169471,0.002782094287707358,0.0019364625351019067
1590512860.537533,0.13767942928516527,-4.51,8.74464114142967,0.3955555555555556,0.38222222222222224,-0.6433333333333333,0.0014222565743824496,0.0007594049906104626,0.0013439657793666102
1590512860.547533,0.10832536119900901,-4.51,8.755837319400495,0.3955555555555556,0.38222222222222224,-0.6433333333333333,0.0004540780135640311,0.0,0.00022703900678201555
1590512860.557533,0.10465528516369607,-4.523965855491088,8.764655285163697,0.3955555555555556,0.38222222222222224,-0.6433333333333333,-0.0030468770147152333,-0.0010156256715717446,0.0005078128357858723
1590512860.567533,0.11554508325479107,-4.535841187558907,8.772772541627395,0.39832809718295115,0.3794496805948267,-0.6442575138757985,-0.005788891256749767,-0.001728005502055531,0.0013932681577880433
1590512860.577533,0.12816008732035655,-4.51,8.782720029106784,0.4155555555555556,0.3622222222222222,-0.65,0.004468020659701147,-0.0004974124867028592,9.600580909073769e-05
1590512860.587533,0.12683692698311944,-4.50316307301688,8.732141511118165,0.4155555555555556,0.3622222222222222,-0.65,0.005053398612805274,-0.0025824168646699174,0.00040075529967700525
1590512860.597533,0.1362461257538262,-4.506246125753826,8.753722880276783,0.4155555555555556,0.3622222222222222,-0.65,0.002319283256900576,-0.0005471058500423711,0.001090830782496456
1590512860.607533,0.14,-4.515857648394204,8.785857648394204,0.4155555555555556,0.3622222222222222,-0.65,-0.0027429911263670316,0.001090830782496456,0.0023687714187842854
1590512860.617533,0.13038966923425466,-4.529610330765745,8.785194834617126,0.4038095957307557,0.3622222222222222,-0.6467965564114182,-0.003881667218095114,0.001090830782496456,0.0017000056531022024
1590512860.627533,0.12,-4.527074330331259,8.786462834834369,0.3911111111111111,0.3622222222222222,-0.6433333333333333,0.0006382821068157919,-0.0010241269713600722,0.001409971835904352
1590512860.637533,0.12,-4.52,8.751885279246817,0.3911111111111111,0.3622222222222222,-0.6433333333333333,0.004260497098184275,-0.00010282603180154911,0.0014887163872624575
1590512860.647533,0.1342069516580104,-4.512896524170994,8.772620854974031,0.3911111111111111,0.3622222222222222,-0.6433333333333333,0.0031295468833827606,0.001090830782496456,0.001090830782496456
1590512860.657533,0.14,-4.500243770720512,8.794878114639744,0.3911111111111111,0.3622222222222222,-0.6433333333333333,5.318252116100078e-05,0.0005587110215384782,0.0005587110215384782
1590512860.667533,0.1372109986770122,-4.50394500661494,8.802789001322989,0.39451989050587394,0.3640815564375474,-0.6451926675486586,-0.002485894414546756,-0.0006084656991076882,0.0009126985486615322
1590512860.677533,0.12545632850644745,-4.526368985519342,8.787281642532237,0.4033333333333333,0.3688888888888889,-0.65,-0.001785579328273734,-0.0006947485457772778,0.00277685467441749
1590512860.687533,0.13119991489965252,-4.51,8.732000212750869,0.4033333333333333,0.3688888888888889,-0.65,0.001221721193388166,-0.00013089041089171002,0.001570800968298829
1590512860.697533,0.15620995627435558,-4.51,8.737016593790592,0.4033333333333333,0.3688888888888889,-0.65,0.002181661564992912,-0.001090830782496456,0.0016802414253960759
1590512860.707533,0.15667001321003965,-4.51,8.782216644649933,0.4033333333333333,0.3688888888888889,-0.65,0.0002428935755582598,-0.001575522779855119,0.0012122775702755858
1590512860.7175329,0.14852657546535097,-4.51,8.788683561336622,0.4033333333333333,0.3632045052453216,-0.65,-0.003576819213025495,-0.002181661564992912,0.0004650525493441944
1590512860.7275329,0.15516614727406422,-4.5148338527259355,8.774501558177807,0.4033333333333333,0.3555555555555556,-0.65,-0.004399570842181249,-0.0011270784946918807,0.0016181223176469717
1590512860.7375329,0.13381350214319732,-4.514604500714399,8.74144050642959,0.4033333333333333,0.3555555555555556,-0.65,-0.002683934676722259,0.0011771153415342174,0.002770219235760021
1590512860.7475328,0.12638283378746595,-4.51,8.76382833787466,0.4033333333333333,0.3555555555555556,-0.65,0.002692152537455491,0.0007891432500076541,0.001183714875011481
1590512860.7575328,0.13590665660946635,-4.51,8.8177199698284,0.4033333333333333,0.3555555555555556,-0.65,0.0015882562017370612,0.0012886325702484063,-0.0012886325702484063
1590512860.7675328,0.14400776360611584,-4.51,8.817976709181654,0.3926459637170245,0.3555555555555556,-0.6557889918755007,-0.0024023683556524972,-4.234390267157662e-06,-0.0013073031828888843
1590512860.7775328,0.1452863596031298,-4.519427280793741,8.771718157618778,0.37666666666666665,0.3555555555555556,-0.6644444444444444,-0.004363323129985824,-0.00018742192197446564,0.0005141784042524837
1590512860.7875328,0.14,-4.521025349745569,8.726538024618353,0.37666666666666665,0.3555555555555556,-0.6644444444444444,-0.0024053581780511947,0.0027830011095057107,0.00011184830652914137
1590512860.7975328,0.13537221768610885,-4.512313891156945,8.721569455784728,0.37666666666666665,0.3555555555555556,-0.6644444444444444,0.0002524063701342575,0.0014244424545901393,-0.0008384244123621985
1590512860.8075328,0.12365141345617477,-4.516348586543825,8.774605653824699,0.37666666666666665,0.3555555555555556,-0.6644444444444444,0.0006925233627347356,-0.0006925233627347356,0.00039830741976172037
1590512860.8175328,0.12282421370099096,-4.51,8.797608071233665,0.38012167488470805,0.3587447939106707,-0.6628498252668868,-0.00026091895278584627,0.0,0.0013517497352823022
1590512860.8275328,0.10418086949514485,-4.514180869495145,8.79,0.3911111111111111,0.3688888888888889,-0.6577777777777778,-0.0015468928967868978,0.0,0.0008134752221215865
1590512860.8375328,0.11997479184172333,-4.52,8.725163853028798,0.3911111111111111,0.3688888888888889,-0.6577777777777778,-0.002725702064490228,-0.0005440404994973158,-0.0021789117814910875
1590512860.8475327,0.12346226265284363,-4.5069245253056875,8.738452848165876,0.3911111111111111,0.3688888888888889,-0.6577777777777778,0.0002932902255880763,-0.001090830782496456,-0.00041986628902741276
1590512860.8575327,0.12,-4.5,8.79611787922112,0.3911111111111111,0.3688888888888889,-0.6577777777777778,0.001009536311462458,-0.001090830782496456,-8.129447103399803e-05
1590512860.8675327,0.12407534761771721,-4.495924652382283,8.814075347617718,0.39292237671898544,0.3661719904770774,-0.6518911645521862,-0.00044455146307795435,0.0006873750698153614,-0.00020172785634054726
1590512860.8775327,0.13,-4.49,8.824739531816684,0.3955555555555556,0.3622222222222222,-0.6433333333333333,-0.001090830782496456,0.0022384869074375015,-0.0004601773775813438
1590512860.8875327,0.135311152439149,-4.505933457317447,8.750332713412766,0.3955555555555556,0.3622222222222222,-0.6433333333333333,-0.001090830782496456,0.0028289013538429176,-0.002181661564992912
1590512860.8975327,0.1295120335614926,-4.52,8.72195186575403,0.3955555555555556,0.3622222222222222,-0.6433333333333333,-0.001090830782496456,0.002647233634448785,-0.0016096317331472324
1590512860.9075327,0.12,-4.515014324913243,8.784928375433783,0.3955555555555556,0.3622222222222222,-0.6433333333333333,-3.125211264516604e-06,3.125211264516604e-06,-0.001090830782496456
1590512860.9175327,0.12,-4.505850531734084,8.81,0.38771767105327054,0.36821589860632253,-0.6433333333333333,0.0015434675540417489,-0.0006381940109511631,-0.0006381940109511631
1590512860.9275327,0.12789795105544985,-4.511846926583175,8.790255122361376,0.37666666666666665,0.37666666666666665,-0.6433333333333333,0.0013201287519994062,0.0,0.0
1590512860.9375327,0.14,-4.53,8.733003366256057,0.37666666666666665,0.37666666666666665,-0.6433333333333333,-0.0002944875911167512,0.0,-0.0005889751822335024
1590512860.9475327,0.13817092563144856,-4.529085462815725,8.666401760289931,0.37666666666666665,0.37666666666666665,-0.6433333333333333,-0.0008913097200273361,0.00019952106246911989,-0.0022814220962274717
1590512860.9575326,0.1315839125289598,-4.51710402186776,8.75316782505792,0.37666666666666665,0.37666666666666665,-0.6433333333333333,0.001090830782496456,0.0018657593557845195,-0.0023247857198641906
1590512860.9675326,0.1595473106988683,-4.5101131723252825,8.809094621397737,0.37666666666666665,0.37666666666666665,-0.6433333333333333,0.001090830782496456,0.0011031759681109882,-3.703555684359677e-05
