time,acc_x,acc_y,acc_z,mag_x,mag_y,mag_z,gyr_x,gyr_y,gyr_z
1590513588.192101,-0.02,-4.39,8.83,0.43,0.25555555555555554,-0.5911111111111111,0.001090830782496456,-0.015271630954950384,-0.002181661564992912
1590513588.202101,-0.019810383960658217,-4.409525959901646,8.769810383960658,0.43,0.25555555555555554,-0.5911111111111111,0.00658635249749255,-0.013079627439329018,-0.004363323129985824
1590513588.212101,-8.985398727068513e-06,-4.359991014601273,8.749991014601273,0.43,0.25555555555555554,-0.5911111111111111,0.01090830782496456,-0.011995217987651218,-0.004366263594843171
1590513588.222101,-0.007860539123923625,-4.352139460876076,8.742139460876077,0.43,0.25555555555555554,-0.5911111111111111,0.01090830782496456,-0.00856933139010357,-0.006935678543003908
1590513588.232101,-0.019590169086680494,-4.378770507260041,8.787950845433402,0.4225409795992485,0.27473589372891655,-0.6049635775696496,0.004631556835506355,-0.0003129393231072865,-0.005543565147655791
1590513588.242101,-0.02688015304654037,-4.36623969390692,8.762479387813839,0.4222222222222222,0.27555555555555555,-0.6055555555555555,0.002111798310549922,0.0030020330925812026,-0.0017016125467557764
1590513588.252101,-0.03,-4.379174005218526,8.692477984344423,0.4222222222222222,0.27555555555555555,-0.6055555555555555,-0.0020465084849208837,-0.000865575649043074,-0.0010457797558057797
1590513588.262101,-0.010420951925376707,-4.3995790480746235,8.719368572111936,0.4222222222222222,0.27555555555555555,-0.6055555555555555,-0.003249532981581765,0.002112783467270103,-2.295936590760296e-05
1590513588.272101,-0.032741185157836444,-4.392419604947388,8.742741185157836,0.4222222222222222,0.27555555555555555,-0.6055555555555555,-0.003272492347489368,-0.0011259097417563569,-0.0016537856533746344
1590513588.282101,-0.033879786059937175,-4.371639358179811,8.780601069700314,0.43854279272905644,0.27079538915772894,-0.601475412928847,-0.0012696570191040339,-0.005519720445635137,-0.0008464380127360224
1590513588.292101,-0.021162278244631186,-4.3776754435107375,8.8,0.4488888888888889,0.2677777777777778,-0.5988888888888889,0.0,-0.004743677796106717,0.0019280917875789834
1590513588.302101,-0.02779723298728941,-4.395594465974579,8.761013835063553,0.4488888888888889,0.2677777777777778,-0.5988888888888889,0.0,-0.002662230777819406,0.001331115388909703
1590513588.312101,-0.03,-4.38290107099481,8.792747322512975,0.4488888888888889,0.2677777777777778,-0.5988888888888889,-0.003730407621316411,-0.0003164577543347065,0.0020234326878255586
1590513588.3221009,-0.02266738617739937,-4.372667386177399,8.8073326138226,0.4488888888888889,0.2677777777777778,-0.5988888888888889,-0.001963730867830291,0.0,0.0013817974776077343
1590513588.3321009,-0.02906029211418433,-4.379060292114184,8.81,0.4488888888888889,0.2506638926732074,-0.5988888888888889,0.0008858183248159764,0.0009883245536562162,0.002079155336152672
1590513588.3421009,-0.03,-4.372370018009553,8.779480072038211,0.4488888888888889,0.2488888888888889,-0.5988888888888889,-0.0014060749850255295,0.001090830782496456,0.002181661564992912
1590513588.3521008,-0.035598904089024004,-4.375598904089024,8.719609863198784,0.4488888888888889,0.2488888888888889,-0.5988888888888889,-0.0015709158721376462,0.001090830782496456,0.002792407257848178
1590513588.3621008,-0.04772573434170393,-4.372274265658296,8.672274265658295,0.4488888888888889,0.2488888888888889,-0.5988888888888889,-0.001090830782496456,-0.0022801567524317976,0.0015869985800252412
1590513588.3721008,-0.04272096362476069,-4.362720963624761,8.706395181876196,0.4488888888888889,0.2488888888888889,-0.5988888888888889,-0.002678870171500949,-0.006448571125498354,-0.00208524799551253
1590513588.3821008,-0.04,-4.350888631314595,8.72,0.4316785258164568,0.254963134679159,-0.5988888888888889,-0.00724807692057507,-0.020556465340003723,-0.004266388490760793
1590513588.3921008,-0.03361351523152902,-4.362772969536942,8.758318908610825,0.43,0.25555555555555554,-0.5988888888888889,-0.01042244514843235,-0.030176504662800592,-0.006453295383203692
1590513588.4021008,0.002800564011114337,-4.386400282005557,8.771799858997221,0.43,0.25555555555555554,-0.5988888888888889,-0.018260614966110582,-0.037590074907879266,-0.0049523256094825205
1590513588.4121008,0.0009742691181412327,-4.39,8.77,0.43,0.25555555555555554,-0.5988888888888889,-0.008804854496429737,-0.027348977798869488,-0.004363323129985824
1590513588.4221008,-0.014373138575358057,-4.375626861424642,8.777186569287679,0.43,0.25555555555555554,-0.5988888888888889,-0.0005804175778856705,-0.01677274158046225,-0.0035793900300314326
1590513588.4321008,-0.011472604894005159,-4.361472604894005,8.83116437063597,0.4356849300706632,0.2612404856262188,-0.5922564704731151,0.00032127254976715134,-0.00750880234428019,-0.001412103332263607
1590513588.4421008,-0.01,-4.386852194383723,8.813147805616278,0.43666666666666665,0.26222222222222225,-0.5911111111111111,-0.0029291200211343377,-0.007521358035356848,-0.001090830782496456
1590513588.4521008,-0.01,-4.396785062929991,8.728579244840102,0.43666666666666665,0.26222222222222225,-0.5911111111111111,-0.0010520856959262666,-0.007635815477475192,-0.0025711018835385237
1590513588.4621007,-0.0006008099057705791,-4.39060080990577,8.727596760376919,0.43666666666666665,0.26222222222222225,-0.5911111111111111,0.0010252925885321218,-0.004559937711878827,-0.003272492347489368
1590513588.4721007,0.0,-4.382539242843952,8.752382271468145,0.43666666666666665,0.26222222222222225,-0.5911111111111111,0.0027185154958060346,-0.005991007843295402,-0.004086334704144157
1590513588.4821007,-0.008570342898832685,-4.3885703428988325,8.76,0.43666666666666665,0.2736493460873325,-0.6101563175529615,0.003272492347489368,-0.002805467154740095,-0.004363323129985824
1590513588.4921007,-0.0027117582589635198,-4.382711758258964,8.745423516517928,0.43666666666666665,0.27555555555555555,-0.6133333333333333,0.0016824446592097364,0.004178529188125613,0.00040681993485307006
1590513588.5021007,0.0,-4.373581581352834,8.695071069469835,0.43666666666666665,0.27555555555555555,-0.6133333333333333,0.00039068991896862326,0.0030442803773395723,0.0028818024285207446
1590513588.5121007,-0.01738296112489661,-4.361308519437552,8.76560628618693,0.43666666666666665,0.27555555555555555,-0.6133333333333333,-0.0018961869085976444,-0.0008053561261011884,0.0004282119845929015
1590513588.5221007,-0.02,-4.376553467158586,8.81310693431717,0.43666666666666665,0.27555555555555555,-0.6133333333333333,-0.000977859462750941,-0.0004889297313754705,0.0
1590513588.5321007,-0.0242063522179638,-4.39,8.844206352217963,0.43666666666666665,0.27228394827491703,-0.6039858839600805,0.0018353673925508615,0.0,-0.00045884184813771537
1590513588.5421007,-0.03,-4.379823169219617,8.84491158460981,0.43666666666666665,0.2677777777777778,-0.5911111111111111,0.004918383144160765,0.0005550600141749416,-0.001090830782496456
1590513588.5521007,-0.011685389022919178,-4.382209740651387,8.742322074788902,0.43666666666666665,0.2677777777777778,-0.5911111111111111,0.002124463675274404,0.0024227068773796066,0.00024104531238669426
1590513588.5621006,-0.007973262706520368,-4.39,8.727839576239122,0.43666666666666665,0.2677777777777778,-0.5911111111111111,-0.0026092441191610275,0.005011988426930052,0.001090830782496456
1590513588.5721006,-0.003206715550747285,-4.383206715550747,8.753586568898506,0.43666666666666665,0.2677777777777778,-0.5911111111111111,-0.003272492347489368,0.009900348187381886,0.0018318631616463905
1590513588.5821006,-0.01652950673407826,-4.3910196711560525,8.787549177890131,0.4329934429479826,0.26471675801220773,-0.6070284138920754,-0.003272492347489368,0.013201198258462016,0.002181661564992912
1590513588.5921006,-0.005640805494848581,-4.391880268498283,8.75316187948798,0.43,0.26222222222222225,-0.62,-0.003272492347489368,0.011523624252150158,0.00041021095145706574
1590513588.6021006,-0.0318820043797501,-4.382029498905062,8.668265490145563,0.43,0.26222222222222225,-0.62,-0.004141939142117324,0.004822180262568868,0.0
1590513588.6121006,-0.03195134639680927,-4.38,8.666097307206382,0.43,0.26222222222222225,-0.62,-0.0034853512191846785,-0.0028733110281186523,0.0008779719108011458
1590513588.6221006,-0.00974030608199191,-4.393506462612006,8.751038775672031,0.43,0.26222222222222225,-0.62,-0.004009155606480017,-0.008783302683929715,-0.00038249573548484106
1590513588.6321006,0.0,-4.3925943628515975,8.81962254859361,0.4349370914322683,0.26222222222222225,-0.5936688456945691,-0.001939834040342833,-0.014947456307702877,-0.001090830782496456
1590513588.6421006,0.0,-4.39,8.845296545328077,0.43666666666666665,0.26222222222222225,-0.5844444444444444,-0.00025653365701046955,-0.012190976110016906,0.0022463577194474895
1590513588.6521006,-0.015292872944118498,-4.382353563527941,8.796474944695584,0.43666666666666665,0.26222222222222225,-0.5844444444444444,-0.001668193656025166,-0.006737823684901645,-6.389496456096376e-05
1590513588.6621006,-0.02,-4.3879006855205285,8.77209931447947,0.43666666666666665,0.26222222222222225,-0.5844444444444444,-0.0013198304681312314,-0.0037304917187589185,-0.00022899968563477532
1590513588.6721005,-0.02,-4.39,8.806436432068292,0.43666666666666665,0.26222222222222225,-0.5844444444444444,-0.0015876555538018948,-0.0027756675761839295,0.0004968247713054388
1590513588.6821005,-0.018435993156011823,-4.390782003421994,8.849217996578005,0.43762244862688165,0.2617008866075595,-0.5860953405575431,-0.0025228749268843996,-0.0017551448626285525,0.0011761341229693278
1590513588.6921005,0.0,-4.386869217754419,8.761215306526513,0.4488888888888889,0.25555555555555554,-0.6055555555555555,-0.0022479462534573643,0.005421011568250054,0.0007493154178191215
1590513588.7021005,0.0,-4.393670576322673,8.63797654206396,0.4488888888888889,0.25555555555555554,-0.6055555555555555,-0.001491228546723912,0.008036213241702648,0.000745614273361956
1590513588.7121005,0.0,-4.390008529891707,8.629974410324877,0.4488888888888889,0.25555555555555554,-0.6055555555555555,0.0005430892241367635,0.008181696102145712,0.0021807310981483263
1590513588.7221005,0.0,-4.38,8.66,0.4488888888888889,0.25555555555555554,-0.6055555555555555,0.004757065131675578,0.009615245856390139,0.0027776347527606314
1590513588.7321005,-0.01928869365466379,-4.384822173413665,8.708221734136659,0.44674570070503733,0.26144932306114727,-0.6023407732797782,0.007071002214795019,0.013577191166909865,0.0037597141244417615
1590513588.7421005,-0.04,-4.384153652392947,8.806770780856423,0.4444444444444444,0.2677777777777778,-0.5988888888888889,0.005084865103496074,0.017184843735434722,0.006729629099471839
1590513588.7521005,-0.04,-4.390729727344922,8.797081090620312,0.4444444444444444,0.2677777777777778,-0.5988888888888889,0.0021020606599258893,0.019714554990003227,0.007635815477475192
1590513588.7621005,-0.03019174825612312,-4.4,8.833561888079076,0.4444444444444444,0.2677777777777778,-0.5988888888888889,0.0016257879287312283,0.016981084843789254,0.00496102974630133
1590513588.7721004,-0.014581097638261018,-4.4,8.91,0.4444444444444444,0.2677777777777778,-0.5988888888888889,0.006319435417462252,0.01072552718854642,0.0033638826656984377
1590513588.7821004,-0.022705889732170855,-4.368235275669573,8.840117606473061,0.45220915483632657,0.2642483639632859,-0.5939477095486002,0.013282470952182511,0.00941964504191453,0.004363323129985824
1590513588.7921004,-0.06723621176759612,-4.34255275764648,8.785105515292962,0.4566666666666666,0.26222222222222225,-0.5911111111111111,0.012834526593771347,0.017941158246398227,0.005175691250378836
1590513588.8021004,-0.05726036611733051,-4.33242012203911,8.643562196703982,0.4566666666666666,0.26222222222222225,-0.5911111111111111,0.0012502651379643955,0.012457420660127571,0.007107826753943299
1590513588.8121004,0.0027994603678019522,-4.420513360630518,8.781026721261036,0.4566666666666666,0.26222222222222225,-0.5911111111111111,-0.03673882756603292,0.002412370042245245,0.014218132811006621
1590513588.8221004,-0.006781032117552221,-4.441072989294149,8.853390516058775,0.4566666666666666,0.26222222222222225,-0.5911111111111111,-0.05286548346665276,-0.0009737858073617403,0.01684935464112771
1590513588.8321004,-0.09320945246865042,-4.280782187642263,8.81447709307619,0.4557669899341049,0.26222222222222225,-0.5895688081410053,-0.06458293375538769,0.0010990019686749875,0.021491032253688404
1590513588.8421004,-0.5275813532625088,-3.3882321793625794,9.134696538087738,0.4488888888888889,0.26222222222222225,-0.5777777777777777,-0.10799224746714917,0.02617993877991494,0.05235987755982988
1590513588.8521004,-0.572011872575526,-3.768899729634419,9.540426119666158,0.4488888888888889,0.26222222222222225,-0.5777777777777777,-0.18621200813120206,0.03875097174378059,0.13476998254517136
1590513588.8621004,-0.5701063022019742,-4.1255682105796,8.910245507466465,0.4488888888888889,0.26222222222222225,-0.5777777777777777,-0.01026529469096446,-0.04460451520085102,0.2989848180120873
1590513588.8721004,-0.22263208208527185,-3.090587597986107,8.563634567586515,0.4488888888888889,0.26222222222222225,-0.5777777777777777,-0.011733574042478767,-0.04887729722402209,0.41651528729173815
1590513588.8821003,-0.10418153576549306,-2.5339632786362913,9.168288593277044,0.4466909174588002,0.26222222222222225,-0.5953615492184872,-0.1200546862359172,-0.0110630608617358,0.5459862222842014
1590513588.8921003,-0.19270990023023793,-2.655419800460476,9.478607444359172,0.4444444444444444,0.26222222222222225,-0.6133333333333333,-0.03508377178978325,-0.05149169178623975,0.7659940585744256
1590513588.9021003,-0.2592427084543749,-2.680771401537159,8.729115718530569,0.4444444444444444,0.26222222222222225,-0.6133333333333333,0.011657933706569923,-0.07879071774115369,0.9336870120597643
1590513588.9121003,-0.28984900284900283,-2.7504529914529914,8.733699430199431,0.4444444444444444,0.26222222222222225,-0.6133333333333333,-0.037827198996070656,-0.08076265598983198,1.1007246332325988
1590513588.9221003,-0.31838499779266394,-2.8476327760609608,9.015707787097641,0.4444444444444444,0.26222222222222225,-0.6133333333333333,-0.028081622049287158,-0.09555871537335531,1.2657354347868588
1590513588.9321003,-0.33974242596164755,-2.9070100987178034,8.785979802564393,0.46245117692297993,0.26222222222222225,-0.5983277229345537,-0.03096471644461091,-0.10657526904912812,1.4286952254115632
1590513588.9421003,-0.33,-2.92,8.76,0.4711111111111111,0.26222222222222225,-0.5911111111111111,-0.04690572364734761,-0.10799224746714917,1.4726215563702154
1590513588.9521003,-0.383121248893116,-2.904969991144928,8.69878751106884,0.4711111111111111,0.26222222222222225,-0.5911111111111111,-0.03728991310059734,-0.12666863279454346,1.6426065210821321
1590513588.9621003,-0.3768949210449565,-2.9468949210449567,8.721735552685304,0.4711111111111111,0.26222222222222225,-0.5911111111111111,-0.044924971105896445,-0.14179641213037503,1.7826119765342243
1590513588.9721003,-0.352116116751269,-2.9654774746192896,8.808464467005075,0.4711111111111111,0.26222222222222225,-0.5911111111111111,-0.045416559669846895,-0.15463547265367072,1.8915280898714462
1590513588.9821002,-0.380104957005564,-3.02,8.808125948406676,0.4711111111111111,0.24618023941999664,-0.5969040493452481,-0.04188904695118899,-0.1601362486771299,1.9985107593493896
1590513588.9921002,-0.4451441612780525,-3.0765857740585774,8.843990871053633,0.4711111111111111,0.2222222222222222,-0.6055555555555555,-0.048153809989587744,-0.16873778812336926,2.106592905808058
1590513589.0021002,-0.4915779080656325,-3.183457310370099,8.905035218435732,0.4711111111111111,0.2222222222222222,-0.6055555555555555,-0.05733823365573773,-0.1795112812953408,2.198621538718157
1590513589.0121002,-0.539574657412351,-3.2917737438452868,8.878651598742362,0.4711111111111111,0.2222222222222222,-0.6055555555555555,-0.04789586434871667,-0.1864392684493511,2.2745450587121785
1590513589.0221002,-0.5735371527574996,-3.33,8.894727170083124,0.4711111111111111,0.2222222222222222,-0.6055555555555555,-0.05172159003894612,-0.189997477909897,2.3248903075047536
1590513589.0321002,-0.6217858294989558,-3.33,8.922341205833913,0.4754277052405989,0.21280419866697606,-0.6083024790925023,-0.056978586628995014,-0.18858385618590345,2.3615318322172065
1590513589.0421002,-0.6869063947434563,-3.3217123263078525,8.89966895264084,0.4833333333333333,0.1955555555555556,-0.6133333333333333,-0.05330003418268165,-0.18495309888047975,2.3979536357462092
1590513589.0521002,-0.7370808581183761,-3.273540429059188,8.85024669916517,0.4833333333333333,0.1955555555555556,-0.6133333333333333,-0.0500426721592255,-0.18678272087138323,2.4355949108568304
1590513589.0621002,-0.7572543307086614,-3.2981358267716536,8.671762992125984,0.4833333333333333,0.1955555555555556,-0.6133333333333333,-0.04898019176221803,-0.18761185744328407,2.4530750800803904
1590513589.0721002,-0.7887567362871042,-3.33,8.736259430801946,0.4833333333333333,0.1955555555555556,-0.6133333333333333,-0.054950747631245626,-0.19444029305401997,2.4590061732205557
1590513589.0821002,-0.819301610882927,-3.33,8.779022255236097,0.4833333333333333,0.1955555555555556,-0.6133333333333333,-0.055617133420377975,-0.19310752147575524,2.4630044879553497
1590513589.0921001,-0.9462677405915845,-3.3581338702957924,8.848133870295792,0.4888888888888889,0.13666666666666666,-0.6055555555555555,-0.05413441277972663,-0.19468452800909936,2.4480853724276312
1590513589.1021001,-0.9813428311609579,-3.37,8.80328584419521,0.4888888888888889,0.13666666666666666,-0.6055555555555555,-0.05734185615936735,-0.1999477283531894,2.411518359002341
1590513589.1121001,-1.0134214931369268,-3.3582892534315367,8.79513223970539,0.4888888888888889,0.13666666666666666,-0.6055555555555555,-0.05717530933016743,-0.19725375813006552,2.369276790534283
1590513589.1221,-1.0829989074642865,-3.2921830100389604,8.839272329987013,0.4888888888888889,0.13666666666666666,-0.6055555555555555,-0.0519930592597564,-0.1958239695793555,2.3260384865895527
1590513589.1321,-1.1566353197386656,-3.2466353197386657,8.869981191843198,0.4977610594161772,0.1148559141204162,-0.61036131459117,-0.04872035553210834,-0.19308115180515276,2.2805991179010174
1590513589.1421,-1.2053014599353615,-3.2953014599353616,8.911422043909507,0.5155555555555555,0.07111111111111111,-0.62,-0.05135839934895216,-0.1833725082472057,2.2247214810169145
1590513589.1521,-1.2578512777223545,-3.3240495740925486,8.84099148185097,0.5155555555555555,0.07111111111111111,-0.62,-0.043245568238409304,-0.16541861587801238,2.1494414154891985
1590513589.1621,-1.318718690237418,-3.2834609823219365,8.80262885395774,0.5155555555555555,0.07111111111111111,-0.62,-0.04259139860699022,-0.15878576345978124,2.088828502189873
1590513589.1721,-1.3739927193718076,-3.236007280628192,8.83,0.5155555555555555,0.07111111111111111,-0.62,-0.041583422460766684,-0.15550931286869565,2.035106594860705
1590513589.1821,-1.4064743051566435,-3.21,8.86560867836154,0.5130377702168608,0.05600439907894285,-0.6228774689585083,-0.03606036597933327,-0.1534540217639932,1.982990676855095
1590513589.1921,-1.4677720492866406,-3.1953009079118027,8.899577496757457,0.5077777777777778,0.024444444444444446,-0.6288888888888889,-0.03323751490485278,-0.15031117623082052,1.9188300263162001
1590513589.2021,-1.563695101480238,-3.163152449259881,8.795762246299406,0.5077777777777778,0.024444444444444446,-0.6288888888888889,-0.03861174751859292,-0.14691827676772792,1.8555989770189034
1590513589.2121,-1.5892974210285367,-3.1503512894857315,8.731756447428658,0.5077777777777778,0.024444444444444446,-0.6288888888888889,-0.04349911221524701,-0.14831466668105767,1.8109144997923516
1590513589.2221,-1.6063881646071874,-3.0865883362754465,8.775752830097009,0.5077777777777778,0.024444444444444446,-0.6288888888888889,-0.04254240051736178,-0.14540517995071914,1.7152673215742158
1590513589.2321,-1.6539371953293276,-3.0186611495295317,8.850472735517515,0.5077777777777778,0.024444444444444446,-0.6288888888888889,-0.04254240051736178,-0.14318226796259426,1.6596945218710941
1590513589.2421,-1.753994744837213,-2.9819973724186064,8.935978979348853,0.5077777777777778,-0.03333333333333333,-0.6488888888888888,-0.03185340534756351,-0.12261167294993561,1.545730148770818
1590513589.2521,-1.771181898066784,-2.9805448154657297,8.968088752196836,0.5077777777777778,-0.03333333333333333,-0.6488888888888888,-0.02771697494839742,-0.11549913786532225,1.465837892532142
1590513589.2621,-1.8614878621769773,-2.9507439310884886,8.804079874706343,0.5077777777777778,-0.03333333333333333,-0.6488888888888888,-0.024523618586288768,-0.1088806296236067,1.363334321067307
1590513589.2721,-1.9949261420059583,-3.0098522840119166,8.919852284011917,0.5077777777777778,-0.03333333333333333,-0.6488888888888888,-0.025333617392340656,-0.09926560120717748,1.3000285930154731
1590513589.2821,-1.9906290466290466,-2.9551988911988913,8.88291396891397,0.5105334565334565,-0.045143385143385145,-0.6512508992508992,-0.018475504959780783,-0.09694670295686664,1.231085789354074
1590513589.2921,-2.0241764460142035,-2.8922794424822453,8.884176446014203,0.5155555555555555,-0.06666666666666668,-0.6555555555555556,-0.017908872107316107,-0.08808138540259096,1.1743563720253187
1590513589.3021,-2.0337780186429653,-2.805926728809885,8.920814654238024,0.5155555555555555,-0.06666666666666668,-0.6555555555555556,-0.01954608909294354,-0.08611897388193146,1.1035253286836189
1590513589.3121,-2.02,-2.6797435236499547,8.817640933109937,0.5155555555555555,-0.06666666666666668,-0.6555555555555556,-0.002785801020920707,-0.0910461441637201,1.0423680346299886
1590513589.3221,-1.9992199099428014,-2.5435037118169648,8.70753194596568,0.5155555555555555,-0.06666666666666668,-0.6555555555555556,-0.002692229313499833,-0.0792051739984855,0.98545814849298
1590513589.3321,-1.9965868645758518,-2.5197905195116115,8.793024100231426,0.5155555555555555,-0.07515969285061937,-0.6703260358754732,-0.03087966886536781,-0.06689340667096993,0.9203704750245552
1590513589.3421,-2.0807948695576304,-2.6731978012389845,8.925212459645754,0.5155555555555555,-0.09222222222222222,-0.7,-0.03181150378903568,-0.069377637258841,0.8499789434355373
1590513589.3521,-2.1077305330604252,-2.6777305330604255,8.835258342974104,0.5155555555555555,-0.09222222222222222,-0.7,-0.011347067010755028,-0.06288578789272271,0.8129264727005345
1590513589.3621,-2.055474414879416,-2.6254744148794162,8.857653822194536,0.5155555555555555,-0.09222222222222222,-0.7,-0.017861647843397027,-0.06125714268456222,0.772210342496522
1590513589.3720999,-2.0429861711322386,-2.5741453360813775,8.913536334020344,0.5155555555555555,-0.09222222222222222,-0.7,-0.015078753854621327,-0.05524661570666114,0.7114617240331824
1590513589.3820999,-2.133614952463267,-2.629916893823549,8.927479223455887,0.5155555555555555,-0.09222222222222222,-0.7,-0.014318287204959586,-0.053725682407337653,0.6780011914480659
1590513589.3920999,-2.2135229134128225,-2.6947156298807666,9.013578149403832,0.5222222222222223,-0.09,-0.7,-0.015661946506357535,-0.05056853154624411,0.6131270156347333
1590513589.4020998,-2.229500590453697,-2.6707491143194546,8.893745571597274,0.5222222222222223,-0.09,-0.7,-0.0025902400446278367,-0.03749682508451442,0.5739118962495442
1590513589.4120998,-2.2672786978869217,-2.6954426042261566,8.831770416904627,0.5222222222222223,-0.09,-0.7,-0.006544984694978735,-0.037985954861634155,0.4995397582341516
1590513589.4220998,-2.26,-2.7089795738686386,8.889659857956213,0.5222222222222223,-0.09,-0.7,-0.006396569730265066,-0.03130015902179147,0.45050565400650255
1590513589.4320998,-2.263525805002831,-2.674711292495753,8.883525805002833,0.5194799294422423,-0.09137114638999,-0.7035258050028314,-0.001989358733484486,-0.02123970715540384,0.37429765186862324
1590513589.4420998,-2.279906270137275,-2.6501405947940873,8.899906270137276,0.5067395676710083,-0.09774132727560701,-0.7199062701372752,-0.0010959429534714252,-0.018559459815364658,0.3090782999276698
1590513589.4520998,-2.21,-2.6634852700664813,8.850857883222531,0.5066666666666667,-0.09777777777777777,-0.72,-0.002275242107685361,-0.01090830782496456,0.20614074397863053
1590513589.4620998,-2.177726017170586,-2.6134214259051887,8.882406121687197,0.5066666666666667,-0.09777777777777777,-0.72,-0.004059893828337314,-0.009251580580536944,0.1186957445852844
1590513589.4720998,-2.015932148681707,-2.4862469421038327,8.856876528948083,0.5066666666666667,-0.09777777777777777,-0.72,0.004669702331654312,0.0015689031616559347,0.019117206034647942
1590513589.4820998,-1.9904198577680525,-2.4781509846827134,8.880209928884026,0.5027591630196937,-0.09828197179674203,-0.7225209700948213,-2.2899688883097104e-05,0.009345385410738066,-0.04552599874418588
1590513589.4920998,-2.1574373563084923,-2.62,8.945125287383016,0.4722222222222222,-0.10222222222222224,-0.7422222222222222,-0.0034532630788679875,0.01904853849347269,-0.152037330021317
1590513589.5020998,-2.1854604665646002,-2.6354604665646004,8.892944183511949,0.4722222222222222,-0.10222222222222224,-0.7422222222222222,0.004189297449450541,0.031065338951506614,-0.2420046176777294
1590513589.5120997,-2.227127749181095,-2.677127749181095,8.854281937295273,0.4722222222222222,-0.10222222222222224,-0.7422222222222222,0.004517096070195023,0.04082494181320288,-0.3353204126851818
1590513589.5220997,-2.239965748025854,-2.7025085629935366,8.862508562993536,0.4722222222222222,-0.10222222222222224,-0.7422222222222222,0.009277666117383869,0.04800402705139605,-0.4064110608508377
1590513589.5320997,-2.2159217220574114,-2.708519569485647,8.868519569485647,0.4722222222222222,-0.10222222222222224,-0.7422222222222222,0.013211860666612025,0.05324961978370026,-0.46017838635695585
1590513589.5420997,-2.2199617891661045,-2.7185659698808724,8.917131939761743,0.46,-0.11,-0.75,0.010286762301559635,0.054545707280206565,-0.5795940202096178
1590513589.5520997,-2.142635697711452,-2.7204185813731288,8.851379953592065,0.46,-0.11,-0.75,0.01308996938995747,0.06601131783756126,-0.693668520916557
1590513589.5620997,-2.11,-2.74,8.778770118809426,0.46,-0.11,-0.75,0.012066218220535545,0.0762910751616774,-0.7810947155339557
1590513589.5720997,-2.11,-2.74,8.838182623014678,0.46,-0.11,-0.75,0.00882576879792111,0.07953152458429183,-0.857245276965395
1590513589.5820997,-2.045538737303326,-2.746691894045011,8.865614419438359,0.45405164973776807,-0.11545265440704597,-0.753222023058709,0.009817477042468105,0.09237626941196835,-0.9766194308708236
1590513589.5920997,-2.018654289503213,-2.7926914209935734,8.897308579006426,0.43333333333333335,-0.13444444444444445,-0.7644444444444445,0.011880185418999453,0.11058645070744831,-1.0896336616432218
1590513589.6020997,-2.0020617166286034,-2.84237029977162,8.84762970022838,0.43333333333333335,-0.13444444444444445,-0.7644444444444445,0.014821834162297329,0.11351372377790378,-1.168660771241829
1590513589.6120996,-2.00960420075887,-2.88762520455322,8.80237479544678,0.43333333333333335,-0.13444444444444445,-0.7644444444444445,0.013176319389140146,0.1217412976436897,-1.2418861786473236
1590513589.6220996,-1.9558296675887714,-2.8948206430547367,8.817264523150879,0.43333333333333335,-0.13444444444444445,-0.7644444444444445,0.012713315923995473,0.1351529495273586,-1.3564504772585482
1590513589.6320996,-1.8670654392091062,-2.87579973697338,8.880667543422067,0.43333333333333335,-0.13444444444444445,-0.7644444444444445,0.011330076599694266,0.14276076581101524,-1.414546528879199
1590513589.6420996,-1.818768848841486,-2.92,8.847386906951085,0.44222222222222224,-0.13111111111111112,-0.7266666666666667,0.006276389178656052,0.16045352535072893,-1.5241454579671814
1590513589.6520996,-1.80669525556492,-2.92660948887016,8.8339051112984,0.44222222222222224,-0.13111111111111112,-0.7266666666666667,0.0076077483922481,0.17707507846023277,-1.6200383784113788
1590513589.6620996,-1.8034948979591838,-2.992423469387755,8.752423469387754,0.44222222222222224,-0.13111111111111112,-0.7266666666666667,0.011893394807116969,0.17818665177447848,-1.6926076193280597
1590513589.6720996,-1.8130519662618376,-3.0808441012144874,8.81337640485795,0.44222222222222224,-0.13111111111111112,-0.7266666666666667,0.011297912097583448,0.17490123383475523,-1.7575764318313418
1590513589.6820996,-1.697025602558282,-2.9523974022384967,8.683884600959356,0.45353757476460255,-0.12983012780442657,-0.7420384663468814,-0.0038402910980302185,0.15888946562662298,-1.8231409793222788
1590513589.6920996,-1.1883954247194233,-2.514235720176414,8.472114095162969,0.5011111111111111,-0.12444444444444445,-0.8066666666666666,-0.09680439689764365,0.13160064332239801,-1.8991206296670247
1590513589.7020996,-1.4399567701863354,-2.9611473291925465,8.09735950310559,0.5011111111111111,-0.12444444444444445,-0.8066666666666666,0.1068259664263056,0.20667235033333153,-1.9332166019073376
1590513589.7120996,-1.4752058735285294,-3.124382379414412,8.470076595894884,0.5011111111111111,-0.12444444444444445,-0.8066666666666666,0.12993908283457012,0.22144247997093505,-1.976981947363267
1590513589.7220995,-1.4405812368675108,-3.2259313419274234,8.992668237832927,0.5011111111111111,-0.12444444444444445,-0.8066666666666666,-0.022590430898924208,0.14534708446742156,-2.0621384698661283
1590513589.7320995,-1.4438363166862824,-3.1846547332548703,9.25367646283837,0.49392014724510724,-0.134546036541926,-0.8022151176067596,-0.003501956373705312,0.14224391630761957,-2.1259503820968813
1590513589.7420995,-1.4143648883658018,-3.3025404465367925,8.74529432431008,0.4595368142045465,-0.18284643295604702,-0.7809301971530791,0.06320585164973971,0.1912701366621996,-2.141220844174537
1590513589.7520995,-1.3662437014904263,-3.3612520995031914,8.822470606955322,0.4544444444444444,-0.19,-0.7777777777777778,0.04308506766535925,0.19661904226119362,-2.205261086576588
1590513589.7620995,-1.3439971004755928,-3.3686676331748027,8.718653135552765,0.4544444444444444,-0.19,-0.7777777777777778,0.03337815678820033,0.18529431290450823,-2.241662002365934
1590513589.7720995,-1.3322849512841377,-3.4988575243579314,8.861142475642069,0.4544444444444444,-0.19,-0.7777777777777778,0.04940525117672949,0.1967360232584158,-2.287815233118392
1590513589.7820995,-1.243322026146282,-3.5323680298814653,8.814276022411098,0.45359644776460717,-0.18162603278660755,-0.7669658201098534,0.04664741165849025,0.19832307271594518,-2.317344541687602
1590513589.7920995,-1.1772626689316155,-3.4873733106838443,8.762737331068385,0.4455555555555555,-0.10222222222222224,-0.6644444444444444,0.05484013562395056,0.19545375135197876,-2.3473884270041907
1590513589.8020995,-1.1709574420107935,-3.5504255798920643,8.769042557989206,0.4455555555555555,-0.10222222222222224,-0.6644444444444444,0.055527929185536354,0.19339037066722137,-2.3597687111127352
1590513589.8120995,-1.0210112013549406,-3.4844943993225295,8.53149813310751,0.4455555555555555,-0.10222222222222224,-0.6644444444444444,0.057756842530252796,0.20223676873276966,-2.3734843617412937
1590513589.8220994,-0.9725763116363216,-3.508711844181839,8.539570614727278,0.4455555555555555,-0.10222222222222224,-0.6644444444444444,0.0692042674048291,0.21632590703994048,-2.3726037905970956
1590513589.8320994,-0.9781085349221161,-3.588678726102457,9.087149044098295,0.446583213031422,-0.08827544219260537,-0.6576912667458931,0.03385822026086253,0.1769011813918531,-2.390894748399134
1590513589.8420994,-0.889691556755634,-3.588835808495171,8.756198982241147,0.4533333333333333,0.0033333333333333327,-0.6133333333333333,0.055793009438898845,0.19962203319685146,-2.3804467545933043
1590513589.8520994,-0.8277991969814241,-3.655405621130031,8.80818474264706,0.4533333333333333,0.0033333333333333327,-0.6133333333333333,0.05696327105770307,0.19818161098952725,-2.3685642484786404
1590513589.8620994,-0.7942875539731838,-3.676941140822665,8.652653586849482,0.4533333333333333,0.0033333333333333327,-0.6133333333333333,0.05440821168996498,0.19427910254270112,-2.361804778091914
1590513589.8720994,-0.6830834785243542,-3.533964472388455,8.6208809938641,0.4533333333333333,0.0033333333333333327,-0.6133333333333333,0.03967833964098706,0.19947788091292865,-2.3436090537961176
1590513589.8820994,-0.6965351640559531,-3.6028479339908466,9.357030232708052,0.4545624100217022,0.021564637544138614,-0.6118994105302362,-0.007281346453136599,0.19706241666145186,-2.3251269432109374
1590513589.8920994,-0.48669876231168885,-3.4300962869350666,7.977204268720788,0.46,0.10222222222222224,-0.6055555555555555,0.15593365970181375,0.18691449243592229,-2.269637742655506
1590513589.9020994,-0.5443283582089553,-3.596492537313433,8.950074626865671,0.46,0.10222222222222224,-0.6055555555555555,0.048778045139692264,0.20046050760429274,-2.2389139000175207
1590513589.9120994,-0.5407015251358062,-3.6296492374320968,9.133858388246933,0.46,0.10222222222222224,-0.6055555555555555,0.011941959029024792,0.14582696450875052,-2.2186156798730194
1590513589.9220994,-0.4624043756650302,-3.668797812167485,8.703224066157665,0.46,0.10222222222222224,-0.6055555555555555,0.09137227399576196,0.18426098787975237,-2.160537600112394
1590513589.9320993,-0.4631995121951219,-3.6584887804878052,8.977331707317074,0.45949626016260164,0.10935853658536587,-0.6044641192411924,0.03369469864616187,0.17076588742304008,-2.105564837127155
1590513589.9420993,-0.3792662332945962,-3.6664156013945384,8.713207800697269,0.4533333333333333,0.19666666666666666,-0.5911111111111111,0.05842461306915332,0.16431524050225207,-2.036752483791157
1590513589.9520993,-0.37165020337013366,-3.940592678675189,8.850296339337595,0.4533333333333333,0.19666666666666666,-0.5911111111111111,0.05343993313994259,0.16016134056124312,-1.9819210045698392
1590513589.9620993,-0.33535594508417454,-3.7554801830527516,8.687028201358027,0.4533333333333333,0.19666666666666666,-0.5911111111111111,0.05312653539852179,0.15555986926215373,-1.8759787697316908
1590513589.9720993,-0.3145677278659816,-3.824774240446728,8.763251664491401,0.4533333333333333,0.19666666666666666,-0.5911111111111111,0.06144122539195861,0.14875694108570542,-1.8162641779606445
1590513589.9820993,-0.29067436298680205,-3.849662818506599,8.818651274026395,0.4533333333333333,0.19666666666666666,-0.5911111111111111,0.054835785486654784,0.14515405566248663,-1.7124949845616404
1590513589.9920993,-0.2321503971907586,-3.844112797893069,8.784112797893068,0.4444444444444444,0.26222222222222225,-0.5988888888888889,0.05962908532555071,0.1317764599727039,-1.593858838759836
1590513590.0020993,-0.19784174424301815,-3.8264747672709456,8.754604360607546,0.4444444444444444,0.26222222222222225,-0.5988888888888889,0.04495949126397629,0.1297225479914667,-1.5034788129321088
1590513590.0120993,-0.17726140051026726,-3.8745228010205346,8.703153501275668,0.4444444444444444,0.26222222222222225,-0.5988888888888889,0.044963947041533406,0.11894581405609482,-1.4017084497148347
1590513590.0220993,-0.15486391174608916,-3.838715977936522,8.675408264761733,0.4444444444444444,0.26222222222222225,-0.5988888888888889,0.033425248871016736,0.11123504996333808,-1.298823183737674
1590513590.0320992,-0.12452265123428881,-3.8311306628085724,8.766432046297133,0.4444444444444444,0.26222222222222225,-0.5988888888888889,0.037562396489268735,0.10461561377413489,-1.2193899494672358
1590513590.0420992,-0.08993013317656635,-3.872587333529292,8.839930133176566,0.4533333333333333,0.3211111111111111,-0.6055555555555555,0.032732544763061346,0.09133993013570094,-1.0821958383381265
1590513590.0520992,-0.052326035118144376,-3.9042445263386085,8.792733579015826,0.4533333333333333,0.3211111111111111,-0.6055555555555555,0.034532491326921176,0.08231977082884212,-0.9851925823823855
1590513590.0620992,-0.018089952074714293,-3.8752248801867855,8.721910047925286,0.4533333333333333,0.3211111111111111,-0.6055555555555555,0.02877830815949688,0.07443390836307741,-0.893727785125165
1590513590.0720992,-0.000909351574980545,-3.8322733789374515,8.73909064842502,0.4533333333333333,0.3211111111111111,-0.6055555555555555,0.0325265337368736,0.06693745720832397,-0.8084556532398448
1590513590.0820992,0.0,-3.8799754670692583,8.806633956092345,0.4533333333333333,0.3211111111111111,-0.6055555555555555,0.025456286428389017,0.06563209810147072,-0.7258044384499629
1590513590.0920992,0.060316914673196456,-3.923904925598041,8.795778159728762,0.4488888888888889,0.3466666666666667,-0.5777777777777777,0.02335069275104311,0.05452425411077542,-0.5981290080331314
1590513590.1020992,0.12835154901799656,-3.886687484591996,8.736671871148,0.4488888888888889,0.3466666666666667,-0.5777777777777777,0.02418150164744917,0.0485445245648922,-0.5078047219462994
1590513590.1120992,0.06974945014662758,-3.820501099706745,8.721503299120235,0.4488888888888889,0.3466666666666667,-0.5777777777777777,0.01944363884011017,0.04022408520606456,-0.43237415273163343
1590513590.1220992,0.06206195014662756,-3.835876099706745,8.767628299120235,0.4488888888888889,0.3466666666666667,-0.5777777777777777,0.013573605691801115,0.036031204385843806,-0.3778667020687636
1590513590.1320992,0.08517470472440944,-3.890349409448819,8.838740977690287,0.4488888888888889,0.3466666666666667,-0.5777777777777777,0.015660650987946986,0.03582196313500807,-0.3202238801006097
1590513590.1420991,0.12806447526759138,-3.953290265374628,8.827161314839445,0.4725734512776124,0.365275965686378,-0.6149963758172005,0.007227643442324828,0.031845225688236674,-0.2737774545598398
1590513590.1520991,0.14843088503649635,-3.9615691149635035,8.74,0.48,0.3711111111111111,-0.6266666666666667,0.006544984694978735,0.02222279087103934,-0.18699937432071845
1590513590.1620991,0.13509693927763017,-3.9650969392776303,8.746128825902963,0.48,0.3711111111111111,-0.6266666666666667,0.00614385397764796,0.017741861867778198,-0.12260965907473868
1590513590.172099,0.104152452730398,-3.925847547269602,8.792076226365198,0.48,0.3711111111111111,-0.6266666666666667,0.0024798082767829408,0.010979973373695608,-0.056813472237613544
1590513590.182099,0.13188152849398388,-3.898118471506016,8.805940764246992,0.48,0.3711111111111111,-0.6266666666666667,-0.002813544370508841,0.004174234255749032,-0.013710457823951888
1590513590.192099,0.13564592251125016,-3.87306223246625,8.848306223246624,0.6088888888888889,0.4544444444444444,-0.6133333333333333,-0.0011346747329464837,0.001829880310999817,0.06181721641837203
1590513590.202099,0.22771704532982112,-3.5968488640105365,8.820684886401054,0.6088888888888889,0.4544444444444444,-0.6133333333333333,0.015939107808470056,0.013881962104940903,0.12709932613555291
1590513590.212099,0.18,-3.821226294752955,8.86,0.6088888888888889,0.4544444444444444,-0.6133333333333333,0.012809678105893089,-0.018644449307310053,0.18331852400318183
1590513590.222099,0.18,-3.85689514414491,8.86,0.6088888888888889,0.4544444444444444,-0.6133333333333333,-0.027071717759405894,-0.021562600224283152,0.24849056114891432
1590513590.232099,0.1622141712533965,-3.7977495993868877,8.619891311920853,0.6088888888888889,0.4544444444444444,-0.6133333333333333,-0.00241133415084286,-0.02569688154773021,0.32497842495654417
1590513590.242099,0.14398862975644422,-3.846039795852445,8.686068221461335,1.0678815025374884,0.5985467766364465,-0.8134754613777806,-0.012881725642798287,-0.03054636266281955,0.39579743858116095
1590513590.252099,0.146229533194823,-3.878688599584469,8.722459066389646,1.1822222222222225,0.6344444444444445,-0.8633333333333333,-0.01160570513879933,-0.03095455603544758,0.4567721610167901
1590513590.262099,0.15816400206291903,-3.938984012377514,8.827968024755029,1.1822222222222225,0.6344444444444445,-0.8633333333333333,-0.018522745494427957,-0.034105479813339425,0.5448865717868837
1590513590.272099,0.1932138107049139,-3.95,8.664002660052482,1.1822222222222225,0.6344444444444445,-0.8633333333333333,-0.016378107212921014,-0.03780503680956103,0.605605201895395
1590513590.282099,0.2415091592455897,-3.9893864490569872,8.711791216605153,1.1822222222222225,0.6344444444444445,-0.8633333333333333,-0.01761791625602113,-0.045284861316115026,0.6758104286286124
1590513590.292099,0.2287903050000991,-4.0141397966666,8.7570698983333,1.144516097777954,0.3186556522236975,-0.8319115629631098,-0.01468809193689757,-0.04999054873978135,0.7199336809527096
1590513590.302099,0.23065628512322653,-4.008687429753547,8.851468293398055,1.1288888888888888,0.18777777777777774,-0.8188888888888889,-0.017023754911237306,-0.05563236990731925,0.7612397202188927
1590513590.312099,0.23748839406427652,-3.9950232118714473,8.762650877164406,1.1288888888888888,0.18777777777777774,-0.8188888888888889,-0.01255215006587735,-0.05563236990731925,0.7709281973838393
1590513590.322099,0.26,-3.99,8.740635941018377,1.1288888888888888,0.18777777777777774,-0.8188888888888889,-0.01291654338028295,-0.056653830285945894,0.7773808106986891
1590513590.332099,0.26,-3.99,8.755869107285537,1.1288888888888888,0.18777777777777774,-0.8188888888888889,-0.008762341710506598,-0.054992149618035356,0.7682415670251812
1590513590.342099,0.2691602233264903,-3.9865635732238447,8.833281786611922,0.5877777777777777,0.2733333333333333,-0.6911111111111111,-0.007635815477475192,-0.053267497493148956,0.7375595168790782
1590513590.352099,0.26111298708773817,-3.8578077934038104,8.768903896701906,0.5877777777777777,0.2733333333333333,-0.6911111111111111,-0.007635815477475192,-0.0515118628924986,0.707713728668022
1590513590.362099,0.21184148811427353,-3.8592634047542904,8.711841488114274,0.5877777777777777,0.2733333333333333,-0.6911111111111111,-0.009737126965642069,-0.04601576805691625,0.6563063462264594
1590513590.372099,0.21963489952016724,-3.821460401919331,8.719634899520168,0.5877777777777777,0.2733333333333333,-0.6911111111111111,-0.010868481540753977,-0.04266187936999352,0.5977442265904362
1590513590.382099,0.16974378109452737,-3.8283760364842454,8.82888847429519,0.5877777777777777,0.2733333333333333,-0.6911111111111111,-0.007253572452033233,-0.03797398130119762,0.5380315251193966
1590513590.392099,0.18090524638391764,-3.8090947536160824,8.836063169077388,0.5359017960102784,0.30662687387068366,-0.681045622111447,-0.01034566574018708,-0.03404770176871283,0.47746241435807973
1590513590.402099,0.20354590434304562,-3.7661352391423857,8.769043430456295,0.5133333333333333,0.3211111111111111,-0.6766666666666666,-0.001655736003558391,-0.02607559322952771,0.40425025406400544
1590513590.412099,0.18139577277430163,-3.7786042272256983,8.75430211361285,0.5133333333333333,0.3211111111111111,-0.6766666666666666,-0.005308159833522255,-0.016666972118962575,0.3226647841984168
1590513590.4220989,0.1795255714778464,-3.647116427832304,8.73142328556646,0.5133333333333333,0.3211111111111111,-0.6766666666666666,-0.001453095647738059,-0.012102642854672902,0.22100848711084642
1590513590.4320989,0.18,-3.656291908446164,8.81145954223082,0.5133333333333333,0.3211111111111111,-0.6766666666666666,0.0024635122652414323,-0.004890452511985241,0.15576290814331617
1590513590.4420989,0.18155063418562511,-3.65310126837125,8.839224682907187,0.4833333333333333,0.3211111111111111,-0.6977777777777778,0.0015137006580142587,0.0015137006580142587,0.061795904232634605
1590513590.4520988,0.1984392993758808,-3.6868785987517616,8.83078035031206,0.4833333333333333,0.3211111111111111,-0.6977777777777778,0.006119369624216076,0.006119369624216076,-0.0017623275009504835
1590513590.4620988,0.19328730889276835,-3.6832873088927682,8.729309633391525,0.4833333333333333,0.3211111111111111,-0.6977777777777778,0.005080502676347034,0.01167067176018969,-0.05889268612958476
1590513590.4720988,0.20795838150289017,-3.671020809248555,8.76979190751445,0.4833333333333333,0.3211111111111111,-0.6977777777777778,0.012199145268852851,0.020057666776604196,-0.1574548028041055
1590513590.4820988,0.21,-3.656559950746498,8.766559950746498,0.4833333333333333,0.3211111111111111,-0.6977777777777778,0.013823010362156874,0.023657948756230274,-0.2200513108822172
1590513590.4920988,0.2,-3.6501436469309643,8.810359117327412,0.4711111111111111,0.2877777777777778,-0.7055555555555556,0.007690658550412688,0.03496926283752944,-0.3332909930143208
1590513590.5020988,0.2,-3.6633563294428955,8.843390823607239,0.4711111111111111,0.2877777777777778,-0.7055555555555556,0.012735138831591192,0.0407343831588763,-0.38733899602694766
1590513590.5120988,0.2,-3.654313976229878,8.710982774183842,0.4711111111111111,0.2877777777777778,-0.7055555555555556,0.01441609107577938,0.047055390816542246,-0.48124780792399136
1590513590.5220988,0.15298272951564731,-3.65,8.773437995065576,0.4711111111111111,0.2877777777777778,-0.7055555555555556,0.017258073329651565,0.05517685846330521,-0.5724292964370543
1590513590.5320988,0.31075185356811863,-3.7495130522088354,8.76469029966018,0.4711111111111111,0.2877777777777778,-0.7055555555555556,0.019958336380164244,0.05897242838761385,-0.6338304781056334
1590513590.5420988,0.310608808903623,-3.7235529244612837,8.851726497750414,0.42799181729681374,0.2791539190149183,-0.6538124029783987,0.02688320562538614,0.06846214657949108,-0.700485343214012
1590513590.5520988,1.598369268144549,-4.802256301245065,7.500977831764349,0.41,0.27555555555555555,-0.6322222222222222,0.02456472745423844,0.07297237237939927,-0.7884894579198464
1590513590.5620987,-0.7622454424188527,-0.30518452645620275,1.5895680619958075,0.41,0.27555555555555555,-0.6322222222222222,-1.1664892479336197,1.4148309448816727,-2.6096200558657072
1590513590.5720987,0.39277339759036145,0.048106216867469874,-0.20578448192771084,0.41,0.27555555555555555,-0.6322222222222222,-3.50131788160055,0.059387140886067544,-3.675160266230028
1590513590.5820987,0.004674313253012041,-0.5906401927710845,0.020606650602409682,0.41,0.27555555555555555,-0.6322222222222222,-3.3707848330122743,0.7296919849880266,-1.9844044949886392
1590513590.5920987,-0.00034009474067775436,-0.0031033645086845363,-0.0793623223612292,0.3922977988312618,0.35964101110706237,-0.646605260671822,-3.323840228751772,0.7521110639222955,-1.3971955034483559
1590513590.6020987,-1.673740885910566,-2.3080005900450966,10.42933093100687,0.3922222222222223,0.36,-0.6466666666666666,-3.30742557460109,0.9341592171674715,-1.222334968685138
1590513590.6120987,-0.2768900815189772,-0.28862393527271246,2.6794289605822215,0.3922222222222223,0.36,-0.6466666666666666,-3.002616186108416,0.7182080121444441,-1.0724709812339037
1590513590.6220987,0.9943749824393807,-0.2501205360905847,2.3067053468573517,0.3922222222222223,0.36,-0.6466666666666666,-0.838426650255139,-1.7455040742466787,-0.9230308126921521
1590513590.6320987,0.16944452249164121,-0.26779761737517915,1.8235317917451042,0.3922222222222223,0.36,-0.6466666666666666,-0.29658265633617376,-1.6111679001908499,-0.7906229090773159
1590513590.6420987,-0.026597072506524433,-0.638663338250312,2.6495143537955297,0.3922222222222223,0.4255092855251712,-0.6046315417880151,1.5223609893032175,-0.45083084409338614,-0.6960068520466689
1590513590.6520987,1.9091281891965362,-2.149715739194594,8.552710574346627,0.3922222222222223,0.4933333333333334,-0.5611111111111111,3.4951041339886846,0.3038573511750942,-0.6733651272874372
1590513590.6620986,0.8857751087346872,-2.163332269262998,7.015771517497306,0.3922222222222223,0.4933333333333334,-0.5611111111111111,4.869106163524024,-0.03779129511846166,-0.6363421719913734
1590513590.6720986,-0.5183009548896937,-1.195147074964329,0.31050268905718426,0.3922222222222223,0.4933333333333334,-0.5611111111111111,5.828031942813597,-0.07244680027652156,-0.6015357076876584
1590513590.6820986,-0.35390926345435625,-0.005771138186493552,-0.606193595787669,0.3922222222222223,0.4933333333333334,-0.5611111111111111,3.182869709099797,-0.6143839739236387,-0.2421456665893812
1590513590.6920986,0.7170971236009145,0.586740081036627,-0.08830164079111008,0.3763500532666497,0.47746116437776087,-0.5935769112475094,0.649538552471399,-0.7484562317410695,0.12880502922933865
1590513590.7020986,3.086605687015311,-1.8480811294491943,13.175694969178764,0.36777777777777776,0.4688888888888889,-0.6111111111111112,-0.5202816001843561,-0.29075293032052035,0.5002826743251051
1590513590.7120986,2.588218963290906,-2.8713466150156797,13.697458725327431,0.36777777777777776,0.4688888888888889,-0.6111111111111112,-0.33105340900659985,0.12651076512172454,0.5113873465507837
1590513590.7220986,2.027276793949456,-3.8384882862940417,13.847365684375577,0.36777777777777776,0.4688888888888889,-0.6111111111111112,-0.12533076732382625,0.5390110363933374,0.5156072981750457
1590513590.7320986,0.6552871132644893,-2.185256934036831,8.237855427128457,0.36777777777777776,0.4688888888888889,-0.6111111111111112,-0.04864248910843622,-0.4902179517362538,0.3740396249152058
1590513590.7420986,0.2905709517849693,-1.0128213838726978,3.6467012336849636,0.35625338551496255,0.4039332234075663,-0.6446366158756647,-0.16643637202867734,0.25399746750915375,0.6640832047678082
1590513590.7520986,0.965137948483169,-5.2330139032794385,17.85972795836245,0.3555555555555556,0.4,-0.6466666666666666,-0.17453292519943295,0.31634092692397225,0.6839509006252779
1590513590.7620986,0.6465600957428621,-3.8518276628483497,12.909575995896734,0.3555555555555556,0.4,-0.6466666666666666,-0.02746883116114815,0.08996584450189696,0.6979000694364973
1590513590.7720985,0.39760949047063393,-2.1110968494749125,6.313644107351225,0.3555555555555556,0.4,-0.6466666666666666,0.009276219621530468,0.03869097444652875,0.8372391432338268
1590513590.7820985,0.4902195280766488,-2.480365880127748,8.19482620693932,0.3555555555555556,0.4,-0.6466666666666666,-0.20601735040206093,0.08048238197588384,0.9081156286450345
1590513590.7920985,0.38518981353727283,-2.815440927188867,9.763411913115466,0.3627285230592678,0.40464133191416674,-0.6420253347524999,-0.1371967292788332,-0.06862575688952308,0.9331020781951349
1590513590.8020985,0.3282426555590216,-2.8050969778152925,8.596723122373708,0.3744444444444445,0.4122222222222222,-0.6344444444444445,0.07813118264569441,-0.0665079309909923,0.9929561771893836
1590513590.8120985,0.24958918539325842,-2.4157619382022473,7.252366573033708,0.3744444444444445,0.4122222222222222,-0.6344444444444445,-0.060923741838565235,-0.09080783247856557,1.0374850206549737
1590513590.8220985,0.26538311894552963,-2.733928457995871,8.548090360489121,0.3744444444444445,0.4122222222222222,-0.6344444444444445,-0.04115331057974969,-0.08810442054836361,1.0977016132612896
1590513590.8320985,1.4013721407060935,-12.21937816364452,6.302363682962773,0.3744444444444445,0.4122222222222222,-0.6344444444444445,-0.12367698506270598,-0.12754378343592532,1.2448027670906796
1590513590.8420985,2.1718378106449343,-15.186818995874837,4.306003018412315,0.3843092866485562,0.39183488166705793,-0.6429939743546746,-0.6805388688616636,-0.1296732967439482,0.9112515000296202
1590513590.8520985,-0.15417408309055336,-2.2262166260925085,5.794689707466976,0.3911111111111111,0.37777777777777777,-0.6488888888888888,-0.12051927904138804,-0.08058804627491967,0.3424317516594377
1590513590.8620985,-1.3531196278026165,0.3866731559236468,15.893968785574053,0.3911111111111111,0.37777777777777777,-0.6488888888888888,0.793541574311881,0.0482174632753911,0.3886760571724409
1590513590.8720984,-1.1173795243019649,1.0085211995863494,6.666273009307137,0.3911111111111111,0.37777777777777777,-0.6488888888888888,0.9472740673499663,-0.10458709565738307,0.40780782127312387
1590513590.8820984,-0.6666449201645362,0.44499314432305714,4.259989605909151,0.3911111111111111,0.37777777777777777,-0.6488888888888888,-0.03584755866769096,-0.09802718090883972,0.36974481093641165
1590513590.8920984,-0.5739923362098507,-2.540459827408953,11.532934982398206,0.4197381019138706,0.37777777777777777,-0.643776926245539,-0.7190487438241069,0.15305668654310128,0.3791321563278222
1590513590.9020984,-0.57,-2.78,12.02,0.4222222222222222,0.37777777777777777,-0.6433333333333333,-0.7504915783575618,0.1712604328519436,0.3806999430912632
1590513590.9120984,-0.42706130925071834,-3.316020090309806,11.055163837442349,0.4222222222222222,0.37777777777777777,-0.6433333333333333,0.18503996491678532,-0.023641971996878675,0.5073865062429975
1590513590.9220984,1.2912641774565894,-9.632616681722373,9.64678811602931,0.4222222222222222,0.37777777777777777,-0.6433333333333333,0.02415802047615484,-0.0866237669565112,0.19654607214059777
1590513590.9320984,1.4090412168251456,-9.109756671755164,9.828907321917935,0.4222222222222222,0.37777777777777777,-0.6433333333333333,-0.11413523520807367,-0.010614930500058878,-0.5024239065456314
1590513590.9420984,-0.05914712999325639,-1.7032226585743186,10.318580665635288,0.4203012151744747,0.37425593152357406,-0.6407719906030034,0.048243418233015256,0.2203508037965223,-1.3848184841257793
1590513590.9520984,0.05014722571542496,-2.4577391651075056,7.466246050976904,0.4155555555555556,0.3655555555555556,-0.6344444444444445,0.02198755251057921,0.09443316362755871,-1.221708695245848
1590513590.9620984,-0.12673509403761504,-2.6433081232493,8.510551020408164,0.4155555555555556,0.3655555555555556,-0.6344444444444445,-0.20331667138257703,0.0014552267557769846,-0.22238119822999158
1590513590.9720984,1.2352650638768734,-3.090846494316467,8.733674429131877,0.4155555555555556,0.3655555555555556,-0.6344444444444445,0.0708603555606161,-0.1449617656838724,0.6506769955182719
1590513590.9820983,2.4220795592492292,-4.764921094406574,7.505082640769446,0.4155555555555556,0.3655555555555556,-0.6344444444444445,0.08847891556489115,-0.09891428218870421,0.3396746621625186
1590513590.9920983,0.08552001694556255,-5.396409658970557,7.549959754289346,0.41214243686601243,0.3655555555555556,-0.6452526536279979,-0.0333515561972259,0.06596765075905968,-0.2036385363724786
1590513591.0020983,-0.9065468549422337,-5.992554557124519,8.89609756097561,0.4088888888888889,0.3655555555555556,-0.6555555555555556,-0.06172225831948497,0.07210265445638642,-0.1664980252893371
1590513591.0120983,0.4668356692691187,-4.912320101589691,9.227932461668706,0.4088888888888889,0.3655555555555556,-0.6555555555555556,-0.011607892461881208,-0.019897323975900685,0.05336328591483251
1590513591.0220983,0.4160190043379467,-4.050404048750258,8.610513530262343,0.4088888888888889,0.3655555555555556,-0.6555555555555556,0.006375354987673769,-0.03414149376971752,0.051335249232176944
1590513591.0320983,-0.05952048823016565,-4.541159333999618,8.310446126693176,0.4088888888888889,0.3655555555555556,-0.6555555555555556,0.0027775627026868713,0.0015152450727411591,-0.013156842997585797
1590513591.0420983,0.11592752256500066,-4.352398625892496,8.898369257712515,0.4141980630772225,0.3717495921086114,-0.6431674824494439,0.01617987285865769,0.00022211918735597373,0.0008687115951404822
1590513591.0520983,0.12,-4.417139215924262,9.02112114854438,0.4155555555555556,0.37333333333333335,-0.64,0.002638511854043582,-0.000678958136377079,0.0024487470552506142
1590513591.0620983,0.1348254061604058,-4.425523781518782,8.83244431375432,0.4155555555555556,0.37333333333333335,-0.64,-0.016492330182073245,-0.0018994312526356173,0.0016552914072110448
1590513591.0720983,0.1338846450346906,-4.483384259583713,8.674385030485668,0.4155555555555556,0.37333333333333335,-0.64,-0.011386640448559788,0.0004866654118279093,0.00042374903829125066
1590513591.0820982,0.13,-4.540941541072516,8.616352819642493,0.4155555555555556,0.37333333333333335,-0.64,-0.000680005988542543,0.001385970244336289,0.0
1590513591.0920982,0.12422025413939161,-4.484863303812091,8.69958606083943,0.4197298164548839,0.37461772130235743,-0.640321096992256,0.01047294159236634,0.0006304724699758106,0.0006304724699758106
1590513591.1020982,0.1162877956024532,-4.394316934036798,8.838258657168108,0.43,0.37777777777777777,-0.6411111111111111,0.007850803123860777,0.002181661564992912,0.002181661564992912
1590513591.1120982,0.12546002488722974,-4.400859776014933,8.719019676466013,0.43,0.37777777777777777,-0.6411111111111111,-0.0037743016551940295,0.0015860652429742178,0.002181661564992912
1590513591.1220982,0.13600335798004587,-4.510083949501147,8.635986568079817,0.43,0.37777777777777777,-0.6411111111111111,-0.008726646259971648,0.00043596601419848026,0.0008719320283969605
1590513591.1320982,0.10258068598911531,-4.524470139403692,8.662764930298152,0.43,0.37777777777777777,-0.6411111111111111,-0.003478599742160711,0.0005831162797567708,0.0017493488392703125
1590513591.1420982,0.08671377873148187,-4.453342755746297,8.750141336194446,0.42740007886399173,0.3736921874211933,-0.6411111111111111,0.005466487822208851,0.0007261926958537563,0.0018139400009185695
1590513591.1520982,0.10841513047641849,-4.4252453914292555,8.846138376825472,0.4222222222222222,0.3655555555555556,-0.6411111111111111,0.011653373714948371,0.0016849509716703698,-0.0006695930395788635
1590513591.1620982,0.11802814176413684,-4.388685427842758,8.75591557470759,0.4222222222222222,0.3655555555555556,-0.6411111111111111,0.0010114575181012792,0.0007963611518614086,0.0
1590513591.1720982,0.1406704581864787,-4.451982938160846,8.618017061839154,0.4222222222222222,0.3655555555555556,-0.6411111111111111,-0.00959807011401179,-0.0017459496379728402,-0.0005088475698388426
1590513591.1820982,0.13513537274603032,-4.474323136269849,8.641895218444425,0.4222222222222222,0.3655555555555556,-0.6411111111111111,-0.0069279644518979175,0.0,2.9533751696189875e-05
1590513591.1920981,0.12982120182573184,-4.485625793609938,8.740536394522804,0.4154363567727101,0.3655555555555556,-0.6484624653480825,0.005016009725024285,0.0,0.001645998101361978
1590513591.2020981,0.12,-4.457134732411989,8.754283683102997,0.4088888888888889,0.3655555555555556,-0.6555555555555556,0.011479769233588554,-0.0005714614086239941,0.0010387387477449237
1590513591.2120981,0.11464536863206796,-4.464255576415185,8.681099054952748,0.4088888888888889,0.3655555555555556,-0.6555555555555556,0.006742241554905784,7.736856251581753e-05,0.0005840996725061367
1590513591.222098,0.1297800925925926,-4.434286265432099,8.669560185185185,0.4088888888888889,0.3655555555555556,-0.6555555555555556,-0.0050105830618837974,-0.0025052915309418987,0.00037160631980878494
1590513591.232098,0.14837322014509768,-4.456985761160781,8.69,0.4088888888888889,0.3655555555555556,-0.6555555555555556,-0.008726646259971648,-0.0007098166168290252,-0.0009133766282891997
1590513591.242098,0.15766065388951522,-4.53011555806088,8.707545095828635,0.4088888888888889,0.3655555555555556,-0.6545158461731179,-0.006557590123976017,0.004363323129985824,-0.0019264784901698966
1590513591.252098,0.1301583044226116,-4.439050173464331,8.800633217690446,0.4088888888888889,0.3655555555555556,-0.6466666666666666,0.010891039491245556,0.0022161982324309213,0.0005367812243887257
1590513591.262098,0.1250155451012477,-4.449844548987524,8.734922274493762,0.4088888888888889,0.3655555555555556,-0.6466666666666666,0.009810694212484898,-0.0005471110987440294,0.002732164078728544
1590513591.272098,0.13,-4.390167016365925,8.72966596726815,0.4088888888888889,0.3655555555555556,-0.6466666666666666,-0.000945081507990846,-0.0005545247209048287,0.0032907110068025693
1590513591.282098,0.13,-4.404782119177682,8.740087152328927,0.4088888888888889,0.3655555555555556,-0.6466666666666666,-0.01089880098064857,0.0005406619690902329,0.0011003376268124462
1590513591.292098,0.13,-4.460130685675492,8.725695616332073,0.4064975646289292,0.36268596644360396,-0.6404492235907714,-0.007303784402810743,0.0015603662029614832,0.0004695354204650272
1590513591.302098,0.12456286648790406,-4.5,8.758059934584672,0.4033333333333333,0.3588888888888889,-0.6322222222222222,0.005433261081394597,0.00040236378393171553,0.00227702930320392
1590513591.312098,0.1322051881352544,-4.443042455368813,8.777794811864744,0.4033333333333333,0.3588888888888889,-0.6322222222222222,0.008245548840145354,-0.0006470376183599217,0.0019411128550797653
1590513591.322098,0.14607809649497341,-4.3717657105150804,8.762614602336685,0.4033333333333333,0.3588888888888889,-0.6322222222222222,0.0030798832092067,0.00042781330692637476,0.0
1590513591.332098,0.13496623639119848,-4.45,8.759047269052322,0.4033333333333333,0.3588888888888889,-0.6322222222222222,-0.0067602044207733195,0.0026194670933438486,-0.0006530252541455194
1590513591.342098,0.1670784142588084,-4.45,8.714090220037669,0.4033333333333333,0.3588888888888889,-0.6322222222222222,-0.009562520589652544,0.001218309008904237,-0.0020541833385851306
1590513591.352098,0.1473305950362933,-4.500636545399226,8.690677619854826,0.4155555555555556,0.3655555555555556,-0.6622222222222223,-0.00036062324212926674,0.001964391514104486,-0.001090830782496456
1590513591.362098,0.13674449950445988,-4.4330220019821605,8.716744499504461,0.4155555555555556,0.3655555555555556,-0.6622222222222223,0.009056295538662251,0.004008203114689059,-0.000735710767199691
1590513591.372098,0.12449838901884627,-4.437993556075385,8.726504832943462,0.4155555555555556,0.3655555555555556,-0.6622222222222223,0.0071980773182106035,0.003272492347489368,0.0006001326611563015
1590513591.382098,0.12447087368573857,-4.42,8.748941747371477,0.4155555555555556,0.3655555555555556,-0.6622222222222223,-0.0006290809653562539,0.0018094023551722598,0.001090830782496456
1590513591.392098,0.13,-4.438313758389262,8.735581655480985,0.4175904175988069,0.3655555555555556,-0.6574742107879692,-0.006120060958955927,0.0,0.00042492373602280847
1590513591.402098,0.13,-4.48,8.700151174010935,0.4222222222222222,0.3655555555555556,-0.6466666666666666,-0.004809619931315992,-0.00031402172735102223,-0.0014048525098474783
1590513591.412098,0.13,-4.474261456483126,8.715568738898757,0.4222222222222222,0.3655555555555556,-0.6466666666666666,0.00656350750542397,-0.0023427867654767583,-0.0015556835735027609
1590513591.422098,0.13,-4.452722441323586,8.73607348980377,0.4222222222222222,0.3655555555555556,-0.6466666666666666,0.007932787757405992,-0.001387803062427256,-0.00046260102080908523
1590513591.432098,0.13,-4.458953236779011,8.755785072415742,0.4222222222222222,0.3655555555555556,-0.6466666666666666,0.0008594218156944651,-0.0005168693526622064,-0.0005168693526622064
1590513591.442098,0.1391197462331483,-4.473920169177902,8.74303991541105,0.41648015977912883,0.36791993420859403,-0.6466666666666666,-0.0061173605737938975,-9.602079052902965e-05,-0.00042762412118483846
1590513591.452098,0.14994892375045604,-4.47608172199927,8.743969354250273,0.4033333333333333,0.37333333333333335,-0.6466666666666666,-0.0061008522056441705,0.002181661564992912,0.0006522698476875927
1590513591.462098,0.12305751649114685,-4.500827450526559,8.706942483508854,0.4033333333333333,0.37333333333333335,-0.6466666666666666,0.0024926196630121688,0.002537750088280365,-0.0007347422592090033
1590513591.4720979,0.13453083554376657,-4.435469164456233,8.691601873342176,0.4033333333333333,0.37333333333333335,-0.6466666666666666,0.006792103439057218,0.0020069242898624077,0.0008437120384179733
1590513591.4820979,0.11199489523932604,-4.452020419042696,8.721969371435957,0.4033333333333333,0.37333333333333335,-0.6466666666666666,0.004148498031534791,0.0004352186269824963,0.0013112243110279193
1590513591.4920979,0.118770495775649,-4.424918016897404,8.762622974653894,0.4033333333333333,0.37333333333333335,-0.6466666666666666,-0.00028612214941755535,0.001913425353966612,-0.001645189142940312
1590513591.5020978,0.11,-4.509362398793459,8.71,0.4155555555555556,0.37333333333333335,-0.64,-0.004757924541601316,0.00016252495465517126,-0.0006266778685758137
1590513591.5120978,0.11183841081037343,-4.4709192054051865,8.702646356758507,0.4155555555555556,0.37333333333333335,-0.64,-0.001580043034144035,-0.003071952837206409,0.0012913702927794149
1590513591.5220978,0.13340184241747505,-4.47319631516505,8.657214739339802,0.4155555555555556,0.37333333333333335,-0.64,0.005105490015222613,-0.0003486638972596669,0.0021592420196341845
1590513591.5320978,0.13885337039610843,-4.46,8.715733148019458,0.4155555555555556,0.37333333333333335,-0.64,0.005919595260955403,0.0012159086693011225,0.0002501557736093332
1590513591.5420978,0.1253841580535992,-4.46,8.7646158419464,0.414016941573422,0.36717887740479893,-0.6435900992916451,-0.00016794483807163266,0.002181661564992912,0.0019299064408792943
1590513591.5520978,0.11295768628009688,-4.46,8.762253882319419,0.4088888888888889,0.3466666666666667,-0.6555555555555556,-0.005008590177845246,0.0012137609932037783,0.0007681972585667448
1590513591.5620978,0.12,-4.480873699571624,8.678252600856753,0.4088888888888889,0.3466666666666667,-0.6555555555555556,-0.0025602917384494675,4.765291936904923e-05,0.0
1590513591.5720978,0.12,-4.465422861710631,8.689395911841956,0.4088888888888889,0.3466666666666667,-0.6555555555555556,0.003246134029163885,1.3179159162741245e-05,-0.0005388258116668574
1590513591.5820978,0.12358513471887514,-4.433585134718875,8.76151080831325,0.4088888888888889,0.3466666666666667,-0.6555555555555556,0.004671998850333124,8.24018107272778e-05,-0.0014819083135710338
1590513591.5920978,0.13453253863746623,-4.442266269318734,8.795467461362534,0.41039973510137767,0.35271005151662166,-0.6490085553014378,0.0015420109134784265,0.0019344499315627774,-0.0019344499315627774
1590513591.6020977,0.14506748435418604,-4.459865031291628,8.740539874833487,0.4155555555555556,0.37333333333333335,-0.6266666666666667,-0.004901377120145749,0.0005527767923365306,0.0010613851781432454
1590513591.6120977,0.14,-4.456852250548301,8.664939334795468,0.4155555555555556,0.37333333333333335,-0.6266666666666667,-0.004019956930235838,-0.000478065660748814,0.001838295365242926
1590513591.6220977,0.13680582126264007,-4.44638835747472,8.648747608636238,0.4155555555555556,0.37333333333333335,-0.6266666666666667,0.00025735437906260336,-4.553823504409218e-05,-0.0003484308491507879
1590513591.6320977,0.12808364583995424,-4.456167291679908,8.719581770800229,0.4155555555555556,0.37333333333333335,-0.6266666666666667,0.00545415391248228,0.0017635779434043,-0.0012998725932907619
1590513591.6420977,0.12141883302612343,-4.442837666052247,8.752905834869383,0.4155555555555556,0.37333333333333335,-0.6266666666666667,0.00545415391248228,0.0003095413480236082,-0.002026890890981108
1590513591.6520977,0.14327084164339848,-4.4583645791783,8.763458316713203,0.4222222222222222,0.37333333333333335,-0.6411111111111111,-0.0016055706371806634,-0.0014680746151348395,0.00017839673746451813
1590513591.6620977,0.1516759702637636,-4.458324029736237,8.702253234212545,0.4222222222222222,0.37333333333333335,-0.6411111111111111,-0.008304125730684349,0.0012736507779226589,0.00048549025778295404
1590513591.6720977,0.13,-4.47261432849884,8.657080795504257,0.4222222222222222,0.37333333333333335,-0.6411111111111111,-0.0030205701595069617,-0.0008222801884006834,-0.0013593813765922285
1590513591.6820977,0.13,-4.451443113369452,8.73470858431201,0.4222222222222222,0.37333333333333335,-0.6411111111111111,0.0008284653681580826,-5.247308286767446e-05,-0.0021291884821252375
1590513591.6920977,0.12356439263155757,-4.421782196315779,8.791782196315777,0.4198459604678505,0.3719471806432832,-0.6395269366081966,0.004676524071800971,0.0012852382426667831,-0.0008964233223261287
1590513591.7020977,0.13942089622272621,-4.429420896222726,8.799420896222728,0.4088888888888889,0.3655555555555556,-0.6322222222222222,0.0009644899371944109,0.0020553207196908666,6.317042265102257e-05
1590513591.7120976,0.1260243217960711,-4.4438540692235735,8.71843779232928,0.4088888888888889,0.3655555555555556,-0.6322222222222222,-0.0015245099991110433,0.0,0.0015245099991110433
1590513591.7220976,0.12,-4.468679316984192,8.643962049047426,0.4088888888888889,0.3655555555555556,-0.6322222222222222,0.0002881283375128713,0.0,0.0009467666137400203
1590513591.7320976,0.12298697948021121,-4.452986979480212,8.714934897401056,0.4088888888888889,0.3655555555555556,-0.6322222222222222,0.0050149809627257555,0.00032582891636996603,-0.00011334403338655787
1590513591.7420976,0.12956344912503265,-4.458253796500131,8.75174620349987,0.40981049629159777,0.3655555555555556,-0.6322222222222222,0.006354503441962676,0.0011860714090044858,0.0020388006252308674
1590513591.7520976,0.12301610487583899,-4.438096629255034,8.771903370744965,0.43,0.3655555555555556,-0.6322222222222222,0.000536631544091502,0.002285474334948522,-0.001090830782496456
1590513591.7620976,0.13132301642671404,-4.476030950719858,8.71676983573286,0.43,0.3655555555555556,-0.6322222222222222,-0.0031281736430885556,0.00043295611320243687,-0.0006578746692940191
1590513591.7720976,0.1367213815123783,-4.453278618487622,8.643114473950487,0.43,0.3655555555555556,-0.6322222222222222,-0.0032545869561008307,0.003272492347489368,0.0007510943768490202
1590513591.7820976,0.13246855667991314,-4.45259432996026,8.697154123479045,0.43,0.3655555555555556,-0.6322222222222222,-0.0038384873436103726,0.0024646590630534146,-0.0013738282805569584
1590513591.7920976,0.13780784787074096,-4.431096076064629,8.781096076064628,0.42914749639417704,0.3648248381791359,-0.6331965120574484,0.001210394133622002,-0.00011956335112554594,0.0008517040802453641
1590513591.8020976,0.1200440463333545,-4.439977976833323,8.789977976833322,0.4222393513518601,0.3589035710000071,-0.6410915349629536,0.0021792592101789517,-0.001088428427682496,-0.001086026072868536
1590513591.8120975,0.1341669520966874,-4.4383339041933745,8.73999657483975,0.4222222222222222,0.3588888888888889,-0.6411111111111111,-9.105824313445981e-05,0.00018174285924550725,0.00027280110237996717
1590513591.8220975,0.13436553516676783,-4.455634464833232,8.672817232416616,0.4222222222222222,0.3588888888888889,-0.6411111111111111,-0.0029651799633401976,-0.001090830782496456,0.0018743491808437414
1590513591.8320975,0.12130955160230969,-4.46869044839769,8.679345224198844,0.4222222222222222,0.3588888888888889,-0.6411111111111111,-0.0022530865249462606,-0.001090830782496456,0.0011622557424498044
1590513591.8420975,0.11886851316390198,-4.462262973672196,8.751131486836098,0.4207135731074249,0.3605232587632527,-0.6411111111111111,0.0046101752641468695,-0.00012342606708052274,0.0
1590513591.8520975,0.11088970476335414,-4.478220590473292,8.759110295236646,0.4100751619066944,0.3720482042307107,-0.6411111111111111,0.006350881226338654,-0.0009937790481764149,0.0
1590513591.8620975,0.13,-4.450335777908905,8.721576610750512,0.4088888888888889,0.37333333333333335,-0.6411111111111111,0.001054203094584931,-0.002426898494683382,0.00028186461760199526
1590513591.8720975,0.13,-4.4770183882039385,8.651926447184247,0.4088888888888889,0.37333333333333335,-0.6411111111111111,-0.002181661564992912,0.0003252433928598525,0.0007655873896366034
1590513591.8820975,0.12794970243808793,-4.471025148780956,8.683075446342867,0.4088888888888889,0.37333333333333335,-0.6411111111111111,-0.0019580087956117993,0.0009790043978058997,-0.00033547915407166874
1590513591.8920975,0.11184565175657515,-4.479077174121713,8.707231522365138,0.4088888888888889,0.37333333333333335,-0.6411111111111111,-0.0002013293749840838,0.0001006646874920419,-0.002970498285013242
1590513591.9020975,0.11680866671437773,-4.457730444428541,8.78546088885708,0.43,0.3655555555555556,-0.6322222222222222,0.00242923167298632,0.0025297820235091447,0.0005956905665096405
1590513591.9120975,0.13932154870106636,-4.450226150432978,8.770452300865955,0.43,0.3655555555555556,-0.6322222222222222,0.00324782316211265,7.400755613015371e-05,-0.0010414924117430199
1590513591.9220974,0.13342926122646065,-4.453717044905843,8.690287783679382,0.43,0.3655555555555556,-0.6322222222222222,-0.0025871282653143856,-0.0018075871942884296,0.0011222231121134473
1590513591.9320974,0.13741921351465022,-4.477419213514651,8.71,0.43,0.3655555555555556,-0.6322222222222222,-0.00545415391248228,-0.0008093106483694178,0.0024279319451082533
1590513591.9420974,0.13006904528248983,-4.470069045282489,8.71,0.43,0.3655555555555556,-0.6322222222222222,-0.00545415391248228,-7.531671952607779e-06,2.259501585782312e-05
1590513591.9520974,0.13,-4.44317226981189,8.76365546037622,0.41708294472424307,0.3655555555555556,-0.6401711793149958,0.0023497164645045485,0.0009754837971233535,-0.0029264513913700605
