time,acc_x,acc_y,acc_z,mag_x,mag_y,mag_z,gyr_x,gyr_y,gyr_z
1590513994.2964342,-0.45,-4.09,8.8,0.4688888888888889,0.17777777777777778,-0.6433333333333333,0.0,-0.001090830782496456,-0.001090830782496456
1590513994.3064342,-0.43207793872580436,-4.098961030637097,8.8,0.4748629093136208,0.21262623025538036,-0.6363636428378128,0.0009774968061840117,-0.004023321201048492,-0.001090830782496456
1590513994.3164341,-0.4353113462958405,-4.1,8.75406596111248,0.4755555555555556,0.21666666666666667,-0.6355555555555555,0.00247135056679298,-0.00247135056679298,0.000801141780696388
1590513994.3264341,-0.444114328786442,-4.1,8.71294283560678,0.4755555555555556,0.21666666666666667,-0.6355555555555555,0.0023094516471790167,-0.002630465213949134,0.0006420271335402342
1590513994.3364341,-0.43246903906429174,-4.1,8.737283273450043,0.4755555555555556,0.21666666666666667,-0.6355555555555555,0.000538660762903131,-0.001090830782496456,0.0024509919464444775
1590513994.346434,-0.4407943661971831,-4.1,8.789205633802815,0.47617339593114244,0.21454835680751175,-0.6338785602503912,0.0020083577449005172,-0.0008308750523578639,0.003012536617350776
1590513994.356434,-0.44738687075113653,-4.105226258497726,8.78,0.4833333333333333,0.19,-0.6144444444444445,-0.0005700963646604283,0.0016115652003324836,0.0011401927293208567
1590513994.366434,-0.43820266843091854,-4.114608005292755,8.758432021171021,0.4833333333333333,0.19,-0.6144444444444445,-0.002181661564992912,0.0005881753805720223,0.0037751477494138014
1590513994.376434,-0.43,-4.09,8.67419734389562,0.4833333333333333,0.19,-0.6144444444444445,-0.001923546569142409,0.002240032364087356,0.001348945778346959
1590513994.386434,-0.43046865240126353,-4.090468652401263,8.720937304802527,0.4833333333333333,0.19,-0.6144444444444445,-0.0009374646428197105,-0.001090830782496456,0.0020794174718750816
1590513994.396434,-0.4379540627844306,-4.097954062784431,8.735908125568862,0.4833333333333333,0.19,-0.6144444444444445,0.0015121301768534566,-0.001090830782496456,0.00044635425875963713
1590513994.406434,-0.44106115527292,-4.09106115527292,8.78681653418124,0.4355555555555555,0.20444444444444448,-0.6288888888888889,0.0,0.0009171996569900248,-0.001032953740660979
1590513994.416434,-0.4588430312665607,-4.108843031266561,8.733470906200319,0.4355555555555555,0.20444444444444448,-0.6288888888888889,0.0,-0.00199235299866968,-6.310285544107734e-05
1590513994.426434,-0.43782287761114086,-4.105645755222282,8.687416979110873,0.4355555555555555,0.20444444444444448,-0.6288888888888889,-0.002938399858567967,-0.0020850562879744876,0.001090830782496456
1590513994.436434,-0.43080242367434385,-4.0916048473486875,8.74358061060525,0.4355555555555555,0.20444444444444448,-0.6288888888888889,0.001656476498245991,0.0017440073427038112,0.001090830782496456
1590513994.446434,-0.43987663839629915,-4.099876638396299,8.769753276792597,0.4355555555555555,0.20444444444444448,-0.6288888888888889,0.0011042874459659573,0.002181661564992912,0.001090830782496456
1590513994.456434,-0.43101349741101025,-4.1,8.796959507766969,0.4715015659115146,0.19146394070479258,-0.6159083851492371,0.002071106147601868,-0.000759164530323324,0.00011055541739104406
1590513994.466434,-0.45,-4.102351364014994,8.77118908788005,0.4755555555555556,0.19,-0.6144444444444445,0.0019251675401519477,0.0016686735153109832,0.0013473248073374204
1590513994.476434,-0.4456752289787205,-4.107837614489361,8.712162385510641,0.4755555555555556,0.19,-0.6144444444444445,0.0008549511146334389,0.00023587966786301712,0.0014740225614038604
1590513994.486434,-0.4312330418015288,-4.100616520900764,8.719383479099236,0.4755555555555556,0.19,-0.6144444444444445,6.725199766062615e-05,0.0010235787848358298,-0.000889074789514578
1590513994.496434,-0.43998672324473487,-4.1,8.749960169734205,0.4755555555555556,0.19,-0.6144444444444445,0.0,0.0021802132956594226,-0.001090830782496456
1590513994.506434,-0.4574872547991189,-4.08,8.742512745200882,0.4755555555555556,0.19,-0.6222222222222222,0.0030039555091003313,-0.00027409798136913987,0.001090830782496456
1590513994.516434,-0.45,-4.084704068586899,8.737455817101601,0.4755555555555556,0.19,-0.6222222222222222,0.005112064391311322,-0.0012618755430819347,0.001090830782496456
1590513994.526434,-0.45,-4.11,8.681137948207171,0.4755555555555556,0.19,-0.6222222222222222,0.003272492347489368,-0.0018345296576148067,0.0007436988751183507
1590513994.536434,-0.45,-4.11,8.737374731841864,0.4755555555555556,0.19,-0.6222222222222222,0.003272492347489368,-8.182066626295044e-05,-0.0010090101162335055
1590513994.546434,-0.45,-4.116844871268146,8.753689742536292,0.4755555555555556,0.19,-0.6222222222222222,0.002525832719337478,-0.0037332981407594487,0.001895807730111103
1590513994.556434,-0.44181536533574683,-4.103630730671494,8.800923173321266,0.4700991324460535,0.1954564231095021,-0.6276786453317243,0.00039605127794193717,-0.006346959056007767,0.003272492347489368
1590513994.566434,-0.4480129156121826,-4.1,8.785961253163451,0.4688888888888889,0.19666666666666666,-0.6288888888888889,0.0008740735007315175,-0.0013005436905896301,-0.0002238016554367019
1590513994.576434,-0.4392078403672965,-4.1,8.69237647889811,0.4688888888888889,0.19666666666666666,-0.6288888888888889,0.0019224279313916882,-0.003358903558689776,-0.0019224279313916882
1590513994.586434,-0.43180134204485254,-4.1,8.714595973865443,0.4688888888888889,0.19666666666666666,-0.6288888888888889,-0.0005013429767973736,-0.004166827194752797,0.0005013429767973736
1590513994.5964339,-0.43,-4.1,8.793640924513529,0.4688888888888889,0.19666666666666666,-0.6288888888888889,0.0009174139002749101,0.0026655332597139564,8.670844111077292e-05
1590513994.6064339,-0.44719876280518567,-4.117198762805185,8.782801237194814,0.4688888888888889,0.20335507442423892,-0.623155967953827,0.001090830782496456,0.0004583513641766208,0.0
1590513994.6164339,-0.446833000665336,-4.115249500998004,8.779414504324684,0.4688888888888889,0.20444444444444448,-0.6222222222222222,0.0007453647462567268,0.001090830782496456,0.00258156027500991
1590513994.6264338,-0.43214553349441465,-4.093218300241622,8.683945967713695,0.4688888888888889,0.20444444444444448,-0.6222222222222222,-0.0008567893844379838,0.001090830782496456,-0.0006227479863795114
1590513994.6364338,-0.4287716386056438,-4.0812283613943565,8.72061418069718,0.4688888888888889,0.20444444444444448,-0.6222222222222222,-0.0009568373403970573,0.0009568373403970573,6.699672104969934e-05
1590513994.6464338,-0.410687692672516,-4.099312307327484,8.729656153663742,0.4688888888888889,0.20444444444444448,-0.6222222222222222,0.0010158151488886844,-0.0010158151488886844,0.0010533229656925702
1590513994.6564338,-0.44,-4.1025871900826445,8.786119214876033,0.4833333333333333,0.2088888888888889,-0.6222222222222222,-0.004363323129985824,0.00014110932911591553,-0.0006675027951487094
1590513994.6664338,-0.44,-4.119919008264463,8.760121487603305,0.4833333333333333,0.2088888888888889,-0.6222222222222222,-0.004363323129985824,0.001086413368583867,0.0021684093232551454
1590513994.6764338,-0.4340288110695162,-4.092014405534758,8.696115244278065,0.4833333333333333,0.2088888888888889,-0.6222222222222222,-0.002181661564992912,0.00371196746063844,0.001090830782496456
1590513994.6864338,-0.45,-4.101555349996224,8.766221399984898,0.4833333333333333,0.2088888888888889,-0.6222222222222222,-0.002690648661024115,0.005284491547138545,0.0009211684171527215
1590513994.6964338,-0.45,-4.109473306652571,8.797893226610285,0.4833333333333333,0.2088888888888889,-0.6222222222222222,-0.005281793917588839,0.004420776461616971,5.745333163114687e-05
1590513994.7064338,-0.45,-4.118334504119037,8.77499648764289,0.4490692608439591,0.19314593666404128,-0.6277785583015802,-0.003635847182504472,0.002545016400008016,0.0
1590513994.7164338,-0.44373261815977516,-4.10746523631955,8.744930472639101,0.44222222222222224,0.19,-0.6288888888888889,-0.002588827043791714,0.00013066565389994967,0.0
1590513994.7264338,-0.4484342941841869,-4.1,8.679394234894879,0.44222222222222224,0.19,-0.6288888888888889,-0.0003415840200445275,0.0007492467624519285,-0.0009200387724741922
1590513994.7364337,-0.4387061566985875,-4.092587686602825,8.716469216507063,0.44222222222222224,0.19,-0.6288888888888889,-0.0028490831172170755,-0.0007056820504538209,0.0
1590513994.7464337,-0.43068906856279987,-4.108621862874401,8.756554657186001,0.44222222222222224,0.19,-0.6288888888888889,-0.00022549715986580187,-0.005078325312705943,0.0
1590513994.7564337,-0.43,-4.118420582532732,8.794738252401803,0.4622222222222222,0.19666666666666666,-0.6222222222222222,0.003961643224172749,-0.006544984694978735,-0.0036170677858310585
1590513994.7664337,-0.4294216401511822,-4.111156719697636,8.814216401511823,0.4622222222222222,0.19666666666666666,-0.6222222222222222,0.007446547659540059,-0.006355716877043603,-0.005264886094547147
1590513994.7764337,-0.4220483431484574,-4.125903313703085,8.740483431484575,0.4622222222222222,0.19666666666666666,-0.6222222222222222,0.005033641857821741,-0.003942811075325284,-0.0028519802928288285
1590513994.7864337,-0.441897750205546,-4.109051124897228,8.775693250616637,0.4622222222222222,0.19666666666666666,-0.6222222222222222,0.0029619736962345844,-0.001974649130823056,-0.001974649130823056
1590513994.7964337,-0.45757268854174454,-4.101213655729127,8.822718065625233,0.4622222222222222,0.19666666666666666,-0.6222222222222222,0.0003971679086057153,-0.0002647786057371434,-0.0002647786057371434
1590513994.8064337,-0.44915125684562685,-4.11,8.796605027382508,0.4688888888888889,0.20444444444444448,-0.6077777777777778,0.001090830782496456,0.002181661564992912,0.003272492347489368
1590513994.8164337,-0.44053395086374403,-4.1110679017274885,8.754126540498815,0.4688888888888889,0.20444444444444448,-0.6077777777777778,0.0012655657940502283,0.0022981515726954267,0.0030977573359355958
1590513994.8264337,-0.4485456369107322,-4.125636910732196,8.65727181544634,0.4688888888888889,0.20444444444444448,-0.6077777777777778,0.004204676727315827,0.004204676727315827,0.00031729280533999223
1590513994.8364336,-0.44,-4.1,8.706048410558777,0.4688888888888889,0.20444444444444448,-0.6077777777777778,0.0033667465249563808,0.0030839839925553424,0.001993153210058886
1590513994.8464336,-0.44,-4.1,8.762993075893636,0.4688888888888889,0.20444444444444448,-0.6077777777777778,0.004254132151330997,0.0013092127398061093,0.00021838195730965312
1590513994.8564336,-0.4319737272786785,-4.083947454557357,8.778026272721322,0.4688888888888889,0.19285093940253564,-0.6193712828196866,0.00611438420061164,-0.0006602302881293606,-0.0008755305353129083
1590513994.8664336,-0.43229211277658813,-4.101146056388294,8.777393379728764,0.4688888888888889,0.19,-0.6222222222222222,0.003397507706172157,-0.00025003071736557774,-0.001090830782496456
1590513994.8764336,-0.45,-4.1088403331012975,8.68405883414546,0.4688888888888889,0.19,-0.6222222222222222,0.004047073042348919,-0.0019286614948833877,-0.0009643307474416938
1590513994.8864336,-0.4490000555010823,-4.091999888997836,8.754999722494588,0.4688888888888889,0.19,-0.6222222222222222,-0.001090830782496456,0.0025088926370551478,0.0009817537584757108
1590513994.8964336,-0.4412404491887592,-4.107519101622482,8.793797754056206,0.4688888888888889,0.19,-0.6222222222222222,-0.001090830782496456,0.0050482178647158985,0.00013531201592212718
1590513994.9064336,-0.4388340088604015,-4.118834008860402,8.819506079743613,0.4688888888888889,0.2088888888888889,-0.6144444444444445,0.0014724004906540907,0.005962913523359126,0.0019272817595544886
1590513994.9164336,-0.43079257770107987,-4.109207422298921,8.735244533793521,0.4688888888888889,0.2088888888888889,-0.6144444444444445,0.0037581254222850647,0.009903933857853927,0.0
1590513994.9264336,-0.4382545499830988,-4.101745450016901,8.690472700101408,0.4688888888888889,0.2088888888888889,-0.6144444444444445,-0.0019396989220680106,0.01071790876419008,0.0
1590513994.9364336,-0.45,-4.099532813265235,8.730467186734765,0.4688888888888889,0.2088888888888889,-0.6144444444444445,-0.004261398795694631,0.01283515855422949,0.0021306993978473156
1590513994.9464335,-0.45,-4.092196529769817,8.737803470230183,0.4688888888888889,0.2088888888888889,-0.6144444444444445,-0.0026608700225102455,0.008833836621268526,0.0013304350112551227
1590513994.9564335,-0.45,-4.109900841188507,8.759801682377013,0.4688888888888889,0.19666666666666666,-0.6144444444444445,0.0010691976857099188,1.0816548393268577e-05,0.002181661564992912
1590513994.9664335,-0.45,-4.102565712386982,8.745131424773964,0.4688888888888889,0.19666666666666666,-0.6144444444444445,-0.0005310791723460385,0.0008109549774212473,0.002181661564992912
1590513994.9764335,-0.4389550483491593,-4.101044951650841,8.693657330777942,0.4688888888888889,0.19666666666666666,-0.6144444444444445,0.0011478240538443302,0.0,0.001090830782496456
1590513994.9864335,-0.4206855997909225,-4.119314400209078,8.757600400731771,0.4688888888888889,0.19666666666666666,-0.6144444444444445,0.002144267897172339,0.0,0.001090830782496456
1590513994.9964335,-0.44439902490128136,-4.103733983399145,8.79253203320171,0.4688888888888889,0.19666666666666666,-0.6144444444444445,0.003956008726673927,-0.00354869432336203,0.00020365720165594844
1590513995.0064335,-0.43548378498445134,-4.085483784984452,8.785483784984452,0.4640501505503727,0.2055376869539464,-0.6249283775112296,0.0027798497115560507,-0.004363323129985824,0.0007917367092148866
1590513995.0164335,-0.4399019804630001,-4.1097059413890005,8.839411882778,0.4622222222222222,0.2088888888888889,-0.6288888888888889,2.1384545649100715e-05,-0.0022030461106420126,0.001090830782496456
1590513995.0264335,-0.44766837279522775,-4.102331627204772,8.74031115366204,0.4622222222222222,0.2088888888888889,-0.6288888888888889,0.0,-0.002181661564992912,0.001090830782496456
1590513995.0364335,-0.469064381317083,-4.109532190658542,8.759532190658541,0.4622222222222222,0.2088888888888889,-0.6288888888888889,0.002283721730993372,-0.004363323129985824,0.002028571315992222
1590513995.0464334,-0.4536205976029604,-4.10181029880148,8.75181029880148,0.4622222222222222,0.2088888888888889,-0.6288888888888889,0.003968377198351615,-0.004363323129985824,-0.0004984118850451433
1590513995.0564334,-0.45954944237918216,-4.1190988847583645,8.826395539033458,0.4622222222222222,0.19085105328376703,-0.6288888888888889,0.005405005700274633,-0.0012382754191193968,-4.9148212207647014e-05
1590513995.0664334,-0.4438245943945426,-4.103824594394542,8.773386080380899,0.4622222222222222,0.19,-0.6288888888888889,0.010747543018621884,-0.006384219888636059,0.0
1590513995.0764334,-0.44575756498239877,-4.1,8.708181915158411,0.4622222222222222,0.19,-0.6288888888888889,0.012627191518963438,-0.0038674980084606597,0.0012561058230048442
1590513995.0864334,-0.45,-4.107065926765407,8.705329633827036,0.4622222222222222,0.19,-0.6288888888888889,0.015402288516728944,-0.004173922951525089,0.0014108885227357539
1590513995.0964334,-0.45,-4.103013795901806,8.740958612294584,0.4622222222222222,0.19,-0.6288888888888889,0.02093492162731482,-0.01002661380235026,0.0003287541341851259
1590513995.1064334,-0.43181464200597497,-4.081814642005975,8.777278036991037,0.4682840082202306,0.20313386966235145,-0.6228271028908805,0.0199318741888355,-0.014974710851051093,-0.0009918574145300258
1590513995.1164334,-0.42370568797921143,-4.105177248083154,8.78,0.4688888888888889,0.20444444444444448,-0.6222222222222222,0.018261748223553483,-0.015958233885641746,-0.0024640366438791815
1590513995.1264334,-0.40496388811300427,-4.12,8.742409720282511,0.4688888888888889,0.20444444444444448,-0.6222222222222222,0.02073366325902246,-0.019642832476526,-0.00573277040179874
1590513995.1364334,-0.41829556221351566,-4.12,8.748295562213515,0.4688888888888889,0.20444444444444448,-0.6222222222222222,0.027803824383603678,-0.02072578486743266,-0.01552579779549058
1590513995.1464334,-0.42740360833636903,-4.1051927833272615,8.787018041681845,0.4688888888888889,0.20444444444444448,-0.6222222222222222,0.03320725066982309,-0.02072578486743266,-0.017977678512418584
1590513995.1564333,-0.43669819108039903,-4.1,8.8,0.46442342816862286,0.19923474027080074,-0.636362847836398,0.03929054085041208,-0.019995125565678416,-0.019274782604194
1590513995.1664333,-0.44855493984018613,-4.040115421118697,8.697340721917767,0.4622222222222222,0.19666666666666666,-0.6433333333333333,0.03865197221884122,-0.01963495408493621,-0.01963495408493621
1590513995.1764333,-0.43617863839741566,-4.0369106808012925,8.631625234390954,0.4622222222222222,0.19666666666666666,-0.6433333333333333,0.026871502368290806,-0.016619600746513502,-0.014358085742696468
1590513995.1864333,-0.43,-4.059066385351518,8.686265541406073,0.4622222222222222,0.19666666666666666,-0.6433333333333333,0.005178055608028538,-0.00487253092876252,-0.00783949859698587
1590513995.1964333,-0.4222172084130019,-4.06,8.713348374760995,0.4622222222222222,0.19666666666666666,-0.6433333333333333,-0.00497535637055133,-0.001816410538930236,-0.004239932022734408
1590513995.2064333,-0.41123299147768305,-4.051232991477683,8.728767008522317,0.4573516619320461,0.19666666666666666,-0.6248252042306643,-0.01815547052068246,0.007516159707400397,-0.004228824624144574
1590513995.2164333,-0.41,-4.05,8.739360248447205,0.4566666666666666,0.19666666666666666,-0.6222222222222222,-0.03290853536436979,0.014852914542787147,-0.003342278416183241
1590513995.2264333,-0.4288869698714258,-4.097217424678564,8.711669545192862,0.4566666666666666,0.19666666666666666,-0.6222222222222222,-0.03690612747596529,0.018362004173525546,-0.00018211912891420365
1590513995.2364333,-0.4466918021737299,-4.1,8.81015081304238,0.4566666666666666,0.19666666666666666,-0.6222222222222222,-0.028894677372978884,0.01672333013979517,-0.0027311897439668727
1590513995.2464333,-0.4396789233866695,-4.1,8.824839461693335,0.4566666666666666,0.19666666666666666,-0.6222222222222222,-0.021078568119332546,0.012421969910033023,-0.0027095649435731088
1590513995.2564332,-0.43,-4.091723508422537,8.811723508422538,0.4566666666666666,0.19390783614084584,-0.6222222222222222,-0.013014568009008212,0.0073724084924063436,-0.002181661564992912
1590513995.2664332,-0.42471207771715364,-4.095863766848539,8.815863766848539,0.4566666666666666,0.19,-0.6222222222222222,-0.008663831362152562,0.0060309767526400505,-0.0010280158846773695
1590513995.2764332,-0.41328282828282825,-4.103282828282828,8.762828282828282,0.4566666666666666,0.19,-0.6222222222222222,-0.007635815477475192,0.004346795390857089,-0.005129108376283841
1590513995.2864332,-0.42218474274717693,-4.093907628626411,8.760461856867941,0.4566666666666666,0.19,-0.6222222222222222,-0.0016546438680357274,0.004601641594031472,-0.010294113970559397
1590513995.2964332,-0.42440437368118167,-4.101191252637637,8.768808747362362,0.4566666666666666,0.19,-0.6222222222222222,0.004012825995767223,0.0036229894817079683,-0.013219914894643888
1590513995.3064332,-0.4253552059614986,-4.104644794038501,8.781420823845995,0.4739223303203845,0.19773529749994254,-0.641262954529773,0.003117504508717774,0.0010133368631106592,-0.015349124874336179
1590513995.3164332,-0.42271532083364455,-4.085430641667289,8.770861283334579,0.4888888888888889,0.20444444444444448,-0.6577777777777778,0.001090830782496456,0.0007946352275271112,-0.013978556054865504
1590513995.3264332,-0.42,-4.086170890581619,8.722974656510287,0.4888888888888889,0.20444444444444448,-0.6577777777777778,0.007149088444159027,-0.0009285884380577346,-0.015782528350696393
1590513995.3364332,-0.38613675922088686,-4.115397430584335,8.733863240779113,0.4888888888888889,0.20444444444444448,-0.6577777777777778,0.012755261096811852,-0.001258184929069265,-0.020223722427714235
1590513995.3464332,-0.39490819071381233,-4.097637713929282,8.74,0.4888888888888889,0.20444444444444448,-0.6577777777777778,0.014716200724152901,-0.006782640452180461,-0.024791363202921236
1590513995.3564332,-0.3804626936345803,-4.09,8.808380572278969,0.46283914706832924,0.20444444444444448,-0.6230447886836983,0.01420603619542719,-0.0033986724623556964,-0.035770291615623645
1590513995.3664331,-0.38,-4.09,8.81,0.4622222222222222,0.20444444444444448,-0.6222222222222222,0.014180800172453925,-0.003272492347489368,-0.035997415822383035
1590513995.3764331,-0.3713109769932386,-4.09,8.723109769932387,0.4622222222222222,0.20444444444444448,-0.6222222222222222,0.017024276302132487,-0.005168143100608407,-0.05400609797701392
1590513995.3864331,-0.3529715604105848,-4.072971560410585,8.684457340615877,0.4622222222222222,0.20444444444444448,-0.6222222222222222,0.019310807128144838,-0.00545415391248228,-0.07065456025132727
1590513995.396433,-0.35582660169408376,-4.07,8.685826601694083,0.4622222222222222,0.20444444444444448,-0.6222222222222222,0.014550284896734132,-0.001640652021330723,-0.07817033161546463
1590513995.406433,-0.3749155262201768,-4.065028157926608,8.699943684146785,0.45227853807543766,0.20057745616513936,-0.6299561987808324,0.0049425256076605344,0.0038025499721801035,-0.0856087155527913
1590513995.416433,-0.41317387725235527,-4.09089850300314,8.794970883258637,0.44222222222222224,0.19666666666666666,-0.6377777777777778,-0.012044968200383975,0.014128618291977786,-0.08944812416470939
1590513995.426433,-0.4508932891317982,-4.115446644565899,8.789106710868202,0.44222222222222224,0.19666666666666666,-0.6377777777777778,-0.0161141147238886,0.016362461737446838,-0.08355073778214187
1590513995.436433,-0.4757189493990206,-4.088562101201958,8.79571894939902,0.44222222222222224,0.19666666666666666,-0.6377777777777778,-0.004359762026377733,0.008646440494616698,-0.07238161605710847
1590513995.446433,-0.48,-4.073339869150277,8.780019607450832,0.44222222222222224,0.19666666666666666,-0.6377777777777778,-0.0003643232078632549,0.005091969545712333,-0.057462541311008766
1590513995.456433,-0.46418283184731995,-4.07,8.775272389384225,0.4562819272468267,0.19315174041051555,-0.6366061356923941,-0.0011502569275243996,0.003213066202461424,-0.04034160596585164
1590513995.466433,-0.4427780895723426,-4.084443820855315,8.772778089572341,0.4688888888888889,0.19,-0.6355555555555555,-0.003757238005577085,0.002181661564992912,-0.017150862164935297
1590513995.476433,-0.41711311497148923,-4.084278278742873,8.712782787428722,0.4688888888888889,0.19,-0.6355555555555555,-0.005611609065213667,0.0034299475002207555,-0.005757708931321799
1590513995.486433,-0.3887445494819828,-4.085627725259009,8.686883175777025,0.4688888888888889,0.19,-0.6355555555555555,-0.005317205505386848,0.003135543940393936,0.0007508380018913757
1590513995.496433,-0.38,-4.096342794288918,8.757085148600266,0.4688888888888889,0.19,-0.6355555555555555,-0.007130889232943877,0.0028735530907324255,0.00010598698777437203
1590513995.506433,-0.3947375250678306,-4.092631237466085,8.797368762533916,0.45988262356965903,0.19491250835594354,-0.6199992790950677,-0.007119031659791369,0.001664877747309089,-0.0018946380825865955
1590513995.516433,-0.3921688089930276,-4.097831191006972,8.792168808993027,0.4566666666666666,0.19666666666666666,-0.6144444444444445,-0.006544984694978735,0.0045078324681024394,-0.003035911986394408
1590513995.526433,-0.3822649875005896,-4.1,8.712649875005896,0.4566666666666666,0.19666666666666666,-0.6144444444444445,-0.007388743668713908,0.002922876991276764,-0.00411625132122454
1590513995.536433,-0.38763396440205844,-4.084732071195883,8.751071715216467,0.4566666666666666,0.19666666666666666,-0.6144444444444445,-0.004304870132576189,-0.0011492837799060907,-0.0076942684748848265
1590513995.546433,-0.39,-4.089539748953975,8.779539748953974,0.4566666666666666,0.19666666666666666,-0.6144444444444445,-0.0022318671658609498,-0.0006207237925502846,-0.00716570848752902
1590513995.556433,-0.3943216831097694,-4.1,8.792160841554884,0.4593076952337479,0.19522610563007686,-0.6175656600237224,-0.0013265420309130286,0.0017979645277461738,-0.004747020167232562
1590513995.566433,-0.4032886040456639,-4.1,8.76644302022832,0.4688888888888889,0.19,-0.6288888888888889,0.0007467373552118737,0.005827522590088216,-0.0014495618349417154
1590513995.576433,-0.4,-4.083548489355995,8.692419712745982,0.4688888888888889,0.19,-0.6288888888888889,-0.0005102105693643964,0.006544984694978735,0.0024983320633132884
1590513995.586433,-0.3964200335868814,-4.087159932826237,8.690739899239356,0.4688888888888889,0.19,-0.6288888888888889,-0.001090830782496456,0.006935498451352059,0.0024914648347427204
1590513995.596433,-0.385302611752888,-4.095302611752888,8.73348694123556,0.4688888888888889,0.19,-0.6288888888888889,-0.0021156419219538246,0.006611004338017823,0.001090830782496456
1590513995.606433,-0.3865071714084176,-4.083492828591583,8.766507171408417,0.4623817174804713,0.1921690571361392,-0.6241892650939207,-0.002917581203525232,0.005099242768518144,0.001090830782496456
1590513995.616433,-0.40309415932119613,-4.082376637284785,8.78,0.4488888888888889,0.19666666666666666,-0.6144444444444445,-0.002181661564992912,0.003350761859933096,0.0007533103591455466
1590513995.626433,-0.41,-4.088547205180641,8.729943478754828,0.4488888888888889,0.19666666666666666,-0.6144444444444445,-0.0006215703010237416,0.001090830782496456,0.0007800456319845852
1590513995.636433,-0.41,-4.110210399261591,8.732657799446194,0.4488888888888889,0.19666666666666666,-0.6144444444444445,0.0008238608366512888,0.0002669699458451672,0.001090830782496456
1590513995.6464329,-0.41,-4.1064174785100285,8.76263753581662,0.4488888888888889,0.19666666666666666,-0.6144444444444445,0.001584705200669135,0.0,0.00010308194615109788
1590513995.6564329,-0.4072788374205268,-4.091360581289736,8.791360581289736,0.4516100514683621,0.1983295993541225,-0.6155026743364618,0.002626910750872937,0.0,-0.0007939979919097727
1590513995.6664329,-0.39816902041917784,-4.104084510209589,8.787746469371234,0.4688888888888889,0.2088888888888889,-0.6222222222222222,0.005899704859286344,0.0,0.0006452798356923917
1590513995.6764328,-0.39895309409437696,-4.098953094094377,8.709242017519074,0.4688888888888889,0.2088888888888889,-0.6222222222222222,0.00594246944431896,0.000602515250659776,0.001205030501319552
1590513995.6864328,-0.3952239951452845,-4.09,8.680895980581138,0.4688888888888889,0.2088888888888889,-0.6222222222222222,0.006024003383691117,0.001090830782496456,0.00047211315136639806
1590513995.6964328,-0.4,-4.081448042804844,8.729931850183046,0.4688888888888889,0.2088888888888889,-0.6222222222222222,0.004679237063165028,0.0006243938745430291,-0.0006243938745430291
1590513995.7064328,-0.40455526288062377,-4.079110525761248,8.774555262880623,0.46585204696847304,0.2002845034477107,-0.6222222222222222,0.0016847594677381257,-0.002484510486273932,0.0004969020972547864
1590513995.7164328,-0.3980866960091726,-4.09,8.762130044013759,0.4622222222222222,0.19,-0.6222222222222222,0.004989450396826173,-0.0035048441053174215,0.0004410608467748366
1590513995.7264328,-0.39,-4.083005300552611,8.715026502763054,0.4622222222222222,0.19,-0.6222222222222222,0.006109808783170575,-0.004470671606449837,0.0007630033471523085
1590513995.7364328,-0.39,-4.08,8.727024551463645,0.4622222222222222,0.19,-0.6222222222222222,0.006928114543467458,-0.0032432129660045126,-0.0011201101639813115
1590513995.7464328,-0.38447853241184876,-4.074478532411849,8.756564402764454,0.4622222222222222,0.19,-0.6222222222222222,0.004624322072619282,-0.0015793628840217301,-0.0015793628840217301
1590513995.7564328,-0.3877606837606838,-4.073880341880342,8.785521367521367,0.4622222222222222,0.1925868945868946,-0.6192041785375119,0.0017583819280242016,0.000602287765378385,-0.0002442715085590355
1590513995.7664328,-0.41391295854983007,-4.0892753056998865,8.82391295854983,0.4622222222222222,0.19666666666666666,-0.6144444444444445,-0.0014386164611288573,0.0022607134500392425,0.0015967202312215188
1590513995.7764328,-0.41030822555131663,-4.086872150367545,8.767796827021495,0.4622222222222222,0.19666666666666666,-0.6144444444444445,-0.00149927063257236,0.001090830782496456,0.00074963531628618
1590513995.7864327,-0.4,-4.08,8.7186912912288,0.4622222222222222,0.19666666666666666,-0.6144444444444445,0.006167943818956133,-0.0013763467450859975,0.0006167943818956134
1590513995.7964327,-0.39253562061387964,-4.08373218969306,8.71746437938612,0.4622222222222222,0.19666666666666666,-0.6144444444444445,0.010501189084633955,-0.0040867298281505775,-0.00013052543849535834
1590513995.8064327,-0.38506900007709505,-4.084930999922905,8.732534500038549,0.46560155560695227,0.19666666666666666,-0.6181053889445687,0.009541005976439495,-0.00545415391248228,-0.001352248366907082
1590513995.8164327,-0.40399349041250976,-4.0779869808250195,8.73201301917498,0.4755555555555556,0.19666666666666666,-0.6288888888888889,0.00829102403281464,-0.0032760427766972385,0.001090830782496456
1590513995.8264327,-0.40402506078174677,-4.092987469609127,8.705062651954368,0.4755555555555556,0.19666666666666666,-0.6288888888888889,0.005680521190630413,-0.001303529524563186,0.0007649484013556595
1590513995.8364327,-0.3985030335245706,-4.091496966475429,8.691257583811426,0.4755555555555556,0.19666666666666666,-0.6288888888888889,0.0015545993181565049,-0.004363323129985824,0.0013913056069801474
1590513995.8464327,-0.4042489876892138,-4.08,8.72862651846618,0.4755555555555556,0.19666666666666666,-0.6288888888888889,0.0012406543761246617,-0.0053043303188540745,0.0029588232845332847
1590513995.8564327,-0.38344530810427824,-4.070167962156417,8.753277345947861,0.4733706582569817,0.20067231171405217,-0.6288888888888889,-0.001090830782496456,-0.006205803539548523,0.0007516496270662432
1590513995.8664327,-0.36631306400639685,-4.0536869359936025,8.767373871987205,0.4688888888888889,0.2088888888888889,-0.6288888888888889,-0.005514836384904597,-0.0004572160550478238,-0.0017794792375012626
1590513995.8764327,-0.383589099702381,-4.089486374627977,8.768205450148809,0.4688888888888889,0.2088888888888889,-0.6288888888888889,-0.02080948421597801,0.008866373445164472,-0.0004475378803280777
1590513995.8864326,-0.40571932962997836,-4.104280670370022,8.79431597777987,0.4688888888888889,0.2088888888888889,-0.6288888888888889,-0.01869335380116561,0.009503610281211237,0.0018716462446873334
1590513995.8964326,-0.4057560871040926,-4.0915121742081855,8.80302434841637,0.4688888888888889,0.2088888888888889,-0.6288888888888889,-0.008460578564868008,0.005321120064930461,0.0028095532649804215
1590513995.9064326,-0.39608608124974837,-4.076086081249748,8.787827837500503,0.4610610513883856,0.2014959312495247,-0.6314981680557233,-0.002181661564992912,0.002181661564992912,0.0009008346491035475
1590513995.9164326,-0.40011156760016586,-4.085167351400249,8.784832648599751,0.4488888888888889,0.19,-0.6355555555555555,-0.0038361629446261197,0.005490664324259329,-0.00053933032261872
1590513995.9264326,-0.41444369006195364,-4.1,8.725563099380462,0.4488888888888889,0.19,-0.6355555555555555,-0.005938885303227543,0.007272452087735856,0.0004847313907452638
1590513995.9364326,-0.41126849894291756,-4.086902748414376,8.691828752642706,0.4488888888888889,0.19,-0.6355555555555555,-0.006068755188455441,0.006882842432052162,0.00013837176944986752
1590513995.9464326,-0.39572951311712123,-4.076405730324319,8.72,0.4488888888888889,0.19,-0.6355555555555555,-0.00545415391248228,0.007562051622948767,-0.0006249929276873038
1590513995.9564326,-0.3821198306212178,-4.096820254068173,8.72,0.4488888888888889,0.19,-0.6355555555555555,-0.00545415391248228,0.003850586471315101,0.0008595931329661625
1590513995.9664326,-0.41,-4.098684297520661,8.762631404958677,0.4622222222222222,0.19,-0.6433333333333333,-0.003932760500464909,-0.00014352087650697172,-0.0008037890294825125
1590513995.9764326,-0.41,-4.089013065795614,8.774078394773682,0.4622222222222222,0.19,-0.6433333333333333,-0.0009831729614521254,-0.0011984886035407865,0.0006601994983191337
1590513995.9864326,-0.3997537403079611,-4.08,8.737077099486731,0.4622222222222222,0.19,-0.6433333333333333,-0.0007451290318352443,-0.002554226080910534,-0.003272492347489368
1590513995.9964325,-0.3834204360077117,-4.083420436007712,8.776840872015423,0.4622222222222222,0.19,-0.6433333333333333,-0.0027413290980085932,-0.0034590481918279287,-0.002899380658812247
1590513996.0064325,-0.3939502410133368,-4.093950241013337,8.816049758986663,0.4686080789303667,0.19436927037925678,-0.6325782062459321,-0.00545415391248228,-0.0023835441311847853,-0.0004309044495627765
1590513996.0164325,-0.38,-4.083658435124607,8.826341564875392,0.4833333333333333,0.20444444444444448,-0.6077777777777778,-0.0062523006424199355,0.0037779550248682233,0.0006917574175276281
1590513996.0264325,-0.3934170693575895,-4.094472356452529,8.761859366117111,0.4833333333333333,0.20444444444444448,-0.6077777777777778,-0.009587249112961674,0.006057126286107115,0.0
1590513996.0364325,-0.4064200469437006,-4.1,8.700739859168898,0.4833333333333333,0.20444444444444448,-0.6077777777777778,-0.011999138607461015,0.00662569081059337,-0.0007810245987407268
1590513996.0464325,-0.40879495489866846,-4.1,8.72879495489867,0.4833333333333333,0.20444444444444448,-0.6077777777777778,-0.011519448230754238,0.008246955883264871,-0.0017019711882861354
1590513996.0564325,-0.4113982404311268,-4.1,8.761504398922183,0.47186432057483574,0.20109931572321602,-0.6106450309674022,-0.010439154618896546,0.008104968683543207,-0.00015252437036042713
1590513996.0664325,-0.41690051049871796,-4.105633503499573,8.761832482502136,0.4566666666666666,0.19666666666666666,-0.6144444444444445,-0.009202957139404567,0.006883086550781037,-0.00013820902363061746
1590513996.0764325,-0.4394569634281492,-4.105271518285925,8.706900628001478,0.4566666666666666,0.19666666666666666,-0.6144444444444445,-0.008210848919153227,0.003906761890027019,-0.001090830782496456
1590513996.0864325,-0.44352877955576786,-4.096764389777884,8.676471220444231,0.4566666666666666,0.19666666666666666,-0.6144444444444445,-0.00657696450834187,-0.0031125932806736994,-0.001090830782496456
1590513996.0964324,-0.4286732924226254,-4.082039754535752,8.693980122732123,0.4566666666666666,0.19666666666666666,-0.6144444444444445,-0.005955257941234487,-0.016206899023134044,-0.0016697161684050609
1590513996.1064324,-0.42167906216648876,-4.040074372998933,8.714962813500534,0.4566666666666666,0.19666666666666666,-0.6144444444444445,-0.014347731770822558,-0.026888229351700682,-0.004721524833709813
1590513996.1164324,-0.46793259883344135,-3.9071235688053574,8.845977532944481,0.4688888888888889,0.19,-0.6288888888888889,-0.04111329201002764,-0.03306320119973136,-0.007523056235862629
1590513996.1264324,-0.5212906062357109,-3.7791922719393014,8.775320453232169,0.4688888888888889,0.19,-0.6288888888888889,-0.045533326262852086,-0.006474113443979166,-0.012280705209460074
1590513996.1364324,-0.53,-3.74,8.71,0.4688888888888889,0.19,-0.6288888888888889,-0.04363323129985824,0.008726646259971648,-0.014180800172453925
1590513996.1464324,-0.3213130337423986,-2.9869122522008302,8.555753111896555,0.4688888888888889,0.19,-0.6288888888888889,-0.04561272840159381,0.025552371624724006,-0.008242308867247212
1590513996.1564324,-0.4798407452979434,-2.9447080330462296,8.974920372648972,0.4688888888888889,0.19359194156364135,-0.630546708072108,-0.08286260481910318,0.06894727401180416,0.019328950069153805
1590513996.1664324,-0.5683125329583406,-3.1069063104236245,9.01915626647917,0.4688888888888889,0.20424132341165216,-0.6354618073865744,-0.10538107967034183,0.09548690508647831,0.037826268696957
1590513996.1764324,-0.5673911599835935,-3.474782319967187,8.581738119885154,0.4688888888888889,0.20444444444444448,-0.6355555555555555,-0.03621057939938411,0.02212476005914114,0.04133302479309283
1590513996.1864324,-0.5328443705166858,-3.42,8.461556294833143,0.4688888888888889,0.20444444444444448,-0.6355555555555555,0.008146434814549804,-0.0022317482263509124,0.04971768331912036
1590513996.1964324,-0.51,-3.43113285387746,8.756797123264759,0.4688888888888889,0.20444444444444448,-0.6355555555555555,-0.018970271203605695,0.00513885068468592,0.06986859241645797
1590513996.2064323,-0.5198313106796116,-3.4565542071197415,8.866722896440129,0.4688888888888889,0.20444444444444448,-0.6264524901114706,-0.03317440577062624,0.009854279343139708,0.08290313946973066
1590513996.2164323,-0.5297983765383608,-3.4802016234616393,8.829395129615083,0.4688888888888889,0.20444444444444448,-0.6077777777777778,-0.014004850509710325,-0.005117678745742081,0.072887719056676
1590513996.2264323,-0.5026698468120682,-3.4726698468120683,8.756674617030171,0.4688888888888889,0.20444444444444448,-0.6077777777777778,-0.004981547298412901,-0.01338120449867287,0.04436392082201931
1590513996.2364323,-0.4667648913068858,-3.436764891306886,8.717646811590818,0.4688888888888889,0.20444444444444448,-0.6077777777777778,-0.011100712983648994,-0.0027271915740878557,-0.002983426138075857
1590513996.2464323,-0.4393155886017125,-3.380823824872946,8.80766793885582,0.4688888888888889,0.20444444444444448,-0.6077777777777778,-0.025073900346453272,0.013463257900529189,-0.049504916123096154
1590513996.2564323,-0.38270504319451126,-3.2530761185600436,8.933925784926894,0.4701974838645201,0.20531684109486525,-0.6090863727534089,-0.036191295153001415,0.02613946073678007,-0.09123351618340958
1590513996.2664323,-0.20596233332135286,-2.94156129820652,8.948734859648491,0.4755555555555556,0.2088888888888889,-0.6144444444444445,-0.03938148867546078,0.03614863367552932,-0.13022287932895918
1590513996.2764323,-0.13945580232387117,-2.4908074716870128,8.84054419767613,0.4755555555555556,0.2088888888888889,-0.6144444444444445,-0.023202334942240027,0.03481850354266779,-0.07270461769885703
1590513996.2864323,-0.27632679518477987,-2.60050980722283,8.71949019277717,0.4755555555555556,0.2088888888888889,-0.6144444444444445,-0.014514468219535257,0.013534860119399245,0.06106654193763374
1590513996.2964323,-0.2908727154046997,-2.583490861618799,8.743054503916449,0.4755555555555556,0.2088888888888889,-0.6144444444444445,-0.0015668231963991196,-0.005220109475010618,0.18560774136544633
1590513996.3064322,-0.3304749408753685,-2.6722849645252214,8.826379952700295,0.470095571322124,0.2070688941444117,-0.6203594273639954,-0.015125996016191584,-0.028911910285784347,0.38943351593410225
1590513996.3164322,-0.3694685990338164,-2.7089371980676327,8.826328502415459,0.4622222222222222,0.20444444444444448,-0.6288888888888889,-0.017052794261635418,-0.04426032725694556,0.5290792780804067
1590513996.3264322,-0.38939532497321444,-2.7440929874598217,8.783558181296875,0.4622222222222222,0.20444444444444448,-0.6288888888888889,-0.01623054211092192,-0.05575666802310283,0.6198023731358475
1590513996.3364322,-0.41471290385863246,-2.782069355787949,8.739252418247393,0.4622222222222222,0.20444444444444448,-0.6288888888888889,-0.021753980988221195,-0.06197053676006452,0.6909166486810756
1590513996.3464322,-0.4537980997624703,-2.860128266033254,8.808990498812351,0.4622222222222222,0.20444444444444448,-0.6288888888888889,-0.02181661564992912,-0.06927475051539607,0.8257886993901942
1590513996.3564322,-0.48178459309345567,-2.9335691861869115,8.941784593093455,0.46341195095119264,0.2018666988650085,-0.6276991601599184,-0.021621946741871914,-0.07503235150783459,0.9334287212060571
1590513996.3664322,-0.5017382858869488,-2.95,8.93826171411305,0.4688888888888889,0.19,-0.6222222222222222,-0.02029896874812508,-0.08484760249084228,1.0515580491330088
1590513996.3764322,-0.5167867249807049,-2.95,8.878227424749163,0.4688888888888889,0.19,-0.6222222222222222,-0.0206864958760384,-0.08792820146905701,1.1406885125757769
1590513996.3864322,-0.5342762895311436,-2.965172680956965,8.786965463808606,0.4688888888888889,0.19,-0.6222222222222222,-0.025886595371779467,-0.0932848684737878,1.2257331515538352
1590513996.3964322,-0.5925274363250767,-3.0050548726501534,8.785054872650154,0.4688888888888889,0.19,-0.6222222222222222,-0.032173522406055005,-0.09735964017660391,1.3056762018622754
1590513996.4064322,-0.6035948599418987,-3.02,8.8,0.4706197473794327,0.18853542743107832,-0.6247519384776324,-0.030804687502126536,-0.09948189838580987,1.3750458766231708
1590513996.4164321,-0.6304027653467486,-3.0205370204623314,8.798657448844173,0.4833333333333333,0.17777777777777778,-0.6433333333333333,-0.03273956843617222,-0.10917094801731683,1.4363094927130986
1590513996.4264321,-0.676039763136036,-3.065346587712012,8.697326706143993,0.4833333333333333,0.17777777777777778,-0.6433333333333333,-0.03381575425739013,-0.11679450743614032,1.509677564118872
1590513996.4364321,-0.7342221139795421,-3.0871110569897713,8.701851761649618,0.4833333333333333,0.17777777777777778,-0.6433333333333333,-0.03510858090081161,-0.1230941700188217,1.5681378274777173
1590513996.446432,-0.7750823185582075,-3.1075411592791036,8.73590193213184,0.4833333333333333,0.17777777777777778,-0.6433333333333333,-0.03882287831193752,-0.13200848380552385,1.6075093800356517
1590513996.456432,-0.7977453544858512,-3.136196283588681,8.801686992560382,0.48522664220765244,0.1736469220519905,-0.6400630725504184,-0.03499859621062201,-0.13812058828211451,1.666588626740281
1590513996.466432,-0.8535946150475963,-3.1598040387143027,8.909804038714302,0.4955555555555556,0.1511111111111111,-0.6222222222222222,-0.03996862727785457,-0.14366167979580272,1.721979599177061
1590513996.476432,-0.8842021022455805,-3.146303153368371,8.88369684663163,0.4955555555555556,0.1511111111111111,-0.6222222222222222,-0.037317435728913335,-0.1477205338850892,1.75903421437203
1590513996.486432,-0.9018308552102452,-3.160845723948774,8.849014868738529,0.4955555555555556,0.1511111111111111,-0.6222222222222222,-0.03817907738737596,-0.14944381720201447,1.7962444890637357
1590513996.496432,-0.913107080944126,-3.1137858381117485,8.8,0.4955555555555556,0.1511111111111111,-0.6222222222222222,-0.037727170782367876,-0.14921786389951042,1.8254507414516026
1590513996.506432,-0.9690385384717962,-3.0019229230564077,8.8,0.4955555555555556,0.1511111111111111,-0.6222222222222222,-0.029592270038224414,-0.14515041352743868,1.8539228940561048
1590513996.516432,-1.0150483652544013,-2.992604791384536,8.755209582769071,0.51,0.11666666666666667,-0.6577777777777778,-0.015569838499588167,-0.13282183734601954,1.873773697328149
1590513996.526432,-1.055620042561424,-3.0805100922164184,8.931020184432835,0.51,0.11666666666666667,-0.6577777777777778,-0.03696064184319455,-0.14388604597202284,1.8730360834197486
1590513996.536432,-1.045868063181012,-2.971736126362024,8.407751837148409,0.51,0.11666666666666667,-0.6577777777777778,-0.0428463478596457,-0.144832401246203,1.8746873907240598
1590513996.546432,-1.0742103218177212,-3.0284206436354424,8.783286764084805,0.51,0.11666666666666667,-0.6577777777777778,-0.012702654897407246,-0.12782826675468384,1.8777790515406991
1590513996.556432,-1.1404757476677565,-3.0095242523322434,8.918115607283198,0.5108457736315672,0.11412934577196508,-0.6567205607383187,-0.051634347639912245,-0.1566654788799859,1.8537895780031475
1590513996.566432,-1.16427550948946,-3.00713775474473,8.6227550948946,0.5277777777777778,0.06333333333333334,-0.6355555555555555,-0.023317249634860746,-0.13821549465978136,1.8312004534825177
1590513996.576432,-1.2056657732199043,-3.0126630928796176,9.05182752592938,0.5277777777777778,0.06333333333333334,-0.6355555555555555,-0.05428808400139413,-0.17302340658740262,1.7914517029520804
1590513996.586432,-1.19663060769965,-2.9278979743345,8.859381694771448,0.5277777777777778,0.06333333333333334,-0.6355555555555555,-0.0600664946534773,-0.1583205119851485,1.758454622192373
1590513996.596432,-1.246218252394766,-2.8867055533526726,8.705174990087025,0.5277777777777778,0.06333333333333334,-0.6355555555555555,-0.019042745224284188,-0.13533638864322556,1.7237859074739177
1590513996.606432,-1.32,-2.9661015565966453,9.12220311319329,0.5306544422615149,0.0562523130656726,-0.6488324685574194,-0.03793875501851948,-0.12760873804178768,1.6786221059343798
1590513996.616432,-1.32,-2.845156608097785,8.867891520244461,0.5422222222222223,0.027777777777777776,-0.7022222222222222,-0.04399989710910075,-0.13728926229131772,1.6147962239039972
1590513996.626432,-1.33537634138373,-2.8015322560377975,8.74537634138373,0.5422222222222223,0.027777777777777776,-0.7022222222222222,-0.013004931137907912,-0.11852374975554981,1.5701732063986724
1590513996.636432,-1.4153062220573591,-2.8404336112141504,8.718162667655845,0.5422222222222223,0.027777777777777776,-0.7022222222222222,-0.02578203396860388,-0.11068592077874559,1.508143036808142
1590513996.646432,-1.4810668059403242,-2.800592669966847,8.33367455379445,0.5422222222222223,0.027777777777777776,-0.7022222222222222,-0.041947618085159934,-0.1033315331210624,1.4501584380765886
1590513996.656432,-1.5667852763522414,-2.848214042417912,8.628927062991053,0.5422222222222223,0.027777777777777776,-0.7022222222222222,0.005843492171242429,-0.07943597799286121,1.3982115791022383
1590513996.666432,-1.5749102707765383,-2.695269187670385,9.116508839122945,0.5466666666666666,-0.004444444444444445,-0.6788888888888889,-0.06557618708741322,-0.13115237417482645,1.2851534626570351
1590513996.676432,-1.5538654647020456,-2.7584036058938635,8.688597782274924,0.5466666666666666,-0.004444444444444445,-0.6788888888888889,-0.05256760446336895,-0.1051352089267379,1.2361799751312217
1590513996.686432,-1.5915259249302733,-2.8128814812325684,8.84008518431399,0.5466666666666666,-0.004444444444444445,-0.6788888888888889,-0.004095463123161238,-0.09785115741472539,1.1468324198288524
1590513996.6964319,-1.647902819315165,-2.8269757048287913,8.88941496690077,0.5466666666666666,-0.004444444444444445,-0.6788888888888889,-0.029463244497505335,-0.09093267158535882,1.089947091898505
1590513996.7064319,-1.7003279088491472,-2.7896720911508526,8.89131163539659,0.5465937980335228,-0.0047237742048291745,-0.678986047066414,-0.023038600556809955,-0.08290313946973066,1.001990470404127
1590513996.7164319,-1.729606292588542,-2.7576377555312526,9.011968537057289,0.54,-0.03,-0.6877777777777778,-0.03490658503988659,-0.08290313946973066,0.8595746566072073
1590513996.7264318,-1.7271712812857176,-2.6964143593571412,9.00442257003569,0.54,-0.03,-0.6877777777777778,-0.03275535508637617,-0.07996964407858008,0.847840675042605
1590513996.7364318,-1.7616416061408409,-2.684924818422523,8.753283212281682,0.54,-0.03,-0.6877777777777778,-0.021833017725726853,-0.06331739161218765,0.7737106642301442
1590513996.7464318,-1.7825059480993748,-2.712779099577639,8.788064147254651,0.54,-0.03,-0.6877777777777778,-0.017120343579174673,-0.04690572364734761,0.6600692128787077
1590513996.7564318,-1.8521285896088089,-2.7282507976908463,8.888630184990502,0.54,-0.03,-0.6877777777777778,-0.02133959471901946,-0.04690572364734761,0.6060627982886945
1590513996.7664318,-1.818050372546962,-2.684151117640886,8.874151117640887,0.56,-0.042222222222222223,-0.7355555555555555,-0.016842752390300458,-0.03711572056728891,0.5137131173391182
1590513996.7764318,-1.8044021640179988,-2.6506702733633314,8.83507243738133,0.56,-0.042222222222222223,-0.7355555555555555,-0.009105076331939233,-0.031605436644062596,0.44846482990626235
1590513996.7864318,-1.7551207345286293,-2.5685345575477156,8.69512073452863,0.56,-0.042222222222222223,-0.7355555555555555,-0.004229808344360715,-0.021470565514475497,0.3710722889011279
1590513996.7964318,-1.7889778237024083,-2.614488911851204,8.757407598760036,0.56,-0.042222222222222223,-0.7355555555555555,-0.01564979314061593,-0.02378333647016337,0.28473908834898126
1590513996.8064318,-1.8389853747714808,-2.6394926873857405,8.96577239488117,0.56,-0.042222222222222223,-0.7355555555555555,-0.02383225955012709,-0.016510032995042334,0.21200605359777103
1590513996.8164318,-1.8314851115854038,-2.6570297768291926,8.884851115854037,0.5458085193090063,-0.028976840243961403,-0.7961058731704621,-0.00913699338745959,-0.011718310541364827,0.1408680730805858
1590513996.8264318,-1.8521611402595748,-2.6747740935063833,8.87,0.5433333333333333,-0.02666666666666667,-0.8066666666666666,-0.0073507864939909235,0.00198452095923044,0.06586549201163118
1590513996.8364317,-1.828005142647239,-2.6690025713236194,8.807953716174849,0.5433333333333333,-0.02666666666666667,-0.8066666666666666,-0.009602676740715832,0.0030464725299136973,-0.05997325400565828
1590513996.8464317,-1.8121211438865121,-2.66,8.95409142085116,0.5433333333333333,-0.02666666666666667,-0.8066666666666666,0.0032228756354730913,0.031584475980380944,-0.14790643601137152
1590513996.8564317,-1.8292929520378294,-2.66,8.825302859716281,0.5433333333333333,-0.02666666666666667,-0.8066666666666666,0.01165206725063429,0.040013667595542146,-0.22376916054782225
1590513996.8664317,-1.8634811040571102,-2.7443513800713877,8.730886624342661,0.4577777777777778,-0.04,-0.8633333333333333,0.002511249928991256,0.046572568631380665,-0.33754850702816325
1590513996.8764317,-1.9073546784071838,-2.8028706872125717,8.933451973583836,0.4577777777777778,-0.04,-0.8633333333333333,-0.023748542323804946,0.036046582973452174,-0.44939379967723386
1590513996.8864317,-1.9276831800652625,-2.8487095817264905,8.871290418273508,0.4577777777777778,-0.04,-0.8633333333333333,-0.003048566242034741,0.05664003738186507,-0.525898872068778
1590513996.8964317,-1.8172749037160405,-2.74727490371604,8.944929114187572,0.4577777777777778,-0.04,-0.8633333333333333,9.821678222748345e-05,0.06717396591863706,-0.6077478034664912
1590513996.9064317,-1.7736161132507546,-2.703616113250755,8.543268241906942,0.4577777777777778,-0.04,-0.8633333333333333,0.019147957808666058,0.09479609040697301,-0.6801368193669577
1590513996.9164317,-1.7828806828989918,-2.8364996671105196,8.95447593684611,0.4188888888888889,-0.06666666666666668,-0.8277777777777777,-0.014100263992606782,0.07455832029624204,-0.8145442717280748
1590513996.9264317,-1.64141254068871,-2.6727128661983897,8.860963679972588,0.4188888888888889,-0.06666666666666668,-0.8277777777777777,-0.0058796844404494595,0.09288694157583108,-0.9078743337934688
1590513996.9364316,-1.6464493678506922,-2.7464493678506923,9.08558940397351,0.4188888888888889,-0.06666666666666668,-0.8277777777777777,-0.02598930280186372,0.08959034590718827,-0.9991722582026102
1590513996.9464316,-1.5736921067134781,-2.680614806801249,8.565076646731033,0.4188888888888889,-0.06666666666666668,-0.8277777777777777,0.022722973099915864,0.13781398151465074,-1.074098839711373
1590513996.9564316,-1.642183054030332,-2.8775262803372046,8.659251699291707,0.4188888888888889,-0.06666666666666668,-0.8277777777777777,-0.02117034667273005,0.10419356636964534,-1.1684227822015267
1590513996.9664316,-1.64,-2.8763304898183817,8.595238029719319,0.4388888888888889,-0.11,-0.7644444444444445,0.01441913799339564,0.14188439590014335,-1.2742797634835863
1590513996.9764316,-1.64,-2.974762895174709,8.760004159733777,0.4388888888888889,-0.11,-0.7644444444444445,0.002856851333859271,0.13074405539774597,-1.3579300469759543
1590513996.9864316,-1.64,-3.0163037794152605,8.934475873544093,0.4388888888888889,-0.11,-0.7644444444444445,-0.0007682746870779642,0.13890058894485477,-1.4231823153528245
1590513996.9964316,-1.6202268258184704,-3.0002268258184706,8.752268258184703,0.4388888888888889,-0.11,-0.7644444444444445,0.021916302086705364,0.14753504208333448,-1.4728456721022734
1590513997.0064316,-1.6018094534711966,-3.1046676514032496,8.830192023633677,0.4388888888888889,-0.11,-0.7644444444444445,0.022200903894575214,0.15609272890655157,-1.5536032546167158
1590513997.0164316,-1.5683395786683727,-3.1583021066581365,8.823358314673492,0.46,-0.1288888888888889,-0.7566666666666667,0.03763570577724012,0.1547127596822267,-1.6376665517694728
1590513997.0264316,-1.5420113337849224,-3.1910056668924613,8.778307366960199,0.46,-0.1288888888888889,-0.7566666666666667,0.035985827536276924,0.15945752015291714,-1.6883518839655487
1590513997.0364316,-1.4034186396153783,-3.1217093198076893,8.688222115749996,0.46,-0.1288888888888889,-0.7566666666666667,0.044300792272886,0.16096933192320972,-1.7284148958783014
1590513997.0464315,-1.36,-3.1626812443848884,8.74636795541411,0.46,-0.1288888888888889,-0.7566666666666667,0.035997415822383035,0.1563543998857972,-1.8060255443942779
1590513997.0564315,-1.36,-3.21377594371945,8.867717866333694,0.46,-0.1288888888888889,-0.7566666666666667,0.035997415822383035,0.16332135874286483,-1.840163642793909
1590513997.0664315,-1.36,-3.2900596648957907,8.7464478953821,0.46,-0.1288888888888889,-0.7019718476138582,0.03872774699387234,0.16962744089344706,-1.896819569382811
1590513997.0764315,-1.333426146724646,-3.335431804367139,8.789721559826063,0.46,-0.1288888888888889,-0.6911111111111111,0.038303655597795735,0.16920334949737045,-1.939375638833573
1590513997.0864315,-1.2689382775697549,-3.2796460925232513,8.686016427104722,0.46,-0.1288888888888889,-0.6911111111111111,0.038333498655293084,0.16295844507874402,-1.9752144279751498
1590513997.0964315,-1.2365156265025483,-3.2730972208866236,8.837998269064332,0.46,-0.1288888888888889,-0.6911111111111111,0.0431758774954843,0.175546488364429,-1.9978601761320505
1590513997.1064315,-1.1639149918261371,-3.337631118376767,8.587929416290027,0.46,-0.1288888888888889,-0.6911111111111111,0.05637504535111913,0.1966651569334447,-2.0092994549402667
1590513997.1164315,-1.1188711380434284,-3.3344355690217142,8.820159757609146,0.47642912158819056,-0.06317240253612655,-0.6634410115941586,0.044473425895126366,0.16930326719651,-2.0276212153254622
1590513997.1264315,-1.0812793973724013,-3.3587206026275984,8.765970521071205,0.4811111111111111,-0.04444444444444445,-0.6555555555555556,0.0393164283711011,0.15930781444571124,-2.0363949901159693
1590513997.1364315,-1.041857004967394,-3.4076787437907576,8.88396473385597,0.4811111111111111,-0.04444444444444445,-0.6555555555555556,0.0444708523096444,0.17174356017993536,-2.034500693264974
1590513997.1464314,-1.0002179646678278,-3.3403814381686985,8.631416770340882,0.4811111111111111,-0.04444444444444445,-0.6555555555555556,0.05231826911022632,0.16692683004310316,-2.0300598624828208
1590513997.1564314,-0.982898948705863,-3.34,8.912167346353261,0.4811111111111111,-0.04444444444444445,-0.6555555555555556,0.023445630154551977,0.15383906250667095,-2.0225743449600264
1590513997.1664314,-0.8924813602473177,-3.327369521731224,8.863945717403166,0.4922222222222222,0.054444444444444434,-0.6411111111111111,0.04608556727887487,0.17004239798883686,-1.9854717607297665
1590513997.1764314,-0.9070138402242467,-3.45,8.684180623686055,0.4922222222222222,0.054444444444444434,-0.6411111111111111,0.04754051912916584,0.1615081037095724,-1.9612803798903264
1590513997.1864314,-0.8702733006306937,-3.45,8.735617379117029,0.4922222222222222,0.054444444444444434,-0.6411111111111111,0.04192963951158101,0.1623096579406559,-1.934027536033486
1590513997.1964314,-0.8015268997548703,-3.488982066830087,8.730508966584956,0.4922222222222222,0.054444444444444434,-0.6411111111111111,0.056306803376215984,0.15509228986084328,-1.8785689686171998
1590513997.2064314,-0.784969869617618,-3.520060260764764,8.782605456338338,0.4922222222222222,0.054444444444444434,-0.6411111111111111,0.04606623691389136,0.15653750400310049,-1.8437093524600239
1590513997.2164314,-0.6576716923485654,-3.3323927337938364,8.856459218916047,0.4817668113118432,0.123450156452946,-0.6212458303813909,0.049727603478116944,0.15194734485037883,-1.788458039263693
1590513997.2264314,-0.5978397506655412,-3.267839750665541,8.78827965716512,0.4811111111111111,0.12777777777777774,-0.62,0.05302311627467287,0.15304792890692534,-1.7515511875886676
1590513997.2364314,-0.57,-3.3488183265522733,8.866072881655757,0.4811111111111111,0.12777777777777774,-0.62,0.05770693593290203,0.15459848953402008,-1.7008847961040563
1590513997.2464314,-0.5431476826394345,-3.39,8.417707515056296,0.4811111111111111,0.12777777777777774,-0.62,0.06866864037423161,0.14708694861895838,-1.6554092056984757
1590513997.2564313,-0.5023553694405303,-3.42764463055947,8.864438049496894,0.4811111111111111,0.12777777777777774,-0.62,0.034498197323193536,0.13220959143913313,-1.6285220084860477
1590513997.2664313,-0.4527025830724968,-3.4213512915362485,8.768918081507477,0.4811111111111111,0.18268786380993532,-0.6396847478228489,0.06054122913764112,0.1347471063882072,-1.5670666918876681
1590513997.2764313,-0.34361080739606875,-3.313610807396069,8.672626041742596,0.4811111111111111,0.18666666666666668,-0.6411111111111111,0.07276339862075638,0.13842808810821453,-1.5188495162162656
1590513997.2864313,-0.33294248556923295,-3.3311725432923014,8.733517629876903,0.4811111111111111,0.18666666666666668,-0.6411111111111111,0.052299566656979574,0.12467811219686124,-1.4873212578954949
1590513997.2964313,-0.27926352790076725,-3.3146317639503837,8.743087842633589,0.4811111111111111,0.18666666666666668,-0.6411111111111111,0.05470221241208137,0.12443504584822529,-1.437906614227798
1590513997.3064313,-0.23107581753801293,-3.348924182461987,8.817848364923973,0.4811111111111111,0.18666666666666668,-0.6411111111111111,0.043136097837641565,0.11950118248926626,-1.3972022295049147
1590513997.3164313,-0.22,-3.3991154422788603,8.947567466266866,0.4626399300349825,0.25077253040146597,-0.6411111111111111,0.04140332459530964,0.11460959987146141,-1.3470018432521846
1590513997.3264313,-0.15044321680091088,-3.339137814700797,8.75002424830262,0.4622222222222222,0.25222222222222224,-0.6411111111111111,0.05472963877774009,0.12876373470806513,-1.307199411975065
1590513997.3364313,-0.12033587562334996,-3.32344529187445,8.72,0.4622222222222222,0.25222222222222224,-0.6411111111111111,0.05028813103554907,0.11945957006976733,-1.282055914555472
1590513997.3464313,-0.08327394466464001,-3.4536302766768,8.622004463770347,0.4622222222222222,0.25222222222222224,-0.6411111111111111,0.03913142928614379,0.11150282778933045,-1.2408115149460524
1590513997.3564312,-0.06296238745280279,-3.4245663665408075,8.72926328783038,0.4622222222222222,0.25222222222222224,-0.6411111111111111,0.031364521570908084,0.10321117384972192,-1.214699924678904
1590513997.3664312,-0.03581843564586808,-3.3474553069376043,8.848363128708264,0.4580202772284053,0.26482805720367286,-0.6447878129807009,0.02721125124267771,0.09656828341080319,-1.1734963563061833
1590513997.3764312,-0.009444599601556537,-3.3052777001992215,8.779723696214788,0.4533333333333333,0.2788888888888889,-0.6488888888888888,0.03296726261538684,0.09369027772444863,-1.1217077176999506
1590513997.3864312,0.006580409588823623,-3.2376154945229403,8.755804095888235,0.4533333333333333,0.2788888888888889,-0.6488888888888888,0.022014208588939828,0.08588729505696338,-1.0643846733859017
1590513997.3964312,0.08930352174549715,-3.224401083613999,8.7594986454825,0.4533333333333333,0.2788888888888889,-0.6488888888888888,0.025493217753732478,0.07891052149986763,-1.008842286028713
1590513997.4064312,0.1461844116148752,-3.2585532348446256,8.820397350993376,0.4533333333333333,0.2788888888888889,-0.6488888888888888,0.030026464850439888,0.07703276943086536,-0.9533133077569678
1590513997.4164312,0.17371519038726962,-3.258142404806365,8.775139238450922,0.4612383967957565,0.291405239371059,-0.644277601869142,0.02965506332926774,0.07550879108070854,-0.9052949641610488
1590513997.4264312,0.19932466979122285,-3.2872986791648913,8.924467405198126,0.4666666666666667,0.3,-0.6411111111111111,0.016302970327067824,0.07417649320975901,-0.8501538664300398
1590513997.4364312,0.21328330453385996,-3.3564165226692997,8.72082547519131,0.4666666666666667,0.3,-0.6411111111111111,0.033383927803461846,0.08649285506674681,-0.8214938105378896
1590513997.4464312,0.21155616545775338,-3.5166575181336994,8.821095863556165,0.4666666666666667,0.3,-0.6411111111111111,0.04622671837375758,0.09640493436859454,-0.7806732259069055
1590513997.4564312,0.21,-3.2174818813226636,8.680823267401479,0.4666666666666667,0.3,-0.6411111111111111,0.04534211168394278,0.06268447644727859,-0.7552537308307176
1590513997.4664311,0.22684681303559143,-3.4859001063363984,9.064863951960968,0.575235017340478,0.2597548355260872,-0.6233283640179869,-0.015001260217748766,0.07665291858161905,-0.6948445726084431
1590513997.4764311,0.22121276342421717,-3.4633403976663892,8.886382902726515,0.5955555555555555,0.25222222222222224,-0.62,-0.007967701295023884,0.04826345016243487,-0.6399904071030438
1590513997.4864311,0.306354369273311,-3.346374756872027,8.521853396761419,0.5955555555555555,0.25222222222222224,-0.62,0.02280524734943584,0.0502270915943058,-0.5866736825272441
1590513997.496431,0.311456751578798,-3.441062229475626,8.845902930532889,0.5955555555555555,0.25222222222222224,-0.62,0.0002449783173633195,0.04754135143318887,-0.5484776589164254
1590513997.506431,0.3049948247405377,-3.384922371108065,8.769855092735055,0.5955555555555555,0.25222222222222224,-0.62,0.00710225528411769,0.04799768349630985,-0.5252163921753581
1590513997.516431,0.30241795329350607,-3.3172538598805184,8.692866785631159,0.7223637727260972,0.21595292281963088,-0.5227445453056438,0.015115272054286078,0.047504838482423435,-0.49879606463462756
1590513997.526431,0.30578810786415433,-3.3357881078641545,8.839457294369852,1.12,0.10222222222222224,-0.21777777777777774,0.00528221544885286,0.04116406203906123,-0.4590057901973934
1590513997.536431,0.3,-3.2930323435257756,8.724817308753725,1.12,0.10222222222222224,-0.21777777777777774,0.0052008027736841185,0.040166029450735496,-0.4259096349943274
1590513997.546431,0.3059172961500719,-3.24,8.683669184600287,1.12,0.10222222222222224,-0.21777777777777774,0.0071453536212770785,0.036933231582113,-0.3833974833003527
1590513997.556431,0.3220219917530926,-3.246010995876546,8.808197925777833,1.12,0.10222222222222224,-0.21777777777777774,0.004571893573991332,0.03381575425739013,-0.34706277267633545
1590513997.566431,0.33496123586923315,-3.25,8.820465169569204,1.0058915750076383,0.37784643717961774,-0.38370355518212984,0.005420325826804496,0.03165100673523612,-0.3132206609620329
1590513997.576431,0.3593314278613148,-3.153342860693426,8.753556190712896,0.89,0.6577777777777778,-0.5522222222222222,0.010520387595159164,0.03015534168009537,-0.27726653777965227
1590513997.586431,0.37,-3.1228549895515743,8.73285875783632,0.89,0.6577777777777778,-0.5522222222222222,0.012154854131789156,0.02929671560307617,-0.2502694510451715
1590513997.596431,0.36335832613645286,-3.1599250215906416,8.799700086362567,0.89,0.6577777777777778,-0.5522222222222222,0.006569521322064017,0.025463623425844094,-0.22149590097664618
1590513997.606431,0.3792013802357903,-3.144398159685613,8.846400460078597,0.89,0.6577777777777778,-0.5522222222222222,0.009556129335775097,0.02469645910250933,-0.2019337412803212
1590513997.616431,0.39,-3.089244924527638,8.833697969811055,0.5884124415045213,0.45853074213511913,-0.6699591069201568,0.0059768668510424726,0.025089107997418484,-0.18281078062376438
1590513997.626431,0.3834020321913497,-3.1327837424692024,8.83659796780865,0.52,0.4133333333333333,-0.6966666666666667,0.004363323129985824,0.02221020144237991,-0.16991090616928023
1590513997.636431,0.4026403592147094,-3.16,8.764532135950969,0.52,0.4133333333333333,-0.6966666666666667,0.005186549821925236,0.02072578486743266,-0.1540135011617525
1590513997.646431,0.4020691401215246,-3.199654299392377,8.898617197569507,0.52,0.4133333333333333,-0.6966666666666667,-0.0006017043484926833,0.02072578486743266,-0.13669268624513958
1590513997.656431,0.4056317399552236,-3.1424191205373164,8.821733460940305,0.52,0.4133333333333333,-0.6966666666666667,0.005804596327832173,0.01888280227678072,-0.12263778745087328
1590513997.666431,0.4247284986514834,-3.144004495055439,8.725090500449506,0.4774510038957147,0.39860483468184993,-0.7070311657177105,0.010928051960194644,0.01959546581447604,-0.1054329956603637
1590513997.676431,0.47570754042066105,-3.3285471455143796,8.891396194019174,0.43333333333333335,0.38333333333333336,-0.7177777777777777,-0.001088770549798078,0.016363491853796024,-0.08508686126742195
1590513997.686431,0.5759209464909922,-3.3943201577484987,8.780998028143767,0.43333333333333335,0.38333333333333336,-0.7177777777777777,0.003918367416878237,0.014961843616567303,-0.06666269591069697
1590513997.696431,0.6858155130234566,-3.475815513023457,8.768967621240465,0.43333333333333335,0.38333333333333336,-0.7177777777777777,0.0002845358866531986,0.014352721006097632,-0.0436272347915993
1590513997.706431,0.7246382001216134,-3.514638200121613,8.755361799878386,0.43333333333333335,0.38333333333333336,-0.7177777777777777,0.006972001352892693,0.016196508206301214,-0.030282198783132434
1590513997.716431,0.7021763676148797,-3.471163238512035,8.752607877461706,0.42306024799416486,0.3847342086068563,-0.7149760272307318,0.009248526440026408,0.016994857158704194,-0.025832018659878435
1590513997.726431,0.6283892288861689,-3.400805385556916,8.780805385556915,0.4088888888888889,0.38666666666666666,-0.7111111111111111,0.004864811553370975,0.015183777019224229,-0.03248699685868697
1590513997.736431,0.6358422025593625,-3.3634840353931477,8.779663118976254,0.4088888888888889,0.38666666666666666,-0.7111111111111111,0.0026719549276301453,0.012489431970098247,-0.040507731028664846
1590513997.7464309,0.6440773714891362,-3.335922628510864,8.7116170287935,0.4088888888888889,0.38666666666666666,-0.7111111111111111,0.005143572556674509,0.014382086488545748,-0.04703991452474215
1590513997.7564309,0.6407077877197243,-3.344646106140138,8.793847346496554,0.4088888888888889,0.38666666666666666,-0.7111111111111111,0.003470473254270897,0.015701234851376377,-0.05434355821804127
1590513997.7664309,0.6635511014090097,-3.3603266521135144,8.788040087318914,0.40136049921721684,0.35203607417697513,-0.7058412383409407,0.009256540205078776,0.02083268152160943,-0.06333944982091229
1590513997.7764308,0.7482691926205118,-3.442678536004761,8.79708787938901,0.3977777777777778,0.33555555555555555,-0.7033333333333334,0.011741416040122535,0.022168739115673484,-0.062400616784373114
1590513997.7864308,0.6192019347037485,-3.530773881499395,8.825380894800483,0.3977777777777778,0.33555555555555555,-0.7033333333333334,0.011831622876654426,0.02005440292270389,-0.05798154720311875
1590513997.7964308,-0.9162852314971273,-13.55160189253126,-2.8342007434944225,0.3977777777777778,0.33555555555555555,-0.7033333333333334,-0.43605390968430685,-0.15397030413880425,0.5405425959514932
1590513997.8064308,4.7362156430268065,-15.998236129962674,-6.530003393281302,0.3977777777777778,0.33555555555555555,-0.7033333333333334,-1.9475004358760406,-1.4664900518791635,9.735330743197078
1590513997.8164308,3.961745889387145,-9.983928251121075,-4.842768310911809,0.3760484969274207,0.3655067264573991,-0.6827786082046171,-3.4170771576183787,-2.4081868441970555,13.101089993997507
1590513997.8264308,-0.017457760034219713,-2.0310700791331007,-0.8671722392528696,0.3566666666666667,0.3922222222222223,-0.6644444444444444,-4.261802144565774,0.16756765142168506,4.900111804934551
1590513997.8364308,-3.4697543479167536,-2.3611636151311677,8.712516995453976,0.3566666666666667,0.3922222222222223,-0.6644444444444444,-4.2306549135434794,1.5119018828680353,2.1482429810542105
1590513997.8464308,-0.8596141171468057,-0.4425967364728396,2.2106460614436063,0.3566666666666667,0.3922222222222223,-0.6644444444444444,-2.988659151943381,0.02595834022295196,2.1562398852208364
1590513997.8564308,-1.1285952433428843,-0.8845841431405155,4.969787613456491,0.3566666666666667,0.3922222222222223,-0.6644444444444444,-2.1154122329964813,-1.0687298807260288,2.2037564343985157
1590513997.8664308,-1.6437460834181077,-1.4000118006103763,7.32358494404883,0.39969295806488075,0.3742492144229683,-0.6502838928450322,-1.2113877582284647,-1.6828161478889263,2.3017777252416662
1590513997.8764307,-1.039068578375286,-0.989068578375286,4.415605334668192,0.4444444444444444,0.3555555555555556,-0.6355555555555555,0.8840163568472368,-1.032209431717547,2.6008112260178806
1590513997.8864307,-1.2272067772342203,-1.6706132919699321,7.71383725092471,0.4444444444444444,0.3555555555555556,-0.6355555555555555,2.6243118720069982,-0.7677893354061909,2.8773652204204647
1590513997.8964307,-0.662403067644894,-2.001353610181162,7.778736614668661,0.4444444444444444,0.3555555555555556,-0.6355555555555555,3.95743674665409,-0.7615621238542872,3.0941721413147447
1590513997.9064307,-1.8132261696272203,-0.6748161120840632,10.074103077307981,0.4444444444444444,0.3555555555555556,-0.6355555555555555,4.956539397487501,-0.6152759798540104,3.2390989933679823
1590513997.9164307,-3.1131510982379917,1.7090671011344438,9.773805213613324,0.4580785528468367,0.3446482688336418,-0.6437360205969909,5.546137171619055,-0.446529066348602,3.2890597843086815
1590513997.9264307,-1.1017644399231377,2.083667910025998,1.1918661693229344,0.4833333333333333,0.3244444444444444,-0.6588888888888889,3.402802916320698,-0.562031110183284,2.7831053641809422
1590513997.9364307,0.2960662847790507,0.8219668576104746,-0.4181743044189853,0.4833333333333333,0.3244444444444444,-0.6588888888888889,0.7076332207571683,-0.1705193909746201,2.3130004030851614
1590513997.9464307,-2.7250156508930212,0.07395875529368434,14.018944945682197,0.4833333333333333,0.3244444444444444,-0.6588888888888889,-0.44411997308507384,0.038879249751173156,2.2133914644029025
1590513997.9564307,-3.5256111679579005,-0.7607992983481947,17.182460751352142,0.4833333333333333,0.3244444444444444,-0.6588888888888889,-1.3063992915594815,0.10253633955106975,2.094155409828914
1590513997.9664307,-2.464879740563913,-1.4177047112872714,10.585811188181244,0.48775815992553223,0.21382377963947188,-0.6802755507511836,-0.6858137931551913,-0.15186367116559957,2.067713524919051
1590513997.9764307,-1.7788884640202662,-0.5999225676935211,6.347865353822622,0.49,0.15777777777777774,-0.6911111111111111,0.5914890771532016,-0.09398577479135067,2.190885671592525
1590513997.9864306,-1.32,-0.21,3.82,0.49,0.15777777777777774,-0.6911111111111111,0.8857545953871222,0.0370882466048795,2.2296581194227563
1590513997.9964306,-1.8353052527488052,-1.5054201492713017,8.343234996350622,0.49,0.15777777777777774,-0.6911111111111111,-0.10184290819877917,0.049579598428890904,1.973585407030522
1590513998.0064306,-7.685985853408508,2.2236748334187593,8.95813962070733,0.49,0.15777777777777774,-0.6911111111111111,-0.1521383872891145,-0.15386955978282443,1.852494078314169
1590513998.0164306,-6.098344333088894,1.3109182758901659,7.947224802411799,0.4983420697647048,0.13796536208660382,-0.6937180079125813,0.03467096274669029,0.10475379636382959,0.9721118990139587
1590513998.0264306,-8.05346691899514,-11.620499833017922,7.7914850272737395,0.5077777777777778,0.11555555555555555,-0.6966666666666667,0.05189317085745933,0.0024710359115017733,-0.8663835147620954
1590513998.0364306,-10.552982957344105,-14.82128755787607,8.56713328736085,0.5077777777777778,0.11555555555555555,-0.6966666666666667,0.044694725386105895,-0.2677241109162965,-1.4930045424792833
1590513998.0464306,3.950014776869274,-0.11169441434341465,11.92224273470594,0.5077777777777778,0.11555555555555555,-0.6966666666666667,-0.16624282617331154,0.2704370783186275,-1.642644002132545
1590513998.0564306,0.619960799616865,-1.2621723397839544,6.901057700835447,0.5077777777777778,0.11555555555555555,-0.6966666666666667,0.21383655843544747,-0.005949949147608109,-1.7811186675522104
1590513998.0664306,1.0064387419188514,-2.6142299607345416,11.454580970134455,0.5083392165417311,0.11499411679160221,-0.6971158176778294,0.027123237219242667,0.14017753137713274,-1.7030713595968145
1590513998.0764306,-0.36127006610009443,-2.5125212464589235,8.428306578533208,0.5188888888888888,0.10444444444444444,-0.7055555555555556,-0.04535514391371401,0.13469399615631777,-1.623724195170573
1590513998.0864305,-2.500694474001561,-5.262927927927928,7.760142228843016,0.5188888888888888,0.10444444444444444,-0.7055555555555556,0.10572937522568393,0.1266175814460612,-1.6191455421661625
1590513998.0964305,-3.9050229631504716,-7.75753661447221,8.873856724406032,0.5188888888888888,0.10444444444444444,-0.7055555555555556,0.0261006106526376,0.16701288697385186,-1.674900746530469
1590513998.1064305,-0.9270055740001828,-4.2218580000609185,9.204915171636562,0.5188888888888888,0.10444444444444444,-0.7055555555555556,0.0067942433995655145,0.15748295864789524,-1.7949500747569418
1590513998.1164305,0.0027527905766227545,-2.3941319812612054,8.22260203196391,0.5137057529469474,0.11321590526926842,-0.6995750140840847,0.06316497169158451,0.14938617483585953,-1.8964798594478944
1590513998.1264305,-1.0830749819754866,-3.8931074260994953,9.032584715212689,0.5044444444444445,0.1288888888888889,-0.6888888888888889,0.02893139623670215,0.15670016198550657,-1.8868517659221522
1590513998.1364305,-1.300224984376085,-4.649322963683077,8.581202694257343,0.5044444444444445,0.1288888888888889,-0.6888888888888889,0.056321363504818575,0.1482135364180892,-1.9161633056729745
1590513998.1464305,-0.7954394021950649,-3.7812329726784464,8.86722347629797,0.5044444444444445,0.1288888888888889,-0.6888888888888889,0.04247752975237172,0.16430907187261612,-2.011253961936204
1590513998.1564305,-0.6260515689252769,-3.4381547067758307,8.837939465787427,0.5044444444444445,0.1288888888888889,-0.6888888888888889,0.027832571864425466,0.17390557525435552,-2.0766375508075154
1590513998.1664305,-0.7607700777892232,-3.797523532128015,8.61,0.49946814430670505,0.1550144646120208,-0.7013296392332374,0.0344684393897438,0.17248180066091076,-2.125236906241047
1590513998.1764305,-0.7146189232040374,-3.8152278868270026,8.64629452223041,0.4955555555555556,0.17555555555555555,-0.7111111111111111,0.05042742312108092,0.18028057132251588,-2.2075482186157007
1590513998.1864305,-0.5366601907058797,-3.5529729126191913,8.697808892164089,0.4955555555555556,0.17555555555555555,-0.7111111111111111,0.06626376197927653,0.18998671449366802,-2.2984794546401783
1590513998.1964304,-0.4546732558398965,-3.5252279065616565,8.79457441824145,0.4955555555555556,0.17555555555555555,-0.7111111111111111,0.05274864467612801,0.19765422518456363,-2.3789054600422066
1590513998.2064304,-0.41690482087771047,-3.6756461237080904,8.732347166242597,0.4955555555555556,0.17555555555555555,-0.7111111111111111,0.04161110106566883,0.20432298799323062,-2.4450118085621826
1590513998.2164304,-0.33045008536811143,-3.7638115318947607,8.666230637895213,0.48539147050286047,0.19588372566094575,-0.7111111111111111,0.049918932476194916,0.20959600035260467,-2.51370829654576
1590513998.2264304,-0.23403811025438884,-3.7540381102543887,8.796840809890975,0.4688888888888889,0.2288888888888889,-0.7111111111111111,0.054253913179846666,0.21286486613869296,-2.596210779898633
1590513998.2364304,-0.17076849606935565,-3.692746675483065,8.817362427448387,0.4688888888888889,0.2288888888888889,-0.7111111111111111,0.06543794566617846,0.2176507547828681,-2.688239140802428
1590513998.2464304,-0.031201789899850844,-3.5841345265999003,8.730143476099155,0.4688888888888889,0.2288888888888889,-0.7111111111111111,0.07560288675374364,0.22708161976451488,-2.812025781139541
1590513998.2564304,0.007137145141943224,-3.6081690959979644,8.613894805714077,0.4688888888888889,0.2288888888888889,-0.7111111111111111,0.061993613195366636,0.23101500989970408,-2.878785225698193
1590513998.2664304,0.22730708990289233,-4.022501305210399,8.657115485016185,0.45190230065086495,0.24427296880257096,-0.7088675994570325,0.052569455573800175,0.2442201206686349,-2.9915392946802997
1590513998.2764304,-0.4326446877632053,-4.891848153050175,8.610611238118157,0.41,0.2822222222222222,-0.7033333333333334,0.06580146957838896,0.2536913296125632,-3.0808090581114675
1590513998.2864304,-9.64109491742514,-17.037101826156146,10.580885326709232,0.41,0.2822222222222222,-0.7033333333333334,-0.07291220151337373,0.26174714206623784,-2.303636320177011
1590513998.2964303,3.07813345858122,-0.2648975402706746,12.13313989493094,0.41,0.2822222222222222,-0.7033333333333334,-0.15149132134376952,0.024853620922117042,-0.048520546379672846
1590513998.3064303,2.8591135040176976,-1.9952864439311622,5.475728553303621,0.41,0.2822222222222222,-0.7033333333333334,0.2949588834384743,-0.2961559264117386,1.2498604184778805
1590513998.3164303,0.9150915128581358,-0.9684747856977373,9.633679048575178,0.4063188920637372,0.2870996902377704,-0.7032413056349268,0.41493214046961013,-0.0950829740404672,0.8413794155107841
1590513998.3264303,0.433861339378483,-3.4691508453764053,8.958455653159534,0.3655555555555556,0.3411111111111111,-0.7022222222222222,-0.16148087266297118,0.000374738033053712,-0.054709898197137855
1590513998.3364303,-0.07114378279395711,-3.1674342360108465,8.857465225199844,0.3655555555555556,0.3411111111111111,-0.7022222222222222,-0.12302110451832877,0.15915846105771134,-0.3106153041542198
1590513998.3464303,0.2794383954154728,-3.769251193887297,8.582527220630373,0.3655555555555556,0.3411111111111111,-0.7022222222222222,-0.02065514654168934,0.0607095777098615,-0.5454043474981856
1590513998.3564303,-1.4044533937583685,-5.753040065918221,8.219991348233599,0.3655555555555556,0.3411111111111111,-0.7022222222222222,0.023062560345116338,0.053295909016739404,-0.6722698545207939
1590513998.3664303,-2.3135551445458566,-6.5365783442563625,8.179960596678862,0.36714207533092985,0.3360342478299134,-0.7085683013237193,-0.011208000106609774,0.05859764806092835,-0.6072012336081571
1590513998.3764303,0.8216100215210946,-2.6104141795590206,8.320172168757868,0.3711111111111111,0.3233333333333333,-0.7244444444444444,-0.026027655666656192,0.016418803831706602,-0.10879069290042484
1590513998.3864303,-0.27155031179365513,-4.216615315560828,8.397179429634024,0.3711111111111111,0.3233333333333333,-0.7244444444444444,0.06199362303288277,-0.019773517800178064,0.11123550224120535
1590513998.3964303,-0.15122935327471443,-4.66829073876243,8.802023995398143,0.3711111111111111,0.3233333333333333,-0.7244444444444444,-0.007930193675331907,0.010306463969784905,-0.0502256356253687
1590513998.4064302,-0.03921131563809681,-4.263302448845427,8.827874311775824,0.3711111111111111,0.3233333333333333,-0.7244444444444444,-0.0116899697876048,-0.011312248675784235,-0.022967258811390216
1590513998.4164302,-0.03,-4.155331691971003,8.69749692244563,0.3756848888280977,0.3321290597121537,-0.7131859146795544,0.000673059452857545,0.0037271170765642825,0.0018362541978093126
1590513998.4264302,-0.03455127673685956,-4.2282051069474385,8.745384679157686,0.3855555555555555,0.3511111111111111,-0.6888888888888889,-0.010509736778193087,0.0,9.789622965116992e-05
1590513998.4364302,-0.0328792048581891,-4.2321980121454725,8.676439602429094,0.3855555555555555,0.3511111111111111,-0.6888888888888889,-0.004454475864875446,0.0003883791268269275,-0.0007024516556695284
1590513998.4464302,-0.026860968488875467,-4.206860968488876,8.663139031511125,0.3855555555555555,0.3511111111111111,-0.6888888888888889,0.004769323472570078,0.00034241521995610085,0.00037420778127017756
1590513998.4564302,-0.04828576410077587,-4.195142707697673,8.708000348705431,0.3855555555555555,0.3511111111111111,-0.6888888888888889,0.0073345365928875125,-0.001090830782496456,0.001090830782496456
1590513998.4664302,-0.06934832143399666,-4.130977517849005,8.858044964301989,0.3854288402788326,0.3510024980167772,-0.6888888888888889,0.006402810486960816,-0.0010375154544897363,0.0010375154544897363
1590513998.4764302,-0.03,-4.193809795259133,8.713331433186072,0.37777777777777777,0.34444444444444444,-0.6888888888888889,-0.0030128299537270885,0.0017660773706258237,-0.0017660773706258237
1590513998.4864302,-0.03380028237095886,-4.215201129483836,8.643398023403288,0.37777777777777777,0.34444444444444444,-0.6888888888888889,-0.003534230131501715,0.0006762842832544015,-0.001090830782496456
1590513998.4964302,-0.04375905478584992,-4.209927561713201,8.641349602644349,0.37777777777777777,0.34444444444444444,-0.6888888888888889,-0.0001314152282450541,0.0,-0.00027073224779731303
1590513998.5064301,-0.04376409296267655,-4.156882046481338,8.731825674630633,0.37777777777777777,0.34444444444444444,-0.6888888888888889,0.003952724282799238,0.0003401159676549351,0.0007507148148415208
1590513998.5164301,-0.033600354452813466,-4.157200708905627,8.77459946832078,0.37777777777777777,0.34444444444444444,-0.6936893614926402,0.004865047292728212,0.001090830782496456,0.0
1590513998.5264301,-0.04840701958503006,-4.1915929804149705,8.74203509792515,0.37777777777777777,0.34444444444444444,-0.7155555555555555,0.0004439894924297193,0.0005695291607274981,0.0001737672072563193
1590513998.5364301,-0.04,-4.211855913071523,8.672336202833113,0.37777777777777777,0.34444444444444444,-0.7155555555555555,-0.00614008727336788,-0.0017505684005589507,0.0015219239469304172
1590513998.54643,-0.03707812084109662,-4.2037030875698695,8.659218791589035,0.37777777777777777,0.34444444444444444,-0.7155555555555555,-0.0005880237003595811,-0.00013464806371645758,0.0015442064191395796
1590513998.55643,-0.03010064546180463,-4.140905809156242,8.728993545381954,0.37777777777777777,0.34444444444444444,-0.7155555555555555,0.003217598763561837,0.0021487254146363936,2.1957433571012826e-05
1590513998.56643,-0.04071166715158569,-4.208813888080691,8.73118611191931,0.37761962952186984,0.34410178988997725,-0.7149229625319238,0.005195384433868534,0.0010649538346350813,0.0021299076692701626
1590513998.57643,-0.06511841722432354,-4.168135971292794,8.771864028707206,0.3721959072834837,0.3323503917068072,-0.6932280735783791,-0.003679160326144821,0.00017749935863374598,0.00035499871726749196
1590513998.58643,-0.03286712472341912,-4.225699312914871,8.639965063468033,0.3711111111111111,0.33,-0.6888888888888889,-0.006697551105806527,-0.004515889540813615,0.0007780759919402344
1590513998.59643,-0.05251577508942567,-4.205031550178852,8.602641975804831,0.3711111111111111,0.33,-0.6888888888888889,0.0008301686540718477,0.0008164022915581269,-0.0002675453096814686
1590513998.60643,-0.058906035425831525,-4.2156241417033256,8.67656378744501,0.3711111111111111,0.33,-0.6888888888888889,0.0064256516717323756,-0.000477332092985438,0.002420327611485631
1590513998.61643,-0.05,-4.177591859437882,8.737224421686353,0.37285032373930715,0.33,-0.6920997429717123,0.004666091756361423,-0.003575260973864967,0.003837948359238586
1590513998.62643,-0.04240378633757587,-4.17266035610404,8.779871715116768,0.3855555555555555,0.33,-0.7155555555555555,-0.0019194491518356943,0.0016292493187667532,0.0
1590513998.63643,-0.021247877330732887,-4.2079202044487785,8.751663836440978,0.3855555555555555,0.33,-0.7155555555555555,-0.00422720082947153,9.074820034286283e-05,0.0
1590513998.64643,-0.05027376141645839,-4.189726238583542,8.670821284249376,0.3855555555555555,0.33,-0.7155555555555555,2.9862738013264074e-05,0.002151798826979648,0.0007471290136731466
1590513998.65643,-0.05733169235290877,-4.17,8.73,0.3855555555555555,0.33,-0.7155555555555555,0.002181661564992912,0.0,0.001628902367249617
1590513998.66643,-0.020273940776411946,-4.170273940776412,8.731643644658472,0.3851598633229604,0.3303956922325951,-0.7145815439060909,0.002211543868142025,-2.9882303149112983e-05,2.9882303149112983e-05
1590513998.67643,-0.029132767287627252,-4.179132767287627,8.784796603725763,0.3723637805845384,0.34319177497101716,-0.6830834940884365,0.0031778919336649595,-0.0009962303686720474,0.0009962303686720474
1590513998.68643,-0.045263637034667716,-4.189472725930664,8.745004551829343,0.3711111111111111,0.34444444444444444,-0.68,-0.004937496860516215,-0.0013491593084794884,0.002181661564992912
1590513998.69643,-0.03,-4.22,8.620489017042923,0.3711111111111111,0.34444444444444444,-0.68,-0.0021549898228135794,-0.0016229103026550176,0.0013435346714860703
1590513998.70643,-0.03602596636175863,-4.211965378184321,8.68602596636176,0.3711111111111111,0.34444444444444444,-0.68,0.001529051422609422,-0.00021911032005648295,-0.000871720462439973
1590513998.71643,-0.05924219355950705,-4.1792421935595065,8.713410128982218,0.3711111111111111,0.34444444444444444,-0.68,0.003272492347489368,-0.001090830782496456,0.0
1590513998.72643,-0.03642338701144804,-4.161788306494276,8.787481854540069,0.3711111111111111,0.34444444444444444,-0.68,0.0024921964384915438,-0.0008957568052469999,0.0007802959089978246
1590513998.73643,-0.021883914362069483,-4.172825871543104,8.722464342551723,0.3711111111111111,0.34444444444444444,-0.68,-0.0012963339602697127,-0.00010275158888662831,0.00395231677443931
1590513998.74643,-0.044660928069654694,-4.202330464034827,8.647669535965173,0.3711111111111111,0.34444444444444444,-0.68,-0.002764063966151255,-0.0005824024011583433,0.00025421419066905634
1590513998.75643,-0.05780181858964405,-4.207252273237055,8.644945908173302,0.3711111111111111,0.34444444444444444,-0.68,-0.0007911002890054875,0.001090830782496456,0.0009709385851000686
1590513998.76643,-0.02885415049088117,-4.1710676881136015,8.710078161395518,0.3711111111111111,0.34444444444444444,-0.68,0.0031560256414471634,0.001090830782496456,-0.0006079117870809916
1590513998.77643,-0.03021447250302486,-4.1995710549939504,8.77042894500605,0.37777777777777777,0.34444444444444444,-0.7022222222222222,0.0031789110641699345,4.679064165971684e-05,2.339532082985842e-05
1590513998.78643,-0.03839975020491004,-4.18320049959018,8.786799500409819,0.37777777777777777,0.34444444444444444,-0.7022222222222222,-0.00039259008802934375,0.001832541217759356,0.000916270608879678
1590513998.7964299,-0.039194224766865175,-4.183223100932539,8.641611550466271,0.37777777777777777,0.34444444444444444,-0.7022222222222222,-0.002181661564992912,-8.789644280767261e-05,0.001090830782496456
1590513998.8064299,-0.031162706087356145,-4.215349175650575,8.657674587825287,0.37777777777777777,0.34444444444444444,-0.7022222222222222,-0.002181661564992912,-0.0009639992233880462,0.001090830782496456
1590513998.8164299,-0.03,-4.210071960366444,8.70964019816778,0.37777777777777777,0.34444444444444444,-0.7022222222222222,0.002150262931858032,-0.001090830782496456,0.0032567930309219282
1590513998.8264298,-0.05715563855892636,-4.182844361441074,8.755259397598211,0.3717431914313497,0.3384098580980164,-0.6821069344007953,0.004156475328887884,-0.001090830782496456,0.0003102717016469107
1590513998.8364298,-0.03163132097447345,-4.18489396292342,8.71531811122974,0.3711111111111111,0.3377777777777778,-0.68,0.0005569822419701282,0.00017794951350877592,0.0025606942934542644
1590513998.8464298,-0.038244424032596154,-4.2064888480651925,8.64877787983702,0.3711111111111111,0.3377777777777778,-0.68,-0.0025646688262439344,0.0007078235212454334,-0.0007078235212454334
1590513998.8564298,-0.031306935915307234,-4.193920807745922,8.69,0.3711111111111111,0.3377777777777778,-0.68,-0.0035079355736854344,-0.0012333953752131875,0.001090830782496456
1590513998.8664298,-0.039207889085634634,-4.217623667256904,8.69,0.3711111111111111,0.3377777777777778,-0.68,0.001663226183868217,-0.002095255668138796,0.001090830782496456
1590513998.8764298,-0.04825765240334068,-4.181742347596659,8.753484695193318,0.3855555555555555,0.3377777777777778,-0.6944444444444444,0.005264093273257808,-0.0003801212784489426,-0.0012808914217209272
1590513998.8864298,-0.04,-4.19,8.769112840031344,0.3855555555555555,0.3377777777777778,-0.6944444444444444,0.004324613473873502,-0.002162306736936751,-0.002133274494852509
1590513998.8964298,-0.04,-4.192590527589833,8.672590527589833,0.3855555555555555,0.3377777777777778,-0.6944444444444444,-0.00042387408568444996,-0.00014129136189481664,0.003272492347489368
1590513998.9064298,-0.04,-4.2092349054544735,8.689234905454473,0.3855555555555555,0.3377777777777778,-0.6944444444444444,-0.003147304045222269,-0.0010491013484074231,0.003272492347489368
1590513998.9164298,-0.03301121279865866,-4.223977574402683,8.703977574402684,0.3855555555555555,0.3377777777777778,-0.6944444444444444,-0.004034850768643407,0.0011962444809656629,-0.0013016581794348695
1590513998.9264297,-0.02088386168210503,-4.19353544672842,8.737348414953685,0.372387800207485,0.35499715015602384,-0.6944444444444444,0.0035920083057384136,-0.0017960041528692068,-0.0012836594885583083
1590513998.9364297,-0.027984978194152802,-4.197984978194153,8.771939912776611,0.3711111111111111,0.3566666666666667,-0.6944444444444444,0.00349229712881134,-0.0004396095626439439,-0.001090830782496456
1590513998.9464297,-0.031552375417695774,-4.198447624582305,8.656209501670784,0.3711111111111111,0.3566666666666667,-0.6944444444444444,0.0009214928933351218,-0.0001693378891613342,-0.0005080136674840025
1590513998.9564297,-0.04269698996655519,-4.192696989966556,8.694045484949832,0.3711111111111111,0.3566666666666667,-0.6944444444444444,-0.0001470979837801241,-0.0007966348149362078,-0.003125394363709244
1590513998.9664297,-0.05872871476349737,-4.208728714763497,8.718093072145246,0.3711111111111111,0.3566666666666667,-0.6944444444444444,-0.0010214929290309383,0.0009521550755654206,-0.0022509994184584294
1590513998.9764297,-0.027808436145381796,-4.201952109036346,8.728047890963655,0.3711111111111111,0.3414650948464303,-0.7132228566929717,0.0006649466569694342,-0.002420724096435324,0.0004520045942059234
1590513998.9864297,-0.04457233368532207,-4.19,8.719144667370644,0.3711111111111111,0.3377777777777778,-0.7177777777777777,0.003968612097107838,-0.0013922394992369408,0.00019735551643899275
1590513998.9964297,-0.022398431931575195,-4.19,8.672398431931574,0.3711111111111111,0.3377777777777778,-0.7177777777777777,0.0019200332269244463,0.002181661564992912,0.001221644951530689
1590513999.0064297,-0.038854398209317145,-4.19,8.692291203581366,0.3711111111111111,0.3377777777777778,-0.7177777777777777,-0.0002499315395519836,0.00205669579521692,0.002181661564992912
1590513999.0164297,-0.03233472712293846,-4.19,8.705330545754123,0.3711111111111111,0.3377777777777778,-0.7177777777777777,-0.0016723031221067797,0.0013455100039395222,0.002181661564992912
1590513999.0264297,-0.03,-4.218986864771749,8.7293245765145,0.3775526366159441,0.3377777777777778,-0.702747551599834,-0.002181661564992912,3.683863646027725e-05,-0.0009803148731156244
1590513999.0364296,-0.048093241841890434,-4.20190675815811,8.757139862762836,0.37777777777777777,0.3377777777777778,-0.7022222222222222,0.0007788382084501317,0.0,-0.001090830782496456
1590513999.0464296,-0.04661957572131978,-4.18661957572132,8.6784510606967,0.37777777777777777,0.3377777777777778,-0.7022222222222222,0.001444167392776358,0.0012752043255505943,0.000722083696388179
1590513999.0564296,-0.031099350992377935,-4.1721987019847555,8.72,0.37777777777777777,0.3377777777777778,-0.7022222222222222,-0.0024215027456436873,0.002061740974667524,-0.0006111484211949052
1590513999.0664296,-0.03901252735642593,-4.188025054712853,8.72,0.37777777777777777,0.3377777777777778,-0.7022222222222222,-0.004147890018689074,0.0011985473381448306,0.0028416261248958696
1590513999.0764296,-0.032176757666815846,-4.19,8.727823242333185,0.37777777777777777,0.3482087675553566,-0.6961374781853011,-0.004363323129985824,-0.0014693192842935453,0.001565725636296034
1590513999.0864296,-0.0292055715269061,-4.199205571526906,8.695233429161435,0.37777777777777777,0.3511111111111111,-0.6944444444444444,0.0001733174065884963,-0.0010041720792022077,-0.0020083441584044155
1590513999.0964296,-0.020714054338583636,-4.190714054338584,8.644284326031503,0.37777777777777777,0.3511111111111111,-0.6944444444444444,0.002025879074412477,-7.789124529021746e-05,-0.00015578249058043492
1590513999.1064296,-0.03046834549305719,-4.170936690986115,8.6832784184514,0.37777777777777777,0.3511111111111111,-0.6944444444444444,-0.001090830782496456,-0.0011419193505634822,0.002181661564992912
1590513999.1164296,-0.03869439868204284,-4.187388797364086,8.740860790774299,0.37777777777777777,0.3511111111111111,-0.6944444444444444,-0.001090830782496456,-0.0020392425542633498,0.002181661564992912
1590513999.1264296,-0.03297958696430703,-4.197020413035693,8.735959173928615,0.37309750242064915,0.3464308357539825,-0.7108254081943947,-0.0026224473115311125,-0.001415853300475584,-0.0008815714930764003
1590513999.1364295,-0.05935236920397649,-4.209784123067992,8.739784123067992,0.3711111111111111,0.34444444444444444,-0.7177777777777777,0.003131201225890342,0.003178298266423351,-4.709704053300866e-05
1590513999.1464295,-0.04945019806232998,-4.2,8.63604782131437,0.3711111111111111,0.34444444444444444,-0.7177777777777777,0.0041234267788311605,0.001090830782496456,0.0012107789580737879
1590513999.1564295,-0.039546423312407965,-4.200453576687592,8.739546423312408,0.3711111111111111,0.34444444444444444,-0.7177777777777777,-9.895508260963355e-05,0.0009423981585820057,0.0031240597235749176
1590513999.1664295,-0.03141982484693482,-4.208580175153065,8.731419824846935,0.3711111111111111,0.34444444444444444,-0.7177777777777777,-0.0018719038352349475,-0.0017170249703559652,0.00046463659463694693
1590513999.1764295,-0.04,-4.2,8.721576049865781,0.3855555555555555,0.3511111111111111,-0.7033333333333334,-0.003100571976655039,8.596018541716465e-05,0.001090830782496456
1590513999.1864295,-0.03962523277467411,-4.200374767225326,8.735877560521416,0.3855555555555555,0.3511111111111111,-0.7033333333333334,-0.0010090692573652038,0.0010090692573652038,0.00104995001993083
1590513999.1964295,-0.033256871254391404,-4.206743128745608,8.638684990011711,0.3855555555555555,0.3511111111111111,-0.7033333333333334,0.0013276771437576553,-0.0008539844212352568,-0.00047369272252239847
1590513999.2064295,-0.06,-4.180589725172948,8.712948625864742,0.3855555555555555,0.3511111111111111,-0.7033333333333334,0.0031438342731163692,0.0008978436709369574,-0.0042346650556128245
1590513999.2164295,-0.06,-4.188517559445054,8.752587797225267,0.3855555555555555,0.3511111111111111,-0.7033333333333334,0.0014142491406078119,-0.001696534027825878,-0.0025050799231042683
1590513999.2264295,-0.04,-4.190094035051758,8.749717894844727,0.3711111111111111,0.34444444444444444,-0.6888888888888889,-0.001121603681223744,-0.001101088415405552,0.002171403932083816
1590513999.2364295,-0.039263762394006016,-4.199263762394006,8.712637623940061,0.3711111111111111,0.34444444444444444,-0.6888888888888889,-0.0038814567436759803,-0.002101350500607938,0.001010519718111482
1590513999.2464294,-0.02984363293617227,-4.189843632936173,8.620938202382966,0.3711111111111111,0.34444444444444444,-0.6888888888888889,0.002215775566311287,-0.0010737737818372684,-5.1171001977562925e-05
1590513999.2564294,-0.020456856615570035,-4.18,8.682055854770065,0.3711111111111111,0.34444444444444444,-0.6888888888888889,0.0042885701410681825,4.983532594509439e-05,-0.0031728216955991795
1590513999.2664294,-0.03625400173251478,-4.18,8.753143007796316,0.3711111111111111,0.34444444444444444,-0.6888888888888889,0.0017037683156991457,0.0017730365428577852,0.0002735807382262022
1590513999.2764294,-0.049853720128110374,-4.199707440256221,8.77,0.3656368221510498,0.3247370041882237,-0.6943631778489502,-0.0021337915888578586,0.002181661564992912,1.5956658711684286e-05
1590513999.2864294,-0.016995901150065662,-4.2,8.74524692586255,0.3655555555555556,0.3244444444444444,-0.6944444444444444,-0.0030817087393445186,0.0012816143906413055,0.0009000471743516065
1590513999.2964294,-0.03644834463502194,-4.2,8.673879138412445,0.3655555555555556,0.3244444444444444,-0.6944444444444444,-0.0003874255000936755,0.0003695640706475328,0.0003695640706475328
1590513999.3064294,-0.03165,-4.190825,8.685875,0.3655555555555556,0.3244444444444444,-0.6944444444444444,0.004093342511317951,0.0020016744858809966,0.0010008372429404983
1590513999.3164294,-0.023757920722023932,-4.183757920722024,8.727452475667857,0.3655555555555556,0.3244444444444444,-0.6944444444444444,0.003001512685345914,0.001500756342672957,-0.00027097966214345353
1590513999.3264294,-0.03943032522076244,-4.18,8.75,0.36123770550649725,0.3373979945916194,-0.6944444444444444,6.21418785204204e-05,0.001797337344653953,0.00032218234181853817
1590513999.3364294,-0.036161566127538604,-4.18,8.729242349191308,0.3588888888888889,0.34444444444444444,-0.6944444444444444,-0.001090830782496456,0.0014268920825117857,-0.0019282471474280488
