time,acc_x,acc_y,acc_z,mag_x,mag_y,mag_z,gyr_x,gyr_y,gyr_z
1590514043.8879464,-0.29,-4.13,8.76,0.4577777777777778,0.18222222222222226,-0.6666666666666666,-0.003272492347489368,0.00545415391248228,0.0
1590514043.8979464,-0.2705680001853182,-4.1008520002779765,8.76971599990734,0.4577777777777778,0.18222222222222226,-0.6666666666666666,-9.293881299131217e-05,0.00545415391248228,0.002119702356332037
1590514043.9079463,-0.27367150816242125,-4.103671508162421,8.634686032649684,0.4577777777777778,0.18222222222222226,-0.6666666666666666,-0.001090830782496456,0.002761325481283392,-0.001380662740641696
1590514043.9179463,-0.27611760978700595,-4.113882390212995,8.683294341277964,0.4577777777777778,0.18222222222222226,-0.6666666666666666,-0.0023613400086955377,-0.0012705092261990818,-0.0008470061507993878
1590514043.9279463,-0.2623400577679729,-4.12,8.750639768928108,0.452671149623093,0.18222222222222226,-0.6577300673959683,-0.0031099680131598563,-0.004525847464315335,-0.002181661564992912
1590514043.9379463,-0.24478141402754783,-4.114781414027548,8.789562828055095,0.4444444444444444,0.18222222222222226,-0.6433333333333333,0.0011862069054455594,-0.005975725272993232,-0.0016124021430074082
1590514043.9479463,-0.26087974093518473,-4.103040086354938,8.738240518129631,0.4444444444444444,0.18222222222222226,-0.6433333333333333,0.003272492347489368,-0.0031765274982171955,-0.0026092483920065125
1590514043.9579463,-0.27,-4.107025915359011,8.762155492154065,0.4444444444444444,0.18222222222222226,-0.6433333333333333,0.002506083872606991,-0.0006488446152281583,-0.001739675397724614
1590514043.9679463,-0.2873761265693258,-4.086831831240899,8.814752253138652,0.4444444444444444,0.18222222222222226,-0.6433333333333333,0.002181661564992912,0.0025272551656500206,0.00017279680032855431
1590514043.9779463,-0.3,-4.112354758961681,8.894456118665019,0.4444444444444444,0.17482694684796046,-0.6386272490042576,-0.006398686623407826,0.00898351061604776,0.003070911133665857
1590514043.9879463,-0.2928459281181811,-4.118537784354544,8.851305209299992,0.4444444444444444,0.17,-0.6355555555555555,-0.011999138607461015,0.013559914973237087,0.004363323129985824
1590514043.9979463,-0.29,-4.1226281032668135,8.681090864065046,0.4444444444444444,0.17,-0.6355555555555555,-0.009244113853864089,0.012114531607256231,0.0036745669415865923
1590514044.0079463,-0.28341121751025994,-4.1234112175102595,8.6329439124487,0.4444444444444444,0.17,-0.6355555555555555,-0.006198366125678768,0.010189583149066348,0.0011163183197947318
1590514044.0179462,-0.28,-4.115152536797961,8.645152536797962,0.4444444444444444,0.17,-0.6355555555555555,-0.003867825289141286,0.009817477042468105,-0.0005287762077803313
1590514044.0279462,-0.28,-4.1141631035970665,8.648326207194133,0.4444444444444444,0.18110160959217564,-0.6387935250199401,-0.0017275374095527957,0.00663860795438729,0.00027154168382389327
1590514044.0379462,-0.29877940462146974,-4.11374019845951,8.69755880924294,0.4444444444444444,0.19666666666666666,-0.6433333333333333,0.00027484606004056847,-0.001232530541349649,0.0008159847224558875
1590514044.0479462,-0.29933302982016846,-4.1206669701798315,8.698666059640336,0.4444444444444444,0.19666666666666666,-0.6433333333333333,0.001090830782496456,-0.006763250175928972,-0.0011635859428132012
1590514044.0579462,-0.27220608025446535,-4.13,8.739313065818449,0.4444444444444444,0.19666666666666666,-0.6433333333333333,0.0030318463224665235,-0.010464482222458125,-0.0028286667449829344
1590514044.0679462,-0.24945721595405937,-4.12472860797703,8.816899744160791,0.4444444444444444,0.19666666666666666,-0.6433333333333333,0.0032132837929333673,-0.009758268487912104,-0.0021224530104369116
1590514044.0779462,-0.2537244194229416,-4.124574806474314,8.854574806474313,0.4444444444444444,0.19666666666666666,-0.6433333333333333,0.001183593619763783,-0.007728578314742518,-0.001090830782496456
1590514044.0879462,-0.2642082673343212,-4.13,8.865791732665679,0.4444444444444444,0.19666666666666666,-0.6433333333333333,-0.0006317800275712702,-0.005913204667407465,-0.001090830782496456
1590514044.0979462,-0.26456183397510524,-4.125438166024895,8.810696158323632,0.4444444444444444,0.19666666666666666,-0.6433333333333333,-0.0005932118900281614,-0.0034636783426091012,-0.0005932118900281614
1590514044.1079462,-0.27838541478075096,-4.1116145852192485,8.752578122171126,0.4444444444444444,0.19666666666666666,-0.6433333333333333,-0.0004573534283421973,0.0034827035009255183,-0.0004573534283421973
1590514044.1179461,-0.29,-4.120430616349225,8.759784691825388,0.4444444444444444,0.19666666666666666,-0.6433333333333333,-0.0005336721520187026,0.009260318411990352,-0.0005336721520187026
1590514044.1279461,-0.2849932776056585,-4.124979832816975,8.75,0.4444444444444444,0.1833154069484227,-0.6394392159155121,-0.0005461486907162066,0.008726646259971648,0.0
1590514044.1379461,-0.26837087455851055,-4.115814562720745,8.744185437279256,0.4444444444444444,0.17,-0.6355555555555555,-0.001090830782496456,0.007458105459462705,-0.000634270400254471
1590514044.1479461,-0.26616878286520457,-4.10766243426959,8.641299474156726,0.4444444444444444,0.17,-0.6355555555555555,-0.003109560254467004,0.00250752575103764,-0.0017637406064866384
1590514044.157946,-0.27,-4.105617914421817,8.619325400952718,0.4444444444444444,0.17,-0.6355555555555555,-0.0037505037315109673,-0.00367691639084914,-0.0015688421665180554
1590514044.167946,-0.2662565895642819,-4.113743410435719,8.664973641742872,0.4444444444444444,0.17,-0.6355555555555555,-0.002455806880529407,-0.008178355628898657,-0.0006824880490164755
1590514044.177946,-0.26256344993091413,-4.114873100138172,8.72076139917097,0.44615341106505385,0.17512689986182825,-0.6355555555555555,-0.0002519437542875968,-0.010349049806158653,-0.0008388870282088592
1590514044.187946,-0.27,-4.106977710677121,8.816977710677122,0.4511111111111111,0.19,-0.6355555555555555,0.002181661564992912,-0.009107221339869558,-0.002511342187693549
1590514044.197946,-0.2693320714883704,-4.119332071488371,8.826660357441853,0.4511111111111111,0.19,-0.6355555555555555,0.001817363074496607,-0.009744617344368845,-0.001090830782496456
1590514044.207946,-0.2647690777735529,-4.119538155547106,8.799076311094211,0.4511111111111111,0.19,-0.6355555555555555,-0.003272492347489368,-0.006645743524167183,-0.001090830782496456
1590514044.217946,-0.2745615531918928,-4.116315340424322,8.815438446808107,0.4511111111111111,0.19,-0.6355555555555555,-0.0017797275561758914,-0.003368146602443506,-0.001588419046267615
1590514044.227946,-0.2769613842099233,-4.1030386157900764,8.803922768419847,0.4467219994143335,0.18763663216327364,-0.637918923392282,0.0,-0.0025131231289924655,-0.002181661564992912
1590514044.237946,-0.27,-4.113654429419942,8.782691141160116,0.43666666666666665,0.18222222222222226,-0.6433333333333333,0.00039863641037332577,-0.0020765831163693906,-0.002181661564992912
1590514044.247946,-0.27,-4.12,8.708345673788871,0.43666666666666665,0.18222222222222226,-0.6433333333333333,0.001090830782496456,0.0008406804613147004,-0.000920640873020861
1590514044.257946,-0.2728083333333334,-4.117191666666667,8.62685,0.43666666666666665,0.18222222222222226,-0.6433333333333333,0.001703514071998632,0.001875319920241824,-0.00013453579650789618
1590514044.267946,-0.28,-4.096636746143058,8.665545582047686,0.43666666666666665,0.18222222222222226,-0.6433333333333333,0.004730197213636105,0.00011902753839863141,-0.002786590725440456
1590514044.277946,-0.28,-4.088055327936019,8.668055327936019,0.4424844035093469,0.18803995906490253,-0.6527312159253553,0.004787584759836129,-0.002848230717639063,-0.0017423115812072601
1590514044.287946,-0.26886134197304784,-4.116707987040428,8.70784664506738,0.4511111111111111,0.19666666666666666,-0.6666666666666666,0.0015741420124178794,-0.00849175167535744,-0.0016983503350714883
1590514044.297946,-0.2657967336683417,-4.124203266331659,8.718406532663318,0.4511111111111111,0.19666666666666666,-0.6666666666666666,0.0017231563348325298,-0.011540633377300633,-0.0015493360126568382
1590514044.307946,-0.2530323014804845,-4.12,8.738279497532526,0.4511111111111111,0.19666666666666666,-0.6666666666666666,0.0034155874218733803,-0.010148249822140312,-0.0029417195678171585
1590514044.317946,-0.2567939896604307,-4.124198497415108,8.789389481905754,0.4511111111111111,0.19666666666666666,-0.6666666666666666,0.004363323129985824,-0.008268661237908523,-0.0016154129976070734
1590514044.327946,-0.27665369165135617,-4.123307383302713,8.83,0.4511111111111111,0.19666666666666666,-0.66183311016307,0.003633271899100705,-0.005810687400262394,0.0014516103341077927
1590514044.337946,-0.27,-4.1151707586761495,8.824829241323851,0.4511111111111111,0.19666666666666666,-0.6522222222222223,0.002745703838273315,7.450752812870019e-05,0.0
1590514044.347946,-0.27454529090581814,-4.115454709094182,8.77454709094182,0.4511111111111111,0.19666666666666666,-0.6522222222222223,0.0027766780239426078,0.004164918859179952,-0.00049581432354676
1590514044.357946,-0.27147588611272516,-4.11,8.707213829169088,0.4511111111111111,0.19666666666666666,-0.6522222222222223,0.003111498147167404,0.0051502298217169975,-0.001555749073583702
1590514044.367946,-0.25583214393028847,-4.11,8.698335712139423,0.4511111111111111,0.19666666666666666,-0.6522222222222223,0.0029993954206290114,0.002817849777703764,-0.0012723764254217037
1590514044.377946,-0.25359482303222397,-4.106405176967776,8.71,0.4555047837060515,0.19427011797851734,-0.6514233726595058,0.001482965144614173,0.001789527202875195,-0.000392134362117717
1590514044.387946,-0.26,-4.105417297479153,8.72625189243746,0.4633333333333333,0.19,-0.65,0.003954468019453124,-9.104018714368566e-05,-0.0016817662673165269
1590514044.397946,-0.26754361663533527,-4.113771808317668,8.706053725140992,0.4633333333333333,0.19,-0.65,0.0050427134506234785,-0.003970914015508066,-0.0025931020268517135
1590514044.4079459,-0.27656376059932497,-4.116563760599325,8.665463077303038,0.4633333333333333,0.19,-0.65,0.004363323129985824,-0.008539228474257471,-0.0034599101332035446
1590514044.4179459,-0.26387042423382523,-4.1077408484676505,8.759352121169126,0.4633333333333333,0.19,-0.65,0.002674531971755109,-0.00848021105659055,-0.0030967297613127874
1590514044.4279459,-0.2690172925624676,-4.119017292562468,8.790982707437532,0.4627873847569264,0.19,-0.6493448617083117,0.0003215902569145824,-0.008852706271724358,-0.0009836340301915953
1590514044.4379458,-0.26343375178050826,-4.113433751780509,8.796566248219492,0.4596854176558379,0.19,-0.6456225011870055,0.0021487997050002408,-0.0033710779274673825,-0.0003745642141630424
1590514044.4479458,-0.2555662630755292,-4.114433736924471,8.768963841528706,0.4577777777777778,0.19,-0.6433333333333333,0.002305201003748585,0.0009672913437407829,-0.00048364567187039146
1590514044.4579458,-0.25795791329256873,-4.116021043353716,8.726021043353716,0.4577777777777778,0.19,-0.6433333333333333,0.0006567939432978716,0.0030497352433900807,0.00021127973509929717
1590514044.4679458,-0.27457752994423745,-4.107711235027882,8.731443824860595,0.4577777777777778,0.19,-0.6433333333333333,0.0,0.004862654187083174,0.001931996036444237
1590514044.4779458,-0.28742223769730735,-4.102577762302692,8.772577762302692,0.45605926957598264,0.18627656556277727,-0.6433333333333333,-0.0005623804939472211,0.006263794448005125,0.001090830782496456
1590514044.4879458,-0.27681818181818185,-4.11,8.764090909090909,0.4511111111111111,0.17555555555555555,-0.6433333333333333,-0.0018345790432894942,0.003718741303965191,0.0007437482607930382
1590514044.4979458,-0.27,-4.1051761231807635,8.667289601349927,0.4511111111111111,0.17555555555555555,-0.6433333333333333,-0.001617034115035877,0.000526203332539421,-0.0015786099976182629
1590514044.5079458,-0.27505614544343443,-4.1,8.650561454434344,0.4511111111111111,0.17555555555555555,-0.6433333333333333,-0.000527041837849674,-0.000563788944646782,-0.0016178726203461302
1590514044.5179458,-0.27578461826347306,-4.0957846182634725,8.721076908682635,0.4511111111111111,0.17555555555555555,-0.6433333333333333,0.0006310039666787602,-0.003561142012445999,0.0
1590514044.5279458,-0.27,-4.098315114964191,8.75831511496419,0.4492633077857352,0.17740335888093145,-0.6374819561363096,0.000604692224195799,-0.00515180780038438,-0.000604692224195799
1590514044.5379457,-0.26631394926016055,-4.116313949260161,8.783686050739838,0.4444444444444444,0.18222222222222226,-0.6222222222222222,0.0005733185198486309,-0.003961237368699754,-0.0005733185198486309
1590514044.5479457,-0.26270417422867515,-4.112704174228675,8.771070780399274,0.4444444444444444,0.18222222222222226,-0.6222222222222222,-0.001591702267018422,-0.003272492347489368,0.0010017429690439325
1590514044.5579457,-0.26855968169761274,-4.118559681697612,8.73008222811671,0.4444444444444444,0.18222222222222226,-0.6222222222222222,-0.0003142287081674142,-0.003272492347489368,-0.0015532041486580835
1590514044.5679457,-0.252910435846948,-4.11,8.754850726411581,0.4444444444444444,0.18222222222222226,-0.6222222222222222,0.0011966572162408569,0.001090830782496456,-0.001408310083729659
1590514044.5779457,-0.2752312277153957,-4.11,8.792052046192326,0.4444444444444444,0.18222222222222226,-0.6222222222222222,0.0020082641115675,0.001090830782496456,-0.0038431307697095888
1590514044.5879457,-0.28,-4.12,8.772851025467657,0.4577777777777778,0.19,-0.6355555555555555,0.0005198880988774335,0.004623267179424541,-0.0013507748319351728
1590514044.5979457,-0.27036597296335824,-4.12,8.69219583778015,0.4577777777777778,0.19,-0.6355555555555555,0.0016562069024443145,0.004928699249933682,-0.001130752239895717
1590514044.6079457,-0.2632112510987401,-4.12,8.652478757691181,0.4577777777777778,0.19,-0.6355555555555555,0.0003902444727302,0.002261564200687056,0.00035029315488312797
1590514044.6179457,-0.2686115792334874,-4.119305789616744,8.703471051916281,0.4577777777777778,0.19,-0.6355555555555555,-0.0009393775713795248,-0.0024088413816683086,0.0008636509658210593
1590514044.6279457,-0.25,-4.11,8.756288989983476,0.45865124860881606,0.18685550500826212,-0.6367784147190092,0.0012623363791161378,-0.005625659509101962,-0.00201015596837323
1590514044.6379457,-0.2504878048780488,-4.109756097560976,8.790731707317072,0.4633333333333333,0.17,-0.6433333333333333,0.0022082671938342888,-0.006518379066137358,-0.0011440420401792098
1590514044.6479456,-0.273347764215421,-4.103347764215421,8.793217886276633,0.4633333333333333,0.17,-0.6433333333333333,0.0025421234957451033,-0.00545415391248228,-0.003272492347489368
1590514044.6579456,-0.277202978206685,-4.104405956413371,8.753985108966575,0.4633333333333333,0.17,-0.6433333333333333,0.0013959385296426015,-0.00545415391248228,-0.0026622768531970767
1590514044.6679456,-0.2664100286798039,-4.100769913960589,8.800769913960588,0.4633333333333333,0.17,-0.6433333333333333,0.00257326668742785,-0.0027129180554377116,-0.0018740410273663326
1590514044.6779456,-0.26,-4.12,8.817896496081143,0.46216472004507964,0.1711686132882537,-0.6433333333333333,0.002584122299752151,0.0024111182475719845,-0.002813578982331223
1590514044.6879456,-0.25631130280350123,-4.123688697196499,8.802622605607002,0.4577777777777778,0.17555555555555555,-0.6433333333333333,0.0008047488898498528,0.004479615682264147,-0.0002860818926466032
1590514044.6979456,-0.25851540476487467,-4.125742297617562,8.747422976175626,0.4577777777777778,0.17555555555555555,-0.6433333333333333,0.0012527750006986866,0.006544984694978735,0.0020197173467906815
1590514044.7079456,-0.26577585822061517,-4.12,8.685775858220614,0.4577777777777778,0.17555555555555555,-0.6433333333333333,0.00046078238825823467,0.006084202306720501,0.0018901451827146641
1590514044.7179456,-0.2668124381625442,-4.113187561837456,8.689083250883392,0.4577777777777778,0.17555555555555555,-0.6433333333333333,0.0013385380242150152,0.00545415391248228,0.0
1590514044.7279456,-0.2845974558303887,-4.095402544169612,8.712796607773852,0.4577777777777778,0.17555555555555555,-0.6433333333333333,0.001985219515525953,0.00545415391248228,0.0
1590514044.7379456,-0.2788360204482894,-4.111163979551711,8.732327959103422,0.4633333333333333,0.18222222222222226,-0.6522222222222223,0.001090830782496456,0.004438390132320421,-0.001090830782496456
1590514044.7479455,-0.2637886272671547,-4.113788627267154,8.73757725453431,0.4633333333333333,0.18222222222222226,-0.6522222222222223,0.0017683864403511401,-0.003272492347489368,-0.0017683864403511401
1590514044.7579455,-0.2515632387706856,-4.1015632387706855,8.713126477541373,0.4633333333333333,0.18222222222222226,-0.6522222222222223,0.003101969450343793,-0.0031872308989165806,-0.0029314465531982184
1590514044.7679455,-0.2692696724079703,-4.11926967240797,8.74853934481594,0.4633333333333333,0.18222222222222226,-0.6522222222222223,0.001170497164365709,-0.0022214947559275385,0.0009314980187579494
1590514044.7779455,-0.28100788677357097,-4.111007886773571,8.812015773547142,0.462773396236905,0.18155029770650827,-0.651998247383651,0.0007610006071317814,-0.002071718173204687,-0.00010994339178822484
1590514044.7879455,-0.29,-4.115623720462195,8.813953641694715,0.4577777777777778,0.17555555555555555,-0.65,-0.002499913593836043,-0.0006134527392317589,-0.0009317047680748904
1590514044.7979455,-0.277991683991684,-4.086997920997921,8.701987525987526,0.4577777777777778,0.17555555555555555,-0.65,-0.004035847111290422,0.0028366136023837154,-0.0006549520373908035
1590514044.8079455,-0.25056146828844483,-4.0811229365768895,8.662245873153779,0.4577777777777778,0.17555555555555555,-0.65,-0.0038237125506774662,0.004669556576201434,-0.0019979214972635456
1590514044.8179455,-0.26314893448152704,-4.1,8.712595737926108,0.4577777777777778,0.17555555555555555,-0.65,-0.013776960322860314,0.010847963441822369,0.002464812648302143
1590514044.8279455,-0.27676921672448423,-4.072923133102063,8.74,0.4622905889274339,0.18031907843574813,-0.6467407475030261,-0.01551776662083229,0.012597698058193657,0.009392324566592787
1590514044.8379455,-0.3295104988930879,-3.976311187638364,8.751066437084909,0.4777777777777778,0.19666666666666666,-0.6355555555555555,-0.016362461737446838,0.01090830782496456,0.022907446432425576
1590514044.8479455,-0.3867898943409299,-3.9666050528295353,8.746235369806746,0.4777777777777778,0.19666666666666666,-0.6355555555555555,-0.017473455600994562,0.009797313961416837,0.03142506605295812
1590514044.8579454,-0.41866623146127013,-3.953777922846243,8.71866623146127,0.4777777777777778,0.19666666666666666,-0.6355555555555555,-0.018956230755897634,0.006278368819398042,0.05885612769446126
1590514044.8679454,-0.4587870963912631,-3.936361289173789,8.766064518043684,0.4777777777777778,0.19666666666666666,-0.6355555555555555,-0.016791756223637648,0.0008909616807890397,0.09454617828471004
1590514044.8779454,-0.45256336063627733,-3.917690081908832,8.797183196818613,0.4777777777777778,0.19666666666666666,-0.6355555555555555,-0.013397234951806506,-0.011329314897803068,0.15428975266893813
1590514044.8879454,-0.47924406183234886,-3.959496041221566,8.810755938167652,0.4444444444444444,0.19,-0.65,-0.013062482702526211,-0.02072578486743266,0.22712133297346684
1590514044.8979454,-0.4553773027287952,-3.961509210915181,8.80773618362723,0.4444444444444444,0.19,-0.65,-0.011999138607461015,-0.02248550307044426,0.28842687238749726
1590514044.9079454,-0.467788444187809,-4.026634667436572,8.731057779060956,0.4444444444444444,0.19,-0.65,-0.012240381923175702,-0.027753256193840774,0.3228544964482688
1590514044.9179454,-0.4602199646324299,-4.049340106102711,8.76890017683785,0.4444444444444444,0.19,-0.65,-0.013065974970745966,-0.029404442288981304,0.34514550873266586
1590514044.9279454,-0.48421632476867926,-4.090843264953736,8.819156735046265,0.44378857170264985,0.1883134700925283,-0.6476575973507338,-0.016638419548247494,-0.036181387696250136,0.36498138291235116
1590514044.9379454,-0.5235765094498978,-4.098715301889979,8.81128469811002,0.4376658763077937,0.17256939622004092,-0.6257908280833901,-0.01921453761154861,-0.037898799738450895,0.37099232506005375
1590514044.9479454,-0.5178844923007417,-4.0939422461503705,8.761826738451113,0.43666666666666665,0.17,-0.6222222222222222,-0.017122893301345202,-0.04558412677295523,0.38241750566685045
1590514044.9579453,-0.45471970181845567,-4.062359850909227,8.667079552727683,0.43666666666666665,0.17,-0.6222222222222222,-0.015400340855644781,-0.03869391699015355,0.39705920145530404
1590514044.9679453,-0.4618184121086741,-4.009090793945663,8.653636613117731,0.43666666666666665,0.17,-0.6222222222222222,-0.02290746945982171,-0.026576608705803858,0.42502740432991737
1590514044.9779453,-0.5578594710843778,-3.952508148795322,8.76107026445781,0.43892611385537894,0.1705945913654506,-0.6251951790494752,-0.03272492347489368,-0.028711843569705513,0.45759817988319645
1590514044.9879453,-0.5684874884151992,-3.877338894037689,8.77,0.4577777777777778,0.17555555555555555,-0.65,-0.03583242640282473,-0.029562424073776523,0.5168094070653632
1590514044.9979453,-0.6583995459704881,-3.81450056753689,8.753433598183882,0.4577777777777778,0.17555555555555555,-0.65,-0.04383319630709226,-0.027412540418933352,0.5741366809714732
1590514045.0079453,-0.7528674300307718,-3.625446819199933,8.711469720123088,0.4577777777777778,0.17555555555555555,-0.65,-0.04862213061868819,-0.036470525511996914,0.6566140706192132
1590514045.0179453,-0.7705862571460599,-3.275913014236072,8.70294809998879,0.4577777777777778,0.17555555555555555,-0.65,-0.055759659991903805,-0.04093812971068613,0.7332922546230959
1590514045.0279453,-0.8211059907834101,-2.51110599078341,8.563179723502303,0.45998975934459807,0.17334357398873526,-0.6469278033794164,-0.08893035655827099,-0.03941066052890421,0.8114071885985388
1590514045.0379453,-0.8297113952333663,-2.520500248262165,8.830904294935452,0.4777777777777778,0.15555555555555556,-0.6222222222222222,-0.1461608308890778,-0.005475141843376886,0.8979300326140979
1590514045.0479453,-0.5780769815253024,-2.6717067928706335,9.21081735883464,0.4777777777777778,0.15555555555555556,-0.6222222222222222,-0.112921979442754,-0.033734456424502346,1.011156419732062
1590514045.0579453,-0.22730062439717752,-2.272873749936545,8.819651251332555,0.4777777777777778,0.15555555555555556,-0.6222222222222222,-0.008877044574873948,-0.0967641217232898,1.1118274338430287
1590514045.0679452,-0.39695925030742485,-2.312617563499131,8.515674002459399,0.4777777777777778,0.15555555555555556,-0.6222222222222222,-0.014279970812222927,-0.09158362327704864,1.2530414319198522
1590514045.0779452,-0.43479804839689745,-2.4253311648854416,8.785331164885442,0.4781331887701406,0.15454855774386103,-0.6233476903647044,-0.06450528816502245,-0.10777372649919327,1.3665466164377729
1590514045.0879452,-0.5022618579547485,-2.500290953283054,8.860290953283055,0.4831305079966481,0.1403894866020898,-0.6391725345819781,-0.03588633254328477,-0.1200389931942237,1.4548565366419919
1590514045.0979452,-0.5721296922556645,-2.56,8.775111261413594,0.4844444444444445,0.13666666666666666,-0.6433333333333333,-0.036787281338088916,-0.13041287792320627,1.5937544044498104
1590514045.1079452,-0.6075904633074062,-2.56,8.860217111937775,0.4844444444444445,0.13666666666666666,-0.6433333333333333,-0.04993905955375058,-0.14047012008812398,1.6672496356549784
1590514045.1179452,-0.6499341262580055,-2.6298462946020127,8.830131747483989,0.4844444444444445,0.13666666666666666,-0.6433333333333333,-0.03712657039449328,-0.1461665343808234,1.7963707512708313
1590514045.1279452,-0.6601968541928014,-2.5902187268808903,8.870153108816622,0.48442986265238513,0.13663507278387138,-0.6433333333333333,-0.04581250692470481,-0.15600073159772493,1.8960571611306944
1590514045.1379452,-0.7638644276802553,-2.697922530103003,8.928116204845495,0.4777777777777778,0.12222222222222222,-0.6433333333333333,-0.04429195509677416,-0.161875062795056,2.003017847233806
1590514045.1479452,-0.817107028869868,-2.7283468736399246,8.882479689540114,0.4777777777777778,0.12222222222222222,-0.6433333333333333,-0.04263256457340811,-0.16353445331842206,2.07520133500023
1590514045.1579452,-0.8609812331500998,-2.8315687475928715,8.799018766849901,0.4777777777777778,0.12222222222222222,-0.6433333333333333,-0.04605010456521194,-0.16959214273623208,2.161556855885066
1590514045.1679451,-0.912380168761598,-2.8389114526802284,8.747619831238403,0.4777777777777778,0.12222222222222222,-0.6433333333333333,-0.042045280197170826,-0.17199503735705676,2.2104157131751676
1590514045.1779451,-0.9100326432676749,-2.8200652865353493,8.869575637520226,0.4777777777777778,0.12222222222222222,-0.6433333333333333,-0.04253883968923969,-0.17996215331506057,2.26876066867089
1590514045.1879451,-0.9857168718320057,-2.8389292179580012,8.841606173062997,0.5145845904738917,0.08015729342666345,-0.6633141745112237,-0.033250542380634074,-0.19031136593050157,2.3184846043218426
1590514045.197945,-1.0462003742477115,-2.8869754210286755,8.761550093561928,0.5166666666666667,0.07777777777777778,-0.6644444444444444,-0.04406420131315224,-0.1924934846513064,2.3663666403294705
1590514045.207945,-1.1211497253036395,-2.97,8.782299450607278,0.5166666666666667,0.07777777777777778,-0.6644444444444444,-0.060923198849672976,-0.19853120241435496,2.4008193587036386
1590514045.217945,-1.129978529479866,-2.97,8.799957058959732,0.5166666666666667,0.07777777777777778,-0.6644444444444444,-0.051292467481611675,-0.19853120241435496,2.4335638453550477
1590514045.227945,-1.2090123689925407,-2.940370361627797,8.83950618449627,0.5166666666666667,0.07777777777777778,-0.6644444444444444,-0.05126904677733343,-0.20068593052173075,2.456268120877039
1590514045.237945,-1.2738554012149017,-2.962289197570197,8.951566203644704,0.5222222222222223,0.017777777777777778,-0.6577777777777778,-0.05352957474527477,-0.19924090736591674,2.481061738341132
1590514045.247945,-1.2908946100708962,-2.9264215597164154,8.983897018723868,0.5222222222222223,0.017777777777777778,-0.6577777777777778,-0.044626475261988194,-0.19219876711857425,2.4972044215954874
1590514045.257945,-1.3034642431220957,-2.8907698318049104,8.82076983180491,0.5222222222222223,0.017777777777777778,-0.6577777777777778,-0.04417907284944975,-0.18414131550105245,2.499512348497764
1590514045.267945,-1.3810821647407163,-2.9080182588312704,8.838018258831271,0.5222222222222223,0.017777777777777778,-0.6577777777777778,-0.05640889769694811,-0.20389718640854976,2.484460256377766
1590514045.277945,-1.429497818916906,-2.9034170301805156,8.899246728375358,0.5222222222222223,0.017777777777777778,-0.6577777777777778,-0.061404484531981496,-0.2032946554440947,2.4654966862755208
1590514045.287945,-1.44183278700335,-2.87549836101005,8.823826231043551,0.5340193076618277,-0.02215081909473322,-0.6686673951066444,-0.04099556702491714,-0.19734917108986888,2.4360601132909316
1590514045.297945,-1.5249104618284637,-2.84684260131951,8.82315739868049,0.5366666666666666,-0.031111111111111114,-0.6711111111111111,-0.04525971037423089,-0.19045535340727707,2.3986227698644123
1590514045.307945,-1.6040095693779906,-2.826992822966507,8.760023923444976,0.5366666666666666,-0.031111111111111114,-0.6711111111111111,-0.046468347477140896,-0.19012997863901804,2.3330553074597145
1590514045.317945,-1.6307674641148324,-2.8069244019138755,8.826918660287081,0.5366666666666666,-0.031111111111111114,-0.6711111111111111,-0.043549513951766164,-0.1850220199696123,2.2951104716298425
1590514045.327945,-1.6670179982296822,-2.7549700029505293,8.822982001770319,0.5366666666666666,-0.031111111111111114,-0.6711111111111111,-0.037630389825633076,-0.17932996290602163,2.227003477235224
1590514045.337945,-1.7351187810339792,-2.6989762437932043,8.863071268620388,0.5288888888888889,-0.07111111111111111,-0.6788888888888889,-0.04517075999601257,-0.16689710972195776,2.135080987722802
1590514045.347945,-1.7843618670341026,-2.6889095332414743,8.881276265931795,0.5288888888888889,-0.07111111111111111,-0.6788888888888889,-0.04861157932934495,-0.1659454979559666,2.041384972449931
1590514045.357945,-1.8211310846293678,-2.679151686527974,8.810565542314684,0.5288888888888889,-0.07111111111111111,-0.6788888888888889,-0.04460067988922239,-0.1579853901722877,1.954425275020982
1590514045.367945,-1.9011232031659198,-2.6183151952511206,8.85168480474888,0.5288888888888889,-0.07111111111111111,-0.6788888888888889,-0.036242460740059594,-0.14483544915435206,1.8484699909903186
1590514045.377945,-1.9173962637490543,-2.5939056043764186,8.876094395623582,0.5288888888888889,-0.07111111111111111,-0.6788888888888889,-0.03979269182196217,-0.1412852180724495,1.7623768872541812
1590514045.387945,-1.9722913385826772,-2.556181102362205,8.92076377952756,0.5022222222222222,-0.14222222222222222,-0.7022222222222222,-0.031050884738605813,-0.1322482012448656,1.6311038084731828
1590514045.397945,-1.9983644840447576,-2.512725859925404,8.929454828014919,0.5022222222222222,-0.14222222222222222,-0.7022222222222222,-0.024414560483078624,-0.12276773802268393,1.5353511299291478
1590514045.407945,-2.049939024390244,-2.4900243902439025,8.850097560975609,0.5022222222222222,-0.14222222222222222,-0.7022222222222222,-0.020729775711758866,-0.10909904162695042,1.4171262054514295
1590514045.417945,-2.003281814532316,-2.396563629064633,8.784594540345243,0.5022222222222222,-0.14222222222222222,-0.7022222222222222,-0.011552690601537637,-0.09073688971785554,1.312008218753209
1590514045.427945,-2.0691438280268892,-2.39,8.751190071655463,0.5022222222222222,-0.14222222222222222,-0.7022222222222222,-0.015936588893722695,-0.08881958903111462,1.2323520755023631
1590514045.437945,-2.2046268180367483,-2.3960447727169107,8.856940227055123,0.5069237121131527,-0.16438638885089438,-0.7022222222222222,-0.030844455144697587,-0.08967605821277308,1.10599662778258
1590514045.4479449,-2.247518337178982,-2.387518337178982,8.840146697431857,0.51,-0.17888888888888888,-0.7022222222222222,-0.021159849859991142,-0.07896588022858415,0.9920712562153092
1590514045.4579449,-2.304383289855605,-2.404143733695852,8.828287467391704,0.51,-0.17888888888888888,-0.7022222222222222,-0.01968721713157527,-0.07375061350608823,0.8601167253999935
1590514045.4679449,-2.359450726978998,-2.3836995153473346,8.853150242326333,0.51,-0.17888888888888888,-0.7022222222222222,-0.017513208911873634,-0.06270074190827771,0.7653173608666776
1590514045.4779449,-2.4060349212374263,-2.37,8.929426456633136,0.51,-0.17888888888888888,-0.7022222222222222,-0.01337831805457335,-0.051043261988684606,0.6385984256074155
1590514045.4879448,-2.41,-2.3345082405920676,8.925803296236827,0.5170983518815865,-0.21043711947371765,-0.7172076317500159,-0.010767039168729623,-0.04398373540489604,0.5561324418073764
1590514045.4979448,-2.44,-2.3201795999256825,8.928204000743172,0.52,-0.22333333333333333,-0.7233333333333334,-0.006544984694978735,-0.03367861506816193,0.4291933061898679
1590514045.5079448,-2.44,-2.328838174273859,8.84161825726141,0.52,-0.22333333333333333,-0.7233333333333334,-0.006544984694978735,-0.02706708746609463,0.3479659670787553
1590514045.5179448,-2.49820022437096,-2.33,8.83970003739516,0.52,-0.22333333333333333,-0.7233333333333334,-0.007603094633179462,-0.018773169212509856,0.24818547698254387
1590514045.5279448,-2.516595857134145,-2.33,8.898085499969508,0.52,-0.22333333333333333,-0.7233333333333334,-0.0031099975215154677,-0.009492487390520304,0.16940318440157925
1590514045.5379448,-2.5110229331277703,-2.3110229331277705,8.87795413374446,0.52,-0.1988888888888889,-0.75,5.5792347210360266e-05,-0.002658776528175405,0.05726762804778628
1590514045.5479448,-2.527189053767585,-2.3271890537675852,8.845621892464829,0.52,-0.1988888888888889,-0.75,0.0009375174485834352,0.007040199586928417,-0.020324180873044294
1590514045.5579448,-2.5207333119383826,-2.348533376123235,8.812199935815148,0.52,-0.1988888888888889,-0.75,0.001090830782496456,0.013780840554674014,-0.11973705726733042
1590514045.5679448,-2.529311843793054,-2.359311843793054,8.865871062758325,0.52,-0.1988888888888889,-0.75,0.006169653708127551,0.02027538768321124,-0.21389212509044372
1590514045.5779448,-2.521933311296587,-2.351933311296587,8.87,0.52,-0.1988888888888889,-0.75,0.004785106224878884,0.02600542027773222,-0.29602259227857775
1590514045.5879447,-2.526729935148085,-2.3769197405923417,8.883459870296171,0.5192522294279904,-0.1906634125967845,-0.7642076408681803,0.005831567214733108,0.031675501816653254,-0.3736231507912443
1590514045.5979447,-2.5351290614072997,-2.410516245629199,8.9002581228146,0.5188888888888888,-0.18666666666666668,-0.7711111111111111,0.005425997081299308,0.03717271709842842,-0.44839505090204873
1590514045.6079447,-2.5336192460834295,-2.4427615078331413,8.846192460834295,0.5188888888888888,-0.18666666666666668,-0.7711111111111111,0.00505935540875882,0.04871312629764482,-0.5518234588803793
1590514045.6179447,-2.535868306010929,-2.467604918032787,8.845209836065573,0.5188888888888888,-0.18666666666666668,-0.7711111111111111,0.004173888144916221,0.05857177141259057,-0.6350663622518901
1590514045.6279447,-2.54,-2.504993511549442,8.88249675577472,0.5188888888888888,-0.18666666666666668,-0.7711111111111111,0.009406822993672072,0.06694850066044009,-0.7236158916804278
1590514045.6379447,-2.521756545760269,-2.5443246056529745,8.89,0.5033481686105996,-0.1765314143112606,-0.8143548544941771,0.016406722967251472,0.07379327437252599,-0.8037069837830777
1590514045.6479447,-2.50022336844866,-2.56,8.89,0.4933333333333334,-0.17,-0.8422222222222222,0.013211797979775997,0.08169048009741567,-0.9187362887078762
1590514045.6579447,-2.4862555358357246,-2.6012333924928264,8.800660982932209,0.4933333333333334,-0.17,-0.8422222222222222,0.012340325159991918,0.0878094625269586,-0.9783837861343563
1590514045.6679447,-2.4526436781609195,-2.656475095785441,8.805593869731801,0.4933333333333334,-0.17,-0.8422222222222222,0.014983250403255918,0.09551247460686402,-1.0822420573699034
1590514045.6779447,-2.442488035562281,-2.6675119644377188,8.840047857750875,0.4933333333333334,-0.17,-0.8422222222222222,0.016091059159518608,0.09927082167796102,-1.1503776388520082
1590514045.6879447,-2.421479575426182,-2.744081698295272,8.85,0.4562924841856974,-0.14530610056824275,-0.8360487473642829,0.015352329275945618,0.10843749168168372,-1.2512720265387953
1590514045.6979446,-2.392893675213675,-2.7951772079772077,8.822893675213676,0.4533333333333333,-0.14333333333333334,-0.8355555555555556,0.01625724473752604,0.11696798851025088,-1.328692084563861
1590514045.7079446,-2.3530601199951025,-2.8,8.73688526998898,0.4533333333333333,-0.14333333333333334,-0.8355555555555556,0.015355082782170144,0.12183924033072403,-1.4118211302039108
1590514045.7179446,-2.278192748797632,-2.839892917334649,8.777871500801577,0.4533333333333333,-0.14333333333333334,-0.8355555555555556,0.012660645621017104,0.13174666053069176,-1.483354650593725
1590514045.7279446,-2.2094111821373907,-2.871680921941118,8.9489934275682,0.4533333333333333,-0.14333333333333334,-0.8355555555555556,0.015940841448506778,0.14284393249736477,-1.5558645062754766
1590514045.7379446,-2.154860023724792,-2.8917133254250693,8.734736852510874,0.41754261675673304,-0.15895110056675893,-0.8186363077193445,0.03214713684986674,0.16214289477835492,-1.61631194210402
1590514045.7479446,-2.149423088788795,-2.93884617757759,8.61769235515518,0.3922222222222223,-0.17,-0.8066666666666666,0.02347382768958036,0.15437352158915504,-1.7074438986480969
1590514045.7579446,-2.074937533260688,-2.9754659030435113,8.899721497174426,0.3922222222222223,-0.17,-0.8066666666666666,-0.0181207943801329,0.13977199250979025,-1.8095394921227108
1590514045.7679446,-2.0079259429270904,-2.9968296228291638,8.734385280391706,0.3922222222222223,-0.17,-0.8066666666666666,0.012199512313281074,0.1724983100607853,-1.8752188988461993
1590514045.7779446,-2.0,-3.0,8.69739092658102,0.3922222222222223,-0.17,-0.8066666666666666,0.017216279017211334,0.18937717362289322,-1.9330444877484523
1590514045.7879446,-1.9636891461112314,-3.0272331404165764,8.827087988610689,0.4487057727158621,-0.17201726966048714,-0.7804421610803338,-0.0004713620558080972,0.17624322470861775,-2.008828709915548
1590514045.7979445,-1.9257911718870036,-3.1069698632542417,8.797238964858753,0.4544444444444444,-0.17222222222222222,-0.7777777777777778,0.006214448051234063,0.18013033161025094,-2.05394630014668
1590514045.8079445,-1.9056181466788729,-3.0984272200183094,8.696517953412673,0.4544444444444444,-0.17222222222222222,-0.7777777777777778,0.022539575373907744,0.19598166979084425,-2.0888180510974674
1590514045.8179445,-1.8149383238602008,-3.09,8.71954317329786,0.4544444444444444,-0.17222222222222222,-0.7777777777777778,0.02372220560770599,0.1990200579195232,-2.1313971405186507
1590514045.8279445,-1.7647163154381615,-3.0758865261752644,8.82173757986078,0.4544444444444444,-0.17222222222222222,-0.7777777777777778,0.020598134678028675,0.19391257890556116,-2.1608003910393254
1590514045.8379445,-1.6802941659819226,-3.148419063270337,8.807720624486443,0.4776797224504702,-0.14898694421619646,-0.7971405094494659,0.039594737319894366,0.1910357518510449,-2.18691117692958
1590514045.8479445,-1.6288025422504695,-3.14626751408349,8.793133757041744,0.4811111111111111,-0.14555555555555555,-0.8,0.04404038235315461,0.19988327795163682,-2.1937913259777657
1590514045.8579445,-1.5468129084367428,-3.14,8.726812908436743,0.4811111111111111,-0.14555555555555555,-0.8,0.04669338849760107,0.19413872425060538,-2.2017503444111055
1590514045.8679445,-1.5131624242976185,-3.211566868539684,8.836296161376985,0.4811111111111111,-0.14555555555555555,-0.8,0.03909898932635116,0.1911253649216236,-2.1955564573294724
1590514045.8779445,-1.4886656883111933,-3.2342228744592045,8.885557186148011,0.4811111111111111,-0.14555555555555555,-0.8,0.040506289778728395,0.1893439120093115,-2.1908728470639485
1590514045.8879445,-1.45046897737796,-3.24,8.734626273316575,0.47586115153385955,-0.15999294439299733,-0.7580003233819876,0.05111557428928144,0.19580066204512536,-2.1802776428862654
1590514045.8979445,-1.4074515288897462,-3.2625484711102537,8.792871611845278,0.4722222222222222,-0.17,-0.7288888888888889,0.04387597718731067,0.18677480969434637,-2.1641871229613185
1590514045.9079444,-1.3721351791530945,-3.3048310260586318,8.585284201954398,0.4722222222222222,-0.17,-0.7288888888888889,0.043829278819155444,0.1935671673001157,-2.142698297528347
1590514045.9179444,-1.3439913565994732,-3.3119956782997364,8.718133972708166,0.4722222222222222,-0.17,-0.7288888888888889,0.05367311731813771,0.18892670586033808,-2.1120543040360698
1590514045.9279444,-1.3254131443726174,-3.288119716558926,8.867521133764296,0.4722222222222222,-0.17,-0.7288888888888889,0.03415145187077526,0.17459822045325843,-2.0857089125210218
1590514045.9379444,-1.1065241371467562,-3.0418923068175356,8.218519360891568,0.47678367228318896,-0.0988413790489187,-0.6933095784133483,0.06737931553350827,0.1737521565697596,-2.0216074072758277
1590514045.9479444,-1.1114576466908848,-3.170101763418096,8.824712151466308,0.4777777777777778,-0.08333333333333333,-0.6855555555555556,0.07542262835799786,0.16985529311566264,-1.9531787163532284
1590514045.9579444,-1.12,-3.15203488372093,9.133866279069768,0.4777777777777778,-0.08333333333333333,-0.6855555555555556,-0.01367977905723751,0.16123049748846596,-1.9072351766824223
1590514045.9679444,-1.0852691576947435,-3.192096263457885,8.554844838505383,0.4777777777777778,-0.08333333333333333,-0.6855555555555556,0.06345194788520234,0.16020843104169763,-1.8232217545638403
1590514045.9779444,-1.029515565531375,-3.2432723724016785,8.827815165414268,0.4777777777777778,-0.08333333333333333,-0.6855555555555556,0.0454978312465641,0.1509115578574988,-1.7607335242252622
1590514045.9879444,-0.9919998698425094,-3.323000455551217,8.780998633346348,0.4807777994706929,0.011667353608977984,-0.6535553241644613,0.022907375442526936,0.13646285280141812,-1.68304239547338
1590514045.9979444,-0.9665210431736155,-3.324130260793404,8.765869739206595,0.4811111111111111,0.022222222222222227,-0.65,0.033982110852313674,0.132701860144848,-1.6381895594263647
1590514046.0079443,-0.9220663118802405,-3.325586737623952,8.797933688119759,0.4811111111111111,0.022222222222222227,-0.65,0.0376670522182115,0.13333736804914986,-1.5770296276532134
1590514046.0179443,-0.8563936130176878,-3.33,8.770942814644899,0.4811111111111111,0.022222222222222227,-0.65,0.03797788331534403,0.1322900677024506,-1.5203410486563647
1590514046.0279443,-0.8107081930415264,-3.3392918069584736,8.869377104377104,0.4811111111111111,0.022222222222222227,-0.65,0.0328361490378452,0.12474096858941935,-1.4752574246920058
1590514046.0379443,-0.7542152094300756,-3.3042152094300756,8.971133840695812,0.4731169413290608,0.07164072632944228,-0.65,0.0435983079865825,0.11033881947660047,-1.4205027401792347
1590514046.0479443,-0.7226612090370479,-3.3533879096295203,8.866612090370479,0.4688888888888889,0.09777777777777777,-0.65,0.059344766578039734,0.14823909507223915,-1.3550664046318999
1590514046.0579443,-0.7272963023752023,-3.3289258833735844,8.942148233252832,0.4688888888888889,0.09777777777777777,-0.65,0.01651594893587497,0.09040153006516047,-1.3238281862508916
1590514046.0679443,-0.7005766253869968,-3.3394233746130033,8.70783378482972,0.4688888888888889,0.09777777777777777,-0.65,0.02567673820223082,0.10178329268814068,-1.2658561434961142
1590514046.0779443,-0.6595463026612982,-3.3317277815967787,8.676998134145144,0.4688888888888889,0.09777777777777777,-0.65,0.038228568089675216,0.10699090701517389,-1.2096133742358164
1590514046.0879443,-0.6255751546290539,-3.4209739175966227,8.77048695879831,0.4648819873969594,0.14586059568093146,-0.6540069014919295,0.02698593339349628,0.0951532366268186,-1.140101371019847
1590514046.0979443,-0.6343058914164652,-3.481458837124698,8.825764728541163,0.4633333333333333,0.16444444444444445,-0.6555555555555556,0.038202187714467734,0.09272061651219876,-1.0756489550044572
1590514046.1079443,-0.6015291273004074,-3.4258818788340126,8.743822818251019,0.4633333333333333,0.16444444444444445,-0.6555555555555556,0.03912870045965894,0.08712525488950301,-1.0178474968801956
1590514046.1179442,-0.5387127608730286,-3.396881206521162,8.738168445648133,0.4633333333333333,0.16444444444444445,-0.6555555555555556,0.04125177814818218,0.08024085430522772,-0.9531429826234713
1590514046.1279442,-0.5254362971897673,-3.4108725943795344,8.79805408032837,0.4633333333333333,0.16444444444444445,-0.6555555555555556,0.041261199172899415,0.07676079224452571,-0.9017287161030222
1590514046.1379442,-0.49848672465529686,-3.4073946898621186,8.836302655068941,0.4570306782643927,0.19385683476616739,-0.6464517204559747,0.04270747325020129,0.07389229796012392,-0.8377205846946058
1590514046.1479442,-0.4646784321187328,-3.415321567881267,8.763392160593664,0.4533333333333333,0.2111111111111111,-0.6411111111111111,0.04138141450615563,0.06723602916891419,-0.7674730354524627
1590514046.1579442,-0.41392644828010333,-3.400254192120044,8.693926448280104,0.4533333333333333,0.2111111111111111,-0.6411111111111111,0.03174500492808216,0.061859957773001226,-0.7088765919657638
1590514046.1679442,-0.3722651904619866,-3.39,8.718770726229536,0.4533333333333333,0.2111111111111111,-0.6411111111111111,0.029205337178989082,0.057577483516582977,-0.6561467641333166
1590514046.1779442,-0.3439582594300579,-3.371874778290174,8.776979129715029,0.4533333333333333,0.2111111111111111,-0.6411111111111111,0.02965693771433208,0.05388248746546775,-0.5993885555541941
1590514046.1879442,-0.3218773674766852,-3.358429213831602,8.798429213831602,0.45694339223258434,0.2192337436344259,-0.6447211700103621,0.02420306623828462,0.050144773161995226,-0.5326388034327825
1590514046.1979442,-0.28238421955403087,-3.372384219554031,8.801337907375643,0.4622222222222222,0.2311111111111111,-0.65,0.021099997828837966,0.04389330930803493,-0.470681320725975
1590514046.2079442,-0.25344249254226053,-3.3434424925422603,8.76344249254226,0.4622222222222222,0.2311111111111111,-0.65,0.017489014787530517,0.04145156973486533,-0.41576684446159684
1590514046.2179441,-0.25,-3.379841825554744,8.706877565927007,0.4622222222222222,0.2311111111111111,-0.65,0.019984185882944226,0.03782984558936793,-0.3702702732297238
1590514046.2279441,-0.2279591993989713,-3.394489799849743,8.70204080060103,0.4622222222222222,0.2311111111111111,-0.65,0.018811267679120558,0.03539634622822133,-0.3309669817332144
1590514046.2379441,-0.19923925282212662,-3.379239252822127,8.784564483067241,0.46700477652349925,0.24545877401494226,-0.656576012164256,0.018123184877089762,0.03314586190024367,-0.29151881847541783
1590514046.247944,-0.1577426574817836,-3.3829029370072865,8.781936783467211,0.4711111111111111,0.2577777777777778,-0.6622222222222223,0.017523715954112076,0.027411616430748957,-0.2565919600552978
1590514046.257944,-0.12109914627205465,-3.402600569151964,8.831903699487764,0.4711111111111111,0.2577777777777778,-0.6622222222222223,0.013613443995859412,0.02027832694964049,-0.22797188708848393
1590514046.267944,-0.11655826419910657,-3.4231165283982135,8.847208679004467,0.4711111111111111,0.2577777777777778,-0.6622222222222223,0.01843769942877794,0.021030270754008255,-0.20062122584009592
1590514046.277944,-0.12,-3.437273284861805,8.793633575690976,0.4711111111111111,0.2577777777777778,-0.6622222222222223,0.017452957990511792,0.022510750281569455,-0.18801925621081503
1590514046.287944,-0.12,-3.447992307594015,8.740038462029927,0.4711111111111111,0.2577777777777778,-0.6622222222222223,0.011022006015496303,0.02192611828384077,-0.18217293623352823
1590514046.297944,-0.08182631794033511,-3.421826317940335,8.788084184715979,0.5311111111111111,0.26222222222222225,-0.6344444444444445,0.010111426293787336,0.01715934326862406,-0.17156414474900727
1590514046.307944,-0.09208986828410437,-3.4320898682841046,8.694876359329577,0.5311111111111111,0.26222222222222225,-0.6344444444444445,0.006620974450167539,0.020573805357055056,-0.17841333558843273
1590514046.317944,-0.09620525768602406,-3.464758948462795,8.745723154611614,0.5311111111111111,0.26222222222222225,-0.6344444444444445,0.006597573982368956,0.021658847787758458,-0.18912766754465957
1590514046.327944,-0.06006399378462923,-3.494840015538427,8.734968003107685,0.5311111111111111,0.26222222222222225,-0.6344444444444445,0.007079929127702663,0.025089107997418484,-0.19632161829329725
1590514046.337944,-0.011092403017241383,-3.3682603717672412,8.66607556573276,0.5851494402538314,0.24449765026340997,-0.637038284243295,0.008726646259971648,0.02551352404203608,-0.20495702442552383
1590514046.347944,0.011831962168815192,-3.3065271749692298,8.812405260089395,0.67,0.21666666666666667,-0.6411111111111111,0.007165338613456185,0.03034342583728951,-0.2163050947438588
1590514046.357944,-0.016867619112257363,-3.495622539704086,8.889881905796118,0.67,0.21666666666666667,-0.6411111111111111,0.004499140224494426,0.02631146184799591,-0.23242130625864085
1590514046.367944,0.010261808576755748,-3.4694763828464885,8.695253262896209,0.67,0.21666666666666667,-0.6411111111111111,0.008869440687295027,0.020868579294756044,-0.25175157529468434
1590514046.377944,0.01607791099068334,-3.4532034816821944,8.812155821981367,0.67,0.21666666666666667,-0.6411111111111111,0.011535411019326505,0.031127871250796618,-0.27901091681357004
1590514046.387944,0.004603622013952505,-3.4293601578465225,8.789207244027905,0.9155265074108003,0.1598886618279191,-0.552107752174696,0.00619907964803109,0.031547616430660314,-0.3149573067361816
1590514046.397944,0.01503450623002893,-3.395172531150145,8.810069012460058,1.2033333333333334,0.09333333333333334,-0.4477777777777778,0.008711590076810265,0.036020000097125124,-0.352466320303227
1590514046.407944,0.02971952769082964,-3.3811218892366814,8.751963306164193,1.2033333333333334,0.09333333333333334,-0.4477777777777778,0.006544984694978735,0.0398000261696966,-0.38943659604264147
1590514046.417944,0.06157950725501043,-3.350789753627505,8.755528275392537,1.2033333333333334,0.09333333333333334,-0.4477777777777778,0.008898943773465832,0.042714698030855966,-0.42965868537293306
1590514046.427944,0.07661491252939313,-3.36,8.786149125293932,1.2033333333333334,0.09333333333333334,-0.4477777777777778,0.009062029017774037,0.04620108512810711,-0.45794903790525193
1590514046.437944,0.07182986585267893,-3.36,8.729149329263395,1.1925574566453352,0.11691827099008399,-0.46648307316071796,0.00585336871247054,0.04918718891233758,-0.481669217115862
1590514046.447944,0.09969567726234978,-3.3357608068441253,8.8006086454753,1.0855555555555556,0.3511111111111111,-0.6522222222222223,0.011403928524706421,0.04806294735185255,-0.5215807701230054
1590514046.457944,0.10556634840420023,-3.3144336515957997,8.757831742021,1.0855555555555556,0.3511111111111111,-0.6522222222222223,0.015024514845782638,0.0487167110485889,-0.5427289016105205
1590514046.467944,0.11354864816258019,-3.3019351357832263,8.73,1.0855555555555556,0.3511111111111111,-0.6522222222222223,0.017453292519943295,0.05285252030906176,-0.5614261334626451
1590514046.477944,0.13930510742110647,-3.2939576611316594,8.753262768552766,1.0855555555555556,0.3511111111111111,-0.6522222222222223,0.018975837161350168,0.05345070834232633,-0.5797155681156462
1590514046.487944,0.16101524610142512,-3.3173434974009504,8.80203049220285,0.8991123159869896,0.32908061890826085,-0.6722128540359197,0.0195242079150118,0.055453336596361105,-0.5946559816593836
1590514046.4979439,0.19339059625581645,-3.3344635320852722,8.817682339573638,0.5777777777777777,0.2911111111111111,-0.7066666666666667,0.016966396700215748,0.05890486225480863,-0.6087023158805845
1590514046.5079439,0.21365365314280854,-3.3290390405715744,8.768078081143148,0.5777777777777777,0.2911111111111111,-0.7066666666666667,0.017159565200794934,0.05770920705978648,-0.6161304892038749
1590514046.5179439,0.2146055387479637,-3.301009231246606,8.683248002482353,0.5777777777777777,0.2911111111111111,-0.7066666666666667,0.020113308472761236,0.056416962492479995,-0.6211610696283085
1590514046.5279438,0.20084777884030253,-3.2491522211596973,8.68333965052595,0.5777777777777777,0.2911111111111111,-0.7066666666666667,0.024904151346268256,0.05960125666794789,-0.6302907125647446
1590514046.5379438,0.2224241440103925,-3.22030342395843,8.992123967709011,0.5505734949944842,0.2991915911457528,-0.7123230026909159,0.01649485541504778,0.056789397528616184,-0.6364170155381814
1590514046.5479438,0.2254767959313414,-3.1945232040686586,8.843324856961221,0.4655555555555556,0.3244444444444444,-0.73,0.018568048071668057,0.0546188612050824,-0.6466546125488478
1590514046.5579438,0.22651388723328167,-3.1869722255334367,8.84183335320062,0.4655555555555556,0.3244444444444444,-0.73,0.023942981495496993,0.059640415601916366,-0.64939959302078
1590514046.5679438,0.2624401124561444,-3.1914161574386024,8.671023955017542,0.4655555555555556,0.3244444444444444,-0.73,0.00994582498462666,0.059394429563405515,-0.6462186078991126
1590514046.5779438,0.2865097791314675,-3.2265097791314674,8.733294638239181,0.4655555555555556,0.3244444444444444,-0.73,0.021991974382697545,0.06189931321785844,-0.6376012597468094
1590514046.5879438,0.28412392498186717,-3.2138141125271993,8.878247849963733,0.4602860958565031,0.3226115888969479,-0.7286253583393776,0.01598020189842466,0.06477507130254832,-0.6273512392625027
1590514046.5979438,0.2966621370122005,-3.183324274024401,8.876621370122006,0.44,0.31555555555555553,-0.7233333333333334,0.018538193998608864,0.05962862401590491,-0.6086746826772761
1590514046.6079438,0.30138704562804625,-3.1927740912560925,8.783430226867893,0.44,0.31555555555555553,-0.7233333333333334,0.013129834347205322,0.05495558378791495,-0.5914531606121434
1590514046.6179438,0.326609262125903,-3.210172213622291,8.773046310629516,0.44,0.31555555555555553,-0.7233333333333334,0.018183643973613602,0.05563236990731925,-0.5814409854586651
1590514046.6279438,0.3235664688312192,-3.1576748516234145,8.819458086039024,0.44,0.31555555555555553,-0.7233333333333334,0.016108827395141717,0.0565286799905203,-0.5690418068348254
1590514046.6379437,0.3,-3.126826865586653,8.806466418016683,0.4319497511918433,0.3140918739540725,-0.7178445273277719,0.0166954907634614,0.05709554844631003,-0.5599685391771763
1590514046.6479437,0.30851959966638864,-3.112779399499583,8.848519599666389,0.4155555555555556,0.3111111111111111,-0.7066666666666667,0.017169894864607477,0.05516769782878709,-0.5603640489523141
1590514046.6579437,0.3284359335583003,-3.1328119778527665,8.826256265766798,0.4155555555555556,0.3111111111111111,-0.7066666666666667,0.012748743025862324,0.05576849592542131,-0.5631754229683209
1590514046.6679437,0.34904809487927135,-3.1396826982930905,8.743807620482915,0.4155555555555556,0.3111111111111111,-0.7066666666666667,0.017245619038401938,0.05876641326711439,-0.5639249023037441
1590514046.6779437,0.2552326811211,-3.033953816322933,8.799186497444033,0.4155555555555556,0.3111111111111111,-0.7066666666666667,0.016362461737446838,0.053831239651785254,-0.5740180203937456
1590514046.6879437,0.2774130089899524,-3.09310135730654,8.880514366296493,0.4155555555555556,0.3111111111111111,-0.7066666666666667,0.016362461737446838,0.055444238612132477,-0.5796635167549609
1590514046.6979437,-0.15517049682643905,-13.986282775224335,-5.731221273801707,0.35,0.3411111111111111,-0.67,-1.1298036428091205,-0.6688922789117684,3.48063346111509
1590514046.7079437,-0.5844236299052774,-1.8160385656292286,-1.4267582882273344,0.35,0.3411111111111111,-0.67,-3.3537225691652557,-2.180347936820384,13.151274651918792
1590514046.7179437,-0.19481905264372745,-0.27713072725174354,0.0725627751306613,0.35,0.3411111111111111,-0.67,-4.332190345014913,-0.242961591045316,5.314025419316648
1590514046.7279437,0.07057344806392132,-0.43517701290719113,-0.11748740012292563,0.35,0.3411111111111111,-0.67,-4.376801225952295,1.0654418468862947,2.6051982384807717
1590514046.7379436,-0.1949632662611137,-0.5473104819840898,2.6046941974730933,0.3813275360058233,0.3400054333697291,-0.6751598294597827,-3.4178600460254924,0.2760175784043679,2.774199595443481
1590514046.7479436,-1.5474023351768937,-1.2310552190325694,6.726545518391713,0.4444444444444444,0.3377777777777778,-0.6855555555555556,-1.660244450959606,-1.5282539262775348,2.983422190127807
1590514046.7579436,0.07788194853200853,-1.0480856073270077,7.094807053893062,0.4444444444444444,0.3377777777777778,-0.6855555555555556,-1.0018935430332139,-1.9052304362617891,3.060012518525184
1590514046.7679436,-0.26416763678696153,-1.5680093131548312,8.228293364377183,0.4444444444444444,0.3377777777777778,-0.6855555555555556,1.3743426554168208,-1.6395679376106376,3.3477568777357307
1590514046.7779436,-0.6420941369078073,-1.7363976261127596,6.688401309730891,0.4444444444444444,0.3377777777777778,-0.6855555555555556,3.75206354970712,-0.935042198777877,3.6230287266299954
1590514046.7879436,0.03278615867422782,-1.889038154489897,7.3453019875571215,0.44172716817461627,0.34515324193874,-0.6739100858277206,5.010297671786202,-0.7903923041855276,3.723659700881135
1590514046.7979436,-1.7268573424944684,0.32896541283335257,4.5166826598346335,0.43666666666666665,0.3588888888888889,-0.6522222222222223,5.550981042585639,-0.4802458549080431,3.6439068015608647
1590514046.8079436,-1.7712005729951348,2.049689051347279,1.5534658796216254,0.43666666666666665,0.3588888888888889,-0.6522222222222223,3.375501915733301,-0.4967599576754874,3.141175088663568
1590514046.8179436,0.520127929544838,0.6689485986184445,-1.133026274599829,0.43666666666666665,0.3588888888888889,-0.6522222222222223,0.7379268431812186,-0.22581312682960403,2.6509377780570933
1590514046.8279436,-3.7244193611542,2.8919233144079155,0.2353110645924008,0.43666666666666665,0.3588888888888889,-0.6522222222222223,-0.11259926246664823,0.4472461734628819,2.066403787523468
1590514046.8379436,-16.16184756253671,8.962196804264995,2.5471946205629434,0.43666666666666665,0.3588888888888889,-0.6522222222222223,-1.0930982635522362,0.6546461729897701,0.4657718974870515
1590514046.8479435,-0.15604462180301107,-4.262440776346817,14.059962633774715,0.4777777777777778,0.16333333333333333,-0.6822222222222222,-0.40906779597611787,-0.5404749349373269,-0.9279326469469492
1590514046.8579435,0.039712518882175224,-0.7090757175226586,3.089938160876133,0.4777777777777778,0.16333333333333333,-0.6822222222222222,0.29969759582742767,0.010596722804907588,-0.7995890819728837
1590514046.8679435,-0.2559295593706725,-1.5303185010928142,5.752876353504513,0.4777777777777778,0.16333333333333333,-0.6822222222222222,-0.28185340639511824,0.3818654651250962,-0.7340730981816124
1590514046.8779435,-0.8286757990867579,-2.32310502283105,10.064748858447489,0.4777777777777778,0.16333333333333333,-0.6822222222222222,-0.6739740327835408,0.36632986634467746,-0.7234100853692821
1590514046.8879435,-0.3922626968177472,-1.7126269681774726,7.326334653581254,0.4759787719743235,0.15568755866865247,-0.6864948610054262,0.06353133157711073,-0.04586435515463949,-0.7382579833885222
1590514046.8979435,-0.4745107152078492,-2.5558880159344914,9.898662535502194,0.4688888888888889,0.12555555555555556,-0.7033333333333334,0.4261540019604141,0.22094805463295666,-0.6626471697816814
1590514046.9079435,-0.49862440254215035,-2.22091916592258,7.58776222490677,0.4688888888888889,0.12555555555555556,-0.7033333333333334,-0.0883676636942898,0.00542407427800512,-0.7537191231369609
1590514046.9179435,-1.340233772926378,-5.146361528190954,9.113693518540208,0.4688888888888889,0.12555555555555556,-0.7033333333333334,-0.07447435023891177,0.08100280293613281,-0.7997785229245976
1590514046.9279435,-5.967072915455285,-11.254893592278172,6.214731945575067,0.4688888888888889,0.12555555555555556,-0.7033333333333334,0.0072137670982025115,0.22075464377884,-1.2288728238256037
1590514046.9379435,-13.916799246881618,-18.32658507884208,6.313631442692398,0.4693206244606574,0.12651865798488535,-0.7033997541905285,-0.20251611072358303,0.2675356841051274,-2.1537371698310097
1590514046.9479434,2.177491573894393,-0.6130554590950873,9.781227249514862,0.4833333333333333,0.15777777777777774,-0.7055555555555556,0.3203891558226174,0.06133468197371152,-2.897237823642693
1590514046.9579434,0.9545047489823608,-1.7789416553595658,7.215549525101764,0.4833333333333333,0.15777777777777774,-0.7055555555555556,0.21468497060996736,0.19488276567235532,-2.8534016732768115
1590514046.9679434,0.1660053764655387,-2.3563168952041025,9.155978494137845,0.4833333333333333,0.15777777777777774,-0.7055555555555556,-0.09954403202497467,0.24767324375147418,-2.794681136693531
1590514046.9779434,-0.28907511504424777,-2.762627398230088,10.748481132743363,0.4833333333333333,0.15777777777777774,-0.7055555555555556,-0.04169287308799726,0.2799789380780133,-2.7658682271703925
1590514046.9879434,-0.09309366371681421,-2.5488294513274337,9.335039150442478,0.4833333333333333,0.15777777777777774,-0.7055555555555556,0.09629407776061165,0.23074415749353316,-2.7555030102052385
1590514046.9979434,-0.23729587004563327,-2.37,8.38756364262549,0.4488888888888889,0.2088888888888889,-0.7088888888888889,0.05169203603492633,0.24986984471530835,-2.703816116074741
1590514047.0079434,-0.32912630068173665,-2.5167949407965557,9.026113652673125,0.4488888888888889,0.2088888888888889,-0.7088888888888889,0.04702201826387048,0.20088224217135553,-2.662463872785837
1590514047.0179434,-0.2884572134800167,-3.938956969781368,9.755740147611753,0.4488888888888889,0.2088888888888889,-0.7088888888888889,0.10464412535001272,0.22309226917046926,-2.6242022788811092
1590514047.0279434,-0.23734995126027017,-8.494804344798776,8.762799053056677,0.4488888888888889,0.2088888888888889,-0.7088888888888889,0.0608410451198274,0.21592449240552988,-2.6130524039134264
1590514047.0379434,-0.14968304484785502,-6.890508232390478,8.722602214789076,0.4488888888888889,0.21959781624250824,-0.7035344252120792,0.04390890580865529,0.25397617600304967,-3.3803072238095693
1590514047.0479434,0.018080313014827022,-2.339721993410214,8.880401565074136,0.4488888888888889,0.2488888888888889,-0.6888888888888889,0.10062648898446744,0.34330408040863425,-3.6770249663843386
1590514047.0579433,-0.28432380329449025,-2.838722309241441,8.663740984904557,0.4488888888888889,0.2488888888888889,-0.6888888888888889,0.04729940058448038,0.23927746950857282,-3.584418598852245
1590514047.0679433,-1.0207105358280117,-3.5895479973148356,9.234079728729538,0.4488888888888889,0.2488888888888889,-0.6888888888888889,0.037849126282485684,0.308579481056534,-3.448177144331822
1590514047.0779433,-9.427922683295698,-21.085825478050094,8.62553999461352,0.4488888888888889,0.2488888888888889,-0.6888888888888889,-0.2022144314556203,0.1226570050699862,-0.6601008502039997
1590514047.0879433,2.2544664833726107,0.2132148468185389,5.504713930348259,0.438284382182654,0.2594933955951238,-0.6888888888888889,-0.005561980207426598,-0.38438039015598235,1.752288903771919
1590514047.0979433,-0.20627117191250088,-0.014845367894123274,5.567606802441198,0.37666666666666665,0.3211111111111111,-0.6888888888888889,0.47494103170166596,0.02407659442189411,0.843700574090697
1590514047.1079433,-0.32850785160803675,-0.8201693753000066,8.731379688678597,0.37666666666666665,0.3211111111111111,-0.6888888888888889,0.03805797370247832,-0.07945763117216831,0.32916684689596276
1590514047.1179433,0.5839229509364097,-4.20203375347148,9.460508438367869,0.37666666666666665,0.3211111111111111,-0.6888888888888889,-0.19842641492410448,-0.016733762110610208,-0.09760935297358145
1590514047.1279433,-0.04121118541551305,-2.922170635089662,8.945387400434466,0.37666666666666665,0.3211111111111111,-0.6888888888888889,-0.012204183385037232,0.09280727151110645,-0.39037370758058293
1590514047.1379433,0.1378245865180603,-3.3311112247245585,8.47782458651806,0.37786744719104953,0.3215113712859054,-0.6924912304620375,0.010942745720012569,0.04116705974039176,-0.5126152063330633
1590514047.1479433,0.2887353226327696,-4.001018528492945,8.626077237961866,0.38333333333333336,0.3233333333333333,-0.7088888888888889,-0.03344401632994991,0.04447500295884923,-0.647136096143728
1590514047.1579432,-0.24671901921802517,-5.444726750607466,8.670261541859952,0.38333333333333336,0.3233333333333333,-0.7088888888888889,0.004482622957777738,0.07302653057967592,-0.7270581620925686
1590514047.1679432,-0.6999112773917692,-7.593238909673971,8.893931587386424,0.38333333333333336,0.3233333333333333,-0.7088888888888889,-0.013319834818344579,0.05074988672881017,-0.43685652588878476
1590514047.1779432,1.2952394441475146,-2.100970069481561,8.871514163548904,0.38333333333333336,0.3233333333333333,-0.7088888888888889,0.054335169410243606,-0.047879697749011144,0.1777443558986308
1590514047.1879432,-0.09256107649037666,-3.5248149782165115,8.157350135112777,0.38333333333333336,0.32421539611635014,-0.7103001893417158,0.04930659810438357,0.018957523685019337,0.01989050193493592
1590514047.1979432,-0.42012291308003363,-4.525303078832526,9.044701125035033,0.38333333333333336,0.3288888888888889,-0.7177777777777777,-0.05592183727435238,-0.01834713438285572,-0.050217980635404814
1590514047.2079432,-0.051156209900722636,-4.238843790099278,8.671500641588437,0.38333333333333336,0.3288888888888889,-0.7177777777777777,-0.00545415391248228,0.0037327084546181152,0.0007124619772758307
1590514047.2179432,-0.06,-4.23,8.53,0.38333333333333336,0.3288888888888889,-0.7177777777777777,-0.00545415391248228,-0.001090830782496456,-0.002181661564992912
1590514047.2279432,-0.02524264731535429,-4.181339706241496,8.634272058053936,0.38333333333333336,0.3288888888888889,-0.7177777777777777,0.002128724132817195,-0.00033254297796650846,-0.0006650859559330169
1590514047.2379432,-0.04660243832535991,-4.123397561674641,8.82640975330144,0.38333333333333336,0.3288888888888889,-0.7177777777777777,0.010245401885249954,0.0015970826575892247,-0.0015970826575892247
1590514047.2479432,-0.03,-4.247782073536373,8.793715875019727,0.38333333333333336,0.3566666666666667,-0.7088888888888889,-0.003433784511478508,0.001050507741499171,-8.064608199456993e-05
1590514047.2579432,-0.03,-4.198141470727474,8.65306750039451,0.38333333333333336,0.3566666666666667,-0.7088888888888889,-0.0070437510185203936,0.0001480161147386996,-0.0018856293355155127
1590514047.2679431,-0.037316511118792486,-4.213291277796981,8.629392211084225,0.38333333333333336,0.3566666666666667,-0.7088888888888889,0.0008781696828324389,0.0012371923963018624,-0.003777876674764198
1590514047.2779431,-0.021207512386219613,-4.173018780965549,8.68577370664823,0.38333333333333336,0.3566666666666667,-0.7088888888888889,0.006149827190638505,0.002115801980936207,-0.0002634383362268202
1590514047.2879431,-0.03206361544680057,-4.17,8.738254461787202,0.38333333333333336,0.3566666666666667,-0.7088888888888889,0.008518889156614206,0.0008657252572359319,-0.00065796815387849
1590514047.297943,-0.04,-4.1568698016634675,8.809390595009598,0.3658264022179569,0.3530193893509632,-0.7052416115731855,0.004804488458447483,0.0007161412262886602,-0.00037468955620779574
1590514047.307943,-0.04560535213294008,-4.201719060978827,8.645351173776467,0.3566666666666667,0.3511111111111111,-0.7033333333333334,-0.012930175484236759,-0.0015424859421100641,-0.002181661564992912
1590514047.317943,-0.026065730390751888,-4.260901404413872,8.572131460781504,0.3566666666666667,0.3511111111111111,-0.7033333333333334,-0.00951788157175236,0.0025124958364207326,-0.0025124958364207326
1590514047.327943,-0.054791316157541604,-4.207395658078771,8.650417367684918,0.3566666666666667,0.3511111111111111,-0.7033333333333334,0.004931502397150378,0.004221278313194686,-0.003653099046030132
1590514047.337943,-0.02078324853546308,-4.190391624267732,8.718433502929074,0.3566666666666667,0.3511111111111111,-0.7033333333333334,0.008641207098688809,0.003293852137810078,0.0009840318308929072
1590514047.347943,-0.04345535993332639,-4.181727679966663,8.813089280133347,0.3688888888888889,0.34444444444444444,-0.7033333333333334,0.007744409903535575,0.0,-0.001090830782496456
1590514047.357943,-0.05809787992867049,-4.19190212007133,8.769221319595799,0.3688888888888889,0.34444444444444444,-0.7033333333333334,-0.0025966397901550273,0.0,-0.0013674829326045328
1590514047.367943,-0.03178753129290156,-4.223575062585803,8.604637406121295,0.3688888888888889,0.34444444444444444,-0.7033333333333334,-0.007556709764588022,0.00019498941589727087,-0.005064175080687738
1590514047.377943,-0.04,-4.239215811877505,8.584705128734967,0.3688888888888889,0.34444444444444444,-0.7033333333333334,-0.0019535504867835445,0.001062316897720285,-0.003186950693160855
1590514047.387943,-0.04,-4.213214861346448,8.740710831921312,0.3688888888888889,0.34444444444444444,-0.7033333333333334,0.0056098194368018345,0.0001168956572721126,-0.00035068697181633813
1590514047.397943,-0.03,-4.154578961528115,8.791144740382029,0.3688888888888889,0.34444444444444444,-0.6944444444444444,0.00579575386696866,-0.00096595897782811,0.001090830782496456
1590514047.407943,-0.03,-4.18278921172989,8.798197302932472,0.3688888888888889,0.34444444444444444,-0.6944444444444444,0.001179862471665104,-0.00019664374527751725,0.001090830782496456
1590514047.417943,-0.02,-4.21940493604891,8.582380255804358,0.3688888888888889,0.34444444444444444,-0.6944444444444444,-0.005259419689861527,-0.0009610079674159543,-0.0008960965598757035
1590514047.427943,-0.02,-4.211538952027306,8.613844191890776,0.3688888888888889,0.34444444444444444,-0.6944444444444444,-0.0026852824382440606,0.0007550835336623569,0.001678040691741763
1590514047.437943,-0.05685693996831813,-4.219214234992079,8.675285409952476,0.3688888888888889,0.34444444444444444,-0.6944444444444444,0.004854158251568527,-0.001924520567458447,-0.0008336897849619911
1590514047.447943,-0.033741261874887976,-4.193741261874888,8.767529127083707,0.3688888888888889,0.33180134831013125,-0.7148679074306427,0.008318537898120827,-0.00027207224123388047,-0.001090830782496456
1590514047.457943,-0.05791469415358783,-4.18,8.749573470767938,0.3688888888888889,0.33,-0.7177777777777777,-0.00045494316163724306,0.001090830782496456,-0.00011373579040931076
1590514047.467943,-0.03909454368384633,-4.186338194213075,8.655472718419231,0.3688888888888889,0.33,-0.7177777777777777,-0.004560863054359077,0.0009920608203098295,-0.0009920608203098295
1590514047.477943,-0.03242016491754123,-4.246369752623688,8.624520989505246,0.3688888888888889,0.33,-0.7177777777777777,-0.005620988058208546,-0.000263999039077197,0.0001319995195385985
1590514047.487943,-0.048140929535232385,-4.2227886056971515,8.718845577211395,0.3688888888888889,0.33,-0.7177777777777777,0.000381054831066977,-0.001978868436013061,0.0009894342180065306
1590514047.497943,-0.03943436370935367,-4.189717181854677,8.78,0.3644444444444445,0.3511111111111111,-0.7033333333333334,0.009663223673084574,0.002089109543362793,0.0020582588694860867
1590514047.507943,-0.022596547571256523,-4.181298273785628,8.78,0.3644444444444445,0.3511111111111111,-0.7033333333333334,0.00507142163472158,-0.0006659716796550024,-0.0016151827612043068
1590514047.517943,-0.031186062311947975,-4.191779093467923,8.688220906532077,0.3644444444444445,0.3511111111111111,-0.7033333333333334,-0.000194068991974765,-0.0030784233555146033,-0.000194068991974765
1590514047.527943,-0.04746986314665631,-4.216204794719984,8.663795205280016,0.3644444444444445,0.3511111111111111,-0.7033333333333334,-0.002858499672955966,-0.00041399267453340197,-0.002858499672955966
1590514047.537943,-0.03879827986909298,-4.214399139934546,8.665600860065453,0.3644444444444445,0.3511111111111111,-0.7033333333333334,-0.004494410461059729,-0.0006109590567851805,-0.002050574233919007
1590514047.5479429,-0.035857848222065475,-4.21,8.705147089332392,0.3755092688639015,0.3472058789630674,-0.7117946696540945,0.0009357672473388748,-0.00045183866651434055,0.00018715344946777486
1590514047.5579429,-0.05412378195638244,-4.195876218043618,8.72293810902181,0.38333333333333336,0.34444444444444444,-0.7177777777777777,0.0046838211063177804,-0.0007703328061644991,-0.0004498348298325422
1590514047.5679429,-0.03091772533742437,-4.190917725337425,8.650458862668712,0.38333333333333336,0.34444444444444444,-0.7177777777777777,-0.0013411015444813185,0.0031223298902984505,-0.0010407766300994834
1590514047.5779428,-0.04537758778204885,-4.205377587782049,8.657688793891024,0.38333333333333336,0.34444444444444444,-0.7177777777777777,-0.005284417310796528,0.0007563404305093247,-0.0002521134768364414
1590514047.5879428,-0.041951996841155234,-4.218048003158844,8.676096006317689,0.38333333333333336,0.34444444444444444,-0.7177777777777777,-0.004789182778319419,-0.0026337028749889753,0.0026337028749889753
1590514047.5979428,-0.032971562744586486,-4.205943125489173,8.729199060787895,0.36459083398556397,0.34444444444444444,-0.7177777777777777,0.0010034618677491535,0.001327609079140613,0.0002057580630693812
1590514047.6079428,-0.03,-4.170376623849205,8.769748917433862,0.3566666666666667,0.34444444444444444,-0.7177777777777777,0.00758103775905719,4.1083288813501245e-05,-0.0021679671353884112
1590514047.6179428,-0.0383164397528939,-4.17,8.711784921729741,0.3566666666666667,0.34444444444444444,-0.7177777777777777,0.005821449780828414,-0.0009071828483233886,-0.0012744787166695233
1590514047.6279428,-0.03923016465595159,-4.171283058906747,8.671283058906747,0.3566666666666667,0.34444444444444444,-0.7177777777777777,-0.0022936295770918133,-0.0022096535680176375,-0.0020976855559187357
1590514047.6379428,-0.014506425118874528,-4.212489291468542,8.712489291468543,0.3566666666666667,0.34444444444444444,-0.7177777777777777,-0.005889551729820924,-0.0031086341061999155,0.0005992560586280979
1590514047.6479428,-0.030293853136176354,-4.209706146863824,8.72088155940853,0.3644444444444445,0.34444444444444444,-0.7033333333333334,-0.006192386243857017,0.001058776377849027,-0.002117552755698054
1590514047.6579428,-0.039066153556564114,-4.200933846443436,8.747198460669692,0.3644444444444445,0.34444444444444444,-0.7033333333333334,0.004333618621195111,0.00010186684466247011,-0.00020373368932494022
1590514047.6679428,-0.04000835679099226,-4.199991643209008,8.68,0.3644444444444445,0.34444444444444444,-0.7033333333333334,0.005451874951267969,0.0010921981592250428,-0.0032715807630036434
1590514047.6779428,-0.05845619282195637,-4.181543807178043,8.68,0.3644444444444445,0.34444444444444444,-0.7033333333333334,0.0004210080980122455,0.004110718271178477,-0.001259234021701354
1590514047.6879427,-0.027107003016881702,-4.212892996983118,8.70466974773734,0.3644444444444445,0.34444444444444444,-0.7033333333333334,-0.0008970173409437126,0.0007752537662109736,-0.001090830782496456
1590514047.6979427,-0.027208305654959606,-4.22,8.73162491696488,0.3644444444444445,0.34924998154775083,-0.7073379475860887,-0.0034497432919184216,-0.0007863041698073218,0.0004817775571181876
1590514047.7079427,-0.03,-4.203081408956155,8.723081408956157,0.3644444444444445,0.3511111111111111,-0.7088888888888889,-0.0019026138090398868,0.0007547012082129972,0.0004756534522599717
1590514047.7179427,-0.036742168674698795,-4.169773493975904,8.689773493975904,0.3644444444444445,0.3511111111111111,-0.7088888888888889,0.002941826052457912,0.002181661564992912,-0.000735456513114478
1590514047.7279427,-0.027143648814471757,-4.172856351185528,8.699284526778293,0.3644444444444445,0.3511111111111111,-0.7088888888888889,0.0015585024052340215,7.804602142905993e-05,-0.001090830782496456
1590514047.7379427,-0.027027408540171743,-4.208109634160687,8.71,0.3644444444444445,0.3511111111111111,-0.7088888888888889,-0.0038328567783989104,-0.0026239734938560202,0.0004423119288631081
1590514047.7479427,-0.03980594486369937,-4.22,8.7296118897274,0.36880264216164416,0.33040967195441245,-0.6947247463079897,-0.002245165959846394,-0.0022028296966107395,-0.0010484945192608009
1590514047.7579427,-0.04,-4.22,8.720809325710219,0.3688888888888889,0.33,-0.6944444444444444,0.0008259795631650438,-0.00017656747955427507,0.0009142633029421809
1590514047.7679427,-0.058825871135793975,-4.182348257728412,8.635283579888927,0.3688888888888889,0.33,-0.6944444444444444,0.004171206743831794,0.0010267919871117792,0.001090830782496456
1590514047.7779427,-0.040387760628215544,-4.18,8.730387760628217,0.3688888888888889,0.33,-0.6944444444444444,0.004257577822611405,0.0031667470401149484,0.0011119798439713398
1590514047.7879426,-0.05553100460330355,-4.18,8.745531004603304,0.3688888888888889,0.33,-0.6944444444444444,0.00012789865389140672,-0.000962932128605049,0.0019379156777153393
1590514047.7979426,-0.05080289927207118,-4.207591302183786,8.722408697816213,0.3688888888888889,0.3371533005661669,-0.7097729456576591,-0.006107071074369118,-0.0011784135066183793,-0.0008280826101306859
1590514047.8079426,-0.03175615860582605,-4.200878079302913,8.683512317211651,0.3688888888888889,0.3377777777777778,-0.7111111111111111,-0.001569748749041735,-9.578359330905607e-05,-9.578359330905607e-05
1590514047.8179426,-0.03,-4.2,8.64031206116399,0.3688888888888889,0.3377777777777778,-0.7111111111111111,0.004320772389523332,0.002164641268807915,0.0
1590514047.8279426,-0.04,-4.180465695247858,8.70077615874643,0.3688888888888889,0.3377777777777778,-0.7111111111111111,0.004346389972931621,0.0032386260333809626,-0.0032555591904351654
1590514047.8379426,-0.04,-4.203499487442337,8.739165812403895,0.3688888888888889,0.3377777777777778,-0.7111111111111111,0.0035088576541528107,0.0015635613958233413,-0.002418026871656355
1590514047.8479426,-0.021944344488425097,-4.203981448162809,8.743981448162808,0.35752051319641576,0.3417901456692389,-0.7010801913824584,-1.0118457540249978e-05,0.0017473529435023795,-0.0015251394039869884
1590514047.8579426,-0.014178824154351084,-4.208357648308702,8.731642351691299,0.35,0.34444444444444444,-0.6944444444444444,-0.0012699835605517352,0.0012699835605517352,-0.0006349917802758676
1590514047.8679426,-0.028630893062476046,-4.215684553468762,8.67684553468762,0.35,0.34444444444444444,-0.6944444444444444,0.0018829687665967952,0.0,-0.0014122265749475966
1590514047.8779426,-0.048211278696468594,-4.177154885214126,8.661056393482342,0.35,0.34444444444444444,-0.6944444444444444,0.004363323129985824,-0.0008957115565765314,0.0003103538788167574
1590514047.8879426,-0.04240990753806946,-4.17,8.730720739695444,0.35,0.34444444444444444,-0.6944444444444444,0.00353537248003901,-0.0027467320823900843,-0.0013930211673439865
1590514047.8979425,-0.04829146958081879,-4.186582939161638,8.758291469580819,0.3619765671722939,0.3389167980572319,-0.7018146396273945,-0.000345343752866681,-0.003272492347489368,-0.002181661564992912
1590514047.9079425,-0.04101971944493414,-4.216940841665197,8.742039438889869,0.3644444444444445,0.3377777777777778,-0.7033333333333334,-0.006968410661448575,0.0016254908849707315,-0.003161258211484932
1590514047.9179425,-0.010089784320303097,-4.212522446080076,8.665224460800758,0.3644444444444445,0.3377777777777778,-0.7033333333333334,-0.0019260932819339218,0.0005503123662668351,-0.0008254685494002525
1590514047.9279425,-0.03652762119503946,-4.21,8.71305524239008,0.3644444444444445,0.3377777777777778,-0.7033333333333334,0.002988409020818927,0.0,-0.0009961363402729755
1590514047.9379425,-0.05412127329752334,-4.202939363351239,8.748242546595046,0.3644444444444445,0.3377777777777778,-0.7033333333333334,0.004042688327538553,0.0023105879401475547,-0.002631222742594826
1590514047.9479425,-0.04180101515635538,-4.190900507578178,8.787298477265466,0.3684886632985877,0.3438441060589926,-0.7225433728905137,0.0013855211983407226,0.0022798917036076674,-0.0012872910597259667
1590514047.9579425,-0.02774174482447545,-4.202258255175525,8.722579596534615,0.3688888888888889,0.34444444444444444,-0.7244444444444444,-0.0009149215302773457,0.0015130774607349782,-0.001090830782496456
1590514047.9679425,-0.033744862599726005,-4.216872431299863,8.645637843500685,0.3688888888888889,0.34444444444444444,-0.7244444444444444,0.0008170022800001661,-0.00040850114000008306,-0.0018404967437447256
1590514047.9779425,-0.04,-4.210856049864905,8.64828790027019,0.3688888888888889,0.34444444444444444,-0.7244444444444444,0.002181661564992912,-9.338055439899037e-05,-0.002181661564992912
1590514047.9879425,-0.04,-4.18074399199562,8.745082026014234,0.3688888888888889,0.34444444444444444,-0.7244444444444444,0.0029794954175964158,0.0,-0.0005859938597859045
1590514047.9979424,-0.04,-4.188142838439382,8.773952387186872,0.37762432961896175,0.34847618631986266,-0.7116772618389534,0.0019531079040535086,0.001319384443435859,0.001979076665153789
1590514048.0079424,-0.03219405136268344,-4.184388102725367,8.74658215408805,0.38333333333333336,0.3511111111111111,-0.7033333333333334,-0.001463659935554895,0.004736152283044262,0.0007180016294380171
1590514048.0179424,-0.021010763109569473,-4.206967710671291,8.641118394205265,0.38333333333333336,0.3511111111111111,-0.7033333333333334,-0.00414280882723978,0.0025124330191119786,-0.0009805736311234337
1590514048.0279424,-0.03697581906762616,-4.193024180932374,8.697903276270505,0.38333333333333336,0.3511111111111111,-0.7033333333333334,-0.0015856612304272887,0.00032988696528722205,-0.00016494348264361103
1590514048.0379424,-0.033213396870719426,-4.176426793741439,8.730359809387842,0.38333333333333336,0.3511111111111111,-0.7033333333333334,0.001130079898105352,0.0,-0.0014806071204012052
1590514048.0479424,-0.0458877858758482,-4.177943892937924,8.771775571751697,0.36832820222836565,0.34051925386054566,-0.6918588213118874,0.003048205859947294,0.0008665442949543818,-0.00044857297508414835
1590514048.0579424,-0.0428114211445514,-4.18,8.772811421144551,0.3644444444444445,0.3377777777777778,-0.6888888888888889,0.00013588310831877826,0.002659135402081751,-0.0007841523097926475
1590514048.0679424,-0.04,-4.190671654545109,8.695298418184235,0.3644444444444445,0.3377777777777778,-0.6888888888888889,-0.002254927710293798,0.002108395419692026,-0.001090830782496456
1590514048.0779424,-0.04,-4.2,8.661944495497151,0.3644444444444445,0.3377777777777778,-0.6888888888888889,-0.0004848092259204062,-0.000303010778288025,-0.001090830782496456
1590514048.0879424,-0.033548717536706366,-4.1870974350734125,8.699353847389881,0.3644444444444445,0.3377777777777778,-0.6888888888888889,0.0017945565322504816,-0.001090830782496456,-0.0017945565322504816
1590514048.0979424,-0.04552854629777707,-4.195528546297777,8.75658563889333,0.3644444444444445,0.3481301419762958,-0.7164951934182704,0.0030286123804447425,-0.00024387996704462581,-0.00048775993408925163
1590514048.1079423,-0.03778102113229973,-4.2,8.7455620422646,0.3644444444444445,0.3511111111111111,-0.7244444444444444,0.0019396085195332537,0.0006664419139780571,0.0
1590514048.1179423,-0.03,-4.2,8.662026933701657,0.3644444444444445,0.3511111111111111,-0.7244444444444444,-0.0013807396541336934,-0.0013807396541336934,0.0
1590514048.1279423,-0.03,-4.2081906955320125,8.64,0.3644444444444445,0.3511111111111111,-0.7244444444444444,-0.0012881952833553264,-0.0012881952833553264,0.0
1590514048.1379423,-0.03,-4.19066753629764,8.710885700241985,0.3644444444444445,0.3511111111111111,-0.7244444444444444,-0.0017937789994307552,-0.001090830782496456,0.0
1590514048.1479423,-0.03731093764813703,-4.187310937648137,8.757310937648137,0.3676937500658387,0.3462371526790198,-0.6984499994732906,0.0010083367692071336,-0.001090830782496456,0.0
1590514048.1579423,-0.04,-4.198680548343546,8.76,0.3688888888888889,0.34444444444444444,-0.6888888888888889,0.0002878596965752928,0.0008029710859211632,-0.0009469009342088096
1590514048.1679423,-0.024582470669427193,-4.207708764665286,8.659786059351278,0.3688888888888889,0.34444444444444444,-0.6888888888888889,0.0,0.001931726561687996,0.003113648113461244
1590514048.1779423,-0.011910877907432062,-4.193821755814865,8.67044561046284,0.3688888888888889,0.34444444444444444,-0.6888888888888889,0.0,0.002181661564992912,0.0008337777772077226
1590514048.1879423,-0.02300980723706459,-4.196504903618533,8.699514710855597,0.3688888888888889,0.34444444444444444,-0.6888888888888889,0.0,0.0007625117441393894,-0.0007095749104267612
1590514048.1979423,-0.045017372281559644,-4.1849826277184405,8.74003474456312,0.36555169504854235,0.33359856446331804,-0.7105806488511417,0.0008190705978467148,-0.0016381411956934296,-0.00027176018464974115
1590514048.2079422,-0.02530044778275314,-4.188233184072416,8.725300447782754,0.3644444444444445,0.33,-0.7177777777777777,-0.0007053713423336417,-0.0003854594401628143,0.0
1590514048.2179422,-0.03542892812555734,-4.197714464062779,8.642855359372213,0.3644444444444445,0.33,-0.7177777777777777,-0.001090830782496456,0.001683034974028329,-0.001683034974028329
1590514048.2279422,-0.04,-4.2,8.660626014870523,0.3644444444444445,0.33,-0.7177777777777777,-0.003306636162042767,-0.0007727456077355034,-0.001443059771810808
1590514048.2379422,-0.03188641587032781,-4.2,8.704340752389017,0.3644444444444445,0.33,-0.7177777777777777,-0.0034782683974837096,-0.0012966068324907977,-0.0006483034162453989
1590514048.2479422,-0.021051477331632044,-4.198948522668368,8.743154431994896,0.3629256438543093,0.33151880059013517,-0.7177777777777777,-0.0018375664128604718,0.00022939676808829336,0.00011469838404414668
1590514048.2579422,-0.025915251042081228,-4.177745753126244,8.765915251042081,0.35,0.34444444444444444,-0.7177777777777777,0.0015364077727032675,0.0012905075845792888,-0.00069147717833079
1590514048.2679422,-0.030873670845897476,-4.170873670845897,8.705631645770513,0.35,0.34444444444444444,-0.7177777777777777,0.0015885948211209497,0.0011861334877439245,-0.0014932921158734814
1590514048.2779422,-0.04,-4.190994853273137,8.670994853273138,0.35,0.34444444444444444,-0.7177777777777777,0.0004911545625279302,0.0009823091250558604,0.0005996762199685258
1590514048.2879422,-0.04454545454545455,-4.1909090909090905,8.693636363636363,0.35,0.34444444444444444,-0.7177777777777777,-0.0014874965215860765,0.0004958321738620254,0.001090830782496456
1590514048.2979422,-0.05958296243546378,-4.194374443653196,8.724374443653197,0.36277728324728503,0.3412501236326232,-0.7039357209265523,-0.002227153306278259,-0.0009998472999257618,4.549174128534706e-05
1590514048.3079422,-0.04366293731131238,-4.1902472029834845,8.753168531344343,0.37666666666666665,0.3377777777777778,-0.6888888888888889,-0.00037259881496247264,-0.0018360284124214012,-0.00037259881496247264
1590514048.3179421,-0.035553722983884824,-4.19110744596777,8.698909047177267,0.37666666666666665,0.3377777777777778,-0.6888888888888889,-0.0012116343976559267,-0.0023024651801523827,0.0012116343976559267
1590514048.3279421,-0.02903773971200437,-4.194518869856003,8.655481130143999,0.37666666666666665,0.3377777777777778,-0.6888888888888889,-0.003975357210175527,-0.0020766952507009578,0.0009858644682045018
1590514048.3379421,-0.037042418004394215,-4.195680806001465,8.688404030007325,0.37666666666666665,0.3377777777777778,-0.6888888888888889,-0.00545415391248228,0.00014852882866121277,0.0006196798055788344
1590514048.347942,-0.03787319954197553,-4.193936599770988,8.73425360091605,0.37666666666666665,0.3377777777777778,-0.6976471336641288,-0.003469910827561498,-0.0008934123024243259,0.0017522451441367166
1590514048.357942,-0.03,-4.175557972645213,8.757221013677393,0.37666666666666665,0.3377777777777778,-0.7033333333333334,0.0025444808350843745,0.00018140963504573128,0.0013939711649800309
1590514048.367942,-0.04511855429958561,-4.1926778314493784,8.684407228502073,0.37666666666666665,0.3377777777777778,-0.7033333333333334,0.004363323129985824,0.0019154200033380626,-0.0005583476591867571
1590514048.377942,-0.019774649218122553,-4.184887324609061,8.675112675390938,0.37666666666666665,0.3377777777777778,-0.7033333333333334,0.0010662488255232991,0.0030059301411085432,-0.001090830782496456
1590514048.387942,-0.03100232635427052,-4.195751744765703,8.70100232635427,0.37666666666666665,0.3377777777777778,-0.7033333333333334,-0.0022909984091274856,0.0015542435406437542,0.0012001676266310296
1590514048.397942,-0.05,-4.205178448991376,8.72964310201725,0.3670235646494172,0.3377777777777778,-0.71351216324043,-0.0027854742521104155,0.0005259496259584695,0.003272492347489368
1590514048.407942,-0.03681275090804818,-4.191208500605366,8.735604250302684,0.3566666666666667,0.3377777777777778,-0.7244444444444444,0.0003476749420984928,0.00013182696609982333,0.0018339866228944193
1590514048.417942,-0.03253614055897398,-4.185014456223589,8.714956631329231,0.3566666666666667,0.3377777777777778,-0.7244444444444444,0.001634669244375666,3.1538587380356385e-06,0.0
1590514048.427942,-0.05212536674984233,-4.2,8.699791055416929,0.3566666666666667,0.3377777777777778,-0.7244444444444444,-0.0006499400058368886,0.0006727323241418138,0.0012998800116737772
1590514048.437942,-0.034766238263814066,-4.205233761736186,8.714766238263815,0.3566666666666667,0.3377777777777778,-0.7244444444444444,-0.001090830782496456,5.0998899520285964e-05,0.00103983188297617
1590514048.447942,-0.03363194077207826,-4.199104177683765,8.713631940772078,0.3542453728186145,0.34463811034725894,-0.7220231505963922,-0.001090830782496456,0.0002984642236190726,0.0
1590514048.457942,-0.04,-4.183240712858277,8.716759287141723,0.35,0.3566666666666667,-0.7177777777777777,-0.001090830782496456,-0.001797844651104578,-0.000707013868608122
1590514048.467942,-0.04,-4.186327642726383,8.684293499084678,0.35,0.3566666666666667,-0.7177777777777777,-0.0006902387466577898,-0.0012695321682960371,-0.0013804774933155795
1590514048.477942,-0.04,-4.184849555414417,8.654548666243253,0.35,0.3566666666666667,-0.7177777777777777,-0.0010580088654937442,0.0011236526994991677,0.0005290044327468721
1590514048.487942,-0.03491012598176164,-4.19,8.70053924410943,0.35,0.3566666666666667,-0.7177777777777777,-0.0010712233133682448,0.0005552191258123336,-1.960746912821115e-05
1590514048.497942,-0.035146134333296566,-4.195146134333297,8.735146134333297,0.3597204759628935,0.34294364177787584,-0.7212085339999754,-0.0005613561741621775,0.001090830782496456,-0.001090830782496456
1590514048.507942,-0.026954745585765515,-4.2,8.726954745585767,0.3688888888888889,0.33,-0.7244444444444444,-0.0018023390365236936,0.0018023390365236936,-0.00037932252846921834
1590514048.517942,-0.02,-4.193776650458201,8.688883252291005,0.3688888888888889,0.33,-0.7244444444444444,-0.002181661564992912,0.0028605236900358837,0.0006788621250429717
1590514048.527942,-0.040007758553805575,-4.19,8.703346264256343,0.3688888888888889,0.33,-0.7244444444444444,-0.0014541589343513156,-0.000365020805718614,0.001090830782496456
1590514048.537942,-0.046152654779397166,-4.182305309558795,8.731542035661809,0.3688888888888889,0.33,-0.7244444444444444,-0.0006711505227440369,-0.002181661564992912,0.001090830782496456
1590514048.547942,-0.04060045272229062,-4.171200905444581,8.748198641833127,0.3688888888888889,0.33,-0.7244444444444444,-6.549923129083989e-05,-0.002181661564992912,0.001090830782496456
1590514048.557942,-0.04,-4.2,8.748007509974185,0.3688888888888889,0.34444444444444444,-0.6944444444444444,-0.0026184034835423026,-0.0028357504289399775,0.001090830782496456
1590514048.567942,-0.03432795001768242,-4.2,8.686263350229872,0.3688888888888889,0.34444444444444444,-0.6944444444444444,-0.002653767675432319,-0.00032548754882176447,0.0004721061104394069
1590514048.577942,-0.018383855795513313,-4.194191927897757,8.682272648920192,0.3688888888888889,0.34444444444444444,-0.6944444444444444,-0.0015480991813843176,0.0023579555497136454,-0.0019006871508257834
1590514048.587942,-0.019382883391693966,-4.199382883391694,8.72,0.3688888888888889,0.34444444444444444,-0.6944444444444444,-0.0005790738808847296,0.002248978544265915,-0.001737221642654189
1590514048.5979419,-0.027303262767564597,-4.21,8.728090211697307,0.3688888888888889,0.34444444444444444,-0.6944444444444444,-0.00029416839854448364,0.0013849991810409397,0.00029416839854448364
1590514048.6079419,-0.023882033563672262,-4.211941016781836,8.75,0.3688888888888889,0.34444444444444444,-0.6944444444444444,-0.001090830782496456,0.0015464653085021942,0.0013025628679933618
1590514048.6179419,-0.035975945697772814,-4.211951891395546,8.709759456977729,0.3688888888888889,0.34444444444444444,-0.6944444444444444,0.0011039503691568982,-0.0006518745521657851,0.001742705334662241
1590514048.6279418,-0.03360312885961301,-4.196396871140387,8.657206257719226,0.3688888888888889,0.34444444444444444,-0.6944444444444444,0.0031842019679756573,0.0,0.0006977903951597337
1590514048.6379418,-0.04,-4.19,8.693126441479578,0.3688888888888889,0.34444444444444444,-0.6944444444444444,0.0019317319243473575,0.0,0.0
1590514048.6479418,-0.04,-4.19,8.729861617960472,0.3688888888888889,0.34444444444444444,-0.6944444444444444,0.0032674606345405918,0.0,0.0
1590514048.6579418,-0.03,-4.205809649122807,8.754190350877193,0.3688888888888889,0.34444444444444444,-0.7033333333333334,-0.0015479271551267692,0.0015479271551267692,-0.0013712891178909396
1590514048.6679418,-0.03555614286793023,-4.2055561428679304,8.693326285584838,0.3688888888888889,0.34444444444444444,-0.7033333333333334,-0.00036341806330698195,0.0015755803977642686,-0.0014542488458034381
