time,acc_x,acc_y,acc_z,mag_x,mag_y,mag_z,gyr_x,gyr_y,gyr_z
1590514078.799579,-0.43,-4.04,8.76,0.4622222222222222,0.15444444444444444,-0.64,-0.01090830782496456,0.02181661564992912,0.003272492347489368
1590514078.809579,-0.5134060941658763,-4.07849512038425,8.715089026218374,0.4622222222222222,0.15444444444444444,-0.64,-0.01790691820680579,0.025315920840849736,0.003272492347489368
1590514078.819579,-0.5524708179119047,-4.069883271647618,8.599649814942856,0.4622222222222222,0.15444444444444444,-0.64,-0.019352696573314516,0.024806850485796797,0.004093798706360901
1590514078.8295789,-0.5609177244087298,-4.04908227559127,8.62458862204365,0.4622222222222222,0.15444444444444444,-0.64,-0.014375836851490367,0.016257173806016035,0.0067452011019569
1590514078.8395789,-0.5512470952749806,-4.082194035631294,8.716882261812549,0.4585758240812462,0.161216326706257,-0.647292796281952,-0.006305652534527828,0.0052148217520313735,0.014863519980553954
1590514078.8495789,-0.5212302721511123,-4.0861513607555615,8.752460544302224,0.4544444444444444,0.1688888888888889,-0.6555555555555556,0.00943208721835509,-0.012436175819188188,0.025643131286602408
1590514078.8595788,-0.4772686976869769,-4.037268697686977,8.65599113491135,0.4544444444444444,0.1688888888888889,-0.6555555555555556,0.011840560223748712,-0.02163881936272715,0.02617993877991494
1590514078.8695788,-0.48247060890958615,-4.073647131183551,8.727294262367103,0.4544444444444444,0.1688888888888889,-0.6555555555555556,0.003837144162430332,-0.016105784394900007,0.02617993877991494
1590514078.8795788,-0.5092056905749852,-4.125607587433313,8.895234143449912,0.4544444444444444,0.1688888888888889,-0.6555555555555556,-0.0024875080143828493,-0.007809106911801837,0.027576616011801332
1590514078.8895788,-0.49571280249181376,-4.115712802491814,8.935712802491814,0.45916695507103616,0.16416637826229713,-0.6413880236757803,0.009311788417198503,-0.011415129011544956,0.021738294679282656
1590514078.8995788,-0.44531848621710013,-4.0653184862171,8.83329621554275,0.4622222222222222,0.16111111111111112,-0.6322222222222222,0.016507500949494238,-0.0105426731027051,0.00988695995635084
1590514078.9095788,-0.4951858483133997,-4.0875929241566995,8.7648141516866,0.4622222222222222,0.16111111111111112,-0.6322222222222222,0.004322777317759536,-0.0017910207626765668,0.003710111085101938
1590514078.9195788,-0.5184245839402115,-4.09,8.778424583940211,0.4622222222222222,0.16111111111111112,-0.6322222222222222,0.006287207844990258,-0.002095735948330086,-0.0007471283158451527
1590514078.9295788,-0.49823976575257617,-4.05373294292096,8.692959063010305,0.4622222222222222,0.16111111111111112,-0.6322222222222222,0.008918658030121089,-0.0005992126748980099,-0.0026732796725913582
1590514078.9395788,-0.48090394351185717,-4.030903943511857,8.650903943511857,0.4622222222222222,0.15504707345234922,-0.6534463540278888,0.004856347834171705,-0.0009922258416592796,0.0006964110191477503
1590514078.9495788,-0.45445529725857914,-4.047029801827613,8.615940396344772,0.4622222222222222,0.15444444444444444,-0.6555555555555556,-0.003067329691364435,0.004482158833516238,-0.0016956640255098912
1590514078.9595788,-0.45,-4.058569998535084,8.62713999707017,0.4622222222222222,0.15444444444444444,-0.6555555555555556,-0.013711741338005772,0.00919352119569026,-0.00031197792338892236
1590514078.9695787,-0.49390772150974616,-4.0951261772077965,8.735378531623391,0.4622222222222222,0.15444444444444444,-0.6555555555555556,-0.01622954883919264,0.005027887621256813,0.0
1590514078.9795787,-0.5049623151021724,-4.095037684897827,8.769849260408689,0.4622222222222222,0.15444444444444444,-0.6555555555555556,-0.011490720278139785,0.0005741908838581161,-0.001082609213179345
1590514078.9895787,-0.5118415275649256,-4.091841527564926,8.799207637824628,0.46467759230878974,0.1556721294877282,-0.6512586579040623,-0.005942346208587743,-0.004076010329344025,-0.002382541060456576
1590514078.9995787,-0.5278009608303819,-4.076597117508855,8.87900480415191,0.4755555555555556,0.16111111111111112,-0.6322222222222222,-0.003272492347489368,-0.007635815477475192,-0.0015705867061234346
1590514079.0095787,-0.49748592913296114,-4.086257035433519,8.768072234248605,0.4755555555555556,0.16111111111111112,-0.6322222222222222,0.0029342937915671436,-0.0058624480091733315,-0.001090830782496456
1590514079.0195787,-0.47877836183378797,-4.084389180916894,8.768054095415529,0.4755555555555556,0.16111111111111112,-0.6322222222222222,0.0025271868787246554,-0.0048421084953952235,-0.001702876199583512
1590514079.0295787,-0.47,-4.08,8.79985680795793,0.4755555555555556,0.16111111111111112,-0.6322222222222222,0.0005532253056131839,-0.0011376902686861911,-0.0016440560881096399
1590514079.0395787,-0.4892542272212632,-4.084813556805316,8.805186443194685,0.4723465176853451,0.16485498862635675,-0.6322222222222222,-0.0015752327809601364,0.005332127126913185,0.0004844019984636804
1590514079.0495787,-0.5156657223796034,-4.095665722379604,8.76600566572238,0.4688888888888889,0.1688888888888889,-0.6322222222222222,-0.0026544579098143222,0.007490577384621556,0.001563627127317866
1590514079.0595787,-0.52,-4.094075458097803,8.68667912288023,0.4688888888888889,0.1688888888888889,-0.6322222222222222,-0.00024285976126106634,0.007191251962889351,0.00044456351458584077
1590514079.0695786,-0.52,-4.09,8.664332854590675,0.4688888888888889,0.1688888888888889,-0.6322222222222222,0.00030909483306875785,0.0029453997809090037,0.0007817359494276981
1590514079.0795786,-0.5005074563844693,-4.09,8.728477630846593,0.4688888888888889,0.1688888888888889,-0.6322222222222222,0.0028350755473300977,-0.002453013651666166,0.00038206189566393153
1590514079.0895786,-0.49,-4.09,8.752205151824192,0.45329919253727524,0.1628262291965947,-0.6504102012991048,0.010315325364525323,-0.010315325364525323,-0.001700572067011286
1590514079.0995786,-0.49767772718359876,-4.074644545632802,8.765355454367198,0.4488888888888889,0.16111111111111112,-0.6555555555555556,0.011999138607461015,-0.009486608262017207,-0.001344151449844976
1590514079.1095786,-0.5254963325183374,-4.095496332518337,8.753002444987775,0.4488888888888889,0.16111111111111112,-0.6555555555555556,0.009217920172284233,-0.007799573448246054,-0.00201790359422205
1590514079.1195786,-0.53,-4.0920860135605,8.789569932197496,0.4488888888888889,0.16111111111111112,-0.6555555555555556,0.009589928262018186,-0.010225661483614801,-0.002181661564992912
1590514079.1295786,-0.5110720973782772,-4.083690699126092,8.82523720349563,0.4488888888888889,0.16111111111111112,-0.6555555555555556,0.010505715003397125,-0.01090830782496456,-0.00149342360406389
1590514079.1395786,-0.5,-4.090143184421534,8.875501145475372,0.451706440117093,0.15773004963726614,-0.6476664121165839,0.011461532714942,-0.009248633155032236,-0.0016440556724738968
1590514079.1495786,-0.4791579395789698,-4.086105293052646,8.833579111789556,0.4544444444444444,0.15444444444444444,-0.64,0.01957752563343128,-0.009909331585266272,-0.0029395002675899388
1590514079.1595786,-0.47,-4.08,8.704529121233088,0.4544444444444444,0.15444444444444444,-0.64,0.02898242988023004,-0.015247581716253459,-0.0015367827909738073
1590514079.1695786,-0.4826594473629312,-4.061010828955603,8.673670276318534,0.4544444444444444,0.15444444444444444,-0.64,0.030543261909900768,-0.016362461737446838,0.00029010070479143935
1590514079.1795785,-0.5012184341866759,-4.038781565813324,8.681218434186675,0.4544444444444444,0.15444444444444444,-0.64,0.02626016724011792,-0.012691237734775828,0.00047896011538462076
1590514079.1895785,-0.5228638846174241,-4.042863884617424,8.702863884617424,0.44920360256327163,0.15730308547053867,-0.6428586410260942,0.019165494079580563,-0.008414244910151225,0.002806464264633758
1590514079.1995785,-0.5366663203463203,-4.063333679653679,8.746669437229437,0.44222222222222224,0.16111111111111112,-0.6466666666666666,0.011271615864281213,-0.004363096463849201,0.00872687292610827
1590514079.2095785,-0.5209500927162882,-4.079049907283712,8.763800370865154,0.44222222222222224,0.16111111111111112,-0.6466666666666666,0.004466962168101103,-0.002467979360952941,0.016051544623101002
1590514079.2195785,-0.4928935868666588,-4.09,8.771319239400023,0.44222222222222224,0.16111111111111112,-0.6466666666666666,0.009492559688806114,-0.009808201051404002,0.020878967553199557
1590514079.2295785,-0.4680199243184802,-4.09,8.8399501892038,0.44222222222222224,0.16111111111111112,-0.6466666666666666,0.022021741370477334,-0.018317263521973076,0.02181661564992912
1590514079.2395785,-0.46,-4.075097832207208,8.867451083896396,0.457124390015015,0.16111111111111112,-0.6640525290915916,0.03296027973641837,-0.025067764320790248,0.020191041314498556
1590514079.2495785,-0.4488084372127526,-4.042021093031881,8.858808437212753,0.4622222222222222,0.16111111111111112,-0.67,0.03673780021877229,-0.028011153958800643,0.014751713607907679
1590514079.2595785,-0.45694760820045555,-4.0143507972665144,8.6974715261959,0.4622222222222222,0.16111111111111112,-0.67,0.032632985572952064,-0.023906339312980418,0.007210913282015296
1590514079.2695785,-0.47,-4.045212275431917,8.691505538867737,0.4622222222222222,0.16111111111111112,-0.67,0.013637523992471045,-0.009392118361501906,0.002442791431841892
1590514079.2795784,-0.48437451437451434,-4.07,8.78916601916602,0.4622222222222222,0.16111111111111112,-0.67,0.00013645979485775407,-0.0006136452886771049,0.000568158690391187
1590514079.2895784,-0.5,-4.066008618259434,8.782060327816037,0.45911781420178177,0.15845018995073362,-0.6522605255974835,-0.000660139107107013,0.0019616151959572408,0.0
1590514079.2995784,-0.4951859512350344,-4.045557853705104,8.73037190247007,0.4544444444444444,0.15444444444444444,-0.6255555555555555,0.003272492347489368,0.0011719673149839615,0.0
1590514079.3095784,-0.49,-4.037221375571489,8.669450370999575,0.4544444444444444,0.15444444444444444,-0.6255555555555555,0.0016970325944196869,-0.004241750288635818,0.0
1590514079.3195784,-0.49,-4.046332258130791,8.675329032523164,0.4544444444444444,0.15444444444444444,-0.6255555555555555,0.001090830782496456,-0.006144896121660331,-0.0020722266275341526
1590514079.3295784,-0.47978069059132944,-4.055109654704335,8.746206201747688,0.4544444444444444,0.15444444444444444,-0.6255555555555555,0.0005334539185547804,-0.006544984694978735,-0.002157738619606017
1590514079.3395784,-0.48812418028853843,-4.066041393429513,8.818124180288539,0.4544444444444444,0.15108811476138176,-0.6383096083511937,0.0,-0.007863012279395617,0.00022719680192042572
1590514079.3495784,-0.5054563572614874,-4.064543642738513,8.835456357261487,0.4544444444444444,0.14888888888888888,-0.6466666666666666,0.001785588738338543,-0.008726646259971648,-0.0018851504480677818
1590514079.3595784,-0.49798362759721115,-4.06,8.821975441395818,0.4544444444444444,0.14888888888888888,-0.6466666666666666,0.001961709456399069,-0.007415863368881349,-0.001741757347805226
1590514079.3695784,-0.49,-4.048310865307063,8.804155432653532,0.4544444444444444,0.14888888888888888,-0.6466666666666666,0.0023659175768767473,-0.003357267709028008,0.0
1590514079.3795784,-0.4938256019896748,-4.04,8.796174398010326,0.4544444444444444,0.14888888888888888,-0.6466666666666666,0.003272492347489368,0.00016109454107863012,0.0004173084411916954
1590514079.3895783,-0.49660874708861696,-4.04,8.803565011645532,0.4593429208719977,0.1507729182841017,-0.6466666666666666,0.0021627074273991623,0.002181661564992912,0.0003509741691029855
1590514079.3995783,-0.4854742562713904,-4.049051487457219,8.789268306442514,0.4688888888888889,0.15444444444444444,-0.6466666666666666,-0.0004936820572857612,0.003169025679564434,-0.001584512839782217
1590514079.4095783,-0.48,-4.055008363480764,8.705058544365349,0.4688888888888889,0.15444444444444444,-0.6466666666666666,-0.0005463277054748462,0.0049078262070074334,-0.002181661564992912
1590514079.4195783,-0.4854273871317077,-4.05,8.686282161395123,0.4688888888888889,0.15444444444444444,-0.6466666666666666,-0.0017761082855375658,0.0019019373414071489,-0.00040555327945534614
1590514079.4295783,-0.49,-4.058568833464258,8.725706500392773,0.4688888888888889,0.15444444444444444,-0.6466666666666666,-0.0018704202505546682,-0.001558188148141356,0.00015611605120665597
1590514079.4395783,-0.49,-4.062522240923299,8.778694397691753,0.46639630252998854,0.1569370308033448,-0.6520672704442841,-0.000815696978495787,-0.0025895100542408056,-0.001090830782496456
1590514079.4495783,-0.48210875820851473,-4.046054379104257,8.813945620895742,0.4622222222222222,0.16111111111111112,-0.6611111111111111,-0.0013208606191654495,-0.0037028928204030994,-0.0015212312554101872
1590514079.4595783,-0.4854200471080869,-4.050280031405391,8.784019890081131,0.4622222222222222,0.16111111111111112,-0.6611111111111111,0.0016820662053046635,-0.004363323129985824,-0.002181661564992912
1590514079.4695783,-0.4942014918080844,-4.06,8.79058955734341,0.4622222222222222,0.16111111111111112,-0.6611111111111111,0.0020074541018294933,-0.004995842252815761,-0.0009166233193330371
1590514079.4795783,-0.49,-4.049095755664433,8.830904244335567,0.4622222222222222,0.16111111111111112,-0.6611111111111111,0.001090830782496456,-0.002480482567207452,-0.0005947342690549656
1590514079.4895782,-0.4848446048189966,-4.050310790362007,8.85546618554301,0.45534836198088435,0.1576741809904422,-0.6611111111111111,0.001090830782496456,0.0005623663759372371,-0.0005284644065592189
1590514079.4995782,-0.46860662567844513,-4.054303312839222,8.864303312839223,0.4488888888888889,0.15444444444444444,-0.6611111111111111,0.0023336551251421267,0.002955067296464962,-0.0006214121713228353
1590514079.5095782,-0.46629462193676435,-4.043705378063236,8.740402183201477,0.4488888888888889,0.15444444444444444,-0.6611111111111111,0.003272492347489368,0.005049959867265824,-0.001090830782496456
1590514079.5195782,-0.47551543299467824,-4.012422835026609,8.658969134010643,0.4488888888888889,0.15444444444444444,-0.6611111111111111,0.001467571120671865,0.0024459518677864413,0.0007140904443210471
1590514079.5295782,-0.46562863705972435,-4.0331140888208274,8.726647269014803,0.4488888888888889,0.15444444444444444,-0.6611111111111111,-0.004180460021781722,0.0026127875136135762,0.002181661564992912
1590514079.5395782,-0.45,-3.9891476793248946,8.61921012658228,0.45141256446319733,0.15747285513361464,-0.6449595874355368,-0.006744556098898763,0.003967586291677616,-0.0002959511363481949
1590514079.5495782,-0.4625954946131244,-3.955572967678746,8.56003917727718,0.4544444444444444,0.16111111111111112,-0.6255555555555555,-0.0009284348187947309,0.00012072857827825608,-0.003272492347489368
1590514079.5595782,-0.4924629740907002,-4.1175370259093,8.917685129546499,0.4544444444444444,0.16111111111111112,-0.6255555555555555,0.0009029399902619915,-0.002213972766284207,-0.0030038235520266658
1590514079.5695782,-0.485792048508234,-4.060272169778819,8.769888375938814,0.4544444444444444,0.16111111111111112,-0.6255555555555555,-0.0062884556892142205,0.00010124364804125433,-0.001794199793907042
1590514079.5795782,-0.46146072145586425,-3.9831464931027782,8.60067515057315,0.4544444444444444,0.16111111111111112,-0.6255555555555555,0.010405738678751244,-0.006998455505991284,-0.001250170775367433
1590514079.5895782,-0.5052566932699383,-4.082035433293711,8.868141733174845,0.4544444444444444,0.15817305333861625,-0.634859405168456,-0.0046780321636861934,-0.0018302766109437056,-0.0007394458284472494
1590514079.5995781,-0.5123110906133942,-4.077695220525767,8.91000631113916,0.4544444444444444,0.15444444444444444,-0.6466666666666666,-0.004951329033010286,-0.0017619523936126824,0.0016781482470340167
1590514079.6095781,-0.47537743457397474,-4.059245130852051,8.822264607443849,0.4544444444444444,0.15444444444444444,-0.6466666666666666,0.005629023777227417,-0.00276824868140815,0.0011731742328304762
1590514079.6195781,-0.48424981338641454,-4.07,8.794749937795471,0.4544444444444444,0.15444444444444444,-0.6466666666666666,0.0052087916264965135,0.000409027616128928,-0.0005181378362243679
1590514079.629578,-0.4833457372582896,-4.045018605887434,8.76669147451658,0.4544444444444444,0.15444444444444444,-0.6466666666666666,0.0007258674633476981,0.003272492347489368,-0.0006366562210354174
1590514079.639578,-0.4521474420571165,-4.002147442057116,8.688589768228466,0.4564802928000068,0.15124525417141782,-0.6411407925587116,0.0009882758340402035,0.0041290735400328045,-0.0002855270641811456
1590514079.649578,-0.44723338133858864,-4.0029778417847846,8.674677985800551,0.4622222222222222,0.14222222222222222,-0.6255555555555555,-0.018613245907925006,0.010931348693459644,0.0001624160742123757
1590514079.659578,-0.5034622627215861,-4.036298348520594,8.713701651479406,0.4622222222222222,0.14222222222222222,-0.6255555555555555,-0.02362060293954242,0.011217676794100531,-0.0006870432445155816
1590514079.669578,-0.4956741811994896,-4.040149818044331,8.70985018195567,0.4622222222222222,0.14222222222222222,-0.6255555555555555,-0.01963495408493621,0.009263890344493392,-0.001107173395949425
1590514079.679578,-0.4626230418157148,-4.042623041815715,8.741038403026192,0.4622222222222222,0.14222222222222222,-0.6255555555555555,-0.021929887848489822,0.011653424053310994,-0.0004589867527107225
1590514079.689578,-0.4828799129834543,-4.062879912983454,8.79015939088418,0.4599822899017577,0.14766205785763592,-0.627475497544525,-0.025089107997418484,0.014809099719106558,-0.0007766810091701397
1590514079.699578,-0.4940397638700774,-4.076059645805116,8.84201988193504,0.4544444444444444,0.16111111111111112,-0.6322222222222222,-0.024428103179893863,0.016362461737446838,0.0011016746958743692
1590514079.709578,-0.5175081450341567,-4.1,8.819967419863373,0.4544444444444444,0.16111111111111112,-0.6322222222222222,-0.02099760407765853,0.015133944379040951,0.003816130767941096
1590514079.719578,-0.53,-4.1,8.781353998273563,0.4544444444444444,0.16111111111111112,-0.6322222222222222,-0.016332209865946076,0.010612911225714871,0.0006779877551226893
1590514079.729578,-0.5269665177125834,-4.0977248882844375,8.798483258856292,0.4544444444444444,0.16111111111111112,-0.6322222222222222,-0.009750152274919426,0.0058004561270925785,-8.27253964317952e-05
1590514079.739578,-0.4848170920340294,-4.067408546017015,8.78,0.4530047477872303,0.15938347512245424,-0.6365413121938645,0.006907477128442899,-0.005251278790733761,-0.0005254632272837723
1590514079.749578,-0.471435755295981,-4.0513854682241135,8.764206691744208,0.4488888888888889,0.15444444444444444,-0.6488888888888888,0.014180800172453925,-0.010281841395769207,0.0006209809605999424
1590514079.759578,-0.48,-4.01475209237305,8.647871861440423,0.4488888888888889,0.15444444444444444,-0.6488888888888888,0.010157791055765229,-0.004533480136634387,-0.002181661564992912
1590514079.769578,-0.49656509695290857,-4.056565096952909,8.676260387811634,0.4488888888888889,0.15444444444444444,-0.6488888888888888,0.0017666825415501234,-0.001090830782496456,-0.0018804996038050631
1590514079.779578,-0.5325080177524377,-4.088762026628657,8.823778062133531,0.4488888888888889,0.15444444444444444,-0.6488888888888888,-0.002590285807870808,-0.0014994550253743517,-0.001090830782496456
1590514079.789578,-0.5188438584316447,-4.073468424705066,8.797342123525329,0.4495311897601974,0.15521520549001463,-0.649659649934459,-0.0016329910922979565,-0.002938354452004333,-0.0008385998201593157
1590514079.799578,-0.4965070416760624,-4.086507041676062,8.872654927123264,0.4544444444444444,0.16111111111111112,-0.6555555555555556,0.019003501682645665,-0.012406279831644879,0.0003549040681618099
1590514079.809578,-0.47298859504645885,-4.057011404953541,8.748045619814164,0.4544444444444444,0.16111111111111112,-0.6555555555555556,0.03947065710221786,-0.022569000410720595,-0.0017428410771152085
1590514079.819578,-0.4510716951092094,-4.006607542663814,8.623572317030698,0.4544444444444444,0.16111111111111112,-0.6555555555555556,0.049126353146159735,-0.03155615682475879,-0.0022206294988121296
1590514079.829578,-0.44053779748016797,-3.9928604759682687,8.62268898740084,0.4544444444444444,0.16111111111111112,-0.6555555555555556,0.03545072788005864,-0.023062188643288347,-0.001090830782496456
1590514079.839578,-0.48287193327876465,-4.052871933278765,8.800892639869035,0.45644674517669664,0.15939485334060916,-0.6555555555555556,0.01015191997357043,-0.0042659512253030996,-0.00024836471945343275
1590514079.849578,-0.5141672469015458,-4.087083623450773,8.887083623450774,0.4622222222222222,0.15444444444444444,-0.6555555555555556,-0.011544562487614107,0.005136026581157506,0.0009091522396938155
1590514079.859578,-0.49118494632433973,-4.06236989264868,8.783034409567739,0.4622222222222222,0.15444444444444444,-0.6555555555555556,-0.007320530250696245,0.0029209633451705175,-0.0036240213498082187
1590514079.869578,-0.4762106168399656,-4.032421233679931,8.682736298960206,0.4622222222222222,0.15444444444444444,-0.6555555555555556,0.0033068606381113736,-0.0009759571163231522,-0.004627438752954436
1590514079.8795779,-0.4737425607538436,-4.03122768226153,8.738712803769218,0.4622222222222222,0.15444444444444444,-0.6555555555555556,0.005868895927012622,-0.004363323129985824,-0.0028642422999237927
1590514079.8895779,-0.4874429588026933,-4.0537214794013465,8.784885917605386,0.46470320848978663,0.15444444444444444,-0.6555555555555556,-0.0017508222186943306,-0.003145471843761201,-0.001775711136251371
1590514079.8995779,-0.49536006001000166,-4.046080180030005,8.763600600100018,0.4688888888888889,0.15444444444444444,-0.6555555555555556,-0.0050265678839707915,-0.001090830782496456,-0.001090830782496456
1590514079.9095778,-0.4797466533908618,-4.024873326695431,8.684366633477156,0.4688888888888889,0.15444444444444444,-0.6555555555555556,-0.005229808915838745,-0.0005315974772537768,-0.001090830782496456
1590514079.9195778,-0.45323107802696255,-4.011615539013481,8.618077695067406,0.4688888888888889,0.15444444444444444,-0.6555555555555556,-0.010291509934784296,0.000914602813873524,-0.001090830782496456
1590514079.9295778,-0.4647985531441291,-3.9982661843813765,8.628669078093118,0.4688888888888889,0.15444444444444444,-0.6555555555555556,-0.027591746166060836,0.013366997107322691,-0.00018912994479677932
1590514079.9395778,-0.4414579855314413,-3.9904859951771474,8.667570024114264,0.4688888888888889,0.15444444444444444,-0.6555555555555556,-0.043716798933538636,0.024399927948228553,-0.0010378169325587687
1590514079.9495778,-0.5224078345369985,-4.124815669073997,8.932832457367565,0.4688888888888889,0.16111111111111112,-0.6555555555555556,-0.08552357510604346,0.048521862436267285,0.0018324736266779804
1590514079.9595778,-0.576287626590041,-4.230479377650068,9.10694536916985,0.4688888888888889,0.16111111111111112,-0.6555555555555556,-0.09509806723750798,0.05707586581927264,0.0008622062280544577
1590514079.9695778,-0.5521699276943807,-4.166981382726358,8.876509783083142,0.4688888888888889,0.16111111111111112,-0.6555555555555556,-0.050384093666101235,0.03492720385945212,-0.00040134242461539087
1590514079.9795778,-0.47821066140646906,-4.006421322812939,8.65257931886779,0.4688888888888889,0.16111111111111112,-0.6555555555555556,-0.0040532385947423385,0.005815802542751205,-0.0013147418376672593
1590514079.9895778,-0.5157186091868989,-4.079531015311498,8.762874436747596,0.46507648276428964,0.15984030906957802,-0.6538611528335114,0.005450852588572648,-0.002335136445414096,-0.0017657925693838209
1590514079.9995778,-0.5357917117117117,-4.1157917117117115,8.851583423423422,0.4488888888888889,0.15444444444444444,-0.6466666666666666,-0.012630916349309053,0.010449254784316141,-0.0004590530406484185
1590514080.0095778,-0.5045327671074221,-4.092266383553711,8.754264260206543,0.4488888888888889,0.15444444444444444,-0.6466666666666666,-0.006268471041166489,0.004086809476173577,-0.0017598582210112692
1590514080.0195777,-0.48633486981437646,-4.089502304721565,8.691176653793447,0.4488888888888889,0.15444444444444444,-0.6466666666666666,-0.000291223416829439,-0.0025814652478264206,-0.0014363443323279297
1590514080.0295777,-0.5,-4.102522613440981,8.783738693279508,0.4488888888888889,0.15444444444444444,-0.6466666666666666,-0.00490380503373005,0.0013561382468645666,-0.002181661564992912
1590514080.0395777,-0.5,-4.0790920840064615,8.792726978998385,0.4488888888888889,0.1583834141087776,-0.6427276970023335,-0.00704088095054336,0.004859219385550449,-0.0018841943015269964
1590514080.0495777,-0.5122446022011258,-4.062244602201126,8.787755397798874,0.4488888888888889,0.1688888888888889,-0.6322222222222222,-0.005899380212496008,0.0037177186475030963,-0.0015360570825101842
1590514080.0595777,-0.5219453818394616,-4.088054618160538,8.753890763678923,0.4488888888888889,0.1688888888888889,-0.6322222222222222,-0.009180852324209808,0.006120568216139872,-0.002181661564992912
1590514080.0695777,-0.5015557034287115,-4.108444296571289,8.714667110286136,0.4488888888888889,0.1688888888888889,-0.6322222222222222,-0.01687156449398898,0.01090830782496456,-0.0015028578896033897
1590514080.0795777,-0.5047623803089937,-4.097381190154497,8.742618809845503,0.4488888888888889,0.1688888888888889,-0.6322222222222222,-0.018777950567042324,0.01119397566426252,0.0016103258863969887
1590514080.0895777,-0.4924428714092698,-4.091221435704635,8.748778564295366,0.4488888888888889,0.1688888888888889,-0.6322222222222222,-0.01676217563708364,0.011865900640915415,0.00026647593309120105
1590514080.0995777,-0.5,-4.078522289376546,8.772955421246907,0.4488888888888889,0.16111111111111112,-0.6611111111111111,-0.013251162613525986,0.012321525054598043,-0.0026652412356984556
1590514080.1095777,-0.5,-4.070015616760638,8.789968766478724,0.4488888888888889,0.16111111111111112,-0.6611111111111111,-0.014179096648131282,0.014177393123808639,-0.005449043339514351
1590514080.1195776,-0.6299496071062521,-3.6534677143833276,8.62025196446874,0.4488888888888889,0.16111111111111112,-0.6611111111111111,-0.02837809138082363,0.012355419518997268,-0.009822974054440027
1590514080.1295776,-0.602651664785553,-3.651195682844244,8.802287669300226,0.4488888888888889,0.16111111111111112,-0.6611111111111111,-0.04973206497360994,0.0021287205676482754,-0.015836899220202847
1590514080.1395776,-0.6380360141277286,-3.3083961554050143,8.775531816339528,0.4515075367185841,0.1598017871962635,-0.6569649187140936,-0.0795324338244136,-0.011979495947895477,-0.025653250232914888
1590514080.1495776,-0.6253044127405442,-3.2069285003317853,8.875938951559391,0.4622222222222222,0.15444444444444444,-0.64,-0.1014472627721704,-0.016362461737446838,-0.04581489286485115
1590514080.1595776,-0.343685822147651,-2.2660780201342283,8.700744337248322,0.4622222222222222,0.15444444444444444,-0.64,-0.11721502955659263,0.03426036846517193,-0.009715005753147599
1590514080.1695776,-0.5035306874864455,-2.433699848189113,9.06109954456734,0.4622222222222222,0.15444444444444444,-0.64,-0.11466403443916498,0.07895026774022873,0.06705498398280373
1590514080.1795776,-0.55,-2.52,9.32,0.4622222222222222,0.15444444444444444,-0.64,-0.05890486225480863,0.004363323129985824,0.10253809355466686
1590514080.1895776,-0.5540023649169709,-2.4759739859133205,9.235950336743612,0.45910927173124483,0.157112687722425,-0.6426682432779806,-0.05235600797348511,-0.0087343854326612,0.23133222775402926
1590514080.1995776,-0.5557212157439765,-2.4142787842560236,9.007309177855435,0.4544444444444444,0.16111111111111112,-0.6466666666666666,-0.02573965403608774,-0.0376964595011712,0.49714507580997547
1590514080.2095776,-0.5643513377082282,-2.434351337708228,8.794655477031801,0.4544444444444444,0.16111111111111112,-0.6466666666666666,-0.009143072700790903,-0.0560487963481385,0.6496862317816029
1590514080.2195776,-0.59,-2.4871595865731084,8.714319173146217,0.4544444444444444,0.16111111111111112,-0.6466666666666666,-0.020227484346412687,-0.0695033290396662,0.7853430581348487
1590514080.2295775,-0.5878975387556938,-2.5705123062215307,8.84948769377847,0.4544444444444444,0.16111111111111112,-0.6466666666666666,-0.01952318620563417,-0.0802011008904023,0.9098914884918702
1590514080.2395775,-0.5800352409695015,-2.609823795152492,8.810176204847508,0.4544444444444444,0.16111111111111112,-0.6466666666666666,-0.010946749759301886,-0.09049282462600104,1.0042322894015252
1590514080.2495775,-0.6091806200620404,-2.6908193799379596,8.921475775077552,0.4488888888888889,0.16111111111111112,-0.6177777777777778,-0.025768594117499655,-0.09363268632291796,1.1500047583455686
1590514080.2595775,-0.6379338120619034,-2.662066187938097,8.95741726507738,0.4488888888888889,0.16111111111111112,-0.6177777777777778,-0.021063864078227464,-0.0999056597086142,1.2362581423988916
1590514080.2695775,-0.6654973094948794,-2.714834230168374,8.89,0.4488888888888889,0.16111111111111112,-0.6177777777777778,-0.03458867063547562,-0.10750108012644513,1.3909766308476623
1590514080.2795775,-0.71,-2.706529770671155,8.886735114664424,0.4488888888888889,0.16111111111111112,-0.6177777777777778,-0.030365190038632306,-0.11413628930981959,1.4976860156771143
1590514080.2895775,-0.7141080788975952,-2.742934342069711,8.871173736827883,0.450453871326068,0.15915488306463718,-0.6199948362304482,-0.029836535606126112,-0.12384003514018223,1.5984385270387729
1590514080.2995775,-0.7839865338757189,-2.7959798008135786,8.868074063683546,0.4755555555555556,0.12777777777777774,-0.6555555555555556,-0.035997415822383035,-0.13525567239811714,1.7097079425071093
1590514080.3095775,-0.8022627971366829,-2.817737202863317,8.768686014316586,0.4755555555555556,0.12777777777777774,-0.6555555555555556,-0.03747841308512615,-0.1452238276751514,1.7983581363382584
1590514080.3195775,-0.8093439357104268,-2.810656064289573,8.733280321447866,0.4755555555555556,0.12777777777777774,-0.6555555555555556,-0.04211300744394391,-0.14908598964083292,1.8516559714646623
1590514080.3295774,-0.8423310423825887,-2.827668957617411,8.733310423825888,0.4755555555555556,0.12777777777777774,-0.6555555555555556,-0.04203384596011544,-0.1586052963512287,1.9428283510566322
1590514080.3395774,-0.8551956724989982,-2.8241565379991984,8.816234806998798,0.47613285249988874,0.12569950877817843,-0.6546318804446225,-0.04024738696241532,-0.1638513213543755,1.9953429467712136
1590514080.3495774,-0.920762374099307,-2.8718642137710324,8.878898160328275,0.4811111111111111,0.10777777777777778,-0.6466666666666666,-0.04153473184839553,-0.16710046389861738,2.058452920949075
1590514080.3595774,-0.9785291998791569,-2.8971569333736142,8.887206200181264,0.4811111111111111,0.10777777777777778,-0.6466666666666666,-0.04675065841771012,-0.1710999934472721,2.099656571850802
1590514080.3695774,-1.026076917076215,-2.8786923056920717,8.816538471539642,0.4811111111111111,0.10777777777777778,-0.6466666666666666,-0.0463854821469246,-0.17728517604649932,2.150564505849803
1590514080.3795774,-1.0,-2.8686282059543755,8.862743588091249,0.4811111111111111,0.10777777777777778,-0.6466666666666666,-0.05002857647761572,-0.18122754941163294,2.1960745129072916
1590514080.3895774,-1.0,-2.8618710529707436,8.876257894058513,0.4811111111111111,0.10777777777777778,-0.6466666666666666,-0.04929148542995738,-0.18196464045929128,2.2240839727183084
1590514080.3995774,-1.0319939368885214,-2.8710045473336088,8.898500757888936,0.5022222222222222,0.06222222222222223,-0.6611111111111111,-0.04630551869840061,-0.1854412330243975,2.2672353384040256
1590514080.4095774,-1.1044973963082285,-2.815502603691771,8.845026036917716,0.5022222222222222,0.06222222222222223,-0.6611111111111111,-0.04737032079540498,-0.18372416860746196,2.294204764761781
1590514080.4195774,-1.1262256984497652,-2.8041504656331764,8.699338547674648,0.5022222222222222,0.06222222222222223,-0.6611111111111111,-0.04179112891044254,-0.17871090868179487,2.3144443944179964
1590514080.4295774,-1.1860447001018635,-2.835970199932091,8.796119200271635,0.5022222222222222,0.06222222222222223,-0.6611111111111111,-0.04362510459200933,-0.1856528978146177,2.3223868626428033
1590514080.4395773,-1.2118945824972989,-2.817726501003241,8.85848433400216,0.5034431753871482,0.06003292689201009,-0.6611111111111111,-0.03939390830435439,-0.18225140743322946,2.326287391905173
1590514080.4495773,-1.2523551088130884,-2.7691738694242938,8.826115912949529,0.5295177367906571,0.013278540927097807,-0.6611111111111111,-0.04204204355923064,-0.1840168309364803,2.3165775626372938
1590514080.4595773,-1.3019477021813042,-2.7687015318791306,8.84,0.5344444444444445,0.004444444444444445,-0.6611111111111111,-0.04820901577929427,-0.18899700717115384,2.2970348701735146
1590514080.4695773,-1.3259819689039998,-2.7526786873973337,8.84,0.5344444444444445,0.004444444444444445,-0.6611111111111111,-0.05083074757687892,-0.19249264956793333,2.280430568788812
1590514080.4795773,-1.3787011804000455,-2.731298819599955,8.822181652560065,0.5344444444444445,0.004444444444444445,-0.6611111111111111,-0.04112006018632283,-0.1825484012938851,2.2422693520936177
1590514080.4895773,-1.4184998292025657,-2.6915001707974344,8.877899760883594,0.5344444444444445,0.004444444444444445,-0.6611111111111111,-0.04459314748356721,-0.1842849449425073,2.2101432945941077
1590514080.4995773,-1.519913081081081,-2.7051303783783784,8.91495654054054,0.5333333333333333,-0.045555555555555564,-0.6844444444444444,-0.048556191895943,-0.1772837056137586,2.1452562138361713
1590514080.5095773,-1.557110382350749,-2.6564448088246255,8.906891257360066,0.5333333333333333,-0.045555555555555564,-0.6844444444444444,-0.04111245851821535,-0.16907877128695067,2.085645447628234
1590514080.5195773,-1.59,-2.62676928664516,8.809450509539172,0.5333333333333333,-0.045555555555555564,-0.6844444444444444,-0.030070965530340592,-0.1659860992722693,2.0162221512269944
1590514080.5295773,-1.5938239859188736,-2.57,8.851911992959437,0.5333333333333333,-0.045555555555555564,-0.6844444444444444,-0.033142055630107706,-0.15264678752363484,1.9513886617291216
1590514080.5395772,-1.634092487398992,-2.57,8.872046243699497,0.5333333333333333,-0.045555555555555564,-0.6844444444444444,-0.03753466772805943,-0.15191468550730955,1.8928205004230985
1590514080.5495772,-1.757744658065174,-2.48909786322607,8.839097863226069,0.5111111111111111,-0.07555555555555556,-0.7333333333333333,-0.03272492347489368,-0.13824028580814235,1.7771935378520067
1590514080.5595772,-1.7110388109382584,-2.47,8.815844756246966,0.5111111111111111,-0.07555555555555556,-0.7333333333333333,-0.03261160678002904,-0.13153725790261261,1.6800649630235163
1590514080.5695772,-1.721594137429102,-2.468405862570898,8.781594137429101,0.5111111111111111,-0.07555555555555556,-0.7333333333333333,-0.03128630585655837,-0.1272794147162465,1.5896727420221954
1590514080.5795772,-1.753774817136886,-2.4542384052728883,8.809536411863998,0.5111111111111111,-0.07555555555555556,-0.7333333333333333,-0.02703960041539332,-0.12187686353999105,1.495752960243859
1590514080.5895772,-1.8633437826541275,-2.487951933124347,8.885391849529782,0.5111111111111111,-0.07555555555555556,-0.7333333333333333,-0.02520081271704717,-0.11084413734991416,1.4194432707624938
1590514080.5995772,-1.8979645075421472,-2.455044365572316,8.883008873114465,0.521209405501331,-0.11284156561175195,-0.7333333333333333,-0.02203865343298563,-0.10483561354438455,1.346172297198164
1590514080.6095772,-1.961826195167479,-2.4140869024162606,8.90591309758374,0.5255555555555556,-0.1288888888888889,-0.7333333333333333,-0.02355246531885042,-0.10065363992038834,1.2346590213821074
1590514080.6195772,-1.9908951448837082,-2.3821398068217228,8.882139806821723,0.5255555555555556,-0.1288888888888889,-0.7333333333333333,-0.022478739398663884,-0.09427828072464137,1.1548708124806721
1590514080.6295772,-2.0269736469254744,-2.361008784358175,8.9059648625673,0.5255555555555556,-0.1288888888888889,-0.7333333333333333,-0.02377819460876236,-0.08574504885320258,1.0394278933476797
1590514080.6395772,-2.0473105448427016,-2.351344727578649,8.91865527242135,0.5255555555555556,-0.1288888888888889,-0.7333333333333333,-0.022109989697301585,-0.07469921968781112,0.9485478954189752
1590514080.6495771,-2.0718360307773946,-2.2926302290616434,8.893424427345892,0.5133333333333333,-0.15444444444444444,-0.7555555555555555,-0.017022922296124714,-0.0629244487545623,0.8244733871665886
1590514080.6595771,-2.13860652693022,-2.3074681170956044,8.856329707260988,0.5133333333333333,-0.15444444444444444,-0.7555555555555555,-0.014595078543922599,-0.0548316362472219,0.7556844808541954
1590514080.6695771,-2.1595596777215667,-2.278679033164699,8.791761289113733,0.5133333333333333,-0.15444444444444444,-0.7555555555555555,-0.005646280750696008,-0.04334504104253764,0.6490847848555682
1590514080.679577,-2.1517007682218474,-2.2551023046655425,8.82319692711261,0.5133333333333333,-0.15444444444444444,-0.7555555555555555,-0.009075376910354907,-0.03820139680304929,0.571930121263243
1590514080.689577,-2.184206020867484,-2.284206020867484,8.847103010433742,0.5133333333333333,-0.15444444444444444,-0.7555555555555555,-0.012615950580640651,-0.03988672014305205,0.47127866214551967
1590514080.699577,-2.2148447318094893,-2.2982815772698295,8.957660504507787,0.5280561373685861,-0.15260409394003788,-0.7831608131216545,-0.00766968974182555,-0.03132693953881567,0.3784640429681022
1590514080.709577,-2.21347994618875,-2.27,8.8321759354265,0.5311111111111111,-0.15222222222222226,-0.7888888888888889,-0.0006161153137063571,-0.017928007988733397,0.2562063710310528
1590514080.719577,-2.17,-2.27,8.788175957980183,0.5311111111111111,-0.15222222222222226,-0.7888888888888889,-0.012692806457330733,-0.006544984694978735,0.15897025845614787
1590514080.729577,-2.1721717701735317,-2.2736196169558864,8.872895693564708,0.5311111111111111,-0.15222222222222226,-0.7888888888888889,-0.01900321174952392,-0.0054394356080072325,0.06145730244003542
1590514080.739577,-2.195752033282111,-2.3129200554701845,8.904336044376148,0.5311111111111111,-0.15222222222222226,-0.7888888888888889,-0.012143991254002935,0.006564200259154491,-0.017423733258455906
1590514080.749577,-2.243370470024384,-2.3127715883292694,8.91,0.5078195623943123,-0.14499381055149155,-0.8258341040948457,-0.007754318241368694,0.016611620218961315,-0.10654134530279903
1590514080.759577,-2.2698103610777083,-2.350189638922292,8.947913971854788,0.4988888888888889,-0.14222222222222222,-0.84,-0.0021609751675933644,0.03171683828199542,-0.23976631833718437
1590514080.769577,-2.2629945724592933,-2.3570054275407064,8.872940297052228,0.4988888888888889,-0.14222222222222222,-0.84,-0.0014174879643977965,0.03469078709477768,-0.3103976026407634
1590514080.779577,-2.2344993493348757,-2.3770004337767494,8.857000433776749,0.4988888888888889,-0.14222222222222222,-0.84,0.0016908586894241807,0.0452697140621185,-0.4295168681988775
1590514080.789577,-2.236371529241196,-2.3863715292411958,8.86,0.4988888888888889,-0.14222222222222222,-0.84,0.0035717136105674037,0.05455100989800731,-0.5090013533549805
1590514080.799577,-2.2013740400257253,-2.39,8.852274808005145,0.4302205156012896,-0.1525224782153621,-0.84,-0.0006928032072239442,0.06648905176062328,-0.6263134126435842
1590514080.809577,-2.18306209932803,-2.424689503359852,8.86387580134394,0.41,-0.15555555555555556,-0.84,-0.00445208425065934,0.07401999223049839,-0.7227886723092134
1590514080.819577,-2.1504203624278624,-2.480840724855725,8.760630543641794,0.41,-0.15555555555555556,-0.84,-0.005408299484870545,0.0895856874475446,-0.8517977015934614
1590514080.829577,-2.169257180068713,-2.5185143601374262,8.788885770103068,0.41,-0.15555555555555556,-0.84,-0.0033535214321793344,0.09575002160561823,-0.9432353249382202
1590514080.839577,-2.1213437462259974,-2.5281093756290005,8.708906243709995,0.41,-0.15555555555555556,-0.84,0.008227251184332946,0.1021852784537463,-1.030877706554856
1590514080.849577,-2.072531080209964,-2.537493783958007,8.832381895202136,0.40583678668999607,-0.19552240333159387,-0.8133554348159744,-0.010345262743843587,0.12406504988409423,-1.1297622106661789
1590514080.859577,-1.950121463344098,-2.530111341398756,9.049665975803732,0.4044444444444445,-0.2088888888888889,-0.8044444444444444,-0.013072303262665872,0.11567333239580906,-1.2643711447464518
1590514080.869577,-2.0692101211132305,-2.64,8.721354078091606,0.4044444444444445,-0.2088888888888889,-0.8044444444444444,0.004326396378380159,0.16015518235174878,-1.3625630904413621
1590514080.879577,-2.0017358030933283,-2.64,8.837024337554293,0.4044444444444445,-0.2088888888888889,-0.8044444444444444,0.0011719793873488224,0.14333162506624833,-1.4656073788150523
1590514080.889577,-2.0408517444766567,-2.721703488953314,8.946214535639308,0.4044444444444445,-0.2088888888888889,-0.8044444444444444,0.004655818014001818,0.15805002824093353,-1.5413404714860897
1590514080.899577,-1.9954148980441115,-2.712707449022056,8.742562075183798,0.42870448975817266,-0.19271552534640343,-0.8044444444444444,0.03621809381006412,0.17632873317927314,-1.6281657036219817
1590514080.909577,-1.9224444998752805,-2.7293015714642057,8.913015714642055,0.4311111111111111,-0.19111111111111112,-0.8044444444444444,0.01926789728134735,0.16727804339506702,-1.7225325484225866
1590514080.919577,-1.8871652790825748,-2.736566944183485,8.821495837247724,0.4311111111111111,-0.19111111111111112,-0.8044444444444444,0.023558520706036833,0.16045002734590436,-1.7715402170279952
1590514080.9295769,-1.8779518626398897,-2.7877111758393376,8.762048137360111,0.4311111111111111,-0.19111111111111112,-0.8044444444444444,0.040058557253155144,0.1726930784618849,-1.8371433234088872
1590514080.9395769,-1.8631379866390232,-2.7943793288796743,8.77124134224065,0.4311111111111111,-0.19111111111111112,-0.8044444444444444,0.04547259162276023,0.17364898622625588,-1.8803627112535986
1590514080.9495769,-1.8206359620347288,-2.8134912303722173,8.850473691116651,0.427195906049075,-0.2185175465453644,-0.7783430773642032,0.04114010827538333,0.1712604328519436,-1.9357907017415665
1590514080.9595768,-1.7561139826422372,-2.855077724204436,8.868652844744455,0.4244444444444445,-0.23777777777777775,-0.76,0.03777213544280838,0.17262821052780133,-1.985673754991655
1590514080.9695768,-1.7130304850578164,-2.8615152425289083,8.756667667817991,0.4244444444444445,-0.23777777777777775,-0.76,0.043732338166266156,0.17806981173267833,-2.035159337873686
1590514080.9795768,-1.6704909062483715,-2.8995090937516284,8.819018187503257,0.4244444444444445,-0.23777777777777775,-0.76,0.0411325841112868,0.18033283951784593,-2.059620079500422
1590514080.9895768,-1.65,-2.968698407742741,8.8252154230409,0.4244444444444445,-0.23777777777777775,-0.76,0.04534096213836908,0.18259567338653587,-2.0837247475709564
1590514080.9995768,-1.6208203050653904,-2.949148427091547,8.812917969493462,0.4306046022639731,-0.22740277513436108,-0.7392499947131667,0.0489514577135999,0.17816675394604015,-2.092896489114477
1590514081.0095768,-1.582806764729873,-2.895929470621822,8.816719323527012,0.4386296830014712,-0.21388684968173263,-0.7122181438079097,0.0501954479120895,0.17153213955409563,-2.096628459709946
1590514081.0195768,-1.5169597009407223,-2.854720042722754,8.855400320420655,0.4455555555555555,-0.20222222222222225,-0.6888888888888889,0.04586284048582109,0.1665785941239631,-2.0990769411211763
1590514081.0295768,-1.4232246807835671,-2.8885145530969942,8.996449361567135,0.4455555555555555,-0.20222222222222225,-0.6888888888888889,0.02287976256769412,0.1682132179537064,-2.0902293728477304
1590514081.0395768,-1.4469849200684317,-2.9217788880958047,9.043969840136864,0.4455555555555555,-0.20222222222222225,-0.6888888888888889,0.013030770411357626,0.1666581139290217,-2.0788252766667092
1590514081.0495768,-1.3889660572634732,-2.9658305246314645,8.979593163789875,0.4584708178712877,-0.12186059003544451,-0.6695159954152906,0.019610926320789705,0.16791953379416388,-2.025382461654909
1590514081.0595767,-1.3249840226628895,-2.9621314447592066,8.847804645892351,0.4655555555555556,-0.07777777777777778,-0.6588888888888889,0.03319690401425736,0.16557028866977946,-1.9850690624454113
1590514081.0695767,-1.291714787535411,-2.9383677053824364,8.738491444759207,0.4655555555555556,-0.07777777777777778,-0.6588888888888889,0.042528902645242964,0.16090428935428663,-1.965886620815052
1590514081.0795767,-1.269857546313,-2.9367616357913335,8.720284907374,0.4655555555555556,-0.07777777777777778,-0.6588888888888889,0.04544610284179034,0.1581549241753001,-1.930366463564892
1590514081.0895767,-1.2542026948007514,-2.947198203466166,8.751594610398497,0.4655555555555556,-0.07777777777777778,-0.6588888888888889,0.04487687637762461,0.15644724478280295,-1.8859667993599651
1590514081.0995767,-1.1438579953299317,-2.9168306235406036,8.733464498832483,0.47366362535674134,-0.020284191914824105,-0.6493066245783966,0.04544770561991715,0.16250159373505532,-1.8089193659482903
1590514081.1095767,-1.1348699572549603,-3.029001127108011,8.916306062990452,0.4777777777777778,0.008888888888888889,-0.6444444444444445,0.03908488240968715,0.1456162475739693,-1.756294301671026
1590514081.1195767,-1.1477414634146341,-3.097848780487805,8.980965853658537,0.4777777777777778,0.008888888888888889,-0.6444444444444445,0.03786247040416357,0.13331601711094856,-1.7261279696595078
1590514081.1295767,-1.103898606271777,-3.0345202090592336,8.805594425087108,0.4777777777777778,0.008888888888888889,-0.6444444444444445,0.0458333267648341,0.14022409262352967,-1.6969014963370492
1590514081.1395767,-1.0414895549500454,-2.9951861943687557,8.772579473206177,0.4777777777777778,0.008888888888888889,-0.6444444444444445,0.046502482840375704,0.13768840645331284,-1.632135495346339
1590514081.1495767,-0.996667212080129,-2.9999983637596133,8.82833524228045,0.4803699461598997,0.02092395637731184,-0.6468514579421291,0.04581435740643661,0.1299908169859428,-1.5698888777703701
1590514081.1595767,-0.9901311329795938,-3.0196066010612186,8.805458965428578,0.4854535632380938,0.044526464240355924,-0.6515719595147379,0.05223113805816268,0.1282083779160189,-1.5509950236291765
1590514081.1695766,-0.9835950538790584,-3.0392148383628244,8.782582688576705,0.4905371803162879,0.0681289721034,-0.6562924610873466,0.05864791870988875,0.12642593884609502,-1.5321011694879831
1590514081.1795766,-0.9570275698375023,-3.0729724301624977,8.789143691802082,0.4933333333333334,0.0811111111111111,-0.6588888888888889,0.05967145120529773,0.12126903432542535,-1.4678320185470504
1590514081.1895766,-0.9158981691327409,-3.1086327230442468,8.807694507398223,0.4933333333333334,0.0811111111111111,-0.6588888888888889,0.05563236990731925,0.11408979182466783,-1.3747276059160727
1590514081.1995766,-0.9009677610736025,-3.1036559203578675,8.762903283220808,0.4933333333333334,0.0811111111111111,-0.6588888888888889,0.05563236990731925,0.1124611369540537,-1.351926437727475
1590514081.2095766,-0.847102119460501,-3.1214489402697496,8.76860809248555,0.4971464782701777,0.10351333761507171,-0.6622253907086276,0.05048499376172171,0.10752119352693121,-1.2888504924652844
1590514081.2195766,-0.7284585715582176,-3.125383428623287,8.801537571467465,0.5022222222222222,0.13333333333333333,-0.6666666666666666,0.03624879000011734,0.10253809355466686,-1.1895911109643775
1590514081.2295766,-0.706852705163074,-3.138087841938457,8.79561756838769,0.5022222222222222,0.13333333333333333,-0.6666666666666666,0.03898747251648446,0.09886140364262325,-1.1317823339763045
1590514081.2395766,-0.7033202050977186,-3.165559931634094,8.838919521438656,0.5022222222222222,0.13333333333333333,-0.6666666666666666,0.035626645219786715,0.09053465874214735,-1.0692284096761424
1590514081.2495766,-0.6276574160195539,-3.175195215331704,8.864804784668296,0.4999132376303539,0.14949622547641195,-0.6672439128146338,0.03006173058656388,0.08617563181722003,-1.0094835120712584
1590514081.2595766,-0.5766419794647365,-3.140148123211581,8.846716041070527,0.4977777777777778,0.16444444444444445,-0.6677777777777778,0.03235862025808162,0.08400204912016683,-0.9379097470889345
1590514081.2695765,-0.5050300961513406,-3.0450300961513403,8.6983901816192,0.4977777777777778,0.16444444444444445,-0.6677777777777778,0.034542245227758506,0.07290786982897411,-0.8690474917225376
1590514081.2795765,-0.46932537200541097,-3.0610119419918833,8.757867168977004,0.4977777777777778,0.16444444444444445,-0.6677777777777778,0.030959893929083472,0.06977637483061161,-0.8308201927999275
1590514081.2895765,-0.4392344379574048,-3.0792344379574046,8.836411479319136,0.4977777777777778,0.16444444444444445,-0.6677777777777778,0.02805366332687395,0.06715655176835163,-0.7863271769994806
1590514081.2995765,-0.3575616113744076,-2.989756812796209,8.775366409952607,0.4977777777777778,0.17051484333859926,-0.6677777777777778,0.031155174035461135,0.05839941598909202,-0.7114349573320986
1590514081.3095765,-0.36781586048572235,-3.0604015465785976,8.780861895364291,0.4977777777777778,0.17222222222222222,-0.6677777777777778,0.024048493477534034,0.058240320532788346,-0.6703972545637481
1590514081.3195765,-0.387319449751624,-3.1585555980129922,8.82659724875812,0.4977777777777778,0.17222222222222222,-0.6677777777777778,0.00795093510742067,0.05092058115480112,-0.6346165466553412
1590514081.3295765,-0.33795287255219664,-3.1651293921577706,8.773082264709966,0.4977777777777778,0.17222222222222222,-0.6677777777777778,0.014627414099605385,0.04880762026928092,-0.5969384989332388
1590514081.3395765,-0.2793823910959033,-3.1716050311154564,8.761605031115456,0.4977777777777778,0.17222222222222222,-0.6677777777777778,0.02107594833695351,0.048454428953712075,-0.5678782732242401
1590514081.3495765,-0.22921634411640063,-3.1522884588218676,8.963980788246928,0.5847612264758048,0.158366451633156,-0.6677777777777778,0.012327435680791811,0.04799655442984406,-0.5352491611659965
1590514081.3595765,-0.15485187967469055,-3.0205617794035993,8.843697618969854,0.6233333333333333,0.15222222222222226,-0.6677777777777778,0.01237352048231723,0.055695325062712374,-0.5120659398056568
1590514081.3695765,-0.140260098928277,-3.0350288540807915,8.721762984336356,0.6233333333333333,0.15222222222222226,-0.6677777777777778,0.022636312482777858,0.04523795758990424,-0.49897311330884364
1590514081.3795764,-0.15793117918590013,-3.15017205203525,8.8082752832564,0.6233333333333333,0.15222222222222226,-0.6677777777777778,0.014763980372580022,0.04457346060210235,-0.48929413872416244
1590514081.3895764,-0.15335362663495838,-3.143170986920333,8.803110107015458,0.6233333333333333,0.15222222222222226,-0.6677777777777778,0.008739928194826302,0.049067462310058534,-0.48177474097936496
1590514081.3995764,-0.15997592571363065,-3.090024074286369,8.730080247621231,0.623739029640669,0.1520991758696677,-0.6676377902607411,0.01308909402420286,0.042544151248871,-0.47887208741868037
1590514081.4095764,-0.13,-3.146003424319252,8.788394521089197,1.1288888888888888,-0.0011111111111111113,-0.4933333333333334,0.009162605037685321,0.04358944865444441,-0.47616952788240985
1590514081.4195764,-0.10746644709757103,-3.1549776313983804,8.697421709894332,1.1288888888888888,-0.0011111111111111113,-0.4933333333333334,0.009822357114309656,0.047458459146358156,-0.4824284536847804
1590514081.4295764,-0.08537621494183849,-3.15,8.76774271034897,1.1288888888888888,-0.0011111111111111113,-0.4933333333333334,0.009313100335159129,0.04988498895724323,-0.49150730113255087
1590514081.4395764,-0.09185483710865379,-3.1262903257826924,8.823709674217309,1.1288888888888888,-0.0011111111111111113,-0.4933333333333334,0.010666389445911773,0.04953163493285693,-0.5057848035865353
1590514081.4495764,-0.07856385461820607,-3.1528722907635878,8.847145381793931,1.0661683153643806,0.19102026601459746,-0.6195684116927865,0.014337459331514021,0.050646265695042526,-0.5262523424174468
1590514081.4595764,-0.07,-3.1506012590799033,8.830601259079904,1.0411111111111109,0.2677777777777778,-0.67,0.014566272830373206,0.052679763026487775,-0.5474578279410491
1590514081.4695764,-0.05693038730905682,-3.131286924872705,8.79821731218176,1.0411111111111109,0.2677777777777778,-0.67,0.016556922812218454,0.05487638192618505,-0.5667786386881565
1590514081.4795763,-0.04,-3.08759997117948,8.765949996397435,1.0411111111111109,0.2677777777777778,-0.67,0.01786780664537642,0.056281413829925755,-0.5913666477853633
1590514081.4895763,-0.003921636194105481,-3.014229740138647,8.785770259861353,1.0411111111111109,0.2677777777777778,-0.67,0.018644950082514017,0.05675680961650713,-0.6227726819245624
1590514081.4995763,0.057633967901329144,-2.941640556172674,8.830725475925997,0.70873588607568,0.2516579631686691,-0.7152890029494006,0.02257021522066134,0.06082842975524105,-0.6528707679633069
1590514081.5095763,0.04849578871629915,-2.963008422567402,8.8471680704279,0.56,0.24444444444444444,-0.7355555555555555,0.01899787049549749,0.060613524227526756,-0.6818462486571532
1590514081.5195763,0.07974349459622432,-2.973376084233963,8.843376084233963,0.56,0.24444444444444444,-0.7355555555555555,0.01817584964176901,0.06288592152460794,-0.7092823704877252
1590514081.5295763,0.12014231865404065,-2.9045374643743678,8.769501884710857,0.56,0.24444444444444444,-0.7355555555555555,0.019093419832906754,0.06765479535009292,-0.7342377885182405
1590514081.5395763,0.16431170521406688,-2.84,8.752675361297145,0.56,0.24444444444444444,-0.7355555555555555,0.02184495045347652,0.07178799940968576,-0.7631027250600152
1590514081.5495763,0.22211096374889477,-2.8753775419982315,8.816733421750664,0.5226570390018667,0.25721966794380585,-0.7380123293054327,0.021230016815345257,0.07453282162054001,-0.7972057073674709
1590514081.5595763,0.2665501188589541,-2.953100237717908,8.816550118858954,0.4755555555555556,0.2733333333333333,-0.7411111111111112,0.024185592683086454,0.07816349268528414,-0.8323021943266641
1590514081.5695763,0.30011013163803085,-3.006813508850708,8.783076359511261,0.4755555555555556,0.2733333333333333,-0.7411111111111112,0.023231011699627456,0.07963064712224129,-0.8698838878901244
1590514081.5795763,0.3030504940171789,-2.9922019760687157,8.773899011965641,0.4755555555555556,0.2733333333333333,-0.7411111111111112,0.02418339511445894,0.08417908815176403,-0.9026173303949092
1590514081.5895762,0.25992258089427756,-2.974274654413468,8.848704147038381,0.4755555555555556,0.2733333333333333,-0.7411111111111112,0.024306323818049216,0.08617563181722003,-0.9325442987475602
1590514081.5995762,0.23,-2.899282780786858,8.870534491994524,0.4768651336891323,0.27988122400121684,-0.7365275876435926,0.022264608769340197,0.08746130714339077,-0.9659314045558107
1590514081.6095762,0.21908212747798425,-2.8390821274779845,8.85,0.4777777777777778,0.28444444444444444,-0.7333333333333333,0.02479400350652587,0.08835729338221293,-0.9963395390389016
1590514081.6195762,0.20494213973799127,-2.87046288209607,8.809537117903929,0.4777777777777778,0.28444444444444444,-0.7333333333333333,0.026719042595674928,0.09166765518263176,-1.0211312207754712
1590514081.6295762,0.20966564609988037,-2.8761702386504187,8.80866258439952,0.4777777777777778,0.28444444444444444,-0.7333333333333333,0.02723429720976157,0.09648381572196162,-1.0366340608233076
1590514081.6395762,0.23523276260990283,-2.8552327626099028,8.85761638130495,0.4777777777777778,0.28444444444444444,-0.7333333333333333,0.026699963709173546,0.0985901795836146,-1.0424188189076786
1590514081.6495762,0.27107609250747794,-2.863385861238783,8.842309768731305,0.41685926898664916,0.28629045986235746,-0.7099504713731021,0.03185166994192997,0.09745327980863719,-1.0338900045571076
1590514081.6595762,1.1809943499217928,-4.908060778242411,0.1609700896989832,0.36777777777777776,0.2877777777777778,-0.6911111111111111,-0.3285725813340993,0.06133533575060654,-0.3214751300385815
1590514081.6695762,0.5900258299052905,-4.497949870850474,-7.465447240026786,0.36777777777777776,0.2877777777777778,-0.6911111111111111,-1.968078922281893,-0.5080546717481893,3.499113303488045
1590514081.6795762,-1.9783358939112154,0.6103897469070914,-0.5449082234980192,0.36777777777777776,0.2877777777777778,-0.6911111111111111,-5.553020033410172,-0.7332617090099371,7.99774461050805
1590514081.6895761,-0.5202961210974456,-1.8494377168085778,3.853409649952696,0.36777777777777776,0.2877777777777778,-0.6911111111111111,-6.229424652910098,0.8990127474227948,3.2699248875255824
1590514081.6995761,-1.102950948921552,-1.6851985132623755,5.476458298135946,0.3900958620387578,0.31776770350346967,-0.6945983117768892,-5.3062227729391145,0.011034180003448357,3.2037502274007434
1590514081.7095761,-0.88509090451249,-1.3230303182917003,4.87793941377921,0.4033333333333333,0.33555555555555555,-0.6966666666666667,-4.272973735454362,-1.089803816076603,3.282856338664807
1590514081.7195761,-0.9207916252636718,-1.2184167494726565,4.6027298084130885,0.4033333333333333,0.33555555555555555,-0.6966666666666667,-3.403996721012077,-1.723420198214705,3.4186586710626523
1590514081.729576,0.06661007173497702,-1.6591125049565625,7.964932050034246,0.4033333333333333,0.33555555555555555,-0.6966666666666667,-2.230606919247956,-2.5114000770817406,3.606226522284393
1590514081.739576,-0.3448965341673639,-1.9172713386914937,7.313733861875841,0.4033333333333333,0.33555555555555555,-0.6966666666666667,-0.650214408829372,-2.7066361274602135,3.813107877005923
1590514081.749576,-1.0333174462425183,-1.6820682775437819,3.9453857237863,0.4403162639473879,0.37801743885317374,-0.6254402817803394,1.6571147508038842,-1.6222866349701426,4.129030523906859
1590514081.759576,-0.8236640501094136,-2.2235949890586415,8.211883921222219,0.4633333333333333,0.4044444444444445,-0.5811111111111111,3.093069703393575,-1.4941936433715057,4.275557317373007
1590514081.769576,-10.107526407547944,3.484248794995385,11.56068710901446,0.4633333333333333,0.4044444444444445,-0.5811111111111111,4.305138477820002,-1.6236370156256903,4.372633954109213
1590514081.779576,2.7045413988657856,3.5772839319470697,2.958412098298675,0.4633333333333333,0.4044444444444445,-0.5811111111111111,5.324133069394613,-0.6528751318320654,3.8635318496289184
1590514081.789576,4.937557383650693,0.18713743312431697,-1.2749600184087901,0.4633333333333333,0.4044444444444445,-0.5811111111111111,4.785444521499429,-0.8513246173651878,1.187888993517527
1590514081.799576,-0.42154165226408574,-0.49546114445526823,-0.3992395437262357,0.4633333333333333,0.3189443344610991,-0.6052599971369415,4.21433651358125,-0.371314198245808,-0.9780146175736947
1590514081.809576,-0.14431887599266952,-0.059976437734531804,-0.11810541932105767,0.4633333333333333,0.2588888888888889,-0.6222222222222222,4.239388512957086,0.314793734960632,-1.1405975689911663
1590514081.819576,1.3289386072083078,0.8642409896151497,-3.4764004276114844,0.4633333333333333,0.2588888888888889,-0.6222222222222222,4.195468461415699,0.20698997208632203,-1.1006702494080887
1590514081.829576,0.07002101519560305,-3.726462980924669,6.274342062722276,0.4633333333333333,0.2588888888888889,-0.6222222222222222,0.06109146130151988,0.2739805078756593,-0.4575643660807818
1590514081.839576,-0.6452764761012184,-2.234910965323336,9.490609184629804,0.4633333333333333,0.2588888888888889,-0.6222222222222222,-0.9200396011245178,-0.08460634854530613,-0.1559141714873191
1590514081.849576,-0.44991744986394094,-3.7542432141958795,12.979855022752737,0.47006588258011733,0.20036749928222797,-0.6600280756849324,0.1246117831805949,0.13254371016292968,-0.028260352210949025
1590514081.859576,0.1,-1.0063272792879479,3.429201948520568,0.4777777777777778,0.13333333333333333,-0.7033333333333334,1.0057752727742404,0.2315809544085854,0.06778380365920927
1590514081.869576,-0.0722691924227318,-0.7852113659022931,2.616827517447657,0.4777777777777778,0.13333333333333333,-0.7033333333333334,0.7897677944222881,-0.16195465659029762,0.010238583402371014
1590514081.879576,-0.33686096462124127,-1.7326357699158315,5.698166102050082,0.4777777777777778,0.13333333333333333,-0.7033333333333334,-0.19811746922894263,-0.18939699467947163,-0.019281680804242966
1590514081.889576,-0.4017206169889203,-1.9105550727786225,7.751683684553552,0.4777777777777778,0.13333333333333333,-0.7033333333333334,-0.494872814547745,0.2633221193205335,0.06466780445962045
1590514081.899576,-0.4474974664094936,-2.0879162444015824,8.205274118147047,0.4724692609180497,0.13930541480052744,-0.7106325440154594,0.09183743905758086,0.031610271221845454,0.04907326350225295
1590514081.909576,-2.0850798969072164,-8.403263853092783,7.303195554123712,0.4688888888888889,0.14333333333333334,-0.7155555555555555,0.037602771523904316,-0.03721532276820126,0.02952443861043702
1590514081.919576,-5.223265434912176,-13.431156610454721,6.173396907758651,0.4688888888888889,0.14333333333333334,-0.7155555555555555,-0.17268800118097727,0.10649966450675677,0.004811885842460006
1590514081.929576,-3.8094160985481045,-5.429916894241537,8.019037309180927,0.4688888888888889,0.14333333333333334,-0.7155555555555555,-0.2639823995348588,0.18271502403504553,-0.9403133009681972
1590514081.939576,1.4240724860652223,-0.654029609826225,10.646076571918586,0.4688888888888889,0.14333333333333334,-0.7155555555555555,-0.03827462721984615,0.14230346873661973,-2.2549819889290914
1590514081.949576,0.9981919891210285,-1.450281246136729,8.880678699468415,0.4789290669084216,0.1427755456655815,-0.7194600692298183,0.638561133739141,0.05488777574666229,-2.641172818437131
1590514081.959576,-0.006870532168387622,-2.457887212073074,10.350857823669578,0.4888888888888889,0.14222222222222222,-0.7233333333333334,0.2215382878777472,0.09339989477548487,-2.4792746862269235
1590514081.969576,-0.6539719570547766,-2.279070631085295,9.752227485895208,0.4888888888888889,0.14222222222222222,-0.7233333333333334,-0.32272109377962643,0.28347497214525447,-2.299638937835707
1590514081.9795759,-0.4454682734508666,-1.7413927942671528,7.400020580723549,0.4888888888888889,0.14222222222222222,-0.7233333333333334,-0.10320981097023668,0.25259674560299356,-2.1469727728430215
1590514081.9895759,-0.33608892675936325,-2.1721778535187264,8.645012587629266,0.4888888888888889,0.14222222222222222,-0.7233333333333334,0.19048088053434398,0.13576130349490634,-2.0481172011025577
1590514081.9995759,-0.6465244989212345,-3.192087802132516,9.858930615052687,0.47807482915203126,0.1681759655906806,-0.7260368482675478,0.12839099798473108,0.1710562921986419,-1.9451727871799096
1590514082.0095758,-0.78,-3.88,9.9,0.4666666666666667,0.1955555555555556,-0.7288888888888889,0.015271630954950384,0.17889624832941878,-1.894773069196344
1590514082.0195758,-2.726881183725986,-13.242516083233507,6.665581436620968,0.4666666666666667,0.1955555555555556,-0.7288888888888889,0.018030892234824344,0.17823402562224902,-1.9620990444252686
1590514082.0295758,0.3862988487108805,-1.5054953786281822,7.91971461002108,0.4666666666666667,0.1955555555555556,-0.7288888888888889,0.04235322530706829,0.1736754901064945,-2.5864752007499767
1590514082.0395758,-0.05894039039354527,-2.5121633433488118,9.177946966990945,0.4666666666666667,0.1955555555555556,-0.7288888888888889,0.052557333219090854,0.22311944000877526,-2.9627638358523125
1590514082.0495758,-0.13779938300458072,-2.519525723723162,9.320972235206131,0.45898479670658787,0.21634179191812178,-0.7279851394818209,0.06731851204083969,0.24353773633624554,-2.832288708641839
1590514082.0595758,-0.035308098295626436,-3.2585583420176825,8.481503681043467,0.4477777777777778,0.2466666666666667,-0.7266666666666667,0.04630697133563207,0.21556949738948664,-2.728727082115398
1590514082.0695758,0.2067678466653628,-5.57087072168981,8.292297281439469,0.4477777777777778,0.2466666666666667,-0.7266666666666667,0.03188903945263255,0.22430540249249958,-2.763118363713699
1590514082.0795758,0.4125765890176981,-6.32860013809645,8.382527891848675,0.4477777777777778,0.2466666666666667,-0.7266666666666667,0.08273906095067868,0.264364665655243,-3.2329778477605315
1590514082.0895758,-1.3211995537581926,-6.569683726119091,9.182898340538278,0.4477777777777778,0.2466666666666667,-0.7266666666666667,0.03984275025057597,0.3196924592483944,-3.0532322570214188
1590514082.0995758,-2.3343471771007116,-9.496295548336114,10.57360347703925,0.4276630471897835,0.26678139725466093,-0.7204406786275256,-0.15960064040853425,0.010742226467791105,-0.3501150171730747
1590514082.1095757,3.606058879392213,-0.8832098765432097,10.965574548907883,0.4011111111111111,0.2933333333333333,-0.7122222222222222,0.32712388762198324,-0.22216690529511388,1.3786578278551718
1590514082.1195757,3.5055076941718166,-2.335671876893251,7.078523567187689,0.4011111111111111,0.2933333333333333,-0.7122222222222222,0.3315516257341594,-0.09744517077372011,0.7696792561347349
1590514082.1295757,1.5954504701508856,-2.9127771703476926,6.943312923682484,0.4011111111111111,0.2933333333333333,-0.7122222222222222,-0.13823662221972033,-0.05942940563786344,0.07286107961910152
1590514082.1395757,0.6422272755591552,-4.23916869146263,9.641203040309016,0.4011111111111111,0.2933333333333333,-0.7122222222222222,-0.1824732934366507,0.06577698518271223,-0.21941807584728373
1590514082.1495757,0.1898478433086568,-3.405187259267353,8.901135301991422,0.3911261962648309,0.3042259677110935,-0.7117683624564822,-0.015009136667983102,0.10199829516569964,-0.45535699542985875
1590514082.1595757,0.05062360801781737,-3.319019501330871,9.009787603889402,0.37666666666666665,0.32,-0.7111111111111111,0.006521815873426446,0.051091103117176066,-0.5939038831627961
1590514082.1695757,-0.2814328284082443,-4.856222994785201,8.676490563695058,0.37666666666666665,0.32,-0.7111111111111111,-0.016394560929829712,0.05802030602927046,-0.6571889777539316
1590514082.1795757,-3.6767865827768555,-8.490748060369786,7.849028061913769,0.37666666666666665,0.32,-0.7111111111111111,-0.029242239778879887,0.07612261583171392,-0.7191149616459791
1590514082.1895757,0.3741944332392094,-5.030856797095603,8.708709963695037,0.37666666666666665,0.32,-0.7111111111111111,0.011823303197745171,-0.020936910567086475,0.05436570371510695
1590514082.1995757,1.0645027833803953,-2.3643716014521985,8.93204501815248,0.37666666666666665,0.32,-0.7111111111111111,0.09376846530565355,-0.01872217645606192,0.13631086582301533
1590514082.2095757,-0.19158940397350993,-4.570596026490066,8.970331125827816,0.3888888888888889,0.3333333333333333,-0.7177777777777777,-0.029177917420550897,-0.004688405151259603,-0.04960751644637856
1590514082.2195756,-0.06465691160639528,-4.13424823571628,8.700408675890117,0.3888888888888889,0.3333333333333333,-0.7177777777777777,-0.003810753252723455,0.004677033206703137,-0.008846076160244177
1590514082.2295756,-0.04378630263438188,-4.230290421075055,8.621358907903145,0.3888888888888889,0.3333333333333333,-0.7177777777777777,-0.0085150523531276,-0.00014823385713289743,-0.0031242584903564703
1590514082.2395756,-0.04651929683777616,-4.2486736715399855,8.655663164230008,0.3888888888888889,0.3333333333333333,-0.7177777777777777,0.005692223483916105,-0.00180197574958426,-0.001090830782496456
1590514082.2495756,-0.03200280205484021,-4.110014010274201,8.744019614383882,0.38777622108064436,0.3348910682648757,-0.7135496401064484,0.012217610420727701,-0.00043694362653337257,-0.0006538871559630834
1590514082.2595756,-0.042025187893560835,-4.137848872638635,8.824302254722731,0.38333333333333336,0.3411111111111111,-0.6966666666666667,0.008892608530150368,-0.002181661564992912,0.0008699170530329242
1590514082.2695756,-0.04215839303991812,-4.144891248720573,8.802375895598772,0.38333333333333336,0.3411111111111111,-0.6966666666666667,-0.010201975354363924,-0.0017539682521781233,0.00042769331281478876
1590514082.2795756,-0.0371198028460132,-4.24067970426902,8.59864059146196,0.38333333333333336,0.3411111111111111,-0.6966666666666667,-0.014180800172453925,7.414423396410433e-05,0.00031418077152274896
1590514082.2895756,-0.04330270701241505,-4.256651353506207,8.576743232468962,0.38333333333333336,0.3411111111111111,-0.6966666666666667,-0.006875186822198607,0.002181661564992912,-0.0003602694474709241
1590514082.2995756,-0.026126987688251956,-4.238380963064756,8.640984098493984,0.3753721413591846,0.3383139355526264,-0.6990335075238461,0.009114495845200077,0.0019704215124607856,0.001090830782496456
1590514082.3095756,-0.020925807052781978,-4.176342741184023,8.789120162342368,0.3422222222222222,0.32666666666666666,-0.7088888888888889,0.014377765455691024,0.0013887859489162425,0.000494920449656883
1590514082.3195755,-0.04882086285054381,-4.144716548597825,8.818775531309788,0.3422222222222222,0.32666666666666666,-0.7088888888888889,0.009812532138460717,0.0019244137451105239,-0.001090830782496456
1590514082.3295755,-0.0415914300980747,-4.173634279607701,8.688645741765345,0.3422222222222222,0.32666666666666666,-0.7088888888888889,-0.003593817098387627,0.00034719618783424786,-0.001090830782496456
1590514082.3395755,-0.022102201257861637,-4.203503668763103,8.63859853249476,0.3422222222222222,0.32666666666666666,-0.7088888888888889,-0.010373240461579636,-0.0020287851754543624,0.0008615161981886318
1590514082.3495755,-0.04408490566037736,-4.240141509433962,8.623943396226414,0.3422222222222222,0.32666666666666666,-0.7088888888888889,-0.0047780446444632505,-0.00043015779913539503,-0.0015364248662898198
1590514082.3595755,-0.04,-4.135701938888676,8.796578836666795,0.3566666666666667,0.3411111111111111,-0.7177777777777777,0.008353455232390734,-0.003023698329102093,-0.0009664337733028183
1590514082.3695755,-0.04,-4.175801942712914,8.772518834372251,0.3566666666666667,0.3411111111111111,-0.7177777777777777,0.005728916119408468,-0.0012740055871139147,-9.15874023087297e-05
1590514082.3795755,-0.05620625540766922,-4.1813812337769924,8.678618766223007,0.3566666666666667,0.3411111111111111,-0.7177777777777777,-0.001655333352897551,-0.004570239799098018,-0.00041383333822438774
1590514082.3895755,-0.04076360891736161,-4.2277091732479155,8.632290826752085,0.3566666666666667,0.3411111111111111,-0.7177777777777777,-0.008393459014832913,-0.005412505506839938,-0.0020983647537082283
1590514082.3995755,-0.030880528529549218,-4.229119471470451,8.709119471470451,0.3571558491830829,0.34042625558812833,-0.7165059032350956,-0.0010290524151145564,0.00019210152497972597,-0.00089872925751673
1590514082.4095755,-0.03979054255002762,-4.220209457449972,8.700209457449972,0.36210585697223757,0.33349624468331185,-0.7036358829832935,0.010634128664100854,0.0021359650381822947,0.0010451342556858387
1590514082.4195755,-0.0548149487425193,-4.137407474371259,8.761482218083856,0.3622222222222222,0.3333333333333333,-0.7033333333333334,0.009130759925620138,0.0008080301064723608,-0.0013736314585205511
1590514082.4295754,-0.04,-4.13222741840539,8.681591013146706,0.3622222222222222,0.3333333333333333,-0.7033333333333334,-0.0024940562658340875,3.471052231568617e-05,-0.0022510826096242844
1590514082.4395754,-0.0424323311976343,-4.209729324790537,8.710541350418927,0.3622222222222222,0.3333333333333333,-0.7033333333333334,-0.011733812433100418,0.001090830782496456,-0.004097996955625227
1590514082.4495754,-0.04900339116056165,-4.24,8.657972870715508,0.36366176832363317,0.3321152558629087,-0.7047728794347443,-0.009603749904763646,0.001090830782496456,-0.00294635286743914
1590514082.4595754,-0.0375593506848634,-4.222915454794044,8.73732194794541,0.37666666666666665,0.3211111111111111,-0.7177777777777777,0.0048439969672228085,0.0005583637020504767,0.0005324670804459793
1590514082.4695754,-0.03250434253951711,-4.17,8.75248697238145,0.37666666666666665,0.3211111111111111,-0.7177777777777777,0.012543606603553348,-0.0013640121756985169,0.0016352987785887899
1590514082.4795754,-0.04200264464594128,-4.17,8.723992066062177,0.37666666666666665,0.3211111111111111,-0.7177777777777777,0.008942216041389544,-0.002181661564992912,0.00043690928523889243
1590514082.4895754,-0.05179419525065963,-4.178970976253298,8.703588390501318,0.37666666666666665,0.3211111111111111,-0.7177777777777777,0.0001122490778822211,-0.001594512542224371,0.0012030798603786769
1590514082.4995754,-0.05790842432105424,-4.209542121605271,8.71581684864211,0.37666666666666665,0.3211111111111111,-0.7177777777777777,-0.003222545562728346,0.00040636424214196944,-0.0021317147802318906
1590514082.5095754,-0.010334001810211725,-4.2189979945693645,8.681670009051059,0.3888888888888889,0.3333333333333333,-0.7244444444444444,-0.0029445868370997293,-3.643394559884874e-05,-0.0011272647280953048
1590514082.5195754,-0.017777698901449944,-4.19666690329565,8.71888849450725,0.3888888888888889,0.3333333333333333,-0.7244444444444444,0.004363245693332053,-0.0008484153378690468,-0.0019392461203655027
1590514082.5295753,-0.059195886306583526,-4.19,8.661072151591222,0.3888888888888889,0.3333333333333333,-0.7244444444444444,0.002006231171111791,-0.0032140155495289945,-5.847679796037363e-05
1590514082.5395753,-0.03372236618349664,-4.19,8.695036845088671,0.3888888888888889,0.3333333333333333,-0.7244444444444444,-0.0035512288066494274,-0.0013615288902752549,-0.001910963457214113
1590514082.5495753,-0.020193191700832402,-4.23,8.70993560276639,0.38881018115892013,0.33325462560336455,-0.7244015129553706,-0.006523910749559652,-7.02464847302766e-06,-1.404929694605532e-05
1590514082.5595753,-0.046247981115666546,-4.23,8.701250672961445,0.3781952669528766,0.32263971139732106,-0.718611559752074,-0.0036817741170432627,-0.0009544035259784912,-0.0019088070519569823
1590514082.5695753,-0.0435060980854248,-4.204740852871863,8.696493901914575,0.37666666666666665,0.3211111111111111,-0.7177777777777777,0.007692352610388714,-0.00501516080776543,-0.0019904335790912487
1590514082.5795753,-0.05793611201899093,-4.183095831971514,8.682063887981009,0.37666666666666665,0.3211111111111111,-0.7177777777777777,0.012414563627564726,0.001281120548469252,-0.0012033984095619135
1590514082.5895753,-0.04809575451571612,-4.17952122742142,8.738095754515717,0.37666666666666665,0.3211111111111111,-0.7177777777777777,0.0018706716199617434,0.0006753888641591093,-0.0006753888641591093
1590514082.5995753,-0.04063895605177073,-4.216805219741146,8.730638956051772,0.37666666666666665,0.3211111111111111,-0.7177777777777777,-0.007890254744050956,-0.0009514321965096737,0.0009514321965096737
1590514082.6095753,-0.03,-4.223418623777757,8.71,0.3688888888888889,0.3333333333333333,-0.6966666666666667,-0.007048533237223171,-0.0019952045624653035,0.0005593710075828259
1590514082.6195753,-0.031494988496019886,-4.237010023007961,8.696545103535822,0.3688888888888889,0.3333333333333333,-0.6966666666666667,0.0020692984650584004,-0.001090830782496456,0.0027832585062083958
1590514082.6295753,-0.04171981576541734,-4.213120736938331,8.644077420715842,0.3688888888888889,0.3333333333333333,-0.6966666666666667,0.007823418275189186,-0.001090830782496456,-0.0001876027977139939
1590514082.6395752,-0.049093242388017724,-4.183627030447929,8.747305393432248,0.3688888888888889,0.3333333333333333,-0.6966666666666667,0.008627734348430323,-0.001090830782496456,-0.0009919188709551312
1590514082.6495752,-0.05,-4.198112659412083,8.732831010881876,0.3688888888888889,0.3333333333333333,-0.6966666666666667,-0.00016438463783693784,0.0008849538614610077,-0.001090830782496456
1590514082.6595752,-0.038009093569225924,-4.211990906430774,8.724072748553807,0.3422222222222222,0.32666666666666666,-0.7388888888888889,-0.003928974726034121,-0.0008736565805206045,0.0008736565805206045
1590514082.6695752,-0.02856167326172979,-4.215685019785189,8.65712334652346,0.3422222222222222,0.32666666666666666,-0.7388888888888889,-0.001397176024296478,-0.0003137942162785735,-0.00015689710813928675
1590514082.6795752,-0.022066048726130782,-4.18793395127387,8.647231170541458,0.3422222222222222,0.32666666666666666,-0.7388888888888889,0.003272492347489368,-0.0017309196552727029,-0.001090830782496456
1590514082.6895752,-0.04134574205238017,-4.17403722615714,8.718074452314282,0.3422222222222222,0.32666666666666666,-0.7388888888888889,0.0028320992906784945,0.0015944708225784138,-0.0009440330968928314
1590514082.6995752,-0.049981675177071326,-4.199945025531214,8.769890051062427,0.3422222222222222,0.32666666666666666,-0.7388888888888889,5.996784280319373e-06,-0.0021736658526191528,-1.998928093439791e-06
1590514082.7095752,-0.02474160648548611,-4.208419464504838,8.72790267747581,0.35906115123189813,0.32666666666666666,-0.7136304953743751,-0.0045921055270067655,-0.0058553459865983235,-0.0018368422108027064
1590514082.7195752,-0.046090687735190455,-4.238696895911731,8.660878271382112,0.3622222222222222,0.32666666666666666,-0.7088888888888889,-0.003226150288160439,-0.004601274281113241,0.0008065375720401098
1590514082.7295752,-0.024665327180779514,-4.2315551090602606,8.610885763421818,0.3622222222222222,0.32666666666666666,-0.7088888888888889,0.0030062344635293703,7.301428265411511e-05,-0.0007515586158823426
1590514082.7395751,-0.04099912553258787,-4.169000874467412,8.679991255325879,0.3622222222222222,0.32666666666666666,-0.7088888888888889,0.006435997006326234,-0.00010898768865250094,0.00010898768865250094
1590514082.7495751,-0.04880290992985655,-4.161197090070144,8.758029099298565,0.3622222222222222,0.32666666666666666,-0.7088888888888889,0.005584736182275611,-0.0009602485127031242,0.0009602485127031242
1590514082.7595751,-0.05,-4.213157373337108,8.753685253325786,0.3622222222222222,0.3333333333333333,-0.7111111111111111,-0.003214909573377964,-0.004363323129985824,-0.0001722080013975087
1590514082.769575,-0.0485520025989697,-4.23,8.706968023390727,0.3622222222222222,0.3333333333333333,-0.7111111111111111,-0.0077789341771604134,-0.004363323129985824,-0.001090830782496456
1590514082.779575,-0.038792988947393386,-4.225171955789574,8.636035055263033,0.3622222222222222,0.3333333333333333,-0.7111111111111111,-0.0017866681216938893,-0.004099994167786476,-0.0009591663013967818
1590514082.789575,-0.03300685340303361,-4.188997715532323,8.68501142233839,0.3622222222222222,0.3333333333333333,-0.7111111111111111,0.0015281598825608936,-0.002181661564992912,-0.00010933227501610942
1590514082.799575,-0.058903455514622644,-4.180365514828459,8.728172425857705,0.3622222222222222,0.3333333333333333,-0.7111111111111111,0.005294667981945433,-0.002181661564992912,-0.0010509592998622444
1590514082.809575,-0.03211011563704552,-4.202110115637046,8.769449421814771,0.3622222222222222,0.3211111111111111,-0.7088888888888889,-0.00011508895457581891,-0.0029272254837619115,-0.00011508895457581891
1590514082.819575,-0.048441883356574525,-4.218441883356574,8.66597695020917,0.3622222222222222,0.3211111111111111,-0.7088888888888889,-0.0009208666227595994,0.0,-0.0009208666227595994
1590514082.829575,-0.04,-4.209793576153662,8.591651390770702,0.3622222222222222,0.3211111111111111,-0.7088888888888889,6.755204574796735e-05,-4.503469716531157e-05,-4.503469716531157e-05
1590514082.839575,-0.03901765854979402,-4.1960706341991765,8.67982341450206,0.3622222222222222,0.3211111111111111,-0.7088888888888889,0.003272492347489368,-0.002074504735712222,-0.0019673479064315326
1590514082.849575,-0.03090536332514554,-4.163621453300582,8.760946366748545,0.3622222222222222,0.3211111111111111,-0.7088888888888889,0.003272492347489368,-0.0011895906009376665,-0.0001975196368824211
1590514082.859575,-0.038530482360751815,-4.177060964721504,8.795591447082256,0.3574830653551379,0.3381720758326147,-0.7088888888888889,0.0004808985228940332,-0.0029518933322266795,-0.0009305312748651116
1590514082.869575,-0.03055106329326721,-4.227795746826931,8.742285113894258,0.3566666666666667,0.3411111111111111,-0.7088888888888889,-0.004543658171005748,0.000970607421816507,-0.0001803350410199235
1590514082.879575,-0.037602084559132554,-4.1995916617634705,8.643570816172144,0.3566666666666667,0.3411111111111111,-0.7088888888888889,-0.006851099484458661,-0.0005676867871521019,-0.002487776354472837
1590514082.889575,-0.03030711584255498,-4.2190786524723345,8.677850189102115,0.3566666666666667,0.3411111111111111,-0.7088888888888889,-0.00023450799039591557,-3.35011414851307e-05,0.0009568262165559329
1590514082.899575,-0.036398267453998726,-4.200805197638004,8.711991337269994,0.3566666666666667,0.3411111111111111,-0.7088888888888889,0.0034897135467335167,-0.0013958854186934067,0.001090830782496456
1590514082.909575,-0.04,-4.19,8.754384957471611,0.3729233049810745,0.3411111111111111,-0.7215329409112061,0.008114140136472386,-0.0012949994903295433,0.0002041687078330874
1590514082.919575,-0.03212991252668145,-4.197870087473318,8.70490938768677,0.37666666666666665,0.3411111111111111,-0.7244444444444444,0.0018586993185031484,0.0006261559528706689,-0.0025754801030506876
1590514082.929575,-0.05043786303599838,-4.2291242739280035,8.610875726071995,0.37666666666666665,0.3411111111111111,-0.7244444444444444,-0.001090830782496456,-0.001043067334678018,-9.552689563687562e-05
1590514082.939575,-0.05819675163713049,-4.213606496725739,8.626393503274262,0.37666666666666665,0.3411111111111111,-0.7244444444444444,-0.001090830782496456,-0.0001967038822704402,-0.0017882538004520315
1590514082.949575,-0.029317640331649672,-4.186988230248737,8.699035309253789,0.37666666666666665,0.3411111111111111,-0.7244444444444444,0.001419363897943366,0.0,-0.0013449300048463046
1590514082.959575,-0.04105977608520111,-4.187019925361734,8.748079701446935,0.37120672471865157,0.3309712189219402,-0.7096246020141178,0.0037131717000742502,0.0015315101350813383,0.001972189487666221
1590514082.969575,-0.04003030943821809,-4.19,8.720121237752872,0.3688888888888889,0.32666666666666666,-0.7033333333333334,0.001100749522958995,-0.001080912042033917,9.918740462539193e-06
1590514082.979575,-0.049473631939616645,-4.22,8.631579104181151,0.3688888888888889,0.32666666666666666,-0.7033333333333334,-0.004133651736710178,-0.0022390794133118237,0.0010334129341775444
1590514082.989575,-0.039289293422163835,-4.219289293422164,8.664974946044854,0.3688888888888889,0.32666666666666666,-0.7033333333333334,7.752606124264013e-05,-0.003194966286246728,0.0
1590514082.999575,-0.03141784742422821,-4.2114178474242285,8.720075068030402,0.3688888888888889,0.32666666666666666,-0.7033333333333334,0.0009361676209733121,-0.002336324726516056,0.0
1590514083.009575,-0.04100690925840626,-4.17,8.78,0.3688888888888889,0.3411111111111111,-0.6966666666666667,0.004033812845710754,-0.0019619880421428656,0.0008711572596464096
1590514083.0195749,-0.049375323666494046,-4.17312338166753,8.771254531330916,0.3688888888888889,0.3411111111111111,-0.6966666666666667,0.0008182643130223285,6.814161736853185e-05,-0.001090830782496456
1590514083.0295749,-0.04032496116002072,-4.218375194199896,8.644549456240291,0.3688888888888889,0.3411111111111111,-0.6966666666666667,-0.0031307012929028266,0.0010553830188498206,-0.001090830782496456
1590514083.0395749,-0.04,-4.22,8.671640226130162,0.3688888888888889,0.3411111111111111,-0.6966666666666667,-0.003272492347489368,-0.0014977291645982326,0.000634875848900003
1590514083.0495749,-0.04552581802754159,-4.22,8.691051636055082,0.3688888888888889,0.3411111111111111,-0.6966666666666667,-0.003272492347489368,-0.002784434805284533,-0.0007174889383784076
1590514083.0595748,-0.0558782160022618,-4.208243567995477,8.711756432004524,0.3688888888888889,0.3326203546633996,-0.7129950444507273,0.0005747910293688917,-0.0019900645552032815,-0.0015404476688498686
1590514083.0695748,-0.0535315731009143,-4.187063146201829,8.732936853798172,0.3688888888888889,0.32666666666666666,-0.7244444444444444,0.003978088265074446,0.0017315528878438572,0.0003203610526737006
1590514083.0795748,-0.05,-4.188876274975549,8.660113525220064,0.3688888888888889,0.32666666666666666,-0.7244444444444444,0.0014585689368164676,0.0013359895520431303,0.00012257938477333726
1590514083.0895748,-0.02874144556267155,-4.19,8.664172369624886,0.3688888888888889,0.32666666666666666,-0.7244444444444444,-0.0012281177746649946,0.001863813634883606,-0.0015459657047743002
1590514083.0995748,-0.043076718403547674,-4.182307760532151,8.716153436807096,0.3688888888888889,0.32666666666666666,-0.7244444444444444,-0.0005034752454200935,0.0013425684052065026,-0.004698941044352139
1590514083.1095748,-0.04299265128499877,-4.201022046145003,8.744014697430002,0.37901061481055737,0.32277369515833265,-0.7298946045561121,0.0,0.0003264476142954231,-0.0023966212396781482
1590514083.1195748,-0.05,-4.180385991867938,8.774596113848864,0.38333333333333336,0.3211111111111111,-0.7322222222222222,0.0010066204202283716,-0.0010487256013624138,0.0009224100579602871
1590514083.1295748,-0.05,-4.188245048623733,8.66456931926774,0.38333333333333336,0.3211111111111111,-0.7322222222222222,-0.0007079597858931168,-0.00019143549830166957,-0.0025067503542826894
1590514083.1395748,-0.05930718244671733,-4.2179215473401515,8.686535912233586,0.38333333333333336,0.3211111111111111,-0.7322222222222222,-0.00413659911585344,-0.0010152561111189946,0.0007885320969866104
1590514083.1495748,-0.045349595907169866,-4.212674797953585,8.704650404092831,0.38333333333333336,0.3211111111111111,-0.7322222222222222,-0.00036804518986803016,0.0005072803935506616,-0.0005072803935506616
1590514083.1595747,-0.04,-4.21,8.71,0.3588348693290593,0.33948495911431664,-0.7250768368876422,0.001090830782496456,-0.0019155830667246935,0.0009134451169843102
1590514083.1695747,-0.04,-4.182332041645268,8.71922265278491,0.3566666666666667,0.3411111111111111,-0.7244444444444444,0.005114972204119312,-0.00016959085418148364,0.001090830782496456
1590514083.1795747,-0.04,-4.18,8.660508435405593,0.3566666666666667,0.3411111111111111,-0.7244444444444444,0.006535741078456541,0.0021631743319485224,9.243616522194766e-06
1590514083.1895747,-0.04,-4.195684375176677,8.675684375176676,0.3566666666666667,0.3411111111111111,-0.7244444444444444,-0.00029861500379819387,0.0013262116026457958,0.0
1590514083.1995747,-0.044900126950457184,-4.209800253900914,8.684900126950456,0.3566666666666667,0.3411111111111111,-0.7244444444444444,-0.0032507034281327478,-0.0015817738753531342,-0.000534520931569918
1590514083.2095747,-0.04578048780487805,-4.207341463414634,8.706878048780487,0.3730758807588076,0.3378292682926829,-0.7178807588075881,-0.0020619362352067155,-0.0034427683720741806,-0.0006305534035406343
1590514083.2195747,-0.04,-4.184350145489816,8.735649854510184,0.3955555555555556,0.3333333333333333,-0.7088888888888889,0.002939741347397093,-0.0027979650866264577,0.0
1590514083.2295747,-0.031792304908937405,-4.18,8.682546134362562,0.3955555555555556,0.3333333333333333,-0.7088888888888889,0.002572681838250597,0.00030879023598108556,0.0008953206458676134
1590514083.2395747,-0.049886293303153015,-4.18,8.683257528868769,0.3955555555555556,0.3333333333333333,-0.7088888888888889,1.2403476509667902e-05,0.0003677447530020413,-0.0003553412764923734
1590514083.2495747,-0.040031710935909,-4.193312192709394,8.709968289064092,0.3955555555555556,0.3333333333333333,-0.7088888888888889,-0.0018168982619930496,-0.0007260674794965937,-0.0003647633029998622
1590514083.2595747,-0.03,-4.205797711304481,8.731595422608962,0.3800949920769415,0.3333333333333333,-0.7179075509180805,-0.002181661564992912,-0.00045839858660097835,-0.001897296587686433
1590514083.2695746,-0.03,-4.21,8.74,0.3688888888888889,0.3333333333333333,-0.7244444444444444,0.0032503067308230177,0.0009053280493026548,-0.003272492347489368
1590514083.2795746,-0.03,-4.184429339875312,8.654764466251041,0.3688888888888889,0.3333333333333333,-0.7244444444444444,0.003433547690227023,0.001090830782496456,-0.0014129414679717657
1590514083.2895746,-0.05661509916505779,-4.171128300278314,8.693230198330115,0.3688888888888889,0.3333333333333333,-0.7244444444444444,0.00036923540264529155,0.001090830782496456,-0.00012307846754843052
1590514083.2995746,-0.04096118644067796,-4.201731355932203,8.70634627118644,0.3688888888888889,0.3333333333333333,-0.7244444444444444,-0.0006922707964239796,0.0003985599860724763,-0.0006922707964239796
1590514083.3095746,-0.038373793386732385,-4.22,8.743495173546929,0.3530717236028388,0.3333333333333333,-0.7188619155199562,-0.00200426994174775,-0.000913439159251294,-0.001090830782496456
1590514083.3195746,-0.0469474877910486,-4.192210048835805,8.722210048835807,0.35,0.3333333333333333,-0.7177777777777777,9.189849805532309e-05,-0.0026065374911952797,-0.0003329774281470442
1590514083.3295746,-0.041381181529640626,-4.18861881847036,8.684143544588922,0.35,0.3333333333333333,-0.7177777777777777,0.002971165281739861,0.0014283439006191438,0.0
1590514083.3395746,-0.04,-4.180740360650931,8.707778918047207,0.35,0.3333333333333333,-0.7177777777777777,0.002262422383811371,-0.001858618289719075,-0.0010100699636779967
1590514083.3495746,-0.035029760384202725,-4.189940479231595,8.714970239615798,0.35,0.3333333333333333,-0.7177777777777777,1.2985417274903079e-05,-0.000555154454204405,-0.001632999819425958
1590514083.3595746,-0.03098577470203768,-4.1990142252979625,8.72,0.3518620188816267,0.3333333333333333,-0.7169015335981886,-0.0019665988870751177,0.001090830782496456,-0.002181661564992912
1590514083.3695745,-0.04,-4.202720145789637,8.72,0.3688888888888889,0.3333333333333333,-0.7088888888888889,-0.0013875526585178247,-0.000990498205280281,0.0012872200813016503
1590514083.3795745,-0.04,-4.203431713447842,8.680590280687055,0.3688888888888889,0.3333333333333333,-0.7088888888888889,-0.0014651726490578182,-0.0014651726490578182,0.0004065366837489935
1590514083.3895745,-0.04,-4.190428400239664,8.688714799281007,0.3688888888888889,0.3333333333333333,-0.7088888888888889,-0.001090830782496456,-0.0005687809996809711,0.001519418131580968
1590514083.3995745,-0.04,-4.194281613077546,8.729521075385032,0.3688888888888889,0.3333333333333333,-0.7088888888888889,-0.0005715366768733964,0.0,0.0028054408131166454
1590514083.4095745,-0.04,-4.214711229946524,8.744711229946525,0.3725531788472965,0.3301925133689839,-0.7088888888888889,-0.0005139154649087582,-0.0005139154649087582,6.29998526789396e-05
1590514083.4195745,-0.035397855107244636,-4.215397855107245,8.74079571021449,0.37666666666666665,0.32666666666666666,-0.7088888888888889,-0.000588814651043816,-0.001090830782496456,-0.001090830782496456
1590514083.4295745,-0.037461740567187624,-4.202538259432813,8.655382594328124,0.37666666666666665,0.32666666666666666,-0.7088888888888889,0.0,-0.001904780412665539,0.002164967738179875
1590514083.4395745,-0.03205367162722615,-4.184107343254452,8.677677970236642,0.37666666666666665,0.32666666666666666,-0.7088888888888889,0.0008668099596846686,-0.002181661564992912,0.0024056823878046995
1590514083.4495745,-0.041362866052060736,-4.191362866052061,8.707044299078092,0.37666666666666665,0.32666666666666666,-0.7088888888888889,-0.0007684138275493185,-0.004040906175038686,0.000942165158295729
1590514083.4595745,-0.03829635949943117,-4.205851820250285,8.737555460750853,0.37211525091644543,0.3305678801668563,-0.7088888888888889,-0.004096665263786818,-0.002900815647423738,-0.0006383345662646354
1590514083.4695745,-0.036099403658634864,-4.203900596341366,8.719502981706825,0.3688888888888889,0.3333333333333333,-0.7088888888888889,-0.004788812185911239,-0.0004254890559254147,0.00023985267064562652
1590514083.4795744,-0.048021170035165,-4.21604234007033,8.643851809753846,0.3688888888888889,0.3333333333333333,-0.7088888888888889,-0.004363323129985824,0.0008749739185996152,0.001090830782496456
1590514083.4895744,-0.02466836912362159,-4.186224492164828,8.66377550783517,0.3688888888888889,0.3333333333333333,-0.7088888888888889,0.00024209732514605,-0.0007513373995562938,0.002011914873522831
1590514083.4995744,-0.03301545677826818,-4.18,8.722061827113073,0.3688888888888889,0.3333333333333333,-0.7088888888888889,0.002510596872695164,-0.001090830782496456,0.002891544610092266
1590514083.5095744,-0.04,-4.194644257465613,8.740237161689592,0.3688888888888889,0.3333333333333333,-0.7132279281379593,0.0016750516644599904,-0.0021557912378493745,0.0022075318921364493
1590514083.5195744,-0.033674405375617736,-4.216325594624382,8.742651189248765,0.3688888888888889,0.3333333333333333,-0.7177777777777777,-0.0013800306667740565,-0.0012024463473282831,0.0004008154491094277
1590514083.5295744,-0.03,-4.204514611860961,8.672573059304804,0.3688888888888889,0.3333333333333333,-0.7177777777777777,-0.003026258468041389,-0.0016891938060969542,0.0016891938060969542
1590514083.5395744,-0.024520768110361454,-4.2,8.671916927558554,0.3688888888888889,0.3333333333333333,-0.7177777777777777,-0.001479417904593183,-0.0033770445269237018,0.002779353045958307
1590514083.5495744,-0.024013755306001826,-4.195986244693999,8.702041265918005,0.3688888888888889,0.3333333333333333,-0.7177777777777777,0.0004378327841195275,-0.0021741592093881866,0.0019589939951307855
1590514083.5595744,-0.036681506151022905,-4.183318493848977,8.760089036906137,0.37408561589524003,0.33853006033968447,-0.7177777777777777,0.001090830782496456,-0.0010956869923961037,-0.0007288392582975199
1590514083.5695744,-0.03363278390090429,-4.192734432198192,8.741796703405425,0.37666666666666665,0.3411111111111111,-0.7177777777777777,0.00039627525052639517,-9.799496908272955e-05,-0.001090830782496456
1590514083.5795743,-0.04557162193390776,-4.1766425670991385,8.64214189033046,0.37666666666666665,0.3411111111111111,-0.7177777777777777,-0.0008493002269451791,0.00024153055555127686,-0.001940131009441635
1590514083.5895743,-0.03706413598149712,-4.1829358640185035,8.645871728037006,0.37666666666666665,0.3411111111111111,-0.7177777777777777,-0.00038528884901789355,0.0,0.0006405061689213377
1590514083.5995743,-0.04085263535317318,-4.195426317676587,8.697984223736107,0.37666666666666665,0.3411111111111111,-0.7177777777777777,0.0005919194357225301,-0.0005919194357225301,-0.00018601617789720847
1590514083.6095743,-0.03523737095886864,-4.2,8.752143943561697,0.3569831612784915,0.3304492123591829,-0.7226986541248216,-0.000519522236367766,0.000519522236367766,-0.00057130854612869
1590514083.6195743,-0.03,-4.205638825959488,8.754361174040511,0.35,0.32666666666666666,-0.7244444444444444,-0.0029361322626214326,0.001705931275871448,0.0006151004933749922
1590514083.6295743,-0.03,-4.215675704871988,8.681891541536135,0.35,0.32666666666666666,-0.7244444444444444,-0.004363323129985824,0.0015625382063198666,-0.00014741593484963447
1590514083.6395743,-0.03509506221170704,-4.214904937788293,8.66566543548195,0.35,0.32666666666666666,-0.7244444444444444,-0.0026959679202064714,-0.0011323094972093474,2.0739357356445737e-05
1590514083.6495743,-0.04,-4.21,8.715870866332144,0.35,0.32666666666666666,-0.7244444444444444,-0.001090830782496456,-0.0028396816089896254,0.00022520930549697101
1590514083.6595743,-0.025967536059226484,-4.205322512019742,8.749354975960516,0.35883525507382036,0.3297849919868385,-0.7213261191242726,-0.0005805959951342134,-0.0011611919902684267,-0.0005805959951342134
1590514083.6695743,-0.03586482252703167,-4.193533794368243,8.76,0.3688888888888889,0.3333333333333333,-0.7177777777777777,0.0014107072298146961,-0.0021160608447220444,-0.0007053536149073481
1590514083.6795743,-0.04238558818734425,-4.19,8.661012646435475,0.3688888888888889,0.3333333333333333,-0.7177777777777777,-0.0011407523533469004,-0.0024418888679044147,0.0005703761766734502
1590514083.6895742,-0.04,-4.197214219066476,8.666071095332377,0.3688888888888889,0.3333333333333333,-0.7177777777777777,-0.002181661564992912,-0.0006077631191160472,0.002664729228373321
1590514083.6995742,-0.04592334077855775,-4.194076659221443,8.691846681557115,0.3688888888888889,0.3333333333333333,-0.7177777777777777,-0.0008893890736994476,-0.0006461362456467322,0.003272492347489368
1590514083.7095742,-0.05,-4.18408549500729,8.729572524963551,0.3807178988743096,0.345162343318754,-0.7125204400064796,-0.0006451724109277446,-0.0004456583715687114,0.0019821475256338785
1590514083.7195742,-0.0391802623959103,-4.185409868802045,8.73918026239591,0.3888888888888889,0.3533333333333333,-0.7088888888888889,-0.000500705640642681,0.0,0.001090830782496456
1590514083.7295742,-0.03,-4.195528756416239,8.685769948670089,0.3888888888888889,0.3533333333333333,-0.7088888888888889,0.0,0.00120618753755164,0.000487737013720636
1590514083.7395742,-0.04089673245434444,-4.2,8.644551633772828,0.3888888888888889,0.3533333333333333,-0.7088888888888889,-0.0017829736784740614,0.001587337005501558,0.0005943245594913539
1590514083.7495742,-0.040621401722415185,-4.195310700861208,8.691582290526716,0.3888888888888889,0.3533333333333333,-0.7088888888888889,-0.0017379227928107047,0.001090830782496456,6.77844127106805e-05
1590514083.7595742,-0.036068854588759316,-4.183931145411241,8.75606885458876,0.3814713999470719,0.33714972109664176,-0.723049549595994,0.0006620093399913535,0.001090830782496456,-0.00042882144250510246
1590514083.7695742,-0.04,-4.184892064660799,8.774676193982396,0.37666666666666665,0.32666666666666666,-0.7322222222222222,0.0005571893103002413,0.0016244722546926707,0.0005336414721962147
1590514083.7795742,-0.035543457050306364,-4.194456542949694,8.732064941653983,0.37666666666666665,0.32666666666666666,-0.7322222222222222,0.00048613342330433714,0.0007232612950799004,0.0006046973591921188
1590514083.7895741,-0.0395617104151945,-4.204780855207598,8.679123420830388,0.37666666666666665,0.32666666666666666,-0.7322222222222222,-0.00047370042563521313,-0.0005693203797858996,0.0005215104027105564
