time,acc_x,acc_y,acc_z,mag_x,mag_y,mag_z,gyr_x,gyr_y,gyr_z
1590514116.2388856,-0.04,-4.13,8.73,0.44,0.2311111111111111,-0.6588888888888889,0.006544984694978735,0.001090830782496456,-0.003272492347489368
1590514116.2488856,-0.05304176887664236,-4.12783292449343,8.699125306629927,0.44,0.2311111111111111,-0.6588888888888889,0.0055495681578143895,-9.541424533211036e-05,-0.0007590252701083408
1590514116.2588856,-0.039270491003156216,-4.113819672664563,8.72,0.44,0.21882695763149998,-0.6704052827760243,0.004026238564815849,-7.95770869865312e-05,-0.0007537462173264809
1590514116.2688856,-0.03,-4.12,8.72,0.44,0.21333333333333332,-0.6755555555555556,0.0026771748453389595,-0.003620053209466753,-0.001090830782496456
1590514116.2788856,-0.03,-4.137646610400218,8.690588982666304,0.44,0.21333333333333332,-0.6755555555555556,0.0008983638429075993,-0.0075715674351991055,-0.00044918192145379965
1590514116.2888856,-0.04979169521721255,-4.15,8.702986158695355,0.44,0.21333333333333332,-0.6755555555555556,0.0014392926920482223,-0.0076585380043957705,-0.0014392926920482223
1590514116.2988856,-0.05445264708430812,-4.1278105883372325,8.731094705831385,0.44,0.21333333333333332,-0.6755555555555556,0.002786783897173729,-0.005939862362797918,-0.0015765392328120948
1590514116.3088856,-0.03283616774057252,-4.121442554839619,8.768606387099046,0.44,0.22032600573532232,-0.666020093189207,0.003272492347489368,-0.00358187025506336,-0.002339019887442403
1590514116.3188856,-0.03029050086355786,-4.13,8.805435751295336,0.44,0.2255555555555556,-0.6588888888888889,0.0010274533256343136,0.0006246372123259072,-0.003272492347489368
1590514116.3288856,-0.04,-4.1349868425795755,8.775118416783823,0.44,0.2255555555555556,-0.6588888888888889,-0.0005468506431699728,0.0027285122081628847,-0.0005525916508569515
1590514116.3388855,-0.0468894677348012,-4.14,8.743778935469603,0.44,0.2255555555555556,-0.6588888888888889,0.0015030486960274556,0.002181661564992912,0.00293318591300664
1590514116.3488855,-0.05602311758293741,-4.14,8.762046235165874,0.44,0.2255555555555556,-0.6588888888888889,0.0015246413583865337,0.00283868177159929,0.0019584519342766117
1590514116.3588855,-0.05527564156148124,-4.135275641561481,8.76527564156148,0.4274017108306166,0.22818019913251045,-0.6520648155888062,6.013566003982402e-05,0.0043031874699460005,6.013566003982402e-05
1590514116.3688855,-0.05,-4.124510126249342,8.754510126249343,0.4133333333333333,0.2311111111111111,-0.6444444444444445,0.0019034308571218076,0.0030587446007876687,-0.001090830782496456
1590514116.3788855,-0.043627661255728895,-4.12,8.667159596324476,0.4133333333333333,0.2311111111111111,-0.6444444444444445,0.002277980152362104,-0.0016896265210018366,-0.00039571645662188283
1590514116.3888855,-0.0259187505101902,-4.134081249489809,8.676324997959238,0.4133333333333333,0.2311111111111111,-0.6444444444444445,0.002626856822446161,-0.0025044793275145155,0.0015360260399497046
1590514116.3988855,-0.03178767240234486,-4.134106163798827,8.72357534480469,0.4133333333333333,0.2311111111111111,-0.6444444444444445,0.0007008211653970232,-0.0015387437694698257,0.0008958259739467395
1590514116.4088855,-0.04669470004287458,-4.13,8.773473500214372,0.4230034556174855,0.2221848443872783,-0.6541145667285966,0.00036972619477313004,-0.001821109271131249,-0.000730278488634793
1590514116.4188855,-0.0707220911864627,-4.143814727457642,8.783092636271178,0.42777777777777776,0.21777777777777774,-0.6588888888888889,0.0018443072806261893,-0.0036886145612523786,0.0011695987118927442
1590514116.4288855,-0.059240211719659146,-4.13962010585983,8.743670370509404,0.42777777777777776,0.21777777777777774,-0.6588888888888889,0.002181661564992912,-0.0037971877276281995,-8.288004443758514e-05
1590514116.4388855,-0.03444599516628655,-4.135554004833713,8.715554004833715,0.42777777777777776,0.21777777777777774,-0.6588888888888889,0.003999205396617534,-0.002666644403614494,-0.0015758136211180378
1590514116.4488854,-0.050169698662662805,-4.134957575334334,8.740169698662664,0.42777777777777776,0.21777777777777774,-0.6588888888888889,0.003804024299364016,-0.002181661564992912,-0.001090830782496456
1590514116.4588854,-0.06531521250475499,-4.134684787495245,8.755315212504755,0.4246545861142811,0.2240241611047711,-0.6666968680476306,0.0016706305240661392,-0.0006485684422125936,-6.876870064291031e-05
1590514116.4688854,-0.05077886700789451,-4.135389433503947,8.736168300511842,0.4211111111111111,0.2311111111111111,-0.6755555555555556,0.00058789599663234,0.001593765568360572,0.001593765568360572
1590514116.4788854,-0.04409167826119656,-4.1259083217388035,8.691358252171625,0.4211111111111111,0.2311111111111111,-0.6755555555555556,0.0022316642996923885,0.00262799442493139,0.0008426629851774788
1590514116.4888854,-0.040677896831742985,-4.129322103168257,8.6826273610889,0.4211111111111111,0.2311111111111111,-0.6755555555555556,0.004945712057805155,0.0017471667834579945,-7.39470731422069e-05
1590514116.4988854,-0.03345381176333972,-4.13654618823666,8.73036143529002,0.4211111111111111,0.2311111111111111,-0.6755555555555556,0.0032330658734660246,-0.0007535048376798662,0.0007140783636565228
1590514116.5088854,-0.04,-4.120815495358969,8.768369009282061,0.4211111111111111,0.2311111111111111,-0.6679018016880302,-0.0004119802751661886,-0.0026825985842137937,0.0
1590514116.5188854,-0.034440888061221524,-4.121118223877557,8.75108621642855,0.4211111111111111,0.2311111111111111,-0.6588888888888889,-0.0003624464371439762,-0.003272492347489368,0.0006064050426163119
1590514116.5288854,-0.04249198211484889,-4.136245991057424,8.70750801788515,0.4211111111111111,0.2311111111111111,-0.6588888888888889,0.0017721627137600733,-0.003953824278752985,0.0024534946450236912
1590514116.5388854,-0.0435698684537106,-4.14643013154629,8.719290394638868,0.4211111111111111,0.2311111111111111,-0.6588888888888889,0.0014802430223735106,-0.005064741672605225,-0.00023460036560763982
1590514116.5488853,-0.045273127331866454,-4.134180618004401,8.756365636659332,0.4211111111111111,0.2311111111111111,-0.6588888888888889,0.0016660397438587888,-0.003153318067032948,0.0006943832418187528
1590514116.5588853,-0.038997957620628035,-4.125501021189686,8.785501021189685,0.42477845857090174,0.2311111111111111,-0.6588888888888889,0.002181661564992912,0.0019095108419409175,0.002672424022601893
1590514116.5688853,-0.04372418551924688,-4.13,8.755689536201883,0.42777777777777776,0.2311111111111111,-0.6588888888888889,0.0029301997664472426,0.0036147849285314937,0.0014331233635385817
1590514116.5788853,-0.041538728926481666,-4.125769364463241,8.706154915705927,0.42777777777777776,0.2311111111111111,-0.6588888888888889,0.003272492347489368,0.004195473842093431,-0.0002936414594096393
1590514116.5888853,-0.03157452685803874,-4.120787263429019,8.664723580574117,0.42777777777777776,0.2311111111111111,-0.6588888888888889,0.0031866152292585634,0.00528239967602067,-0.002009907328531303
1590514116.5988853,-0.04163911400988021,-4.13,8.725573923993414,0.42777777777777776,0.2311111111111111,-0.6588888888888889,0.0018776511714273776,0.0023604611667927657,-0.0003040103935655342
1590514116.6088853,-0.021325110587323625,-4.13,8.739116592941784,0.42777777777777776,0.2311111111111111,-0.6588888888888889,0.001139013163125275,0.0001445471418864571,-0.001042648401867637
1590514116.6188853,-0.04,-4.120934322958897,8.769065677041102,0.4477777777777778,0.2311111111111111,-0.6522222222222223,0.003170573523053536,-0.0014833679370909363,0.0012946684313681197
1590514116.6288853,-0.030399748313899758,-4.124400377529151,8.712798238197298,0.4477777777777778,0.2311111111111111,-0.6522222222222223,0.0038397106270402414,-0.0058905548622172794,-4.360577660529109e-05
1590514116.6388853,-0.01689319220591773,-4.136893192205918,8.661747654558576,0.4477777777777778,0.2311111111111111,-0.6522222222222223,0.0036113925051978533,-0.007709945786846192,0.0014297309402049412
1590514116.6488853,-0.014241811905363307,-4.132120905952681,8.722725435716091,0.4477777777777778,0.2311111111111111,-0.6522222222222223,0.003669258279996288,-0.00429737916249972,0.0017189516649998879
1590514116.6588852,-0.033002078012035155,-4.136997921987964,8.779006234036105,0.4477777777777778,0.2257740835341597,-0.6565585571284952,0.001418306693194827,0.0013099036427934843,-0.0003274759106983711
1590514116.6688852,-0.04,-4.126110212008416,8.792220424016831,0.4477777777777778,0.21333333333333332,-0.6666666666666666,0.0013330414692718463,0.0035147030342647582,-0.001090830782496456
1590514116.6788852,-0.03516978891108352,-4.12,8.73652810019975,0.4477777777777778,0.21333333333333332,-0.6666666666666666,-0.0005268942941745825,0.0016547672708183295,-0.0005639364883218735
1590514116.6888852,-0.03421047600841139,-4.12,8.702631428025235,0.4477777777777778,0.21333333333333332,-0.6666666666666666,-0.0015501224663902516,0.0006315390986026604,-0.0013778750516813866
1590514116.6988852,-0.044405648837985104,-4.12,8.73762259535194,0.4477777777777778,0.21333333333333332,-0.6666666666666666,-0.001701079828058523,-0.0004805817369343888,-0.0027919106105549793
1590514116.7088852,-0.03826724768811124,-4.123910917437296,8.76,0.4421286748127943,0.2181133435344732,-0.6610175637016832,-0.0006642158696559652,-0.001090830782496456,0.0003780279120500327
1590514116.7188852,-0.03596011883327332,-4.1353200396110905,8.76,0.43333333333333335,0.2255555555555556,-0.6522222222222223,0.0,-0.0005105044853085908,0.0032026705356100935
1590514116.7288852,-0.03267989735750164,-4.122679897357502,8.690719589430007,0.43333333333333335,0.2255555555555556,-0.6522222222222223,-0.001259553407895695,0.001259553407895695,0.0015518848610450646
1590514116.7388852,-0.03666281827914104,-4.115554272759714,8.678879909317997,0.43333333333333335,0.2255555555555556,-0.6522222222222223,0.0002418471152779776,0.00036403005478974457,0.0004849536124287336
1590514116.7488852,-0.03726291252607042,-4.124245695824643,8.731228479123216,0.43333333333333335,0.2255555555555556,-0.6522222222222223,0.002644795134856659,-0.0006276972126327089,0.0
1590514116.7588851,-0.02299422893343747,-4.135988457866875,8.765988457866875,0.4296737201924653,0.22721901607413195,-0.6585433721928124,0.0019660135113153173,0.0,0.0003266197090435127
1590514116.7688851,-0.0401149264680197,-4.139885073531981,8.766513431375973,0.4211111111111111,0.2311111111111111,-0.6733333333333333,-0.0014586198876299242,-0.0003677891051334682,0.00035525257222951954
1590514116.7788851,-0.04709010173683323,-4.12,8.718483502894722,0.4211111111111111,0.2311111111111111,-0.6733333333333333,-0.00030399297507826585,-0.0015602479299751176,-0.002029665077453779
1590514116.788885,-0.04190998864535664,-4.123969996215119,8.705879984860475,0.4211111111111111,0.2311111111111111,-0.6733333333333333,0.002181661564992912,-0.0017486021572083023,-0.0028394329397047587
1590514116.798885,-0.050475856151025816,-4.13,8.734762071924488,0.4211111111111111,0.2311111111111111,-0.6733333333333333,0.0016622001006236463,-0.001090830782496456,-0.0027011230293621778
1590514116.808885,-0.03728408620348199,-4.13,8.742715913796518,0.4229217203087898,0.23292172030878977,-0.6739368697325596,0.001683351256866189,-0.000498310308126723,-0.0017911911615650356
1590514116.818885,-0.03051959412176347,-4.129480405878237,8.75155878236529,0.42777777777777776,0.23777777777777775,-0.6755555555555556,0.003159134495004607,0.0012041886349812173,0.0021249826387505313
1590514116.828885,-0.037335008525531725,-4.127994974423405,8.745355110831913,0.42777777777777776,0.23777777777777775,-0.6755555555555556,0.001090830782496456,0.002981786873945307,0.001090830782496456
1590514116.838885,-0.031138664503157075,-4.149240890331229,8.651897774171928,0.42777777777777776,0.23777777777777775,-0.6755555555555556,0.0010080247630978043,0.0020988555455942605,0.0010080247630978043
1590514116.848885,-0.06,-4.13,8.717368826094678,0.42777777777777776,0.23777777777777775,-0.6755555555555556,-0.001090830782496456,-0.0009473225079951265,-0.00045928244383303834
1590514116.858885,-0.0552161824555748,-4.132391908772212,8.764783817544425,0.42777777777777776,0.23485433372285125,-0.6755555555555556,-0.0005689972389658953,-0.002489742032193527,0.001090830782496456
1590514116.868885,-0.044875377883009535,-4.130249244233981,8.789750755766018,0.42777777777777776,0.2255555555555556,-0.6755555555555556,0.001090830782496456,-0.0021272849084356823,0.0005590095553875354
1590514116.878885,-0.045248295485048586,-4.12,8.733476136790681,0.42777777777777776,0.2255555555555556,-0.6755555555555556,0.002127491893343735,-0.0038449925745621845,0.001036661110847279
1590514116.888885,-0.04,-4.12,8.691828002842929,0.42777777777777776,0.2255555555555556,-0.6755555555555556,0.0022805219118764873,-0.003272492347489368,0.0006937059115735913
1590514116.898885,-0.04233265312432366,-4.117667346875677,8.734665306248647,0.42777777777777776,0.2255555555555556,-0.6755555555555556,0.001090830782496456,-0.0027635863809096126,-0.0005819248159167007
1590514116.908885,-0.04881674550907461,-4.111183254490926,8.74763349101815,0.42777777777777776,0.2255555555555556,-0.6755555555555556,0.001090830782496456,-0.0013489768669421743,0.0008326846980507374
1590514116.918885,-0.016969825304393858,-4.117676724898535,8.795353449797071,0.4544444444444444,0.23777777777777775,-0.6733333333333333,0.001090830782496456,-7.711078374238243e-05,0.0019282315653043934
1590514116.928885,-0.045123318954580056,-4.11,8.74926008627252,0.4544444444444444,0.23777777777777775,-0.6733333333333333,0.001090830782496456,0.0015958901402283218,-0.0011446388271849387
1590514116.938885,-0.05,-4.11958030312612,8.72,0.4544444444444444,0.23777777777777775,-0.6733333333333333,4.5781826934599085e-05,0.0,-0.0017049189141465826
1590514116.948885,-0.03981555923386144,-4.13,8.736974067943564,0.4544444444444444,0.23777777777777775,-0.6733333333333333,2.0119366525118065e-05,0.0,-0.00037031671634052464
1590514116.958885,-0.02156642862456297,-4.131566428624563,8.771566428624563,0.4502673014456098,0.23673349202806912,-0.6710707142089646,0.0020107907087672247,0.0,-0.0014325724949478303
1590514116.968885,-0.029366584839693517,-4.139366584839693,8.779366584839693,0.42946688487192836,0.23153338788464875,-0.6598038218982204,0.0011599256579926795,0.0,-0.0031343025964969216
1590514116.978885,-0.03,-4.126204065040651,8.735836585365853,0.42777777777777776,0.2311111111111111,-0.6588888888888889,-0.0013535170245903179,-0.0009394447543890209,-0.00026268624209386203
1590514116.988885,-0.04132692498265781,-4.123775641660886,8.69887820830443,0.42777777777777776,0.2311111111111111,-0.6588888888888889,0.0,-0.0005566036764517147,0.0019145480119705414
1590514116.998885,-0.05444198312236287,-4.1318526722925455,8.735558016877638,0.42777777777777776,0.2311111111111111,-0.6588888888888889,0.0006062855899761421,-0.00286830195417194,0.00286830195417194
1590514117.008885,-0.032320147679324895,-4.139226617440225,8.757679852320676,0.42777777777777776,0.2311111111111111,-0.6588888888888889,0.0030194034966348374,-0.0012595566830661434,0.0012595566830661434
1590514117.018885,-0.02787281333607738,-4.127872813336078,8.773618440008232,0.43333333333333335,0.23777777777777775,-0.6755555555555556,-0.00016267050524736203,0.0003947105745596354,-0.0013228708518087295
1590514117.028885,-0.022907127940423183,-4.12,8.74127861617873,0.43333333333333335,0.23777777777777775,-0.6755555555555556,0.0031139331151859113,-0.002657339261903282,-0.002023102332689455
1590514117.0388849,-0.04341051461673178,-4.113178970766536,8.703642058466928,0.43333333333333335,0.23777777777777775,-0.6755555555555556,0.0029257204306099376,-0.004710095046865254,-0.0018348896481134816
1590514117.0488849,-0.04840263576459896,-4.1007986821177,8.730798682117701,0.43333333333333335,0.23777777777777775,-0.6755555555555556,0.004363323129985824,-0.003185369643547649,-0.0030111242356642117
1590514117.0588849,-0.03228572112622103,-4.116857163378663,8.746857163378664,0.4366349305156526,0.23777777777777775,-0.6702222062610398,0.0038646561370489505,-0.0024309950614613486,-0.0004986669929368734
1590514117.0688848,-0.03723232840834686,-4.137232328408347,8.764464656816694,0.4477777777777778,0.23777777777777775,-0.6522222222222223,0.002483567701794533,-0.002064867800282884,-0.0015778492913896699
1590514117.0788848,-0.03,-4.13,8.727023717376204,0.4477777777777778,0.23777777777777775,-0.6522222222222223,0.0036305385811090246,0.0007327845488767996,-0.0003580462336196564
1590514117.0888848,-0.032611275964391694,-4.127388724035608,8.69566765578635,0.4477777777777778,0.23777777777777775,-0.6522222222222223,0.004078477109630666,0.0005696920407103153,-0.0013756768028516137
1590514117.0988848,-0.03643352319568313,-4.12,8.736433523195684,0.4477777777777778,0.23777777777777775,-0.6522222222222223,0.004050576884131054,0.001792619296672069,-0.002181661564992912
1590514117.1088848,-0.02757747555498933,-4.12242252444501,8.739690097780043,0.44131771259108266,0.236162761481104,-0.653837238518896,0.004132871794498389,0.0005623179353028997,-0.0016531487177993557
1590514117.1188848,-0.0239183180071666,-4.133918318007167,8.766081681992834,0.4211111111111111,0.2311111111111111,-0.6588888888888889,0.00042742218978274985,-0.0015182529722792058,0.00042742218978274985
1590514117.1288848,-0.03,-4.133098822153538,8.739296466460614,0.4211111111111111,0.2311111111111111,-0.6588888888888889,0.0013417646901765778,-0.0026835293803531557,0.000839896874816334
1590514117.1388848,-0.03,-4.112076518252444,8.676229554757331,0.4211111111111111,0.2311111111111111,-0.6588888888888889,0.002106157230653545,-0.00421231446130709,7.550433433936728e-05
1590514117.1488848,-0.0380496644295302,-4.10195033557047,8.74585100671141,0.4211111111111111,0.2311111111111111,-0.6588888888888889,0.0028469951321961197,-0.005241405304835655,0.0013035793901430802
1590514117.1588848,-0.031012248322147648,-4.108987751677852,8.766963255033557,0.4211111111111111,0.2311111111111111,-0.6588888888888889,0.0013116691083622655,-0.0044737422929187285,0.0020712424020600073
1590514117.1688848,-0.0077250554323725065,-4.113862527716186,8.788068736141906,0.4211111111111111,0.21777777777777774,-0.6588888888888889,-0.000669494369390286,0.000880162575943371,0.003099313890667314
1590514117.1788847,-0.03872505543237251,-4.129362527716186,8.780318736141906,0.4211111111111111,0.21777777777777774,-0.6588888888888889,0.0010212933434792205,3.476871950861774e-05,-0.001973049247941207
1590514117.1888847,-0.030548392108124902,-4.139451607891875,8.683290352648749,0.4211111111111111,0.21777777777777774,-0.6588888888888889,-0.0030930314497631373,5.982029924207689e-05,0.0010310104832543792
1590514117.1988847,-0.039856854346523446,-4.130143145653476,8.73914112607914,0.4211111111111111,0.21777777777777774,-0.6588888888888889,-4.6844305557838025e-05,0.0010752160139771766,1.5614768519279414e-05
1590514117.2088847,-0.04444554129647911,-4.111388614675881,8.76138861467588,0.42203685422836457,0.22055500712953818,-0.6579631457716354,-0.001090830782496456,0.0012423051458441046,0.001090830782496456
1590514117.2188847,-0.01,-4.1191211378126535,8.77,0.42777777777777776,0.23777777777777775,-0.6522222222222223,-0.001186699775249455,0.002277530557745911,0.001090830782496456
1590514117.2288847,-0.019804094927873432,-4.1067319683573755,8.73405165193113,0.42777777777777776,0.23777777777777775,-0.6522222222222223,-0.002181661564992912,0.0025595184446999208,0.001090830782496456
1590514117.2388847,-0.036682477749725856,-4.106635044500548,8.68322265575192,0.42777777777777776,0.23777777777777775,-0.6522222222222223,-0.001819776025771317,0.0021764874001612405,0.001090830782496456
1590514117.2488847,-0.02691162042306032,-4.126176759153879,8.739265138730818,0.42777777777777776,0.23777777777777775,-0.6522222222222223,-0.0014277207335523746,0.003352653276818068,0.0014277207335523746
1590514117.2588847,-0.027880386983289356,-4.136059806508355,8.769850483729112,0.4264643799472295,0.24062347307729892,-0.6522222222222223,-0.0023965657824768223,0.0017355434349481873,0.0017518531300250912
1590514117.2688847,-0.051544361164371624,-4.122818546278543,8.793088722328744,0.4211111111111111,0.25222222222222224,-0.6522222222222223,-0.0029650366432368374,0.0037484117214807624,-0.0009223671127575925
1590514117.2788846,-0.033144926598978205,-4.126855073401022,8.742137683502554,0.4211111111111111,0.25222222222222224,-0.6522222222222223,-0.0016670741535643146,0.0014955450164214489,-0.0031009632103465024
1590514117.2888846,-0.03711875405580792,-4.119660934458144,8.709660934458144,0.4211111111111111,0.25222222222222224,-0.6522222222222223,0.00038826780285483847,-0.0018303800751721033,-0.0007765356057096769
1590514117.2988846,-0.011357005054289769,-4.135928984837131,8.73271401010858,0.4211111111111111,0.25222222222222224,-0.6522222222222223,-0.0009428044939742005,-0.0009428044939742005,0.0023296878535151674
1590514117.3088846,-0.018044452239353307,-4.11586664328194,8.746088904478707,0.4211111111111111,0.25222222222222224,-0.6522222222222223,-0.0002133171693955425,-0.0002133171693955425,0.0030591751780938256
1590514117.3188846,-0.04,-4.139410994452777,8.76,0.42777777777777776,0.21777777777777774,-0.68,0.002181661564992912,0.00012850107639436384,-0.001090830782496456
1590514117.3288846,-0.04,-4.13162761689647,8.751048107069414,0.42777777777777776,0.21777777777777774,-0.68,0.002181661564992912,0.001915343373075731,-0.0009132853212183355
1590514117.3388846,-0.03550834505104848,-4.141016690102098,8.66572079232133,0.42777777777777776,0.21777777777777774,-0.68,0.003651552209793571,-0.0018257761048967856,0.0008458490083630127
1590514117.3488846,-0.022687228709421043,-4.1153744574188424,8.710594699517028,0.42777777777777776,0.21777777777777774,-0.68,0.007847252721218239,-0.003923626360609119,0.00014656558979223488
1590514117.3588846,-0.05606379404476922,-4.109212758808954,8.76,0.42777777777777776,0.21882743269917262,-0.6789503450786052,0.009989226427356569,-0.00378774050215476,-0.004363323129985824
1590514117.3688846,-0.012026374364789386,-4.100405274872958,8.76,0.42777777777777776,0.23057074461383392,-0.6672070331639438,0.011910721346102056,-0.00955222525839123,-0.004363323129985824
1590514117.3788846,-0.04021939932855458,-4.115109699664277,8.753103348153525,0.42777777777777776,0.2311111111111111,-0.6666666666666666,0.0117563468544927,-0.009817477042468105,-0.0038059413616752767
1590514117.3888845,-0.01,-4.099776119402985,8.670559701492538,0.42777777777777776,0.2311111111111111,-0.6666666666666666,0.007635815477475192,-0.009768633873102592,-0.005478575497165036
1590514117.3988845,-0.014561542608861121,-4.084561542608861,8.731403856522153,0.42777777777777776,0.2311111111111111,-0.6666666666666666,0.005147879930767741,-0.003463805475116319,-0.005396673485438486
1590514117.4088845,-0.02786368970219783,-4.097863689702198,8.764659224255494,0.42777777777777776,0.2311111111111111,-0.6666666666666666,-0.002107315830585984,0.00234035113396666,0.0011330026997798653
1590514117.4188845,-0.02,-4.11821868531581,8.782874741263237,0.42777777777777776,0.21777777777777774,-0.6677777777777778,-0.003272492347489368,0.004169011840903037,0.0
1590514117.4288845,-0.02032797165522215,-4.11,8.748688113379112,0.42777777777777776,0.21777777777777774,-0.6677777777777778,-0.003272492347489368,0.003344044662949895,0.0
1590514117.4388845,-0.03,-4.107681135190488,8.71695659442854,0.42777777777777776,0.21777777777777774,-0.6677777777777778,-0.003019543436022927,0.004442358266616515,-0.00025294891146644113
1590514117.4488845,-0.030732758011892486,-4.1,8.741465516023785,0.42777777777777776,0.21777777777777774,-0.6677777777777778,-0.0019418670663449431,0.0008510362838484871,-0.001090830782496456
1590514117.4588845,-0.03665682688097626,-4.1,8.753313653761952,0.42777777777777776,0.21777777777777774,-0.6677777777777778,-3.2200623372798283e-06,-0.0010876107201591761,-0.001090830782496456
1590514117.4688845,-0.02693572603131479,-4.119596410953028,8.76,0.4314067427690792,0.22648729375690124,-0.64818136682475,0.0003782851726960077,-0.0014691159551924638,0.001046806046904889
1590514117.4788845,-0.02,-4.116101687609113,8.76,0.43333333333333335,0.2311111111111111,-0.6377777777777778,-0.0015160706980731828,0.0011832752646133186,0.0029396969140295034
1590514117.4888844,-0.03867731640913762,-4.110330670897716,8.662314696284009,0.43333333333333335,0.2311111111111111,-0.6377777777777778,-0.002181661564992912,0.0,3.607059941039071e-05
1590514117.4988844,-0.008427960982997675,-4.11789300975425,8.715251068279754,0.43333333333333335,0.2311111111111111,-0.6377777777777778,-0.002181661564992912,0.0,0.0008609938006481321
1590514117.5088844,-0.000268547852353938,-4.120089515950784,8.760268547852354,0.43339301063385643,0.2309917565100649,-0.6380363794133779,-0.002191426240456945,-0.0010517720806403241,0.003252962996561302
1590514117.5188844,-0.023444890591615707,-4.127814963530539,8.783444890591616,0.43854330902035904,0.22069115973705966,-0.6603543390882225,-0.0030341418433127774,0.0023190903307830054,0.0015675317908496371
1590514117.5288844,-0.036505797319680774,-4.1473793479897605,8.7456322466496,0.44,0.21777777777777774,-0.6666666666666666,-0.003367781943588714,0.00199108237279422,-0.001090830782496456
1590514117.5388844,-0.004926968829995486,-4.123695226622496,8.706158711037494,0.44,0.21777777777777774,-0.6666666666666666,-0.004228960898381834,0.000268724463207981,-0.001090830782496456
1590514117.5488844,-0.025725121186199032,-4.112137439406901,8.744274878813801,0.44,0.21777777777777774,-0.6666666666666666,-0.004596481600062626,0.004596481600062626,-0.0006245138423428526
1590514117.5588844,-0.010550997222923504,-4.119816334259026,8.760734662963898,0.43977551964992007,0.21769614855956684,-0.6665238155347976,-0.005374014614904277,0.005434119088087779,0.001090830782496456
1590514117.5688844,-0.03806596113004836,-4.11,8.796131922260097,0.42777777777777776,0.21333333333333332,-0.6588888888888889,-0.001090830782496456,0.004574294043374614,0.0013018016958852463
1590514117.5788844,-0.0305805507468813,-4.11,8.781161101493762,0.42777777777777776,0.21333333333333332,-0.6588888888888889,-0.001090830782496456,0.005390825649932336,0.0021183333024429687
1590514117.5888844,-0.026970268006700167,-4.1076765773311,8.6692936906756,0.42777777777777776,0.21333333333333332,-0.6588888888888889,-0.0037793845410866184,0.0015977229760937065,0.002512154057093492
1590514117.5988843,-0.04665037910699242,-4.101674810446504,8.711723673125526,0.42777777777777776,0.21333333333333332,-0.6588888888888889,-0.00545415391248228,0.0030897988685000713,0.00036538695797859385
1590514117.6088843,-0.030945801741083964,-4.109527099129458,8.766689693906205,0.42777777777777776,0.21333333333333332,-0.6588888888888889,-0.00545415391248228,0.0022332470476585688,0.0020784905996615987
1590514117.6188843,-0.03,-4.118203842071305,8.78640768414261,0.4441854619203881,0.22336025142048413,-0.6534196608413522,-0.0036643532192584447,0.0003918608717690768,0.0030765619116048296
1590514117.6288843,-0.011172625400213448,-4.117654749199573,8.755928495197438,0.4477777777777778,0.2255555555555556,-0.6522222222222223,-0.004107495953407813,-0.002181661564992912,0.00025582717657801087
1590514117.6388843,-0.021252375097798145,-4.101252375097798,8.655009500391193,0.4477777777777778,0.2255555555555556,-0.6522222222222223,-0.0021133550995974006,-0.0019084357034108669,0.0019767421688063782
1590514117.6488843,-0.041581912388130006,-4.12316382477626,8.73790956194065,0.4477777777777778,0.2255555555555556,-0.6522222222222223,-0.001090830782496456,0.002009101692174443,-0.0009182709096779869
1590514117.6588843,-0.04948450306170514,-4.13896900612341,8.777422515308524,0.4477777777777778,0.2255555555555556,-0.6522222222222223,-0.001090830782496456,0.0011470627753539275,-5.623199285747149e-05
1590514117.6688843,-0.028624533026807338,-4.1013754669731926,8.804498132107229,0.43333333333333335,0.2255555555555556,-0.6755555555555556,0.001240870953963034,-0.001090830782496456,0.0
1590514117.6788843,-0.020015189457695308,-4.109984810542305,8.77006075783078,0.43333333333333335,0.2255555555555556,-0.6755555555555556,0.0021800046521905647,-0.001090830782496456,0.0
1590514117.6888843,-0.027111621099044074,-4.115667431648566,8.695776757801912,0.43333333333333335,0.2255555555555556,-0.6755555555555556,-0.0012483674133302563,-0.001090830782496456,0.0018665883033253112
1590514117.6988842,-0.011953053000596327,-4.092929579500894,8.726093893998808,0.43333333333333335,0.2255555555555556,-0.6755555555555556,-0.002075139048348035,-0.001090830782496456,0.00021304503328975401
1590514117.7088842,-0.016752725928663833,-4.09,8.743505451857327,0.43333333333333335,0.2255555555555556,-0.6755555555555556,-0.003654877826742607,0.00038238547925323915,-0.0007366081308748476
1590514117.7188842,-0.02,-4.081407417853617,8.724222253560852,0.4161481690405678,0.21887243610836896,-0.6612345853115843,-0.003426017819345448,0.002028136093136832,0.000783779838784296
1590514117.7288842,-0.07339087967522157,-4.057118194424905,8.689490925899873,0.4133333333333333,0.21777777777777774,-0.6588888888888889,-0.012424557570307321,0.004677679353034172,0.00275484264119063
1590514117.7388842,-0.09678207977541232,-3.9752525441572115,8.770678207977541,0.4133333333333333,0.21777777777777774,-0.6588888888888889,-0.038308154989384786,0.018248199246905093,0.014476724227988581
1590514117.7488842,-0.18736684594939623,-3.9051725509072264,8.780438859008433,0.4133333333333333,0.21777777777777774,-0.6588888888888889,-0.0242752824409399,0.013414846707532905,0.01854412330243975
1590514117.7588842,-0.1346999979072055,-3.8086166628298765,8.789216667015465,0.4133333333333333,0.21777777777777774,-0.6588888888888889,-0.007997607040185858,-0.0019053183755297198,0.01854412330243975
1590514117.7688842,-0.13897261239254005,-3.647465589326819,8.76308216282238,0.4312785581184134,0.21378995004775997,-0.6529071472938622,-0.013396305953013034,-0.00033621180833181066,0.016586602943001377
1590514117.7788842,-0.2205623426279959,-3.6069821878205723,8.777928751282289,0.43333333333333335,0.21333333333333332,-0.6522222222222223,-0.02399827721492203,0.00823285789680483,0.014180800172453925
1590514117.7888842,-0.2753233236967267,-3.5913361932295067,8.715344772918028,0.43333333333333335,0.21333333333333332,-0.6522222222222223,-0.02399827721492203,0.0056727880183986635,0.014180800172453925
1590514117.7988842,-0.34483846860120004,-3.5615326799479,8.7512096171503,0.43333333333333335,0.21333333333333332,-0.6522222222222223,-0.02230917001453212,-0.004196133683297387,0.026971631353464674
1590514117.8088841,-0.38146179133433933,-3.4970764173313214,8.762923582668678,0.43296208474048525,0.21384380014849944,-0.6523614404445403,-0.034294124352915296,-0.011295559807056358,0.032929939230118756
1590514117.8188841,-0.44532033891230854,-3.357660169456154,8.904679661087691,0.4155555555555556,0.23777777777777775,-0.6588888888888889,-0.05787176232218926,-0.03072861071893049,0.04254240051736178
1590514117.8288841,-0.4103080262114445,-3.3401540131057224,8.939691973788555,0.4155555555555556,0.23777777777777775,-0.6588888888888889,-0.06646507672580043,-0.040276737834054,0.04254240051736178
1590514117.838884,-0.3429230639268442,-3.355046144748791,8.835846127853689,0.4155555555555556,0.23777777777777775,-0.6588888888888889,-0.04411655012769241,-0.016238268610618722,0.03996468474416463
1590514117.848884,-0.25434415323857995,-3.293040907267006,8.65868830647716,0.4155555555555556,0.23777777777777775,-0.6588888888888889,-0.022859137586764555,0.026276556471236983,0.048660898965453295
1590514117.858884,-0.08053195105370495,-3.0273245241332427,8.853361658735555,0.4155555555555556,0.23777777777777775,-0.6588888888888889,-0.0680318567599878,0.05886365947754657,0.1082428938332156
1590514117.868884,-0.12090207845929542,-3.1199228630522495,8.983685450784932,0.4477777777777778,0.2311111111111111,-0.6377777777777778,-0.07332453709612477,0.04009919180971048,0.17818219485615813
1590514117.878884,-0.12801274878784796,-3.198140236666328,8.933910758485064,0.4477777777777778,0.2311111111111111,-0.6377777777777778,-0.0322148852797075,0.0036434628404347913,0.1983491938604383
1590514117.888884,-0.19079105023121296,-2.2566120548554722,9.013224109710945,0.4477777777777778,0.2311111111111111,-0.6377777777777778,-0.07527385902705658,0.000714728262389262,0.320188242319315
1590514117.898884,-0.1974561807751593,-2.3965797962783455,9.293159592556691,0.4477777777777778,0.2311111111111111,-0.6377777777777778,-0.10290187138049389,-0.011645172000990587,0.4445142979097828
1590514117.908884,-0.26209001675843907,-2.3790399808474985,8.956499880296864,0.4477777777777778,0.2311111111111111,-0.6377777777777778,0.0036292256127252176,-0.060870551337846884,0.6506456980029801
1590514117.918884,-0.29442672005057424,-2.313004319881993,8.672017279527973,0.4414449244313326,0.2311111111111111,-0.6549669511467003,0.010550497858462824,-0.07186976136160177,0.8058643831780419
1590514117.928884,-0.33165370379046993,-2.4711024691936467,9.037872838869887,0.44,0.2311111111111111,-0.6588888888888889,-0.05315854069166144,-0.08029208115549237,0.9995625200549506
1590514117.938884,-0.36,-2.4908357124318714,8.825821437840643,0.44,0.2311111111111111,-0.6588888888888889,-0.02913336383130426,-0.09176652885660233,1.1420698193950078
1590514117.948884,-0.3638569037271373,-2.5184851881997017,8.746970376399405,0.44,0.2311111111111111,-0.6588888888888889,-0.02316292902934886,-0.09540714559447407,1.2759628767205373
1590514117.958884,-0.3960627793049434,-2.5893381144708756,8.888676228941751,0.44,0.2311111111111111,-0.6588888888888889,-0.03440490037575582,-0.09962288484937667,1.3553592993545363
1590514117.968884,-0.44186393009006597,-2.62,8.934068034954967,0.45150641919919043,0.21075360022023562,-0.6588888888888889,-0.03666304648535548,-0.1118747095102381,1.4818275297534163
1590514117.978884,-0.45,-2.62,8.899877175670285,0.4544444444444444,0.20555555555555555,-0.6588888888888889,-0.03353299801978907,-0.12275195817077449,1.5973514111419511
1590514117.988884,-0.4782004484863585,-2.5917995515136414,8.72079730908185,0.4544444444444444,0.20555555555555555,-0.6588888888888889,-0.03477571796083538,-0.13775030690274265,1.7351862379966512
1590514117.998884,-0.5299889654598072,-2.673314942433012,8.818309425162916,0.4544444444444444,0.20555555555555555,-0.6588888888888889,-0.048538960617064045,-0.1485325848003134,1.8429363389179532
1590514118.008884,-0.54,-2.6581992642406918,8.78434871242121,0.4544444444444444,0.20555555555555555,-0.6588888888888889,-0.04346397194606834,-0.16180864496300496,1.9628704882367785
1590514118.018884,-0.5697465151881395,-2.6984790911288377,8.833295302554186,0.4744444444444445,0.19111111111111112,-0.6755555555555556,-0.04461345846808561,-0.17335914170623468,2.1147517397877027
1590514118.028884,-0.5629875110788817,-2.65792506647329,8.92116235597454,0.4744444444444445,0.19111111111111112,-0.6755555555555556,-0.04166428657152618,-0.17114726278381512,2.192167502072387
1590514118.038884,-0.6331861001446273,-2.6034069499276864,8.465993824023766,0.4744444444444445,0.19111111111111112,-0.6755555555555556,0.006541530944699947,-0.15120910998339804,2.3231839287777283
1590514118.048884,-0.6494786775047079,-2.6568720650282476,8.77071106767419,0.4744444444444445,0.19111111111111112,-0.6755555555555556,-0.05423138133183532,-0.19390423995983025,2.3963019388142737
1590514118.058884,-0.6753120821749189,-2.7528109679747024,9.009371378849297,0.4744444444444445,0.19111111111111112,-0.6755555555555556,-0.09094746955888972,-0.2165977530133817,2.445846385501339
1590514118.068884,-0.7457102137767221,-2.7864275534441805,8.902152019002374,0.4963478490366851,0.1655571390868303,-0.6755555555555556,-0.07110040222405878,-0.20422010518406808,2.5108162556977818
1590514118.078884,-0.7902080652439126,-2.7702080652439127,8.809791934756088,0.5011111111111111,0.16,-0.6755555555555556,-0.05786698973263859,-0.21269687165528706,2.5867153621898598
1590514118.0888839,-0.8112366930160269,-2.791236693016027,8.788763306983974,0.5011111111111111,0.16,-0.6755555555555556,-0.06321934711305108,-0.21116762668945496,2.6226526188869155
1590514118.0988839,-0.8284580279352787,-2.816916055870557,8.763083944129443,0.5011111111111111,0.16,-0.6755555555555556,-0.05530094199566875,-0.2142208519142228,2.6883733568470234
1590514118.1088839,-0.8749176136931035,-2.797541193153448,8.797431344744254,0.5011111111111111,0.16,-0.6755555555555556,-0.05590058412696241,-0.21652691467489257,2.735189287144822
1590514118.1188838,-0.9304833981193946,-2.8,8.86,0.5133333333333333,0.10111111111111112,-0.6755555555555556,-0.0632154548299108,-0.21929214098504343,2.7778703620429526
1590514118.1288838,-0.9578084214640926,-2.8,8.86,0.5133333333333333,0.10111111111111112,-0.6755555555555556,-0.06023475717022771,-0.22127927275816545,2.812645168072589
1590514118.1388838,-1.0424161503952147,-2.8183147000878255,8.786741199648697,0.5133333333333333,0.10111111111111112,-0.6755555555555556,-0.06299242883150367,-0.22743212043517774,2.8384092240455425
1590514118.1488838,-1.0692364155622918,-2.810381792218854,8.837709246686876,0.5133333333333333,0.10111111111111112,-0.6755555555555556,-0.06326818538479445,-0.23218036838980768,2.846818459892844
1590514118.1588838,-1.0761870867009553,-2.7543162196914035,8.864748346803822,0.5133333333333333,0.10111111111111112,-0.6755555555555556,-0.06529290477300735,-0.23639639544817093,2.8430189035393245
1590514118.1688838,-1.1002384158415843,-2.7267461386138616,8.866507722772278,0.5170811881188119,0.05688642464246425,-0.6942948294829483,-0.06359711946708863,-0.23153304570373587,2.8302209036925885
1590514118.1788838,-1.174526347436318,-2.693127801464961,8.84156390073248,0.5188888888888888,0.03555555555555556,-0.7033333333333334,-0.06318288783180652,-0.22597256708274222,2.798102329469091
1590514118.1888838,-1.2099364228265033,-2.652579471466871,8.80257947146687,0.5188888888888888,0.03555555555555556,-0.7033333333333334,-0.05755346036582306,-0.220087246957795,2.7639601132898624
1590514118.1988838,-1.2525747080942016,-2.6237126459528994,8.838862062141303,0.5188888888888888,0.03555555555555556,-0.7033333333333334,-0.05652070726531903,-0.2172778191412914,2.7106167018370653
1590514118.2088838,-1.2752740539256957,-2.5207186494829785,8.88818513481424,0.5188888888888888,0.03555555555555556,-0.7033333333333334,-0.05505705987024974,-0.21041076243853088,2.6467474408253313
1590514118.2188838,-1.2626709776005367,-2.4668946368007156,8.876894636800715,0.5259488609775591,-0.01258061777628696,-0.7155278305774001,-0.05328133705389578,-0.20519817427950554,2.5814752368682656
1590514118.2288837,-1.3057052631578947,-2.434084210526316,8.867957894736842,0.5311111111111111,-0.04777777777777778,-0.7244444444444444,-0.0514918059055485,-0.19855416727293385,2.476553314004217
1590514118.2388837,-1.32,-2.4171183844011144,8.831355153203342,0.5311111111111111,-0.04777777777777778,-0.7244444444444444,-0.05197162991851099,-0.19041454022008297,2.3990130167469195
1590514118.2488837,-1.3526707696983513,-2.41,8.850838462122939,0.5311111111111111,-0.04777777777777778,-0.7244444444444444,-0.04968700646421884,-0.18207727864754222,2.284934877334611
1590514118.2588837,-1.3747806004618937,-2.3730484988452654,8.86,0.5311111111111111,-0.04777777777777778,-0.7244444444444444,-0.045862758418817505,-0.1738224996089849,2.1869368528879405
1590514118.2688837,-1.4340706941275745,-2.36,8.914070694127574,0.5261045653585579,-0.08082097974462885,-0.7444706274546572,-0.04079193024333412,-0.167328301012923,2.055535657786196
1590514118.2788837,-1.4664355828220859,-2.3159406952965234,8.93762372188139,0.5255555555555556,-0.08444444444444445,-0.7466666666666667,-0.04420563861844431,-0.16209098513936346,1.935598470831727
1590514118.2888837,-1.530764647467726,-2.2752773443041567,8.887916016456236,0.5255555555555556,-0.08444444444444445,-0.7466666666666667,-0.0428302349982021,-0.14913307976248363,1.8158456048057903
1590514118.2988837,-1.5714429624505502,-2.2464177781620878,8.895721481225275,0.5255555555555556,-0.08444444444444445,-0.7466666666666667,-0.03825503160061924,-0.13611499645349096,1.6952589895506345
1590514118.3088837,-1.5596276911340905,-2.1585107645363624,8.89320923037803,0.5255555555555556,-0.08444444444444445,-0.7466666666666667,-0.0326436982805876,-0.12122922659978921,1.5741946788985035
1590514118.3188837,-1.5992995446810467,-2.1015126707446075,8.902324886170263,0.5289791350472949,-0.11183308037835932,-0.7637845641253636,-0.032559916693693715,-0.11092253511577414,1.4443916504006953
1590514118.3288836,-1.6533914788514974,-2.0744056807656683,8.902202840382834,0.5311111111111111,-0.1288888888888889,-0.7744444444444445,-0.03126413973945732,-0.10118794208599495,1.2836414379298031
1590514118.3388836,-1.66,-2.034919777473192,8.829839554946384,0.5311111111111111,-0.1288888888888889,-0.7744444444444445,-0.026716603250993985,-0.08625496176689443,1.1599940978111025
1590514118.3488836,-1.7051877341473567,-2.0425938670736783,8.815062578049119,0.5311111111111111,-0.1288888888888889,-0.7744444444444445,-0.02180296323747162,-0.07332765219485729,1.0175911898755208
1590514118.3588836,-1.7541014157757873,-2.02271886737937,8.87456226524126,0.5311111111111111,-0.1288888888888889,-0.7744444444444445,-0.02072578486743266,-0.0642082035323806,0.8931641131177518
1590514118.3688836,-1.7621386461264998,-2.01,8.931445415494,0.519755822182722,-0.14461159663588932,-0.8023959248835564,-0.0190107035079703,-0.0542261983819521,0.7505157508186876
1590514118.3788836,-1.7394872400756143,-1.9689744801512286,8.960512759924386,0.5166666666666667,-0.14888888888888888,-0.81,-0.01556066330784248,-0.04639295757063534,0.638192198949128
1590514118.3888836,-1.746227247079476,-1.9554090823598254,8.905091011682096,0.5166666666666667,-0.14888888888888888,-0.81,-0.011820642755191527,-0.03596271969375544,0.5298314951356291
1590514118.3988836,-1.7161839651957738,-1.8869732753262898,8.886513362336855,0.5166666666666667,-0.14888888888888888,-0.81,-0.017783456964365778,-0.025469441166455473,0.3716641490147481
1590514118.4088836,-1.7266484204845518,-1.866662105121138,8.800068423182932,0.5166666666666667,-0.14888888888888888,-0.81,-0.012005109656595202,-0.009463818530192928,0.25058518985498324
1590514118.4188836,-1.7786844916425788,-1.9318951866281262,8.8970010682418,0.47540320891458254,-0.15748544258723973,-0.8529827684917543,-0.027890967936172108,0.016385561522145927,0.10538498779178045
1590514118.4288836,-1.8029537446165893,-1.95,8.95295374461659,0.4633333333333333,-0.16,-0.8655555555555555,-0.026750582569203457,0.011218858117649104,-0.010221253434803332
1590514118.4388835,-1.795909757887014,-1.935909757887014,8.833187820983126,0.4633333333333333,-0.16,-0.8655555555555555,-0.011379894060170748,0.029277762148475592,-0.14202708824450141
1590514118.4488835,-1.7655588368923216,-1.9116691276692412,8.749448546115403,0.4633333333333333,-0.16,-0.8655555555555555,-0.005211926041085123,0.04660173076628729,-0.25245670216496463
1590514118.4588835,-1.7609369728569237,-1.9218739457138474,8.822964269283853,0.4633333333333333,-0.16,-0.8655555555555555,-0.013907632457714363,0.05723424010716376,-0.36798166914659114
1590514118.4688835,-1.7536876263193353,-1.94,8.872812710532225,0.42104199416123955,-0.18114566958604686,-0.8419932380168176,-0.017071538490874692,0.06870183569599783,-0.48839171603835607
1590514118.4788835,-1.733528637261356,-1.933528637261356,8.824114549045424,0.3855555555555555,-0.1988888888888889,-0.8222222222222222,-0.015207717893961453,0.08476523572977891,-0.616264096540878
1590514118.4888835,-1.708609738217419,-1.9371300872608603,8.774349563695699,0.3855555555555555,-0.1988888888888889,-0.8222222222222222,-0.026473496003288785,0.09676112988003165,-0.7391239489228084
1590514118.4988835,-1.735612559439891,-1.9898575832158474,8.845470142655738,0.3855555555555555,-0.1988888888888889,-0.8222222222222222,-0.030543261909900768,0.1116967295529432,-0.8538874737765784
1590514118.5088835,-1.7685782039599038,-2.05954187722641,8.867614530693398,0.3855555555555555,-0.1988888888888889,-0.8222222222222222,-0.014330720499532185,0.1261762095498358,-0.9503445466935624
1590514118.5188835,-1.7870667986442306,-2.1253339932211524,8.86,0.41303755028311856,-0.22794128331516975,-0.8127998240299149,0.007199699112260421,0.13815746987793584,-1.0641577302241447
1590514118.5288835,-1.79,-2.1709835275984974,8.898729409498122,0.4244444444444445,-0.24,-0.8088888888888889,0.01706880645567641,0.13902728165930436,-1.183068348328842
1590514118.5388834,-1.79,-2.2253865440869203,8.81922691182616,0.4244444444444445,-0.24,-0.8088888888888889,0.021638438265011314,0.13915437236956424,-1.2668136283024187
1590514118.5488834,-1.79,-2.295715429884737,8.809525716474562,0.4244444444444445,-0.24,-0.8088888888888889,0.027894226247758558,0.14027566499835245,-1.3741631099249307
1590514118.5588834,-1.764019964868686,-2.3286600117104377,8.841339988289562,0.4244444444444445,-0.24,-0.8088888888888889,0.0319602530124796,0.14166183167709537,-1.4628052321129454
1590514118.5688834,-1.7272573667455717,-2.34,8.834571055424048,0.42393654939732817,-0.243047370282698,-0.8075683617663864,0.03401520417599205,0.14359690722214244,-1.5325728183765464
1590514118.5788834,-1.7,-2.3657335251046026,8.88,0.4188888888888889,-0.2733333333333333,-0.7944444444444444,0.035195389498776014,0.15213870063172497,-1.6657923736120213
1590514118.5888834,-1.7119680378810298,-2.436928085232317,8.841103876886653,0.4188888888888889,-0.2733333333333333,-0.7944444444444444,0.03642677508273234,0.15914087995567783,-1.7530070349183051
1590514118.5988834,-1.74,-2.5183889022147596,8.832750059966418,0.4188888888888889,-0.2733333333333333,-0.7944444444444444,0.04705571615060164,0.17158616886097283,-1.8509853318813587
1590514118.6088834,-1.6468298500681509,-2.4807099045888235,8.79447978191731,0.4188888888888889,-0.2733333333333333,-0.7944444444444444,0.06714284011335296,0.16021193022570746,-1.9292924613471687
1590514118.6188834,-1.6034771986970684,-2.5159405537459283,8.818692996742671,0.42661825913861745,-0.24859934853420196,-0.7506446796959826,0.05640741050807508,0.17612919793245096,-2.0026542793281417
1590514118.6288834,-1.6022297756628143,-2.6212440516655335,8.933473827328347,0.4355555555555555,-0.22,-0.7,0.02323521475728175,0.19009895440091706,-2.081750808938167
1590514118.6388834,-1.5674564282624737,-2.704877999134926,8.6976655726026,0.4355555555555555,-0.22,-0.7,0.04061538547882754,0.17752415456064088,-2.16415123720192
1590514118.6488833,-1.565399895333227,-2.776500261666932,8.788700994334341,0.4355555555555555,-0.22,-0.7,0.056166951203672044,0.18317232783155243,-2.2259605284652455
1590514118.6588833,-1.547248484334591,-2.809127273498113,8.833624242167296,0.4355555555555555,-0.22,-0.7,0.050954358259951094,0.1885233259852952,-2.2837818389560893
1590514118.6688833,-1.532846778372776,-2.8414596648816723,8.822846778372776,0.4697320588856259,-0.15005738853380934,-0.7,0.04971637003734884,0.19401656867487796,-2.345341581270482
1590514118.6788833,-1.379318395487308,-2.7280196534897256,8.611915879482472,0.4833333333333333,-0.12222222222222222,-0.7,0.060661511494956355,0.19760682624627135,-2.3910833236546054
1590514118.6888833,-1.3641471370502334,-2.768294274100467,8.61338903665044,0.4833333333333333,-0.12222222222222222,-0.7,0.0713150353750164,0.20388198642029767,-2.418617487456926
1590514118.6988833,-1.4238546902014393,-2.906182300671465,8.783128141208637,0.4833333333333333,-0.12222222222222222,-0.7,0.059900298523536843,0.2054093442250043,-2.4533738243482976
1590514118.7088833,-1.3986798622565617,-2.96,8.867603958676968,0.4833333333333333,-0.12222222222222222,-0.7,0.04358787076988031,0.20251579510684933,-2.4827575027763396
1590514118.7188833,-1.341552959617825,-2.9620706128237666,8.839646935881166,0.484713741882511,-0.11744830932298275,-0.6993673127482936,0.05234192367556173,0.20518912151967356,-2.493808570402408
1590514118.7288833,-1.3235331584863246,-3.015488947171225,8.866845260397152,0.51,-0.03,-0.6877777777777778,0.06523650349963256,0.20218910256547648,-2.4974748551464825
1590514118.7388833,-1.254416287842151,-3.03,8.906264242189767,0.51,-0.03,-0.6877777777777778,0.06727711248050176,0.1974403716318585,-2.494095441811561
1590514118.7488832,-1.2265620110351643,-3.0609419006835212,8.805007823437371,0.51,-0.03,-0.6877777777777778,0.07751748250789102,0.19706534521258592,-2.4836162008925027
1590514118.7588832,-1.2109901580674023,-3.1109901580674024,8.891980316134804,0.51,-0.03,-0.6877777777777778,0.07755341641951541,0.19634954084936207,-2.4658176158917207
1590514118.7688832,-1.1713468835782335,-3.0825387534312934,8.835077506862588,0.51,-0.0030566096130039307,-0.6869487503812549,0.07088709148795676,0.19757038446430325,-2.4429747202109082
1590514118.7788832,-1.1156890196224447,-3.0943109803775553,8.838362810440481,0.51,0.042222222222222223,-0.6855555555555556,0.07149630772085941,0.19829607490942622,-2.411892374120298
1590514118.7888832,-1.0391384012868032,-3.1754017763479965,8.798276802573607,0.51,0.042222222222222223,-0.6855555555555556,0.06336850306288262,0.19981633671479107,-2.377039588252576
1590514118.7988832,-0.9569659717137462,-3.2258707464642185,8.753680295965163,0.51,0.042222222222222223,-0.6855555555555556,0.06262778628885429,0.20128276620749944,-2.3345737692376423
1590514118.8088832,-0.8707542139843406,-3.23121308171876,8.81878691828124,0.51,0.042222222222222223,-0.6855555555555556,0.06326818538479445,0.1956056354260378,-2.2677514672513737
1590514118.8188832,-0.84,-3.200501879699248,8.869247180451127,0.5143886800334169,0.09488638262322471,-0.6870184489000278,0.06685866584102848,0.1855507261894075,-2.1978260231729094
1590514118.8288832,-0.8140393140945211,-3.18,8.880529485570891,0.5166666666666667,0.12222222222222222,-0.6877777777777778,0.05243907798803624,0.1810779098944117,-2.1613400855372102
1590514118.8388832,-0.7623706251869579,-3.198814687406521,8.750840313092032,0.5166666666666667,0.12222222222222222,-0.6877777777777778,0.053895051392899046,0.17834142453626747,-2.1485111152712517
1590514118.8488832,-0.7081490923683402,-3.2418509076316595,8.673629818473668,0.5166666666666667,0.12222222222222222,-0.6877777777777778,0.062080330067009026,0.18018898181393242,-2.1366307220418115
1590514118.8588831,-0.6537324232081911,-3.252746484641638,8.738908395904437,0.5166666666666667,0.12222222222222222,-0.6877777777777778,0.05772953490084616,0.18098188700177636,-2.115658633329651
1590514118.8688831,-0.5964723549488055,-3.2412944709897613,8.847702525597269,0.5166666666666667,0.12222222222222222,-0.6877777777777778,0.0489849885917201,0.1791080556498208,-2.0906742153035767
1590514118.8788831,-0.6055117613881423,-3.1479529544474305,8.808741249460867,0.5244444444444445,0.15444444444444444,-0.7,0.05193894086790804,0.16700875873705354,-2.0009269260573928
1590514118.888883,-0.5446184730973346,-3.1800693685277572,8.77392478781976,0.5244444444444445,0.15444444444444444,-0.7,0.03978127236468426,0.16635547779698023,-1.9436939818927732
1590514118.898883,-0.47416763896019043,-3.19,8.643748541559713,0.5244444444444445,0.15444444444444444,-0.7,0.04267827709170644,0.16646534905241223,-1.8969788617078485
1590514118.908883,-0.43879537416232317,-3.1825302494415486,8.74722775502606,0.5244444444444445,0.15444444444444444,-0.7,0.04557848189342124,0.16376922047777911,-1.835566385719582
1590514118.918883,-0.4039328126671659,-3.182050390499626,8.839916015833957,0.5748775602391736,0.16738745646256079,-0.7013389322777361,0.03229592016298002,0.15816130221062993,-1.7552146506710558
1590514118.928883,-0.30890500139703825,-3.2054688460463816,8.766249231628947,0.65,0.18666666666666668,-0.7033333333333334,0.03788937784595017,0.14654615125751871,-1.6486023087465396
1590514118.938883,-0.2295188204572957,-3.2181924718170816,8.72590376409146,0.65,0.18666666666666668,-0.7033333333333334,0.038573418863807385,0.1373921900488445,-1.5621632289489515
1590514118.948883,-0.19061173292165187,-3.2281223465843305,8.72375530683134,0.65,0.18666666666666668,-0.7033333333333334,0.033949213677711,0.13294326496026088,-1.4831637980564767
1590514118.958883,-0.07957945814799838,-3.2059158916295996,8.7681682167408,0.65,0.18666666666666668,-0.7033333333333334,0.027649671156493263,0.12301818786575075,-1.3640876428291053
1590514118.968883,0.0114290168688223,-3.2300015590408777,8.822858033737646,1.0633494434224064,0.18412688514026174,-0.649362975897228,0.02991990573919164,0.11344623131465333,-1.2698810416700375
1590514118.978883,0.04533204572506569,-3.26,8.833666988568734,1.3733333333333333,0.18222222222222226,-0.6088888888888889,0.025998309219840636,0.1074106115060911,-1.1906076853691732
1590514118.988883,0.07265969802555168,-3.2346806039488967,8.760371660859466,1.3733333333333333,0.18222222222222226,-0.6088888888888889,0.020545880139076683,0.10166770941114181,-1.124959469626409
1590514118.998883,0.13776578958590985,-3.237329736875773,8.737329736875774,1.3733333333333333,0.18222222222222226,-0.6088888888888889,0.019804377331550223,0.09737522016351177,-1.0696026125791034
1590514119.008883,0.18620708026638627,-3.2593106203995794,8.76862124079916,1.3733333333333333,0.18222222222222226,-0.6088888888888889,0.022079959712232748,0.09497747772608806,-1.0298566222765002
1590514119.018883,0.19796817385208554,-3.276952260778128,8.803904521556257,1.3733333333333333,0.18222222222222226,-0.6088888888888889,0.024645832296053223,0.09305307328822271,-0.9990661512706543
1590514119.028883,0.2673416789396171,-3.3077466863033873,8.85,0.7955555555555556,0.27111111111111114,-0.7411111111111112,0.024420793409025962,0.08575311562311609,-0.9228484648310867
1590514119.038883,0.3444279176201373,-3.3438443935926774,8.793455377574372,0.7955555555555556,0.27111111111111114,-0.7411111111111112,0.026830193742936284,0.08290313946973066,-0.8659074659783594
1590514119.048883,0.4242935512763099,-3.3307201634572325,8.717146775638156,0.7955555555555556,0.27111111111111114,-0.7411111111111112,0.026959531066084456,0.07939497418196784,-0.8135151145299697
1590514119.058883,0.44608683103817925,-3.3304341551908965,8.741739506885462,0.7955555555555556,0.27111111111111114,-0.7411111111111112,0.02494671621637685,0.0722319413951298,-0.7602610667612517
1590514119.068883,0.41927114286668227,-3.2668338285866914,8.826332342826616,0.6698004889467613,0.2881548380873946,-0.7411111111111112,0.019182720575996324,0.06954730033545,-0.7253503161856404
1590514119.078883,0.3800405981598221,-3.12538568251831,8.815426280678132,0.4922222222222222,0.31222222222222223,-0.7411111111111112,0.014741715566558485,0.06600190519940259,-0.7150373636403046
1590514119.088883,0.3615894425306875,-3.046821114938625,8.735231672407938,0.4922222222222222,0.31222222222222223,-0.7411111111111112,0.013354839821092979,0.06527646566583906,-0.7226187728065443
1590514119.098883,0.3412396293241473,-3.0875207413517054,8.79628111202756,0.4922222222222222,0.31222222222222223,-0.7411111111111112,0.019274360531425505,0.06749628593221377,-0.7396373948487504
1590514119.108883,0.3941062046284041,-3.125063570368588,8.801234107407854,0.4922222222222222,0.31222222222222223,-0.7411111111111112,0.011460657667703811,0.07305547459427324,-0.7908359983799234
1590514119.118883,0.48790754791456514,-3.2710867944388404,8.776589623262137,0.4837289300176893,0.312954402584682,-0.7447720129234099,0.02451405488546693,0.08158405757266507,-0.8328033029712237
1590514119.128883,0.5486191866121815,-3.4056904066939095,8.88033430628527,0.42777777777777776,0.31777777777777777,-0.7688888888888888,0.014144333013778525,0.08914687741504623,-0.8998941736607708
1590514119.1388829,0.5668465457289954,-3.3178414512520553,8.850455268336075,0.42777777777777776,0.31777777777777777,-0.7688888888888888,0.01366941903093587,0.0920032068714502,-0.9455038010676342
1590514119.1488829,0.5731036380432005,-3.139310914129602,8.726204524459995,0.42777777777777776,0.31777777777777777,-0.7688888888888888,0.032085398495804336,0.09384903109865592,-1.001720612411514
1590514119.1588829,0.5499014547160958,-3.092426091037072,8.854655091506336,0.42777777777777776,0.31777777777777777,-0.7688888888888888,0.034058900489997275,0.09709468926509984,-1.0568901278585268
1590514119.1688828,0.5135235658762176,-3.0505706976286526,8.77590573649513,0.4248993626116523,0.31094154175822974,-0.7688888888888888,0.027914985478631384,0.10282907478573523,-1.1197540592641526
1590514119.1788828,0.48858970018432835,-2.9871794003686567,8.838557724861754,0.4188888888888889,0.2966666666666667,-0.7688888888888888,0.03132641300210048,0.10861458278097157,-1.1719963401035667
1590514119.1888828,0.47299911235339664,-2.9386660749022644,8.812336588037546,0.4188888888888889,0.2966666666666667,-0.7688888888888888,0.027925074377461494,0.11348253647552556,-1.2266016274130123
1590514119.1988828,1.351245508637788,-7.02633332375176,3.184501135416367,0.4188888888888889,0.2966666666666667,-0.7688888888888888,0.03387984515162173,0.12042976904537918,-1.2624437152666732
1590514119.2088828,-2.260254372678798,-13.122793949830902,-6.028183289416353,0.4188888888888889,0.2966666666666667,-0.7688888888888888,-1.4049744086233105,-1.661213042244701,7.258761806642469
1590514119.2188828,-5.739596017939657,-6.071189181842892,-0.8205103288937212,0.3723653770650237,0.33155930053456556,-0.7495040922956117,-4.211808209394413,-3.2532722367364677,15.242970480610161
1590514119.2288828,0.419294681579548,-0.6671536178954577,1.5897755459179792,0.31222222222222223,0.37666666666666665,-0.7244444444444444,-4.84295278505222,-0.6997536299730758,6.650068724335965
1590514119.2388828,0.5487192941017681,-0.9853674584964233,-0.012416486705358349,0.31222222222222223,0.37666666666666665,-0.7244444444444444,-4.664487168782291,0.4254592116671884,4.399751765542056
1590514119.2488828,0.03214502631934135,-0.8296875421784315,-0.04779828586853827,0.31222222222222223,0.37666666666666665,-0.7244444444444444,-4.624347790888295,0.29500623351170085,4.332595498680947
1590514119.2588828,-2.9180493901219755,-2.230388922215557,6.615518396320736,0.31222222222222223,0.37666666666666665,-0.7244444444444444,-3.47084507114192,-1.0130078803887388,4.300699551213701
1590514119.2688828,-0.16434313137372536,-1.4895440911817637,5.448338332333533,0.31222222222222223,0.37666666666666665,-0.7244444444444444,-1.9681689018641007,-2.626993395538989,4.3273832985118865
1590514119.2788827,-0.3793668623946898,-1.652009190707174,9.016096502425325,0.4488888888888889,0.3333333333333333,-0.6888888888888889,0.5444832976487857,-1.2457404500349674,4.5647480833986265
1590514119.2888827,-2.168755833128662,0.12552331497140456,3.8045731728711276,0.4488888888888889,0.3333333333333333,-0.6888888888888889,1.7875608340567366,-1.4391758295506407,4.577583713474728
1590514119.2988827,-10.72010726526843,8.71410946740308,12.863043208012929,0.4488888888888889,0.3333333333333333,-0.6888888888888889,2.515698886525118,-0.8191612833115534,3.004103631965509
1590514119.3088827,11.546966925623627,2.5897321926115318,1.3427937850329432,0.4488888888888889,0.3333333333333333,-0.6888888888888889,2.3525624638520672,-1.5412252190566456,0.29394365761826047
1590514119.3188827,0.28794384898866293,-2.1873570202830055,3.356061552311025,0.4662285612475502,0.3118651675559431,-0.6711363671883547,2.6891936401580003,0.4223325354380492,-0.16146256480235857
1590514119.3288827,1.0309727474844714,-3.9383323019092806,8.353809851245732,0.4955555555555556,0.27555555555555555,-0.6411111111111111,3.629813748464055,0.197727724497687,-0.18494540994232628
1590514119.3388827,0.24035281236059852,-2.1709525933736162,3.8392067804858265,0.4955555555555556,0.27555555555555555,-0.6411111111111111,5.226297149563182,-0.1145314814016865,-0.19245950530370365
1590514119.3488827,0.6620040888341221,-1.215987621474781,5.140550312263702,0.4955555555555556,0.27555555555555555,-0.6411111111111111,5.22828024084308,-0.05503057542488171,-0.002676991060817195
1590514119.3588827,2.1333628037818055,-2.1297969500200935,11.433596945789885,0.4955555555555556,0.27555555555555555,-0.6411111111111111,1.9760033122946103,-0.45084445310774035,0.1112684313674463
1590514119.3688827,0.24721833050455183,-0.9447483413053541,4.5709007869156,0.4955555555555556,0.23514241629378183,-0.6626909427557476,-0.08183593970742593,-0.377427787367993,0.21383343251083564
1590514119.3788826,0.5163638787070977,-3.864472731311785,13.890200377651896,0.4955555555555556,0.16111111111111112,-0.7022222222222222,-0.36466176209426654,0.7590240487414889,0.42551364158513516
1590514119.3888826,-0.2975733333333334,-4.039154666666667,14.81108678787879,0.4955555555555556,0.16111111111111112,-0.7022222222222222,-0.29164449156386985,0.8620260244303986,0.41740178437750414
1590514119.3988826,-0.6926710893854748,-2.858335273122284,11.307970204841713,0.4955555555555556,0.16111111111111112,-0.7022222222222222,-0.03163692810760621,-0.27258285271565785,0.22875863292567683
1590514119.4088826,-0.3168787216921485,-2.1131610529945974,7.752047821588689,0.4955555555555556,0.16111111111111112,-0.7022222222222222,0.28221940398282086,-0.5574774542017813,0.2241602961015753
1590514119.4188826,-0.4354201637136048,-1.8817730805097916,6.469050253859703,0.49367086887944833,0.15185901288294823,-0.707876282250544,0.02308254901746791,0.07227394236223544,0.37695307329126754
1590514119.4288826,-0.724976632368497,-2.6653874411001057,9.7002171362631,0.4833333333333333,0.10111111111111112,-0.7388888888888889,-0.3591675581450798,0.33493498151331147,0.4232929042814938
1590514119.4388826,-8.339976536205405,-11.038660640446196,9.708283873449371,0.4833333333333333,0.10111111111111112,-0.7388888888888889,-0.3697268924295877,0.2557399743795026,-0.42585356109768
1590514119.4488826,1.9964446876243533,0.36930879426979707,10.11767190608834,0.4833333333333333,0.10111111111111112,-0.7388888888888889,0.2351453955781026,-0.11436694449162514,-2.05874082295504
1590514119.4588826,1.4039351372861124,-0.849091126144051,8.790784321528054,0.4833333333333333,0.10111111111111112,-0.7388888888888889,0.6375071197231481,0.080441673080863,-2.031431203669177
1590514119.4688826,0.41980982769623487,-1.553650287172942,7.781421825143587,0.4907009856058994,0.09876685811529463,-0.7432425015954053,-0.07809220677168789,0.11632439863813497,-1.9033006231756557
1590514119.4788826,-0.6140641689916302,-2.7786783579115184,11.751107612594659,0.5077777777777778,0.09333333333333334,-0.7533333333333333,-0.2203336446551532,0.2502935794782164,-1.7806991683873077
1590514119.4888825,-0.42998049881966544,-1.9081853638509698,7.834575592733244,0.5077777777777778,0.09333333333333334,-0.7533333333333333,0.07467774019869841,0.1696726095780685,-1.732435101452631
1590514119.4988825,-1.8122430637954101,-4.72290878796294,8.294497235616369,0.5077777777777778,0.09333333333333334,-0.7533333333333333,0.06240727422571227,0.1616882419617992,-1.6942376913797585
1590514119.5088825,-4.667885904107221,-9.583753912325506,8.755912747940629,0.5077777777777778,0.09333333333333334,-0.7533333333333333,-0.04680859846563451,0.17090194730417144,-1.7684253353442678
1590514119.5188825,-3.6410641445297744,-8.04283992194385,8.942417537454363,0.504604928168758,0.10480440499671269,-0.7528452026242534,0.043748075469801924,0.16825271725740062,-2.0111341435096666
1590514119.5288825,0.8617409815581831,-1.4987396163546753,8.264143971122476,0.4933333333333334,0.14555555555555555,-0.7511111111111111,0.1518141283555577,0.15365112707178763,-2.2199269658473524
1590514119.5388825,0.12294171512293395,-2.2653779588846668,9.114685225035485,0.4933333333333334,0.14555555555555555,-0.7511111111111111,-0.0001809976995452156,0.16757769902982275,-2.17374391452136
1590514119.5488825,-0.6922256474662708,-2.945043481570284,8.701112823733135,0.4933333333333334,0.14555555555555555,-0.7511111111111111,-0.02641491441230747,0.1989198670557788,-2.113155830883269
1590514119.5588825,-1.037578393042368,-4.3130596558419105,8.750834064735765,0.4933333333333334,0.14555555555555555,-0.7511111111111111,0.05695956331608234,0.16287633397485277,-2.1030345669062744
1590514119.5688825,-1.427572346918898,-5.741196078006969,7.990540464492111,0.49219728288709486,0.15104646604570848,-0.7484603267365545,0.043383880335724455,0.18136173225402275,-2.2694621689487118
1590514119.5788825,-0.15066779967856944,-2.6880135961428335,8.514725583285612,0.4866666666666667,0.17777777777777778,-0.7355555555555555,0.07032494347831127,0.20405820197142976,-2.4724108799528812
1590514119.5888824,-0.15841593852178892,-2.780991262261467,8.917628803133024,0.4866666666666667,0.17777777777777778,-0.7355555555555555,0.08891914186423991,0.20490339280715378,-2.517205994246255
1590514119.5988824,-0.2906136988282945,-3.3160133082598002,8.883741682337623,0.4866666666666667,0.17777777777777778,-0.7355555555555555,0.03307287924362686,0.21825982703643274,-2.505256879546972
1590514119.6088824,-0.39679082887313755,-3.8620671199189935,8.542458050050628,0.4866666666666667,0.17777777777777778,-0.7355555555555555,0.012390507484690415,0.20750499372178574,-2.520148187213406
1590514119.6188824,-0.13162749864937873,-3.886505605078336,8.480935642895732,0.47550333153250496,0.19033652980370971,-0.734392708145747,0.06583054748219833,0.22653773763422008,-2.715459954632882
1590514119.6288824,-0.09628283071490198,-3.423717169285098,8.95575753927647,0.43333333333333335,0.23777777777777775,-0.73,0.07679228524628659,0.23546518879420922,-2.8583644894124864
1590514119.6388824,-0.006036764881878459,-3.6437245984824913,8.971125445798128,0.43333333333333335,0.23777777777777775,-0.73,0.07143974266619132,0.23833685238814908,-2.8990666026435354
1590514119.6488824,0.22899245359983683,-4.159924535998368,8.684962267999184,0.43333333333333335,0.23777777777777775,-0.73,0.060207273717328355,0.24031249093764773,-2.9620911977474056
1590514119.6588824,-3.8285798096302353,-8.969092650609621,8.033056891425378,0.43333333333333335,0.23777777777777775,-0.73,0.0010801212112277608,0.27803799290952536,-2.9543294221021767
1590514119.6688824,-12.379638554216868,-19.98042356927711,6.32304499246988,0.4314706743641232,0.24913999748995982,-0.7324214566599733,-0.11632307739932297,0.2714987873378646,-2.150633774613263
1590514119.6788824,0.5914749661705007,-5.205051051789888,5.026526017960389,0.4222222222222222,0.3055555555555556,-0.7444444444444445,-0.03395974016335873,-0.15430954781750486,0.7930918147793713
1590514119.6888824,3.916346153846154,-2.818195054945055,6.063853708791209,0.4222222222222222,0.3055555555555556,-0.7444444444444445,0.5283288306431418,-0.18997702129595662,1.306637567910419
1590514119.6988823,0.9897565875237748,-1.4852988694890261,8.092079798260423,0.4222222222222222,0.3055555555555556,-0.7444444444444445,0.12339113773955399,-0.10908669158435991,0.3650722937636868
1590514119.7088823,0.5670580845094016,-3.334690732442732,9.401177394363248,0.4222222222222222,0.3055555555555556,-0.7444444444444445,-0.24255144817835786,-0.011810770554710727,-0.11093971527351609
1590514119.7188823,0.5645971472214453,-3.960548396118844,9.333026397883005,0.42047393319612075,0.3066170167499743,-0.7443195666568658,-0.1471380786518651,0.16714082818060164,-0.31036314795137804
1590514119.7288823,-0.003895139949656845,-3.166463931498892,8.899889417181214,0.3924002400024861,0.3236617590461096,-0.7423143028573205,-0.05756390616347956,0.08347264508705475,-0.512151118941697
1590514119.7388823,0.2899440335798521,-3.7698880671597044,8.444520620960757,0.3911111111111111,0.3244444444444444,-0.7422222222222222,0.018289167317031167,0.05442474486354811,-0.6261185541848007
1590514119.7488823,-2.1568288494562107,-6.411681077335583,8.241448799445667,0.3911111111111111,0.3244444444444444,-0.7422222222222222,-0.0011734490630735683,0.06286229103976346,-0.5874167964852157
1590514119.7588823,0.3640726960503722,-3.0062526737565145,8.576305395715965,0.3911111111111111,0.3244444444444444,-0.7422222222222222,-0.005997794686725271,0.011862065875445457,-0.10084708072834392
1590514119.7688823,-0.018055088092866718,-3.7475759865370746,8.040638458632413,0.3911111111111111,0.3250653112156701,-0.7447056893071249,0.05687204400124404,-0.022888452332527724,0.09174697220796751
1590514119.7788823,-0.27990093950233896,-4.715554856716066,8.84414796179095,0.3911111111111111,0.33,-0.7644444444444445,-0.043724737761977314,0.005341035802327572,-0.05624371368915235
1590514119.7888823,-0.022558914117899863,-4.105117828235799,8.67104380058735,0.3911111111111111,0.33,-0.7644444444444445,0.016615889833072314,0.008840507241118628,-0.0025746567750968836
1590514119.7988822,-0.037580402549960604,-4.135160805099921,8.618468591075137,0.3911111111111111,0.33,-0.7644444444444445,0.01170011923889043,0.0031054415479064273,0.0015218187200546863
1590514119.8088822,-0.04,-4.082748729121278,8.841040209456102,0.3911111111111111,0.33,-0.7644444444444445,0.004026209179296871,0.002708439897808395,0.0025576965314468942
1590514119.8188822,-0.04,-4.235047204066812,8.752867408171845,0.3911111111111111,0.33,-0.7644444444444445,-0.017833246688841745,8.530519363176073e-05,0.004306453000897983
1590514119.8288822,-0.026664653816205565,-4.28,8.66667371164328,0.3688888888888889,0.3322222222222222,-0.75,-0.013817958399357011,0.0012725810209314437,-0.0009090805440614682
1590514119.8388822,-0.053325175991990964,-4.28,8.573361884028031,0.3688888888888889,0.3322222222222222,-0.75,-0.0036392170059853703,0.0019996339776008464,-0.0001820275873920654
1590514119.8488822,-0.045477954936746764,-4.14356613518976,8.717941213164659,0.3688888888888889,0.3322222222222222,-0.75,0.013358669179981797,0.001852809168004061,0.003705618336008122
1590514119.8588822,-0.02410582615017136,-4.214525565133105,8.674634956901029,0.3688888888888889,0.3322222222222222,-0.75,0.007383017794315898,0.0004478761552185833,0.0002985841034790555
1590514119.8688822,-0.04588534634956901,-4.185486204867241,8.805312078097414,0.3688888888888889,0.3322222222222222,-0.75,0.0002556864758640042,0.0028236532613692147,0.0018824355075794763
1590514119.8788822,-0.028026267628377653,-4.231272042200452,8.720131338141888,0.3794688341048552,0.3322222222222222,-0.7548830516381383,-0.01307564262114871,-0.0007224449320613847,0.000583686653172611
1590514119.8888822,-0.04,-4.212776984240347,8.675001428367375,0.38333333333333336,0.3322222222222222,-0.7566666666666667,-0.0038786479472854036,-0.0019393239736427018,0.002302830360668017
1590514119.8988822,-0.04,-4.253051197673528,8.600423203489706,0.38333333333333336,0.3322222222222222,-0.7566666666666667,0.004805487899605698,0.002181661564992912,0.00423699033866586
1590514119.9088821,-0.039062739597942965,-4.144686302010285,8.770937260402057,0.38333333333333336,0.3322222222222222,-0.7566666666666667,0.010772267610126432,0.002283900814770794,0.002181661564992912
1590514119.9188821,-0.0312192613370734,-4.183903693314633,8.778780738662926,0.38333333333333336,0.3322222222222222,-0.7566666666666667,0.0005051785755684837,0.003139491567650623,0.002181661564992912
1590514119.9288821,-0.05615766073871409,-4.177684678522572,8.742709473324213,0.3955555555555556,0.3322222222222222,-0.7355555555555555,-0.012103922156036149,0.0019720944678426437,0.0
1590514119.938882,-0.02029668262653899,-4.249406634746922,8.581335071819426,0.3955555555555556,0.3322222222222222,-0.7355555555555555,-0.013081878626415955,1.6181527083031395e-05,0.0
1590514119.948882,-0.0406938595524198,-4.207224561790321,8.625550876419357,0.3955555555555556,0.3322222222222222,-0.7355555555555555,0.006999114710083973,-0.0007880774390929638,0.0020302848932911657
1590514119.958882,-0.04994157204277368,-4.170233711828905,8.69953257634219,0.3955555555555556,0.3322222222222222,-0.7355555555555555,0.013051728381376953,0.003246998341769023,1.2747002860172621e-05
1590514119.968882,-0.05910198733347893,-4.160898012666522,8.772815898667831,0.3955555555555556,0.3322222222222222,-0.7355555555555555,0.0031612414247058247,0.0012867467544390382,0.0009928727965251647
1590514119.978882,-0.03918778702528174,-4.231624425949437,8.729187787025282,0.3688888888888889,0.3322222222222222,-0.7422222222222222,-0.010260470499850955,-0.0009136333995433163,-8.859869147656987e-05
1590514119.988882,-0.032613752135546466,-4.244772495728907,8.722613752135548,0.3688888888888889,0.3322222222222222,-0.7422222222222222,-0.013846050311315418,0.0005205985250424693,-0.0008057146537694626
1590514119.998882,-0.039121989963536594,-4.259121989963536,8.528438210765731,0.3688888888888889,0.3322222222222222,-0.7422222222222222,-0.009301302485040722,9.577603751151223e-05,0.001894333452458375
1590514120.008882,-0.03,-4.16,8.75300388858913,0.3688888888888889,0.3322222222222222,-0.7422222222222222,0.008792180942775916,0.002247196247797181,0.0011563654653007252
1590514120.018882,-0.03,-4.16,8.792022810575475,0.3688888888888889,0.3322222222222222,-0.7422222222222222,0.009643441766826542,0.0030984570718478044,0.0020076262893513486
1590514120.028882,-0.04,-4.171092766484366,8.760273191621092,0.3911111111111111,0.3388888888888889,-0.72,-0.0023008638969157008,-0.0010312296165350615,0.006425782363055946
1590514120.038882,-0.039028650011460005,-4.21291404996562,8.75251570020628,0.3911111111111111,0.3388888888888889,-0.72,-0.006544984694978735,0.0011967886293041566,0.0019697458713775107
1590514120.048882,-0.0317645838136961,-4.236470832372608,8.594117362231957,0.3911111111111111,0.3388888888888889,-0.72,-0.006160012226523796,0.0021174994869170884,6.416207807582335e-05
1590514120.058882,-0.05932489789380956,-4.179549931929206,8.662700408424762,0.3911111111111111,0.3388888888888889,-0.72,0.0001472844317521442,0.001041735971912408,0.00111537818778848
1590514120.068882,-0.03413289821414271,-4.162755265476095,8.763468407143428,0.3911111111111111,0.3388888888888889,-0.72,0.005643326176396436,-0.000790277942969023,0.0020313851452291956
1590514120.078882,-0.04,-4.154152106104025,8.757034209925697,0.37666666666666665,0.32666666666666666,-0.7333333333333333,-0.0036607133603860603,0.0030783818410410222,0.0020522545606940145
1590514120.088882,-0.04346786497568418,-4.21768809001621,8.698440450081053,0.37666666666666665,0.32666666666666666,-0.7333333333333333,-0.009943572171302026,0.0001260951288339209,0.0002521902576678418
1590514120.098882,-0.06567045784640137,-4.2021647710767995,8.611082385538399,0.37666666666666665,0.32666666666666666,-0.7333333333333333,-0.00972760836114921,0.0008546908897333861,0.002063591618611377
1590514120.108882,-0.03,-4.217829792341855,8.624340415316288,0.37666666666666665,0.32666666666666666,-0.7333333333333333,0.00023673293179133267,-0.001090830782496456,0.0011204223989703726
1590514120.118882,-0.03,-4.1730780618573196,8.71384387628536,0.37666666666666665,0.32666666666666666,-0.7333333333333333,0.005118389450042987,-0.001090830782496456,0.0017306294637518295
1590514120.128882,-0.034322284991901396,-4.144322284991901,8.788644569983802,0.37954818999460094,0.33531123665046947,-0.740537141653169,0.007783669955993951,-0.0001478544785187588,0.0026531497169817605
1590514120.138882,-0.03384603365921164,-4.168461899022365,8.8,0.38333333333333336,0.3466666666666667,-0.75,0.0005033423678976216,0.001090830782496456,0.001258611571795663
1590514120.148882,-0.04981477769314036,-4.20972216653971,8.641481778454878,0.38333333333333336,0.3466666666666667,-0.75,-0.008676134711489772,0.002171559255296537,-0.001080728472800081
1590514120.158882,-0.010029207882233819,-4.219956188176649,8.670029207882234,0.38333333333333336,0.3466666666666667,-0.75,-0.005444595655372625,0.0021768824364380847,0.002181661564992912
1590514120.168882,-0.026363423942674664,-4.195454864085988,8.686363423942675,0.38333333333333336,0.3466666666666667,-0.75,-9.923594936956607e-05,-0.0004957974165634448,0.002181661564992912
1590514120.178882,-0.03450140129498985,-4.19450140129499,8.69900280258998,0.38683442322943656,0.3431655767705635,-0.7530009341966599,0.0005998040728020218,0.00038224934658684655,0.002672688274687346
1590514120.1888819,-0.03931442463533225,-4.200342787682334,8.706572123176661,0.3911111111111111,0.3388888888888889,-0.7566666666666667,-0.0003365310201753654,0.0021442692294178713,0.0032351000119143275
1590514120.1988819,-0.025718638573743922,-4.207140680713128,8.63859319286872,0.3911111111111111,0.3388888888888889,-0.7566666666666667,-0.007010346896872931,0.0014027341320070308,0.002493564914503487
1590514120.2088819,-0.04821651120486125,-4.238216511204861,8.628811007469908,0.3911111111111111,0.3388888888888889,-0.7566666666666667,-0.007765514442673517,0.003142793382291044,0.0011556802650956183
1590514120.2188818,-0.05,-4.224221870790136,8.645778129209864,0.3911111111111111,0.3388888888888889,-0.7566666666666667,-0.0016118713161612256,0.003272492347489368,0.001090830782496456
1590514120.2288818,-0.05,-4.172567345197464,8.801784495368114,0.39532734709355877,0.3325645349152175,-0.7345314277588167,0.007243739993578748,0.001202852349324011,0.006264930777909847
1590514120.2388818,-0.041494728836118565,-4.17,8.784484186508354,0.3955555555555556,0.3322222222222222,-0.7333333333333333,0.002069128518050394,0.00016304962259232304,0.0037616412152663373
1590514120.2488818,-0.04919466272875903,-4.1975839881862775,8.660469384526133,0.3955555555555556,0.3322222222222222,-0.7333333333333333,-0.003924079787105151,0.0010029821139203212,0.0022695102335690467
1590514120.2588818,-0.030496990972918754,-4.2292545135406225,8.65975150451354,0.3955555555555556,0.3322222222222222,-0.7333333333333333,-0.00861821964959512,0.00215455491239878,0.003245385694895236
1590514120.2688818,-0.04450424126511891,-4.215495758734881,8.689008482530237,0.3955555555555556,0.3322222222222222,-0.7333333333333333,-0.003980144405347531,-0.000982673004756499,0.0008992414201773099
1590514120.2788818,-0.030275990647493006,-4.189862004676254,8.750413985971239,0.3911111111111111,0.32666666666666666,-0.7422222222222222,0.003272492347489368,4.515886409497531e-05,0.001090830782496456
1590514120.2888818,-0.04309534361294069,-4.183452328193529,8.76964301541941,0.3911111111111111,0.32666666666666666,-0.7422222222222222,0.003272492347489368,0.002142720588054609,0.001090830782496456
1590514120.2988818,-0.04316280384397965,-4.186837196156021,8.697953646127756,0.3911111111111111,0.32666666666666666,-0.7422222222222222,-0.001202442072282696,0.00178084754089868,0.001090830782496456
1590514120.3088818,-0.04944732395979497,-4.218341971879385,8.66,0.3911111111111111,0.32666666666666666,-0.7422222222222222,-0.01048629459878183,6.0287603740389944e-05,0.002121373961252522
1590514120.3188818,-0.05,-4.227521381980864,8.682564145942592,0.3911111111111111,0.32666666666666666,-0.7422222222222222,-0.006806030329144085,0.00164091099832819,0.002181661564992912
1590514120.3288817,-0.04179683934276586,-4.197187357371064,8.74742212460064,0.36923601602515344,0.3312239781429078,-0.7367534484507328,0.0008096281985901215,0.0012868355491254262,0.003076487580860398
1590514120.3388817,-0.04,-4.208646160284578,8.75067691985771,0.3644444444444445,0.3322222222222222,-0.7355555555555555,0.00319865184568196,0.003124811343874552,0.004289482628178416
1590514120.3488817,-0.03309682511840028,-4.1892904753552,8.701677775828802,0.3644444444444445,0.3322222222222222,-0.7355555555555555,0.0010134336501477774,0.004025511913269898,0.003610303564205294
1590514120.3588817,-0.03,-4.196842689227142,8.663157310772858,0.3644444444444445,0.3322222222222222,-0.7355555555555555,-0.003674504773797569,0.001607444549637647,0.003272492347489368
1590514120.3688817,-0.03,-4.205984410762016,8.677953232286049,0.3644444444444445,0.3322222222222222,-0.7355555555555555,-0.0037105251825548073,0.001090830782496456,0.001314098505196318
1590514120.3788817,-0.05055700113839648,-4.196295332574403,8.724261668563994,0.3773877414575089,0.3322222222222222,-0.7401237780307548,-0.0010300713837316103,0.00034335712791053674,0.002242420963757758
1590514120.3888817,-0.03041819833066644,-4.197395450417334,8.762186351252,0.38333333333333336,0.3322222222222222,-0.7422222222222222,0.001613436993130705,-0.002420155489696058,0.0016590553543586628
1590514120.3988817,-0.038525885305325774,-4.1629482293893485,8.695896458778696,0.38333333333333336,0.3322222222222222,-0.7422222222222222,0.0011712312667905066,0.0027900894417250653,8.040048429405061e-05
1590514120.4088817,-0.049474818593289754,-4.197899274373159,8.70894963718658,0.38333333333333336,0.3322222222222222,-0.7422222222222222,-0.002009796351542612,0.00430603472550239,0.0
1590514120.4188817,-0.03200869014212003,-4.21199420657192,8.69800579342808,0.38333333333333336,0.3322222222222222,-0.7422222222222222,-0.006106756487074394,0.004363323129985824,0.0013083649740271604
1590514120.4288816,-0.038206986177292956,-4.226068995392431,8.702137990784863,0.3880536630830019,0.3322222222222222,-0.7422222222222222,-0.005416522763525209,0.0023772490321179603,0.0028436862642822
1590514120.4388816,-0.05,-4.194468037798777,8.718882990550306,0.3911111111111111,0.3322222222222222,-0.7422222222222222,0.0025414113722498034,0.006904734502235627,0.0013345244409096442
1590514120.4488816,-0.05758980927412092,-4.174820381451759,8.697230572177636,0.3911111111111111,0.3322222222222222,-0.7422222222222222,0.003272492347489368,0.006807895718526373,0.0002629110235476378
1590514120.4588816,-0.03452862335302136,-4.17,8.698490458882326,0.3911111111111111,0.3322222222222222,-0.7422222222222222,-0.0013583346056915777,0.00284032313243398,0.0009261653906361889
1590514120.4688816,-0.03,-4.192089741270129,8.707363247090044,0.3911111111111111,0.3322222222222222,-0.7422222222222222,-0.0053944841989713764,0.002181661564992912,0.0026972420994856887
1590514120.4788816,-0.03,-4.205563339509032,8.715563339509032,0.38678406927075293,0.3291314780505378,-0.7372770315475271,-0.006544984694978735,0.0015747953659998337,0.0020587599495032116
1590514120.4888816,-0.03,-4.21,8.727030415430267,0.38333333333333336,0.32666666666666666,-0.7333333333333333,-0.0027104879124420465,0.0003239314259891182,0.001090830782496456
1590514120.4988816,-0.03,-4.204108057431553,8.682864459452421,0.38333333333333336,0.32666666666666666,-0.7333333333333333,-0.00044811955026009375,0.0,0.0030189644792055427
1590514120.5088816,-0.043398563471122836,-4.173202873057755,8.690195690413368,0.38333333333333336,0.32666666666666666,-0.7333333333333333,0.002192334821330004,-0.0007307782737766679,0.00217098830865582
1590514120.5188816,-0.04496937575415069,-4.180122496983397,8.71503062424585,0.38333333333333336,0.32666666666666666,-0.7333333333333333,0.0005287124562166458,0.0011041931305217215,0.0016395867607510003
1590514120.5288815,-0.043700149453315504,-4.196299850546684,8.72,0.387855738220719,0.3311890715540523,-0.7316888224651931,-0.002988908949695709,0.0036761160398407666,0.0009707904879387164
1590514120.5388815,-0.05,-4.1957482095740675,8.731496419148135,0.3955555555555556,0.3388888888888889,-0.7288888888888889,-0.0018551935509325324,0.0006011287614058869,-0.0004637983877331331
1590514120.5488815,-0.05,-4.183792845702082,8.691378537106246,0.3955555555555556,0.3388888888888889,-0.7288888888888889,0.00353585256096769,0.0004702278557328558,0.0008839631402419225
1590514120.5588815,-0.04148587373561214,-4.162971747471224,8.731084757586327,0.3955555555555556,0.3388888888888889,-0.7288888888888889,0.0006483347238834883,0.001090830782496456,0.00201957788402204
1590514120.5688815,-0.04,-4.195046231492617,8.718972261104431,0.3955555555555556,0.3388888888888889,-0.7288888888888889,-0.0007645901624528616,-0.001202939704862129,0.0029462517274457737
1590514120.5788815,-0.024936562860438292,-4.217531718569781,8.725063437139562,0.3813289760348584,0.329683455081379,-0.7556683326925542,-0.005198746013005024,0.0011046706194139423,-1.3839836917486133e-05
1590514120.5888815,-0.028754949057699413,-4.22,8.686225254711502,0.37666666666666665,0.32666666666666666,-0.7644444444444445,-0.00558996790184605,0.004091695151258284,0.0008192028037689162
1590514120.5988815,-0.03,-4.206572644640024,8.63971793392007,0.37666666666666665,0.32666666666666666,-0.7644444444444445,-0.0017924107739368798,0.004363323129985824,0.000358482154787376
1590514120.6088815,-0.03736768542676109,-4.192632314573239,8.664206112560565,0.37666666666666665,0.32666666666666666,-0.7644444444444445,0.0016073796118523066,0.0027559435181335173,0.0008036898059261533
1590514120.6188815,-0.033257449080323145,-4.196742550919677,8.720455305518062,0.37666666666666665,0.32666666666666666,-0.7644444444444445,-2.483306372707845e-05,0.002181661564992912,0.001826328992069786
1590514120.6288815,-0.04493322518033547,-4.2,8.732533387409832,0.38745177374135337,0.32666666666666666,-0.7536593373697578,-0.005163236209661735,0.0005526993941268002,0.0005526993941268002
1590514120.6388814,-0.0337324513046674,-4.216267548695332,8.721866225652334,0.3911111111111111,0.32666666666666666,-0.75,-0.005657727551347293,-0.000887257143631443,0.003549028574525772
1590514120.6488814,-0.03575505071674072,-4.22,8.673959594266075,0.3911111111111111,0.32666666666666666,-0.75,-0.0060819325601471855,-0.001090830782496456,0.0037355444823209175
1590514120.6588814,-0.04,-4.2005012315752435,8.69849630527427,0.3911111111111111,0.32666666666666666,-0.75,-0.0022910133312798453,-0.001090830782496456,0.0018545018929230711
1590514120.6688814,-0.03512278056208513,-4.19975443887583,8.725122780562085,0.3911111111111111,0.32666666666666666,-0.75,0.0,0.0005052355462638262,0.001090830782496456
1590514120.6788814,-0.02713477406679764,-4.21,8.725730451866406,0.3869724514298188,0.330168609473914,-0.7541386596812923,-0.0018752859880465593,0.002181661564992912,0.0004657354531476028
1590514120.6888814,-0.030179973892015665,-4.21,8.709460078323954,0.37666666666666665,0.3388888888888889,-0.7644444444444445,-0.004879290362015594,0.001071198676350818,1.9632106145637965e-05
1590514120.6988814,-0.033089010949037864,-4.21,8.64544505474519,0.37666666666666665,0.3388888888888889,-0.7644444444444445,-0.0025186203880608214,0.0022616158782856393,0.003352446660782095
1590514120.7088814,-0.03749216090306397,-4.195015678193872,8.674952965418383,0.37666666666666665,0.3388888888888889,-0.7644444444444445,-0.0013643935909450498,0.002455224373441506,0.0019115192078422373
1590514120.7188814,-0.045870245914159155,-4.18412975408584,8.725221475484954,0.37666666666666665,0.3388888888888889,-0.7644444444444445,0.00018985820630131522,0.0015413170705940262,0.0004504862880975704
1590514120.7288814,-0.04554588312685013,-4.18445411687315,8.75445411687315,0.3915137229104996,0.33344496826615017,-0.7545464069485559,-0.0013385131145379162,0.001090830782496456,0.0
1590514120.7388813,-0.04,-4.210339997556904,8.739660002443097,0.41,0.32666666666666666,-0.7422222222222222,-0.007321655856782272,0.001090830782496456,0.0014791663633982237
1590514120.7488813,-0.04,-4.22,8.651543829501875,0.41,0.32666666666666666,-0.7422222222222222,-0.005614558774293668,-0.001243234831762029,0.0037377053078319015
1590514120.7588813,-0.04,-4.20435704400775,8.698214779961251,0.41,0.32666666666666666,-0.7422222222222222,0.0024622040402477443,-0.0004752797724345199,9.736864858984461e-05
1590514120.7688813,-0.03384003471217819,-4.181520104136535,8.756959791726931,0.41,0.32666666666666666,-0.7422222222222222,0.002347479203466122,0.002015843926519702,0.0009250131440232459
1590514120.7788813,-0.01706385903524119,-4.182936140964759,8.77353192951762,0.3927518120469883,0.3302600391568774,-0.7422222222222222,0.001090830782496456,0.0011558212318285212,0.0014761045264392965
1590514120.7888813,-0.03360158175842235,-4.2136015817584225,8.762132806080526,0.38333333333333336,0.3322222222222222,-0.7422222222222222,0.0002326530525733249,-0.0017163554598462621,0.0019490085124195871
1590514120.7988813,-0.04,-4.22,8.686114997296567,0.38333333333333336,0.3322222222222222,-0.7422222222222222,-0.0012399390048267536,-0.002181661564992912,0.0009417225601661583
1590514120.8088813,-0.04,-4.208083436296242,8.671707972963151,0.38333333333333336,0.3322222222222222,-0.7422222222222222,-0.002181661564992912,0.0004181293369348287,0.0
1590514120.8188813,-0.031047043615924242,-4.195523521807963,8.722382390960188,0.38333333333333336,0.3322222222222222,-0.7422222222222222,0.0002598785395315881,0.0007167375022782119,0.0
1590514120.8288813,-0.0214770496753737,-4.191477049675374,8.752954099350747,0.38333333333333336,0.33320692200580465,-0.7422222222222222,0.003111371222171965,-0.0012519519078138587,0.0
1590514120.8388813,-0.02390628441954873,-4.206093715580451,8.72125027535639,0.38333333333333336,0.3388888888888889,-0.7422222222222222,0.0008522190580060112,-0.0008522190580060112,0.0006647212534934504
1590514120.8488812,-0.031446845624576024,-4.215723422812288,8.638489194689408,0.38333333333333336,0.3388888888888889,-0.7422222222222222,-0.0018729857354658598,0.0,-0.00015782637448078386
1590514120.8588812,-0.04,-4.210964340098639,8.622589149753404,0.38333333333333336,0.3388888888888889,-0.7422222222222222,-0.002286854751431978,-0.00098563759605739,0.00038762561158962915
1590514120.8688812,-0.04,-4.190903429971417,8.690934565128623,0.38333333333333336,0.3388888888888889,-0.7422222222222222,0.0013898738680818204,-0.0011893797047616012,-0.0002990430855853653
1590514120.8788812,-0.04,-4.18,8.752578279381506,0.38053816013744307,0.3388888888888889,-0.7384953246277018,0.0034486048406399865,-0.00045735914467291873,-0.0014430557687976932
1590514120.8888812,-0.050596167494677075,-4.174701916252661,8.759403832505322,0.37666666666666665,0.3388888888888889,-0.7333333333333333,0.000447867713040596,-0.001090830782496456,0.001090830782496456
1590514120.8988812,-0.06627912814291094,-4.195116512571643,8.68092959042798,0.37666666666666665,0.3388888888888889,-0.7333333333333333,-0.001090830782496456,0.000279062470608954,-0.000279062470608954
1590514120.9088812,-0.03898035186849878,-4.2037960703737,8.6586117888789,0.37666666666666665,0.3388888888888889,-0.7333333333333333,-0.00176757452337746,-0.00026265669926555215,0.0009394004401465565
1590514120.9188812,-0.03082234351966214,-4.210822343519662,8.697055858799155,0.37666666666666665,0.3388888888888889,-0.7333333333333333,-0.001001127019993062,-0.001090830782496456,0.001001127019993062
1590514120.9288812,-0.05166152707536697,-4.208338472924633,8.737492290613051,0.3876803311267355,0.33500171319709987,-0.7430512725628058,0.0019081129057089237,0.0008172821232124677,-0.0006360376352363078
1590514120.9388812,-0.039520366990104715,-4.193173455663368,8.702214189643577,0.3955555555555556,0.3322222222222222,-0.75,-0.0004508100027480191,0.0006923406248979572,-0.0018354912525439333
1590514120.9488811,-0.04014620709139709,-4.195073103545699,8.654634482271508,0.3955555555555556,0.3322222222222222,-0.75,-0.0016282718139489232,0.0011067795020879778,-0.0016282718139489232
1590514120.9588811,-0.03232391263297035,-4.2,8.64767608736703,0.3955555555555556,0.3322222222222222,-0.75,-0.001090830782496456,0.0002534995435876451,-0.0006087902771451392
1590514120.9688811,-0.02113649605937011,-4.2,8.68113649605937,0.3955555555555556,0.3322222222222222,-0.75,0.00012397248857468394,-0.002181661564992912,0.00040493442369037995
1590514120.9788811,-0.04,-4.200357538908646,8.702502772360521,0.3951185635560995,0.3322222222222222,-0.75,0.002298665899240266,-0.002142660120243794,0.001090830782496456
1590514120.988881,-0.03517216497820879,-4.195516494934626,8.760344329956418,0.38333333333333336,0.3322222222222222,-0.75,0.00440088370156542,-3.756057157959622e-05,0.001090830782496456
1590514120.998881,-0.04015771670190275,-4.185078858350951,8.689053699788584,0.38333333333333336,0.3322222222222222,-0.75,0.0021644573416579787,0.0005368132795807612,0.001090830782496456
1590514121.008881,-0.04301212938005391,-4.19,8.647469676549866,0.38333333333333336,0.3322222222222222,-0.75,0.00032857234486247697,0.0003811292188169895,0.00032857234486247697
1590514121.018881,-0.032147404285842375,-4.196442212857527,8.68858961714337,0.38333333333333336,0.3322222222222222,-0.75,-0.0008565853127502879,0.001325076252242624,-0.001090830782496456
1590514121.028881,-0.049587786570939055,-4.210412213429061,8.72958778657094,0.3872394686029752,0.3322222222222222,-0.7475142775556824,0.002440352303103508,0.002181661564992912,-0.0007422090249102405
1590514121.038881,-0.048524660471765554,-4.19,8.756135811293781,0.3955555555555556,0.3322222222222222,-0.7422222222222222,0.00663184570224829,0.0015123483815083101,0.0003346565917423009
1590514121.048881,-0.012554474924830172,-4.19,8.715597275325736,0.3955555555555556,0.3322222222222222,-0.7422222222222222,0.002993842359377361,0.0009129871804056421,0.0006343371922936349
1590514121.058881,-0.03865261527171919,-4.202978922907579,8.657305230543438,0.3955555555555556,0.3322222222222222,-0.7422222222222222,-0.001268803989376101,0.0017097346106184005,0.00047192695437451145
1590514121.068881,-0.05,-4.210122299369118,8.699755401261763,0.3955555555555556,0.3322222222222222,-0.7422222222222222,-0.004902068125408332,0.001090830782496456,0.001090830782496456
1590514121.078881,-0.03678492904257446,-4.2,8.715594976347525,0.3935977672655666,0.3322222222222222,-0.7383066456422442,-0.0016100455942863602,-0.0008312233766015037,0.001090830782496456
1590514121.088881,-0.032011558761015454,-4.1939942206194925,8.722011558761016,0.3911111111111111,0.3322222222222222,-0.7333333333333333,0.003272492347489368,-0.003272492347489368,0.001090830782496456
1590514121.098881,-0.04,-4.18401054531636,8.688073817214518,0.3911111111111111,0.3322222222222222,-0.7333333333333333,0.00196579603963284,-0.001312447885704576,0.00174417893642472
1590514121.108881,-0.034778921486914485,-4.185221078513085,8.670442157026171,0.3911111111111111,0.3322222222222222,-0.7333333333333333,0.0005212994665060055,-0.0005695313159904505,0.001042598933012011
1590514121.118881,-0.03,-4.195792472954442,8.694481182386104,0.3911111111111111,0.3322222222222222,-0.7333333333333333,-0.0003159303902741526,-0.001090830782496456,-0.0003159303902741526
1590514121.128881,-0.03,-4.20857412768551,8.726435319213774,0.3911111111111111,0.3322222222222222,-0.7333333333333333,-0.0010130615118686803,-0.001090830782496456,-0.0010130615118686803
1590514121.138881,-0.03,-4.20086165169247,8.75304611610251,0.38333333333333336,0.3388888888888889,-0.75,0.0033664839664831114,0.0,-0.0018493818438253412
1590514121.148881,-0.03,-4.175291052820697,8.708201581027668,0.38333333333333336,0.3388888888888889,-0.75,6.349787522976153e-05,-0.0005136664536333472,-0.0005771643288631087
1590514121.158881,-0.034062002828354254,-4.182186008485063,8.674372016970127,0.38333333333333336,0.3388888888888889,-0.75,-0.0019770223272477534,-0.001090830782496456,-0.00044309577237564853
1590514121.168881,-0.04,-4.2,8.713643528928218,0.38333333333333336,0.3388888888888889,-0.75,-0.0012852555915814365,-0.0006933834313148697,-0.00029593608013328337
1590514121.178881,-0.03709868762512049,-4.2,8.72,0.37914254879184073,0.3388888888888889,-0.7438750072085877,0.002181661564992912,-0.0003164840848156471,0.001090830782496456
1590514121.188881,-0.03441222728555873,-4.197058515142961,8.715587772714441,0.3688888888888889,0.3388888888888889,-0.7288888888888889,0.002181661564992912,-0.001090830782496456,0.0007699645596659059
1590514121.198881,-0.052965356248731305,-4.187034643751269,8.665378746870559,0.3688888888888889,0.3388888888888889,-0.7288888888888889,0.0010306206728258771,-0.0014745110798854676,6.021010967057882e-05
1590514121.208881,-0.04127644569816643,-4.198723554301834,8.63021156558533,0.3688888888888889,0.3388888888888889,-0.7288888888888889,-0.0012300694084709683,-0.0020424229390183994,0.0017639456870693748
1590514121.218881,-0.046750288078281736,-4.193249711921719,8.706499423843436,0.3688888888888889,0.3388888888888889,-0.7288888888888889,-0.0028906387246841123,-0.0007363422026508559,-0.001090830782496456
1590514121.228881,-0.03742504043462033,-4.2,8.72257495956538,0.37260827492777066,0.3371722491786358,-0.730605528599142,-0.0032397850669458874,-0.0005617690315199681,-0.00024817723521650375
1590514121.2388809,-0.045681017612524466,-4.2,8.72477299412916,0.38333333333333336,0.3322222222222222,-0.7355555555555555,-0.0011403557808407178,-0.0004711278937318353,0.0016114836745725531
1590514121.2488809,-0.05036344355538417,-4.1951817217776926,8.67663549599923,0.38333333333333336,0.3322222222222222,-0.7355555555555555,-0.0011304763242877569,0.0021420160232016113,-0.00048594707856127687
1590514121.2588809,-0.04,-4.19,8.663956591550857,0.38333333333333336,0.3322222222222222,-0.7355555555555555,-0.0012346965110777393,0.0024493613401042084,-0.003004792572378071
1590514121.2688808,-0.031353203151764306,-4.194323398424118,8.724323398424119,0.38333333333333336,0.3322222222222222,-0.7355555555555555,-0.0030366875431881474,0.001090830782496456,-0.0029484943041784986
1590514121.2788808,-0.00522441113490364,-4.204775588865097,8.737387794432548,0.388557744468237,0.33396369260052344,-0.7349750654294551,-0.0016117667163558984,0.0016607256311334698,0.0013268192920373916
1590514121.2888808,-0.027804656365797386,-4.197804656365798,8.737804656365798,0.4033333333333333,0.3388888888888889,-0.7333333333333333,0.0,0.0024211364064274975,-0.0008070454688091657
1590514121.2988808,-0.05,-4.209137719229462,8.716550876917848,0.4033333333333333,0.3388888888888889,-0.7333333333333333,0.0005924455116310896,0.0011848910232621793,-0.0011848910232621793
1590514121.3088808,-0.05,-4.2,8.696325717972105,0.4033333333333333,0.3388888888888889,-0.7333333333333333,-0.0006900287885362318,0.0009944218509711203,-0.00040080199396022413
1590514121.3188808,-0.04594752351807775,-4.195947523518078,8.718104952963845,0.4033333333333333,0.3388888888888889,-0.7333333333333333,-0.0017396049558105389,-0.0008841132183647463,0.001532887391678829
1590514121.3288808,-0.04,-4.193165350040861,8.736330700081721,0.39489239989103786,0.3350201277278368,-0.7361469778140984,0.0002903137222824946,-0.0014910893126034368,0.0014910893126034368
1590514121.3388808,-0.0437969172843864,-4.203796917284387,8.731015413578067,0.37666666666666665,0.32666666666666666,-0.7422222222222222,0.0028583129222492145,0.0008283588504803068,0.0
1590514121.3488808,-0.040812889812889816,-4.20693762993763,8.68468814968815,0.37666666666666665,0.32666666666666666,-0.7422222222222222,0.0025157143181357977,0.0018476088118500264,0.0
1590514121.3588808,-0.02749385055849026,-4.196253074720755,8.664987701116981,0.37666666666666665,0.32666666666666666,-0.7422222222222222,0.0024550400606264244,0.001090830782496456,0.00040872614343147177
1590514121.3688807,-0.03763967777465823,-4.192360322225342,8.697080966676024,0.37666666666666665,0.32666666666666666,-0.7422222222222222,0.001090830782496456,0.000318417140492454,0.000833359568495122
1590514121.3788807,-0.03,-4.197666098202231,8.724667803595539,0.38003785815233265,0.3279632787765382,-0.7440374791760423,0.0005816523976304559,-0.001927072372559912,0.00025458919243300003
1590514121.3888807,-0.03,-4.192424581537656,8.725452510774065,0.3911111111111111,0.3322222222222222,-0.75,-0.0005618691473069795,-0.0008263499649017178,0.0008263499649017178
1590514121.3988807,-0.03,-4.197417914712255,8.695492511726469,0.3911111111111111,0.3322222222222222,-0.75,0.0005275071595157747,-0.00028166181149034064,0.00028166181149034064
