time,acc_x,acc_y,acc_z,mag_x,mag_y,mag_z,gyr_x,gyr_y,gyr_z
1590514196.9333644,-3.76,-0.83,9.06,0.31777777777777777,-0.3944444444444444,-0.7588888888888888,-0.002181661564992912,0.004363323129985824,-0.016362461737446838
1590514196.9433644,-3.73,-0.86,9.045948361953478,0.31777777777777777,-0.3944444444444444,-0.7588888888888888,-0.0009768189718109784,0.004691276469368451,-0.009268541128051424
1590514196.9533644,-3.733324288334464,-0.8500271349966081,8.99,0.31777777777777777,-0.3944444444444444,-0.7588888888888888,0.006901688361574836,0.007267271935045859,-0.004003659494431416
1590514196.9633644,-3.74,-0.83,8.998133862433862,0.31777777777777777,-0.3944444444444444,-0.7588888888888888,0.012294894191575971,0.01090830782496456,-0.0013865863666114122
1590514196.9733644,-3.7397172560989604,-0.8301413719505197,9.020848231703118,0.31777777777777777,-0.39427165650492013,-0.7586846849603602,0.013012862952253179,0.010831201387260268,-0.002243346715156345
1590514196.9833643,-3.720465425837101,-0.8397672870814495,9.078603722488698,0.31777777777777777,-0.38250664912267285,-0.7447805853267951,0.007762740684994918,0.005581079120002006,-0.006443444528962955
1590514196.9933643,-3.72,-0.83,9.047359677116576,0.31777777777777777,-0.38222222222222224,-0.7444444444444445,0.003743144772961464,0.003272492347489368,-0.004822938240050268
1590514197.0033643,-3.7187693498452012,-0.8324613003095975,8.943691950464396,0.31777777777777777,-0.38222222222222224,-0.7444444444444445,0.0019131753507252085,0.003272492347489368,-0.008592403152837796
1590514197.0133643,-3.704493635447385,-0.8555063645526149,8.975506364552615,0.31777777777777777,-0.38222222222222224,-0.7444444444444445,-0.0003003255976819818,0.002371515554443423,-0.007635815477475192
1590514197.0233643,-3.6879810153238086,-0.8659620306476172,8.992018984676191,0.3192359333772493,-0.3826708854835981,-0.7438836153677246,-0.0005402381239519008,0.0,-0.007856052540893015
1590514197.0333643,-3.666649827675747,-0.8367003446485057,9.01,0.3322222222222222,-0.38666666666666666,-0.7388888888888889,0.004363323129985824,0.0007308942195925453,-0.01310650103063456
1590514197.0433643,-3.6627353975094836,-0.8527353975094835,8.979910627395682,0.3322222222222222,-0.38666666666666666,-0.7388888888888889,0.004064937549414957,0.002181661564992912,-0.02112688198779054
1590514197.0533643,-3.668544018671298,-0.8614559813287017,8.90727990664351,0.3322222222222222,-0.38666666666666666,-0.7388888888888889,0.002637200646654209,0.0017051927893665425,-0.026518514324297592
1590514197.0633643,-3.6630432632160836,-0.8669567367839167,8.96065142125629,0.3322222222222222,-0.38666666666666666,-0.7388888888888889,-0.0019207520813321697,-0.0019207520813321697,-0.03640044337779087
1590514197.0733643,-3.675246283203864,-0.8547537167961362,9.003361991213522,0.3322222222222222,-0.38666666666666666,-0.7388888888888889,-0.005248609541854765,-0.005248609541854765,-0.042390586806731544
1590514197.0833642,-3.7103233609166137,-0.8399191597708465,9.030242520687459,0.31777777777777777,-0.38222222222222224,-0.7444444444444445,-0.012034411811630856,-0.006615531103318417,-0.06116588852918368
1590514197.0933642,-3.745921069382559,-0.8310197326543602,9.05694080203692,0.31777777777777777,-0.38222222222222224,-0.7444444444444445,-0.015917519429729632,-0.014381746339515975,-0.06990288066990592
1590514197.1033642,-3.8017652673411657,-0.8482347326588341,8.965887406070491,0.31777777777777777,-0.38222222222222224,-0.7444444444444445,-0.02232976404590176,-0.0158493133414742,-0.07193029765421492
1590514197.1133642,-3.809044131683529,-0.8409558683164708,9.03139718515176,0.31777777777777777,-0.38222222222222224,-0.7444444444444445,-0.01994776126002205,-0.01823131612735391,-0.06716629208245549
1590514197.1233642,-3.7760510483855056,-0.87,9.059210209677103,0.31777777777777777,-0.3825732401435106,-0.7444444444444445,-0.017682595706503934,-0.01667791768360106,-0.05735411258212416
1590514197.1333642,-3.7346846953468646,-0.87,9.050936939069373,0.31777777777777777,-0.3862502493025009,-0.7444444444444445,-0.008657857455670779,-0.00855565325785122,-0.041109583730624476
1590514197.1433642,-3.6915729768481427,-0.9128090077172859,8.970336945979,0.31777777777777777,-0.38666666666666666,-0.7444444444444445,-0.007022985060218085,-0.006410154642960977,-0.03926990816987242
1590514197.1533642,-3.668094323568737,-0.921905676431263,8.929528382156315,0.31777777777777777,-0.38666666666666666,-0.7444444444444445,-0.004830522758672406,-0.0024409841424095366,-0.04197230983638187
1590514197.1633642,-3.66352830766092,-0.9229433846781598,8.97,0.31777777777777777,-0.38666666666666666,-0.7444444444444445,-0.001989222234660425,0.0016681487734939173,-0.05422046566365628
1590514197.1733642,-3.6813802068119417,-0.89,8.972760413623883,0.31777777777777777,-0.38702449806235517,-0.7441888505903812,-0.001090830782496456,0.004262951658207363,-0.057964588679979855
1590514197.1833642,-3.71,-0.8877967630167545,9.036609710949737,0.31777777777777777,-0.3944444444444444,-0.7388888888888889,-0.001090830782496456,0.0024219974372387968,-0.061807531436539186
1590514197.1933641,-3.71,-0.8778009242457235,9.040208318211512,0.31777777777777777,-0.3944444444444444,-0.7388888888888889,-0.0008509488299158195,0.003752256252650641,-0.06339948835696835
1590514197.2033641,-3.722331779661017,-0.8638341101694915,8.97205529661017,0.31777777777777777,-0.3944444444444444,-0.7388888888888889,0.00022419808095334998,0.0050057577505755796,-0.05977149495635173
1590514197.2133641,-3.772709136630344,-0.8379681475272422,8.982709136630344,0.31777777777777777,-0.3944444444444444,-0.7388888888888889,0.00042590861566374624,0.0028292109029342282,-0.05883098201404944
1590514197.223364,-3.798278290025147,-0.81879128248114,9.008278290025146,0.31777777777777777,-0.3944444444444444,-0.7388888888888889,-0.005849705795556853,-0.0013545320378795054,-0.05813369152391381
1590514197.233364,-3.81,-0.8189362288052244,9.073617372831347,0.31281320621931974,-0.3765719868339956,-0.7438534604473469,-0.009701437605988683,-0.00814644907757454,-0.044166952628073686
1590514197.243364,-3.815628078817734,-0.8319766009852216,9.01365147783251,0.31222222222222223,-0.3744444444444445,-0.7444444444444445,-0.01444208907294107,-0.009817477042468105,-0.0298507455695351
1590514197.253364,-3.767357827322194,-0.8735228969037415,8.937926518033418,0.31222222222222223,-0.3744444444444445,-0.7444444444444445,-0.01507948673564225,-0.010105693371430307,-0.01966899166123792
1590514197.263364,-3.7358410029860516,-0.9124953982083691,9.025822595819527,0.31222222222222223,-0.3744444444444445,-0.7444444444444445,-0.012273352235874807,-0.012364087475217325,-0.008272970063259057
1590514197.273364,-3.6929492371252097,-0.9382304577248741,9.085871068024707,0.31222222222222223,-0.3744444444444445,-0.7444444444444445,-0.0038515737028801712,-0.004878062112555429,-0.0035942042115953707
1590514197.283364,-3.734717560048543,-0.8952824399514574,9.063169463970874,0.32315318134519927,-0.39829380980366713,-0.7444444444444445,-0.0003457348863443303,0.0024657776126859304,-0.0013213207067260093
1590514197.293364,-3.71,-0.9265692666689544,9.030851377783877,0.3244444444444444,-0.4011111111111111,-0.7444444444444445,-0.0014650657349005712,-0.001215575766631161,-0.002181661564992912
1590514197.303364,-3.71,-0.9049795820321883,8.97327888541917,0.3244444444444444,-0.4011111111111111,-0.7444444444444445,-0.003820134993518096,-0.0020005988528370025,-0.002181661564992912
1590514197.313364,-3.7278679869342812,-0.9110660065328595,8.988528052262875,0.3244444444444444,-0.4011111111111111,-0.7444444444444445,-0.002414228113069996,-0.001949095016915828,0.000974547508457914
1590514197.323364,-3.7106347967212443,-0.919682601639378,9.057460813115023,0.3244444444444444,-0.4011111111111111,-0.7444444444444445,-0.004294077549569733,-6.924558041609095e-05,3.462279020804548e-05
1590514197.333364,-3.711449804673956,-0.9085501953260443,9.071449804673955,0.3244444444444444,-0.3744444444444445,-0.7388888888888889,-0.0031143431907935505,-0.0014071290958880915,0.00045823415571318493
1590514197.343364,-3.7174506625498522,-0.9050986749002959,9.063429306574038,0.3244444444444444,-0.3744444444444445,-0.7388888888888889,-0.002181661564992912,-0.0034115371357689886,-0.003272492347489368
1590514197.353364,-3.7049235798937477,-0.9367176134041684,8.958205966489578,0.3244444444444444,-0.3744444444444445,-0.7388888888888889,-0.0016445823141748774,-0.0038262438791677894,-0.003451518764428713
1590514197.363364,-3.7296863588842255,-0.92,9.000470461673661,0.3244444444444444,-0.3744444444444445,-0.7388888888888889,0.001073724313309289,-0.001073724313309289,-0.00432911019161149
1590514197.373364,-3.71697616630555,-0.92,9.019535750541674,0.3244444444444444,-0.3744444444444445,-0.7388888888888889,0.00038049084749543053,-0.00038049084749543053,-0.0029426432599837732
1590514197.383364,-3.717330130936701,-0.92,9.044660261873402,0.33910470631784645,-0.3744444444444445,-0.7535491507622909,0.0007995932465483048,0.0007995932465483048,-0.002981254811541217
1590514197.393364,-3.710918896535405,-0.8909188965354051,8.994486620787569,0.34444444444444444,-0.3744444444444445,-0.7588888888888888,-0.0008903586571466054,0.0009905947198215307,-0.0019811894396430615
1590514197.403364,-3.7191895569183444,-0.8991895569183445,8.944862658489933,0.34444444444444444,-0.3744444444444445,-0.7588888888888888,0.0009140195303102142,8.840562609312087e-05,-0.00017681125218624175
1590514197.413364,-3.7188255309602156,-0.8911744690397846,8.984110641639246,0.34444444444444444,-0.3744444444444445,-0.7588888888888888,0.0021176042159086056,0.0007705440370749251,0.0008986587352435375
1590514197.423364,-3.7031423870774756,-0.9068576129225248,9.039001645228836,0.34444444444444444,-0.3744444444444445,-0.7588888888888888,0.0012622214102279137,-0.0035063699913285345,-0.0016674896817985383
1590514197.433364,-3.6864587370801036,-0.9167706314599483,9.05,0.34068298252225093,-0.3744444444444445,-0.7453476259689923,-0.0003862918601936539,-0.002886200487295714,-0.002920222886337967
1590514197.443364,-3.718464161292714,-0.9103839596768216,9.04038395967682,0.3388888888888889,-0.3744444444444445,-0.7388888888888889,-4.1883503471437655e-05,-0.006377450681092986,-0.001174597789439331
1590514197.453364,-3.72,-0.9242904054077659,8.961402770257287,0.3388888888888889,-0.3744444444444445,-0.7388888888888889,0.0015588414113144756,-0.005765563989321498,-0.002649672193810932
1590514197.463364,-3.701280438756856,-0.9019206581352834,8.976798903107861,0.3388888888888889,-0.3744444444444445,-0.7388888888888889,0.002181661564992912,-0.0023911728666548455,-0.0022514986655468895
1590514197.4733639,-3.6930736885641413,-0.9,9.000778934307576,0.3388888888888889,-0.3744444444444445,-0.7388888888888889,0.002181661564992912,-0.0006705748203145649,-0.005203835054349605
1590514197.4833639,-3.7129495763653098,-0.9076498587884365,9.01,0.3337889830299312,-0.3803943346132284,-0.7541886064657619,-0.0003217488694603676,0.0016689402896355196,-0.0032071041157076966
1590514197.4933639,-3.7053423872679048,-0.9173288063660477,9.031986419098143,0.3322222222222222,-0.38222222222222224,-0.7588888888888888,0.002106964250719892,0.002181661564992912,-0.002981110323296999
1590514197.5033638,-3.68,-0.9498777577915641,8.960244484416872,0.3322222222222222,-0.38222222222222224,-0.7588888888888888,0.006531650138590522,0.0010774962261082426,-0.003272492347489368
1590514197.5133638,-3.68,-0.9421792518630006,8.975641496274,0.3322222222222222,-0.38222222222222224,-0.7588888888888888,0.005691873413979662,0.00023771950149738307,-0.003272492347489368
1590514197.5233638,-3.687740025740026,-0.9245199485199486,9.018700128700129,0.3322222222222222,-0.38222222222222224,-0.7588888888888888,0.002076930578668284,0.0016886116669069977,-0.008338327348210363
1590514197.5333638,-3.6817394011856726,-0.9034788023713446,9.046521197628655,0.3377292880984407,-0.37029024615708217,-0.7542996673253735,0.00018973923564421743,0.0012805700181406734,-0.014322934776729298
1590514197.5433638,-3.6818714143573894,-0.9009357071786946,9.019707221034357,0.3388888888888889,-0.36777777777777776,-0.7533333333333333,0.0013970402406733725,0.005556223731874585,-0.01874826294122436
1590514197.5533638,-3.6996299510976565,-0.9098149755488283,8.922035268962889,0.3388888888888889,-0.36777777777777776,-0.7533333333333333,0.004302774019930027,0.006524801658293469,-0.02068541879406213
1590514197.5633638,-3.7,-0.9190963255000111,8.974577953000066,0.3388888888888889,-0.36777777777777776,-0.7533333333333333,0.0033710679436838695,0.004560474322374827,-0.02171804005373462
1590514197.5733638,-3.708742322789194,-0.9287423227891942,9.02371161394597,0.3388888888888889,-0.36777777777777776,-0.7533333333333333,0.004226131828386697,0.006270602091780481,-0.024677534092621103
1590514197.5833638,-3.672836933155901,-0.9381087112293991,9.0481087112294,0.3388888888888889,-0.36777777777777776,-0.7533333333333333,0.005660461513438412,0.008254738280343588,-0.02420458481587816
1590514197.5933638,-3.6985978093970724,-0.9209347937352851,9.030934793735284,0.3388888888888889,-0.36777777777777776,-0.7533333333333333,0.00753384529930181,0.01387488963793378,-0.02607796860174156
1590514197.6033638,-3.71322374672824,-0.9001643799076405,8.9638812663588,0.3388888888888889,-0.36777777777777776,-0.7533333333333333,0.007635815477475192,0.008410852176013676,-0.02834366927858004
1590514197.6133637,-3.72,-0.9146972812428604,8.995859416647628,0.3388888888888889,-0.36777777777777776,-0.7533333333333333,-0.001344369397086296,0.0027600984501138337,-0.029452431127404314
1590514197.6233637,-3.726894442082694,-0.8993166737519177,9.023788884165388,0.3388888888888889,-0.36777777777777776,-0.7533333333333333,-0.0002642244867126788,-7.453933058960494e-05,-0.028700364162210137
1590514197.6333637,-3.740795637403898,-0.8801591274807795,9.03936349007688,0.31777777777777777,-0.3744444444444445,-0.7388888888888889,-0.007653173592912736,-0.007635815477475192,-0.026075790087289677
1590514197.6433637,-3.782457834197509,-0.8884915668395018,9.006033732641994,0.31777777777777777,-0.3744444444444445,-0.7388888888888889,-0.008562101727490657,-0.007635815477475192,-0.020622221279822148
1590514197.6533637,-3.750446772986355,-0.9097766135068225,8.950558466232943,0.31777777777777777,-0.3744444444444445,-0.7388888888888889,-0.006569352381293931,-0.007635815477475192,-0.0120844255095642
1590514197.6633637,-3.7265354138041373,-0.8943569425360914,8.957821528731955,0.31777777777777777,-0.3744444444444445,-0.7388888888888889,-0.004838591833579492,-0.005929422616075947,-0.005173567161864038
1590514197.6733637,-3.72,-0.89,9.002416779179663,0.31777777777777777,-0.3744444444444445,-0.7388888888888889,-0.004363323129985824,-0.006225312719541148,-0.003272492347489368
1590514197.6833637,-3.71,-0.9000325176624714,9.099837411687643,0.3244444444444444,-0.38222222222222224,-0.7588888888888888,-0.0032795866009290822,-0.004363323129985824,-0.005439965405602851
1590514197.6933637,-3.71,-0.9098446638281945,9.050776680859029,0.3244444444444444,-0.38222222222222224,-0.7588888888888888,-0.00542026481691415,-0.004363323129985824,-0.0011586089736327163
1590514197.7033637,-3.7000669544533524,-0.9399330455466478,8.950267817813408,0.3244444444444444,-0.38222222222222224,-0.7588888888888888,-0.006515770303482046,-0.004356019532111652,-0.004356019532111652
1590514197.7133636,-3.7093046868117345,-0.9306953131882654,8.987218747246938,0.3244444444444444,-0.38222222222222224,-0.7588888888888888,-0.0024850491766871515,-0.003348339250412928,-0.003348339250412928
1590514197.7233636,-3.686418061691865,-0.9378606461027117,9.021442584410845,0.3244444444444444,-0.38222222222222224,-0.7588888888888888,-0.0013241980910780413,-0.0067023462431488505,-0.0049874192953191085
1590514197.7333636,-3.70787642844455,-0.9214157143703002,9.048584285629701,0.31824968256787783,-0.3749950000328946,-0.7733433332675443,0.0009364003010618523,-0.002567737768579421,-0.002413307287144818
1590514197.7433636,-3.702100185751094,-0.92,9.034200371502187,0.31777777777777777,-0.3744444444444445,-0.7744444444444445,0.00022909472662532675,-0.0004581894532506535,-0.0013199255091217827
1590514197.7533636,-3.6944097191341005,-0.92,8.974097191341006,0.31777777777777777,-0.3744444444444445,-0.7744444444444445,-0.0012196100902648079,0.0,-0.001090830782496456
1590514197.7633636,-3.6962632828190616,-0.9137367171809385,8.980106262552493,0.31777777777777777,-0.3744444444444445,-0.7744444444444445,-0.0014984433951415622,0.0,0.0009588237270575933
1590514197.7733636,-3.6839158001521684,-0.9207227998985544,9.015361399949278,0.31777777777777777,-0.3744444444444445,-0.7744444444444445,-0.0016756687926911067,-0.0011696760203893015,0.0004271475344089595
1590514197.7833636,-3.646687422166874,-0.9358281444582814,9.06079701120797,0.3300816383008164,-0.3744444444444445,-0.7537221530372216,-0.002817413502985865,-0.0009101576890070057,-0.00045507884450350286
1590514197.7933636,-3.6172443968391907,-0.9272443968391908,9.045355388937168,0.3388888888888889,-0.3744444444444445,-0.7388888888888889,-0.0011853616609214033,0.0,-0.0020871306865679648
1590514197.8033636,-3.5999281353451003,-0.9099760451150334,8.990071864654901,0.3388888888888889,-0.3744444444444445,-0.7388888888888889,-0.0010934438550877338,-0.006552823912752569,-0.013112180506983333
1590514197.8133636,-3.558063979505265,-0.896021326501755,9.031936020494735,0.3388888888888889,-0.3744444444444445,-0.7388888888888889,-0.00261566751753176,-0.011119494900084646,-0.026051081637757552
1590514197.8233635,-3.4649169863170552,-0.8968257285166313,9.056825728516632,0.3388888888888889,-0.3744444444444445,-0.7388888888888889,-0.003272492347489368,-0.004899683133161572,-0.04578095077231741
1590514197.8333635,-3.4429350605793823,-0.893532469710309,9.05353246971031,0.3252352138328745,-0.38234920368740016,-0.7424819612720506,-0.0011559980094724108,0.0066696484568990536,-0.06576434170060395
1590514197.8433635,-3.369043880404388,-1.0609073635907365,9.058995124399512,0.31777777777777777,-0.38666666666666666,-0.7444444444444445,0.008830942728635808,0.0226828981298123,-0.07897295757968642
1590514197.8533635,-3.3775866639707037,-0.9744800161757767,8.936893352205074,0.31777777777777777,-0.38666666666666666,-0.7444444444444445,0.013654291926601128,0.04797837024075345,-0.06907940619087548
1590514197.8633635,-3.362919060296109,-0.9087571808883285,8.80897389192471,0.31777777777777777,-0.38666666666666666,-0.7444444444444445,-0.000725131685921818,0.035431494177809206,-0.06204178406788937
1590514197.8733635,-3.329682967744675,-0.846945193553182,8.759682967744675,0.31777777777777777,-0.38666666666666666,-0.7444444444444445,-0.017327561955158916,0.059181525089330486,-0.03545669100581589
1590514197.8833635,-3.11065130108708,-0.7223692284383167,8.794610242036287,0.31777777777777777,-0.36777777777777776,-0.7444444444444445,-0.07170841677471324,0.13791960584842283,-0.00519571118135409
1590514197.8933635,-2.721422294610053,-0.7700299231089731,9.088517859172,0.31777777777777777,-0.36777777777777776,-0.7444444444444445,-0.1098342355401189,0.2133047474982022,3.2641048375902162e-06
1590514197.9033635,-2.7682353915829006,-0.6334452667623992,8.866050204352149,0.31777777777777777,-0.36777777777777776,-0.7444444444444445,-0.1427888517496378,0.31200516676112394,0.019075802395311238
1590514197.9133635,-2.8562535774493276,-0.6352507154898656,9.160265025287176,0.31777777777777777,-0.36777777777777776,-0.7444444444444445,-0.16171644398346946,0.18652581997993492,-0.0009009500174404252
1590514197.9233634,-2.6277873170731705,-0.9213141463414634,9.468560487804877,0.31777777777777777,-0.36777777777777776,-0.7444444444444445,-0.12404166737564834,0.04508446193063999,-0.03620611037501481
1590514197.9333634,-2.314952756847267,-1.0480014352350198,9.333717258701112,0.3155026644872357,-0.3705079137264283,-0.7421693311539024,-0.027614027042228186,-0.005693560022502722,-0.08485609318139067
1590514197.9433634,-2.235071391234972,-0.7776070868524582,8.812535695617486,0.31222222222222223,-0.3744444444444445,-0.7388888888888889,0.057214103051368356,0.07010534671457429,-0.1845453767279634
1590514197.9533634,-2.3435478349370835,-0.8078492783123612,8.87812870096225,0.31222222222222223,-0.3744444444444445,-0.7388888888888889,0.023928081729242323,0.04395004457023724,-0.22760585970581518
1590514197.9633634,-2.4604823991953917,-0.8602411995976958,9.003477370394075,0.31222222222222223,-0.3744444444444445,-0.7388888888888889,0.008236595243539528,0.02032015180604351,-0.2303023346509737
1590514197.9733634,-2.52,-0.8765551959726717,8.985886371808702,0.31222222222222223,-0.3744444444444445,-0.7388888888888889,0.011320556351539092,0.019726150833203168,-0.22358383171246665
1590514197.9833634,-2.52,-0.8641954876582503,8.93419548765825,0.32383124690572174,-0.3744444444444445,-0.7459832928621386,0.01481397424643005,0.028254978367299104,-0.22207182292075667
1590514197.9933634,-2.5674137289900343,-0.8464532202885616,8.916453220288561,0.3322222222222222,-0.3744444444444445,-0.7511111111111111,0.00566642215154237,0.025371226400373377,-0.22548492849186405
1590514198.0033634,-2.65762241138356,-0.8991696099606149,8.87618879430822,0.3322222222222222,-0.3744444444444445,-0.7511111111111111,-0.003519457212742663,0.018297158437186455,-0.22873691795735848
1590514198.0133634,-2.7184644498513113,-0.9180774083085519,8.91846444985131,0.3322222222222222,-0.3744444444444445,-0.7511111111111111,0.0009233282454707776,0.020096618207671592,-0.22995557288683185
1590514198.0233634,-2.7370078029953433,-0.9270078029953435,8.986062423962746,0.3322222222222222,-0.3744444444444445,-0.7511111111111111,0.006768257899987765,0.02072578486743266,-0.23475189144174702
1590514198.0333633,-2.804996624299175,-0.9624983121495876,9.091245780373969,0.3520823018691924,-0.3807635606957532,-0.7456947257528466,0.006067884314575495,0.02072578486743266,-0.24025529572892584
1590514198.0433633,-2.8587568675329207,-0.9389945059736636,9.05574038545391,0.3566666666666667,-0.38222222222222224,-0.7444444444444445,0.009681872326287002,0.021571328550193607,-0.2486834960765653
1590514198.0533633,-2.87,-0.9529567173928822,8.955825369559431,0.3566666666666667,-0.38222222222222224,-0.7444444444444445,0.008404118425241792,0.024320805049651888,-0.2584036481733532
1590514198.0633633,-2.885271547334265,-0.9752715473342649,8.96054309466853,0.3566666666666667,-0.38222222222222224,-0.7444444444444445,0.009301682870331982,0.026754975390275274,-0.2690378939809369
1590514198.0733633,-2.907834633037122,-1.0022932912964022,8.983375974777841,0.3566666666666667,-0.38222222222222224,-0.7444444444444445,0.009331112874682588,0.029702590401338987,-0.2798850556939713
1590514198.0833633,-2.9317240442460704,-1.0265519115078596,8.997413933630895,0.3560919852513099,-0.38097707915561596,-0.7450191258598012,0.008538582206571716,0.03216073131469389,-0.2914774365178568
1590514198.0933633,-2.95,-1.00749675087964,8.946670998827146,0.35,-0.36777777777777776,-0.7511111111111111,0.005908784879872631,0.026816138595021046,-0.3162480159558114
1590514198.1033633,-2.9158276369505365,-1.0405034178296781,8.847986328681287,0.35,-0.36777777777777776,-0.7511111111111111,0.011418356396482175,0.030252870804411348,-0.3366506726799472
1590514198.1133633,-2.924460025651988,-1.0597840102607952,8.849136041043181,0.35,-0.36777777777777776,-0.7511111111111111,0.014714435150890756,0.032701362649270885,-0.3553281051863711
1590514198.1233633,-2.945746644590834,-1.0785067108183324,8.928280198682495,0.35,-0.36777777777777776,-0.7511111111111111,0.01434369275310713,0.03613559976199827,-0.38169193930960765
1590514198.1333632,-2.9557330959761825,-1.0978665479880914,8.98,0.37097746130157655,-0.36165935156481793,-0.757229537324071,0.009657540310999285,0.04012801543961196,-0.4301359281043266
1590514198.1433632,-2.9875777278638136,-1.1206832958978603,8.966211136068093,0.37666666666666665,-0.36,-0.7588888888888888,0.0064704486750847825,0.03735247550585304,-0.461075950412444
1590514198.1533632,-3.0210954213081402,-1.11945228934593,8.923083012710755,0.37666666666666665,-0.36,-0.7588888888888888,0.006604730659114825,0.03829856931564813,-0.49367514459780365
1590514198.1633632,-3.04,-1.12985851928794,8.90985851928794,0.37666666666666665,-0.36,-0.7588888888888888,0.007635815477475192,0.04252696736577734,-0.5347215065521126
1590514198.1733632,-3.046311282837893,-1.14,8.957867697027359,0.37666666666666665,-0.36,-0.7588888888888888,0.009701177956459753,0.04638704793850432,-0.5722651034750272
1590514198.1833632,-3.092782560054694,-1.161391280027347,9.00852170670313,0.37270531851345423,-0.3568309214774301,-0.7588888888888888,0.01246392560702001,0.04877436332087179,-0.6229591918618373
1590514198.1933632,-3.0815208637165057,-1.17,8.99864064778738,0.3711111111111111,-0.3555555555555556,-0.7588888888888888,0.0185265051304232,0.05141732910111154,-0.6657811516061063
1590514198.2033632,-3.099226110192136,-1.184613055096068,8.887708614327522,0.3711111111111111,-0.3555555555555556,-0.7588888888888888,0.022319821899943453,0.058736025689873045,-0.7108806936130257
1590514198.2133632,-3.11,-1.2513558990412834,8.880677949520642,0.3711111111111111,-0.3555555555555556,-0.7588888888888888,0.022070835140400865,0.06526958027992508,-0.7617049282282871
1590514198.2233632,-3.11,-1.2816752512336564,8.913350502467313,0.3711111111111111,-0.3555555555555556,-0.7588888888888888,0.02054304330602392,0.06717746390423641,-0.8001440440119966
1590514198.2333632,-3.1053232335775487,-1.29,8.93467676642245,0.3835824882376478,-0.3529573519875271,-0.7661638588793687,0.019124798007320643,0.06814166459239585,-0.8442115654580011
1590514198.2433631,-3.1159483138495037,-1.3218966276990074,8.961264418466005,0.3977777777777778,-0.35,-0.7744444444444445,0.016804432134844442,0.06872233929727672,-0.8976001993993642
1590514198.2533631,-3.1515747497797157,-1.3985431870043605,8.93145681299564,0.3977777777777778,-0.35,-0.7744444444444445,0.016448351014169013,0.07107577941571398,-0.943104750828885
1590514198.2633631,-3.138063709602741,-1.4360079637003427,8.874031854801371,0.3977777777777778,-0.35,-0.7744444444444445,0.017888756127994246,0.07569844407556826,-0.9814930524825106
1590514198.273363,-3.1021238796925332,-1.4390929097694,8.8863716390776,0.3977777777777778,-0.35,-0.7744444444444445,0.02019726094892714,0.07963064712224129,-1.021582319922526
1590514198.283363,-3.169963536314516,-1.4999635363145158,9.003302946928763,0.4110989565492831,-0.34037914866502395,-0.7781447718809738,0.026904507587541284,0.08181031990170573,-1.07807923208397
1590514198.293363,-3.196569708713847,-1.5462788348553878,9.000290873858459,0.4177777777777778,-0.33555555555555555,-0.78,0.027644956295197913,0.08720300376799031,-1.1184374431182202
1590514198.303363,-3.180717116293248,-1.579282883706752,8.919296093075243,0.4177777777777778,-0.33555555555555555,-0.78,0.025868478687569765,0.09155156047697184,-1.156121297103629
1590514198.313363,-3.1841695466558244,-1.632508639967473,8.887084773327913,0.4177777777777778,-0.33555555555555555,-0.78,0.02663476576403778,0.09658476092874699,-1.201829411935206
1590514198.323363,-3.1662249929777473,-1.6690200056178022,8.894755001404452,0.4177777777777778,-0.33555555555555555,-0.78,0.028308149942969107,0.09921215080523874,-1.2328209581705332
1590514198.333363,-3.14,-1.7043167661841143,8.90357919154603,0.42453847292027624,-0.33118098811040947,-0.78,0.029062001895918402,0.09996600275818802,-1.2647674737134806
1590514198.343363,-3.14,-1.758247357957518,8.91470789299292,0.43666666666666665,-0.3233333333333333,-0.78,0.030415806183858314,0.10286046142534079,-1.3082359331950602
1590514198.353363,-3.1541311941510966,-1.8041311941510967,8.872896019496345,0.43666666666666665,-0.3233333333333333,-0.78,0.03272492347489368,0.1089567155611127,-1.3488606011589679
1590514198.363363,-3.1536082298928756,-1.869175310321374,8.847319616845207,0.43666666666666665,-0.3233333333333333,-0.78,0.03332094505530891,0.11245678297546895,-1.3881665349846735
1590514198.373363,-3.13546388101983,-1.91453611898017,8.88360835694051,0.43666666666666665,-0.3233333333333333,-0.78,0.03282612661406297,0.1134464013796314,-1.4168655795753613
1590514198.383363,-3.1260272260307413,-1.9557549657233255,8.923836643815552,0.44726073058468907,-0.3149463660648989,-0.7808828386598352,0.03033400545112691,0.11214631413836108,-1.445037583875567
1590514198.393363,-3.107144182809419,-2.031426361984302,8.934288365618839,0.4633333333333333,-0.3022222222222222,-0.7822222222222223,0.029763952457471154,0.11438096536983194,-1.4801000928008698
1590514198.403363,-3.083354455154866,-2.099873269070803,8.853481186084064,0.4633333333333333,-0.3022222222222222,-0.7822222222222223,0.032359009180750485,0.11926646958625688,-1.5132998249171958
1590514198.413363,-3.0059876785948356,-2.12,8.84233538690086,0.4633333333333333,-0.3022222222222222,-0.7822222222222223,0.03407050544943993,0.12091892825393306,-1.539456258443707
1590514198.423363,-2.9652814874136926,-2.1411259496547697,8.860562974827385,0.4633333333333333,-0.3022222222222222,-0.7822222222222223,0.03605882684953123,0.12505365216371467,-1.5655643953305185
1590514198.433363,-2.976413334182374,-2.2305466760061132,8.895653336729495,0.48399852125431597,-0.2858325904228223,-0.790060741778457,0.0370882466048795,0.12832678778654236,-1.5952222118993404
1590514198.443363,-2.974368115729182,-2.286895652812454,8.88184057864591,0.4955555555555556,-0.2766666666666667,-0.7944444444444444,0.03954561969530587,0.13240409197022135,-1.6175132897770252
1590514198.453363,-2.9341617535050353,-2.330718496995684,8.819042004005754,0.4955555555555556,-0.2766666666666667,-0.7944444444444444,0.04089309169961671,0.1341460609590633,-1.6392475662249333
1590514198.463363,-2.9050293889546515,-2.3952057226825585,8.78502938895465,0.4955555555555556,-0.2766666666666667,-0.7944444444444444,0.040909360181256994,0.13253273423567952,-1.6624966409526767
1590514198.473363,-2.9059574321373574,-2.450212839313214,8.810212839313213,0.4955555555555556,-0.2766666666666667,-0.7944444444444444,0.03880571525592433,0.13331345192154168,-1.6832447660618632
1590514198.483363,-2.8946915788776253,-2.506542105611873,8.84,0.5085316960769157,-0.2595617541612374,-0.7991630409976663,0.03374846720653847,0.13526301702956053,-1.7118764575321888
1590514198.493363,-2.89,-2.5579519729009106,8.863293310750759,0.52,-0.24444444444444444,-0.8033333333333333,0.032216742267030016,0.13475483582169687,-1.735349740858803
1590514198.503363,-2.858022182610418,-2.6099861358684886,8.842033273915627,0.52,-0.24444444444444444,-0.8033333333333333,0.031634092692397225,0.1363523354699145,-1.7538325901345173
1590514198.513363,-2.805445441871536,-2.6582182325138564,8.765445441871536,0.52,-0.24444444444444444,-0.8033333333333333,0.03610551967887548,0.14161364104242558,-1.7729134096107826
1590514198.5233629,-2.794168921303376,-2.700408775438184,8.809564168921304,0.52,-0.24444444444444444,-0.8033333333333333,0.04017942570737799,0.1436716272826603,-1.7878241107160302
1590514198.5333629,-2.74854466435661,-2.77097022376226,8.825148881188701,0.5368926802529316,-0.20658154042925286,-0.8178959887237917,0.03937574316445068,0.14747382562617808,-1.806108489160684
1590514198.5433629,-2.7076305799817404,-2.827108260054779,8.73618471000913,0.5522222222222222,-0.17222222222222222,-0.8311111111111111,0.05089663061714711,0.1583719508257801,-1.8134776877676257
1590514198.5533628,-2.694350587419257,-2.872597650322972,8.785195300645945,0.5522222222222222,-0.17222222222222222,-0.8311111111111111,0.041933073139182264,0.15144119092899685,-1.8262350177370779
1590514198.5633628,-2.6564976640882283,-2.906751167955886,8.780913941436268,0.5522222222222222,-0.17222222222222222,-0.8311111111111111,0.032979620529773886,0.14533519112690885,-1.8372137347789121
1590514198.5733628,-2.5450467289719625,-2.9105607476635513,8.797196261682243,0.5522222222222222,-0.17222222222222222,-0.8311111111111111,0.03902523584482648,0.149836312390109,-1.8365665425359372
1590514198.5833628,-2.3686393659180975,-2.7969431968295906,8.801183619550859,0.5600569499486276,-0.14691002495229707,-0.8274950829296932,0.04126654638945906,0.14916628218390507,-1.835461559059342
1590514198.5933628,-2.3620123853317003,-2.7995734454791226,8.815122120294845,0.5666666666666667,-0.12555555555555556,-0.8244444444444444,0.0385182968496963,0.14466810221417284,-1.8339525924433273
1590514198.6033628,-2.319593969081431,-2.89760493438792,8.78239506561208,0.5666666666666667,-0.12555555555555556,-0.8244444444444444,0.029800779300171693,0.1418950887677311,-1.8346902891158472
1590514198.6133628,-2.26692753769351,-3.008434773838939,8.75,0.5666666666666667,-0.12555555555555556,-0.8244444444444444,0.030080053497848796,0.14428213201377876,-1.8358682069415355
1590514198.6233628,-2.2364436166836485,-3.0547112766632702,8.787690213306162,0.5666666666666667,-0.12555555555555556,-0.8244444444444444,0.03683628796221559,0.14719916597635557,-1.8338125246978745
1590514198.6333628,-2.1726811642027455,-3.063392621436114,8.833392621436115,0.5757136571629707,-0.10633070075090931,-0.8436692992490906,0.03812087142858185,0.14835298641951802,-1.8296544958636143
1590514198.6433628,-2.086645546484708,-3.1100633605458756,8.804388123959221,0.5933333333333334,-0.06888888888888889,-0.8811111111111111,0.034062000855380276,0.14883856805211462,-1.8221660768382948
1590514198.6533628,-2.0473969637943297,-3.1645206072411343,8.755479392758867,0.5933333333333334,-0.06888888888888889,-0.8811111111111111,0.03610200309803841,0.15043006070885556,-1.8192965706527782
1590514198.6633627,-1.9856141651549806,-3.1470761101033204,8.769103241580567,0.5933333333333334,-0.06888888888888889,-0.8811111111111111,0.03574012119834851,0.1524590149254693,-1.8208538706106197
1590514198.6733627,-1.93,-3.119656682295501,8.762446235517496,0.5933333333333334,-0.06888888888888889,-0.8811111111111111,0.039546134742647794,0.15474347867019775,-1.8188034914504407
1590514198.6833627,-1.9055040427075773,-3.219596765833938,8.675362807090288,0.5802688227773747,-0.030239711827511145,-0.9028852953710422,0.03327474877601205,0.14489796337951855,-1.81937378713182
1590514198.6933627,-1.8750049367202226,-3.284955569517997,8.765143164886455,0.5666666666666667,0.01,-0.9255555555555556,0.02125558339216907,0.1368890314631768,-1.8189673304771388
1590514198.7033627,-1.862769012684328,-3.3480774682891807,8.670616911209706,0.5666666666666667,0.01,-0.9255555555555556,0.038271414137646,0.1488397123473769,-1.807531648773136
1590514198.7133627,-1.8255832717003968,-3.365349963020238,8.769766691319841,0.5666666666666667,0.01,-0.9255555555555556,0.03689825150355112,0.1494947172600426,-1.7982727199889288
1590514198.7233627,-1.7242207755341497,-3.3236827463522642,8.733710565659242,0.5666666666666667,0.01,-0.9255555555555556,0.02979546655657377,0.1461126349751769,-1.7877016521049265
1590514198.7333627,-1.6592662549945514,-3.3265443758324253,8.727124349194817,0.5443970886978515,0.016911248335149533,-0.9305470126864969,0.034866565457964266,0.14823292767375107,-1.773907724133021
1590514198.7433627,-1.5877844281385392,-3.3071137712554153,8.788251483809573,0.5022222222222222,0.03,-0.94,0.027102245480940347,0.13899666272756261,-1.7583238546200763
1590514198.7533627,-1.5669676134172985,-3.3005513430150364,8.70862164246241,0.5022222222222222,0.03,-0.94,0.024028348311547848,0.13741460749792764,-1.7537251161914174
1590514198.7633626,-1.4458654777275661,-3.305865477727566,8.643509724015495,0.5022222222222222,0.03,-0.94,0.026630945196483742,0.140465413676231,-1.737688220916155
1590514198.7733626,-1.4034621628549457,-3.2761567599897465,8.615389194269602,0.5022222222222222,0.03,-0.94,0.03100465372303212,0.15242237459939706,-1.7220019828179243
1590514198.7833626,-1.4143440736478712,-3.384344073647871,8.79695339470656,0.4941043344840813,0.025651131568853087,-0.9298526403273238,0.020487283315448395,0.13839240844585934,-1.7064378081293163
1590514198.7933626,-1.3619648666232922,-3.3460263500325307,8.747947299934937,0.4711111111111111,0.013333333333333334,-0.9011111111111112,0.007650187190777438,0.13112839931249565,-1.6883581836071897
1590514198.8033626,-1.3316438950336154,-3.3687670787247885,8.702465842550422,0.4711111111111111,0.013333333333333334,-0.9011111111111112,0.020053330627734945,0.14022403783293114,-1.6627250205041442
1590514198.8133626,-1.2665608564404196,-3.3733439143559583,8.88703700245853,0.4711111111111111,0.013333333333333334,-0.9011111111111112,0.00691321179788662,0.13271312836165974,-1.615840139138364
1590514198.8233626,-1.1780390606636892,-3.3712156242654756,8.575368704459496,0.4711111111111111,0.013333333333333334,-0.9011111111111112,0.032814918937429605,0.15232719163922806,-1.564293950674255
1590514198.8333626,-1.145728163265306,-3.317281632653061,8.529319183673469,0.4791801360544218,0.026623492063492064,-0.8920927891156463,0.0500617419814896,0.15917661015679652,-1.5276502738796127
1590514198.8433626,-1.119711087911821,-3.280288912088179,9.278266527470928,0.49,0.04444444444444445,-0.88,-0.03313284953628854,0.09882438532826829,-1.5145476318015043
1590514198.8533626,-1.0580651637900669,-3.2885632264882,8.820709052483268,0.49,0.04444444444444445,-0.88,-0.04037122844879796,0.09492106695541078,-1.4764415773774644
1590514198.8633626,-1.0004975910580074,-3.29886837540952,8.432712661399114,0.49,0.04444444444444445,-0.88,0.04400355458111584,0.1383035107546635,-1.4084157484269144
1590514198.8733625,-1.0343305800816482,-3.414644640653185,8.794727238203741,0.49,0.04444444444444445,-0.88,0.005643467372123741,0.1326864898415255,-1.3515140908142793
1590514198.8833625,-1.0196384283596172,-3.46,8.702578514624612,0.5080991747914514,0.05077915562145243,-0.8682355363855566,-0.0013772859748402665,0.11906350356205597,-1.3090861874503872
1590514198.8933625,-0.99,-3.46,8.75,0.5344444444444445,0.06,-0.8511111111111112,0.01090830782496456,0.11453723216212787,-1.2806353386508391
1590514198.9033625,-0.945624585641267,-3.4008327808550223,8.705624585641267,0.5344444444444445,0.06,-0.8511111111111112,0.016824605021119605,0.11722645816038016,-1.2263129734861429
1590514198.9133625,-0.9037102811343016,-3.369682249074413,8.697102811343017,0.5344444444444445,0.06,-0.8511111111111112,0.012789224249895337,0.11392045276509201,-1.1550817319012512
1590514198.9233625,-0.901180270816249,-3.42,8.753385203112186,0.5344444444444445,0.06,-0.8511111111111112,-0.0017175943060833854,0.10531256995237397,-1.1169838197751845
1590514198.9333625,-0.8592779783393502,-3.4101714801444043,8.729106498194946,0.5330545527476935,0.05890794223826715,-0.8524017248295227,0.008025679186742879,0.1108748761053708,-1.0701798199570645
1590514198.9433625,-0.7588637744254328,-3.342500506226587,8.752500506226587,0.5188888888888888,0.04777777777777778,-0.8655555555555555,0.0165112816705656,0.10625682481849488,-1.0119684493406147
1590514198.9533625,-0.7688070240393515,-3.3938830560918203,8.811345040065586,0.5188888888888888,0.04777777777777778,-0.8655555555555555,0.02116594819960231,0.09942890993855856,-0.9635467860277906
1590514198.9633625,-0.7382279788286932,-3.35,8.834936098799432,0.5188888888888888,0.04777777777777778,-0.8655555555555555,0.025033719197412214,0.10081198139989503,-0.9210342099131527
1590514198.9733624,-0.7229300575191908,-3.376370517672718,8.873119079692946,0.5188888888888888,0.04777777777777778,-0.8655555555555555,0.029965879884328948,0.10041828935138583,-0.8851359751204091
1590514198.9833624,-0.7184712267580763,-3.421553962812922,8.753082736054846,0.5196574737716838,0.04982733746523089,-0.8506962478215204,-0.008141600862887942,0.06360171196714391,-0.8486008275502932
1590514198.9933624,-0.6764161816065193,-3.374335273573923,8.762254365541327,0.5222222222222223,0.05666666666666665,-0.8011111111111111,0.001090830782496456,0.07199483164476607,-0.7755806863549802
1590514199.0033624,-0.656339169241332,-3.3795087538619977,8.738035015447991,0.5222222222222223,0.05666666666666665,-0.8011111111111111,0.0033260789884008834,0.07162229027711534,-0.7595614075459984
1590514199.0133624,-0.6277065248726736,-3.334266312181684,8.6017880137096,0.5222222222222223,0.05666666666666665,-0.8011111111111111,0.007260546487308565,0.06952801456499201,-0.7184176103097447
1590514199.0233624,-0.6072674129828449,-3.2818022389485346,8.79186069613724,0.5222222222222223,0.05666666666666665,-0.8011111111111111,0.009430666188062816,0.06128949428213898,-0.6267075203994389
1590514199.0333624,-0.6,-3.2826736413833184,8.786230383609416,0.5200178404210662,0.06312235622719492,-0.7948128773935226,0.024298683643362372,0.06979565528734863,-0.5872286691850197
1590514199.0433624,-0.6067928866801416,-3.4471715467205666,8.569822167003542,0.5066666666666667,0.10222222222222224,-0.7566666666666667,0.01382970424848651,0.06400792024332348,-0.5438508024640468
1590514199.0533624,-0.6180210026253281,-3.480210026253282,8.866357044630579,0.5066666666666667,0.10222222222222224,-0.7566666666666667,-0.015567692166201767,0.03202002232290916,-0.5213157904589347
1590514199.0633624,-0.5870772119220841,-3.4076409293593053,8.657411171086599,0.5066666666666667,0.10222222222222224,-0.7566666666666667,0.010430067744048898,0.04835181044412952,-0.4604398780945294
1590514199.0733624,-0.55,-3.4109530616186983,8.579203399652307,0.5066666666666667,0.10222222222222224,-0.7566666666666667,0.0066660148671761395,0.04165949552512368,-0.42132136889781485
1590514199.0833623,-0.5535044676662123,-3.4145312736634863,8.68401787066485,0.5037462769448231,0.11312501051710504,-0.7525781210560857,0.011807999547132618,0.03670596848422271,-0.38415382756342026
1590514199.0933623,-0.5663851899169574,-3.4974667092526164,8.775303670581298,0.49,0.16444444444444445,-0.7333333333333333,0.008936734769233838,0.03293501198415587,-0.33526483900875087
1590514199.1033623,-0.5525580744472433,-3.4474419255527566,8.767906521130703,0.49,0.16444444444444445,-0.7333333333333333,0.007889518354680497,0.028640642980004908,-0.2954627982109012
1590514199.1133623,-0.5365098285236303,-3.4250982852363028,8.68349017147637,0.49,0.16444444444444445,-0.7333333333333333,0.008953389421368863,0.0272707695624114,-0.257252206532256
1590514199.1233623,-0.5186519852506773,-3.3883700368733063,8.766599099557927,0.49,0.16444444444444445,-0.7333333333333333,0.004819837823587484,0.02572342408631328,-0.22462560718971006
1590514199.1333623,-0.4942810251230905,-3.4492974371922736,8.872238984976645,0.4873838179803336,0.17134165158720138,-0.7292901429393034,0.00896013995921704,0.021116134552192946,-0.19448517181345285
1590514199.1433623,-0.506900001819141,-3.41,8.61509996179804,0.4777777777777778,0.19666666666666666,-0.7144444444444444,0.006774060945240495,0.016515179237621344,-0.1675079797226558
1590514199.1533623,-0.497588244721343,-3.4075882447213433,8.747137305180496,0.4777777777777778,0.19666666666666666,-0.7144444444444444,0.0011400206557165271,0.012525301987022489,-0.14690069420080068
1590514199.1633623,-0.47238110501222,-3.38238110501222,8.61269922673184,0.4777777777777778,0.19666666666666666,-0.7144444444444444,0.01305526769352323,0.018024646773702507,-0.12032052773184726
1590514199.1733623,-0.49651836396551197,-3.443036727931024,8.725222454051732,0.4777777777777778,0.19666666666666666,-0.7144444444444444,0.006355090906985312,0.01166788297693825,-0.09361731951283889
1590514199.1833622,-0.4836488601147556,-3.417297720229511,8.744526709827866,0.4777777777777778,0.19666666666666666,-0.7144444444444444,0.005653168359192228,0.01447557316811059,-0.07677117836580483
1590514199.1933622,-0.4769064683208865,-3.4361150927487354,8.796906468320886,0.49,0.23777777777777775,-0.7288888888888889,0.003939545488303496,0.005956406461999589,-0.036515369923154066
1590514199.2033622,-0.5096466431095407,-3.48678445229682,8.755689045936396,0.49,0.23777777777777775,-0.7288888888888889,0.014026619143125807,0.006934291794032241,-0.004787320960638155
1590514199.2133622,-0.5243714263932302,-3.4687428527864603,8.651895250438361,0.49,0.23777777777777775,-0.7288888888888889,0.021474821450336194,0.004226189642119951,0.02679807899538313
1590514199.2233622,-0.5,-3.4158123425692692,8.779530856423174,0.49,0.23777777777777775,-0.7288888888888889,0.015956834799749006,-0.001090830782496456,0.0662648788914952
1590514199.2333622,-0.503516935218678,-3.4026377014140086,8.747033870437356,0.49019538528992657,0.23885239687237383,-0.7296704300485951,0.018160485182781756,-0.0015703784320689484,0.10239478974091897
1590514199.2433622,-0.5379981913844131,-3.42849864353831,8.815996382768827,0.49211101063246737,0.24938833625634843,-0.7373329314187584,0.014399163618308813,-0.006272030387660124,0.14376932695012132
1590514199.2533622,-0.54,-3.4073495541924155,8.766747770962079,0.4922222222222222,0.25,-0.7377777777777778,0.015728355557541252,-0.01045158322237369,0.20394903924608002
1590514199.2633622,-0.5428526107387354,-3.3828526107387353,8.689904825513441,0.4922222222222222,0.25,-0.7377777777777778,0.00950976612402708,-0.015114314853741652,0.24728665221433693
1590514199.2733622,-0.5453070458952812,-3.378267614738203,8.807149321266968,0.4922222222222222,0.25,-0.7377777777777778,0.006088062686538075,-0.017197331580029777,0.29025900073537403
1590514199.2833622,-0.5308579112505604,-3.3322787987449574,8.7,0.4927941630559291,0.25171582250112057,-0.7383497186114846,0.013961460553884716,-0.017204714138131908,0.3298081643694091
1590514199.2933621,-0.5425823113153884,-3.270658490523106,8.72840542446927,0.4988888888888889,0.27,-0.7444444444444445,-0.0005633729345628924,-0.026461625247196387,0.37940489024049706
1590514199.3033621,-0.555967044898133,-3.335967044898133,8.76823068571307,0.4988888888888889,0.27,-0.7444444444444445,-0.0013137900642699956,-0.02770470531277286,0.4186141213507159
1590514199.3133621,-0.58,-3.355740877894633,8.614906927368784,0.4988888888888889,0.27,-0.7444444444444445,0.0011363157277301625,-0.02991702927729887,0.45699230762255383
1590514199.323362,-0.581030502885408,-3.32515251442704,8.744122011541632,0.4988888888888889,0.27,-0.7444444444444445,-0.007298584196818827,-0.034827448099359226,0.4971022890562745
1590514199.333362,-0.5885474389763073,-3.362737194881537,8.77418975590523,0.4988888888888889,0.27,-0.7444444444444445,-0.0048386726134153615,-0.042207182849569626,0.5266212280571161
1590514199.343362,-0.5982734224745856,-3.33,8.8,0.5011111111111111,0.27555555555555555,-0.75,0.0021450224781277617,-0.039984058169751154,0.5783260826359389
1590514199.353362,-0.6240286757955189,-3.3320143378977596,8.785899634715685,0.5011111111111111,0.27555555555555555,-0.75,-0.0061055243379336925,-0.045383252617922254,0.6065566558388426
1590514199.363362,-0.64,-3.339405791019723,8.730594208980277,0.5011111111111111,0.27555555555555555,-0.75,-0.004428141274678018,-0.04799655442984406,0.6380498582206593
1590514199.373362,-0.6354550197199558,-3.3230299868533626,8.753029986853363,0.5011111111111111,0.27555555555555555,-0.75,-0.007206025281020285,-0.04865759501588561,0.6744966544585489
1590514199.383362,-0.6113450562363606,-3.341076044989088,8.77134505623636,0.5024860574860575,0.27430016973495236,-0.7500298901385858,-0.010790929525219683,-0.05247725585957476,0.6954167553740306
1590514199.393362,-0.6553510575793184,-3.376280846063455,8.815351057579319,0.5474699699699699,0.23322790181485833,-0.7510078012795404,-0.006950681454861377,-0.05631750392993306,0.7136579337082326
1590514199.403362,-0.6513760879004701,-3.3781039853499215,8.68810398534992,0.5522222222222222,0.2288888888888889,-0.7511111111111111,-0.008256284820786105,-0.05802085458674914,0.7385858324439144
1590514199.413362,-0.698886518529706,-3.370185580245049,8.680185580245048,0.5522222222222222,0.2288888888888889,-0.7511111111111111,-0.010847576831787756,-0.05888461859041636,0.7480872364842538
1590514199.423362,-0.7626229100627758,-3.326557275156939,8.710491640251103,0.5522222222222222,0.2288888888888889,-0.7511111111111111,-0.015414688506760163,-0.05336128042249833,0.7525301823707449
1590514199.433362,-0.7800036059859367,-3.3699927880281266,8.779936895246108,0.5522344425078964,0.2288734632823821,-0.7511095084506948,-0.01635813486493979,-0.05999195619286717,0.7515839825482425
1590514199.443362,-0.804102382135169,-3.3115392803917394,8.551020272987486,0.62,0.14333333333333334,-0.7422222222222222,-0.001090443716006322,-0.045982415241781274,0.7576240525712662
1590514199.453362,-0.8260898028717449,-3.2339101971282553,8.953012168410805,0.62,0.14333333333333334,-0.7422222222222222,-0.02914936653229651,-0.06823049646672641,0.7485476748964393
1590514199.463362,-0.859284992930721,-3.2155709957584326,8.732710967481317,0.62,0.14333333333333334,-0.7422222222222222,-0.00877322303787909,-0.05304557409816263,0.7574102789025244
1590514199.473362,-0.8992482210516588,-3.239248221051659,8.91373517543049,0.62,0.14333333333333334,-0.7422222222222222,-0.018243433308995843,-0.05132371768523233,0.7744377720400663
1590514199.483362,-0.8798678495517974,-3.2198678495517976,8.752232079598311,0.62,0.14333333333333334,-0.7422222222222222,-0.010491841179298382,-0.05273309807245003,0.801215999397203
1590514199.493362,-0.8952353518019123,-3.302529623273678,8.762529623273677,0.7798238947454442,-0.045464483851343385,-0.6524965269265343,-0.015720817545863162,-0.056203458197591656,0.8588945922090978
1590514199.503362,-0.9319250977758463,-3.308464425394066,8.93076403429068,0.81,-0.0811111111111111,-0.6355555555555555,-0.01816662250622164,-0.06826067650847713,0.9431053265101033
1590514199.513362,-0.8739309840793268,-3.2256156915418956,9.079891755224589,0.81,-0.0811111111111111,-0.6355555555555555,-0.015455404030917521,-0.07277937396731733,0.9946184775408815
1590514199.523362,-0.7357656079796664,-2.8715312159593327,8.155641940237937,0.81,-0.0811111111111111,-0.6355555555555555,0.01592304465126637,-0.10600009908237848,1.0458690251270804
1590514199.533362,-0.8343095751724727,-3.0686191503449454,8.764822828338923,0.81,-0.0811111111111111,-0.6355555555555555,-0.06616388806538506,-0.034662645650050464,1.0790946883695347
1590514199.543362,-0.8242671178343949,-3.1114657643312102,9.31918511146497,1.2365359164897383,-0.07411871903750886,-0.13909571832979473,-0.04344494140045915,-0.09318424130715589,1.081013305453988
1590514199.553362,-0.8584209219564678,-3.2136836878258714,8.456844326740047,1.3522222222222222,-0.07222222222222223,-0.004444444444444445,0.023710831612714898,-0.0497191516458347,1.0974330035330802
1590514199.563362,-0.8323866175618637,-3.109546470247455,8.899427501448315,1.3522222222222222,-0.07222222222222223,-0.004444444444444445,-0.05296652410048043,-0.09610421868221211,1.0624075447505095
1590514199.5733619,-0.8728141957322073,-3.167424842531363,8.82,1.3522222222222222,-0.07222222222222223,-0.004444444444444445,-0.010098383146124608,-0.07666513590801811,1.030998258239329
1590514199.5833619,-0.8435412559105264,-3.1161971978434213,8.82,1.3522222222222222,-0.07222222222222223,-0.004444444444444445,-0.015686452320164385,-0.07347195352285253,1.0094442771394612
1590514199.5933619,-0.8486253258334476,-3.148625325833448,8.855255865002059,0.9155555555555556,0.2677777777777778,-0.7155555555555555,-0.013622140368494637,-0.0693633090107398,0.9658909246624786
1590514199.6033618,-0.8379666160849772,-3.14,8.707116843702579,0.9155555555555556,0.2677777777777778,-0.7155555555555555,-0.00460333900777336,-0.06687338939735481,0.9290749784048988
1590514199.6133618,-0.8164119293504487,-3.144485088311939,8.758338770388958,0.9155555555555556,0.2677777777777778,-0.7155555555555555,-0.015775365050301464,-0.06854112725762487,0.8721499635903356
1590514199.6233618,-0.7840266383553711,-3.184966702055786,8.653086574654957,0.9155555555555556,0.2677777777777778,-0.7155555555555555,-0.01047633420267106,-0.057059893754425654,0.8182764833060933
1590514199.6333618,-0.7447168451894903,-3.2693870983236466,8.77231183053941,0.9155555555555556,0.2677777777777778,-0.7155555555555555,-0.005968681905378923,-0.05178357477023007,0.7346021994355796
1590514199.6433618,-0.6808315397133708,-3.3083369205732587,8.825010761719776,0.6411111111111111,0.19,-0.8033333333333333,-0.00390978857187926,-0.03927225601291312,0.5982569774826528
1590514199.6533618,-0.6884473864818791,-3.2744738648187917,8.75292125130067,0.6411111111111111,0.19,-0.8033333333333333,0.0009214669206078234,-0.026423950252968235,0.4323109053907154
1590514199.6633618,-0.6748840455712163,-3.172094159499257,8.676200522357815,0.6411111111111111,0.19,-0.8033333333333333,-0.00018602135242554505,-0.021537583621290803,0.26952079667683626
1590514199.6733618,-0.6202706092821452,-2.982164874257161,8.847564516460693,0.6411111111111111,0.19,-0.8033333333333333,-0.0018569537365004133,-0.017422405349465663,0.0898840661823076
1590514199.6833618,-0.62889535481483,-3.0511628385186405,8.76994180666653,0.6411111111111111,0.19,-0.8033333333333333,0.008491997973576235,0.018328518739890026,-0.07005427842796784
1590514199.6933618,-0.7048424197773412,-3.1498109037328095,8.827358177799606,0.6103425607582041,0.15923144964709307,-0.8241228943825948,0.01145028534906101,0.025356658892314934,-0.2301440651608994
1590514199.7033617,-0.7600008259820927,-3.1599988436250706,8.749999339214327,0.6,0.14888888888888888,-0.8311111111111111,0.014180836212721626,0.04690584978828456,-0.44833408254558554
1590514199.7133617,-0.794644992896554,-3.1114970099448245,8.722284005682758,0.6,0.14888888888888888,-0.8311111111111111,0.015692473160891212,0.05219657910687811,-0.5586835797619654
1590514199.7233617,-0.8182084358523726,-3.1228337434094904,8.77566748681898,0.6,0.14888888888888888,-0.8311111111111111,0.019944067539013056,0.06528635652952147,-0.7230995329510366
1590514199.7333617,-0.7932218972001671,-3.170167154199749,8.810083577099874,0.6,0.14888888888888888,-0.8311111111111111,0.028028379575160717,0.07566436269328113,-0.8308292369898957
1590514199.7433617,-0.7301113305045582,-3.160066798302735,8.790066798302734,0.5789358951019246,0.13336796949030702,-0.8532838531090853,0.035987700403070796,0.08724946061592005,-0.994563213041197
1590514199.7533617,-0.7398047935586556,-3.2090239677932777,8.809609587117311,0.5788888888888889,0.13333333333333333,-0.8533333333333334,0.032788804633441714,0.09903137029250136,-1.1146258246905778
1590514199.7633617,-0.6201364282829701,-3.2500454760943236,8.680363808754587,0.5788888888888889,0.13333333333333333,-0.8533333333333334,0.034941309746375555,0.10803689351834926,-1.2375477813100932
1590514199.7733617,-0.642229908872228,-3.2574099696240757,8.739279756992607,0.5788888888888889,0.13333333333333333,-0.8533333333333334,0.04056470111420064,0.11526696813412436,-1.3259153599473446
1590514199.7833617,-0.5777832861189802,-3.28407223796034,8.824192634560907,0.5788888888888889,0.13333333333333333,-0.8533333333333334,0.04341769178971906,0.12743792850554736,-1.4602778635637508
1590514199.7933617,-0.4424260185847034,-3.466360972122945,8.772814867762687,0.540630688587086,0.15386212373917874,-0.8216070208879359,0.05554246798507347,0.14171809980229347,-1.5901463705382142
1590514199.8033617,-0.5506101822752986,-3.2585762413576367,8.713050911376493,0.5333333333333333,0.15777777777777774,-0.8155555555555556,0.04884332982243641,0.15258318842773796,-1.755316873956335
1590514199.8133616,-1.0857959803853858,-3.9898155949996545,7.910775836268618,0.5333333333333333,0.15777777777777774,-0.8155555555555556,-0.0588304023871819,0.31401027028490536,-2.198215362221572
1590514199.8233616,-7.621152013318073,-14.654777858703568,-4.822427635001561,0.5333333333333333,0.15777777777777774,-0.8155555555555556,-1.3751051433523547,2.5032859219023003,-6.9938301797357445
1590514199.8333616,1.962328165643533,-8.850575382374364,-0.08305628966808865,0.5333333333333333,0.15777777777777774,-0.8155555555555556,-1.7330912224669852,-0.0930652423147138,-15.924440344882644
1590514199.8433616,0.19553632529641124,-7.734463674703589,0.6687063340494946,0.5333333333333333,0.2411111111111111,-0.7866666666666666,-1.948603272420589,1.763489366752028,-16.55902626318842
1590514199.8533616,-1.5900533142356967,-9.520053314235696,8.787298480146415,0.5333333333333333,0.2411111111111111,-0.7866666666666666,-1.6355028081983085,2.4989113873671527,-15.800849848371097
1590514199.8633616,-22.02635564786707,-17.229672471640836,4.223943121904457,0.5333333333333333,0.2411111111111111,-0.7866666666666666,-0.4206228857621764,3.375206465822805,-11.760931071347986
1590514199.8733616,-4.1424474756350875,-3.6931874101294166,9.392266935612717,0.5333333333333333,0.2411111111111111,-0.7866666666666666,0.1532049090220599,0.7463807244306908,-5.509132071485334
1590514199.8833616,-0.22746925207756225,-0.6049684210526316,5.658435457063712,0.5333333333333333,0.2411111111111111,-0.7866666666666666,0.6717061588986998,0.24366464331779727,-3.9408748870133206
1590514199.8933616,-0.5610554182845041,-1.075332392046123,9.397332627367925,0.3560518230902982,0.48911662810003786,-0.7376313553228484,2.212382974111437,0.5492562091287089,-3.5130195724188384
1590514199.9033616,3.8409137055837563,5.1991398146104615,16.33472357095564,0.3244444444444444,0.5333333333333333,-0.7288888888888889,3.325967672350677,0.44965033126488496,-3.3538989350165482
1590514199.9133615,0.5952346465816918,0.22131047219003477,-1.8610577201622247,0.3244444444444444,0.5333333333333333,-0.7288888888888889,3.168492795065872,-0.3037798224437354,-3.0636336841017506
1590514199.9233615,0.29147595596755504,0.30484411210892237,-0.6536169249710313,0.3244444444444444,0.5333333333333333,-0.7288888888888889,1.4065427318724457,0.010173667894914529,-2.7529936870648277
1590514199.9333615,-0.14869926011896129,1.1294568402727405,-0.26448541999129555,0.3244444444444444,0.5333333333333333,-0.7288888888888889,0.2636311542734562,0.37190781216890983,-2.4571989323210244
1590514199.9433615,2.824759658805821,0.6940602107375815,14.832576016056198,0.23829960417015106,0.5423580308858784,-0.7493995651446731,-1.0103062343034803,0.12569435668238738,-2.1316814828381467
1590514199.9533615,-0.5675238611458063,-0.95,7.569254353922655,0.20777777777777776,0.5455555555555556,-0.7566666666666667,-1.2610368629878947,0.5860968009799634,-1.7645449741512627
1590514199.9633615,2.6263591212989494,-0.8787731614135625,11.562755014326648,0.20777777777777776,0.5455555555555556,-0.7566666666666667,0.5543761962649962,-0.09384879809082941,-1.5428650680495208
1590514199.9733615,0.8828095619310037,0.40598346768938615,5.516443877646008,0.20777777777777776,0.5455555555555556,-0.7566666666666667,0.7041873520407669,0.3442619545398298,-1.2898830199406126
1590514199.9833615,1.7183430454452364,-1.038630499134288,9.350527432837488,0.20777777777777776,0.5455555555555556,-0.7566666666666667,-0.11439212788679542,-0.026270900578265477,-1.0658597075358789
1590514199.9933615,1.8014693851188426,-1.7727684722700654,12.571741086806751,0.14666666666666667,0.5688888888888889,-0.7711111111111111,-0.3900850849659096,0.18287129413148923,-0.7754263899753514
1590514200.0033615,2.0633422321736137,-1.8359791594901826,6.675086978987254,0.14666666666666667,0.5688888888888889,-0.7711111111111111,0.14281663504452408,0.17400601597974447,-0.6473723722279273
1590514200.0133615,-1.4876960176058809,0.7897965490600052,5.591977852176153,0.14666666666666667,0.5688888888888889,-0.7711111111111111,0.08744500304408781,-0.46649042708391375,-0.5730269225255938
1590514200.0233614,-0.7410365816667004,1.7830765808578188,7.515556409374937,0.14666666666666667,0.5688888888888889,-0.7711111111111111,0.20024188608128551,0.1145232468692905,-0.39226077291531825
1590514200.0333614,0.06373903042728207,0.9382731204840362,8.847233292496938,0.14666666666666667,0.5688888888888889,-0.7711111111111111,0.084051788620077,0.38268881312685465,-0.2216321767421876
1590514200.0433614,0.5590340808758608,-1.1078988610277238,8.960926849726293,0.14020307257637293,0.5777763307630428,-0.7694952125885376,-0.21901642374770852,0.04151123507741844,-0.07231092793897
1590514200.0533614,3.7442696670868245,-4.47978052939868,8.72808000296582,0.13777777777777778,0.5811111111111111,-0.7688888888888888,-0.2068796125836953,-0.06249675037304601,0.061466256193481436
1590514200.0633614,5.011431585610296,-5.595052220698387,7.871543411752295,0.13777777777777778,0.5811111111111111,-0.7688888888888888,0.007342364850260727,-0.120535823297101,0.1680434084269316
1590514200.0733614,1.7491725219209102,-3.0048051797224318,8.462803553800592,0.13777777777777778,0.5811111111111111,-0.7688888888888888,0.06824283235671008,-0.01199293098788698,0.21453108849423203
1590514200.0833614,1.8612178692315426,-3.453942491370354,9.591043600656858,0.13777777777777778,0.5811111111111111,-0.7688888888888888,-0.07417020536852474,0.03789133553647514,0.2588999984030378
1590514200.0933614,2.181778493993554,-3.415581599765602,8.894487254614708,0.1253260409545203,0.5920063808314614,-0.774336523749064,-0.01728022341102979,-0.0191096741578829,0.29159204434933944
1590514200.1033614,2.624103685417034,-3.353590195732675,8.705128548756834,0.12,0.5966666666666667,-0.7766666666666666,-0.00987349007788742,-0.04338151887489353,0.3031950214395782
1590514200.1133614,2.1345747339194814,-3.4744359093012496,9.091453031004164,0.12,0.5966666666666667,-0.7766666666666666,-0.01610956667866353,-0.012425678177664396,0.27828491503625974
1590514200.1233613,2.273271785787286,-3.534423928595762,9.046505416638277,0.12,0.5966666666666667,-0.7766666666666666,-0.012404641963003745,-0.029707951753569252,0.2582713748254951
1590514200.1333613,2.231042056074766,-3.385235397196262,8.693622079439253,0.12,0.5966666666666667,-0.7766666666666666,0.0016674036651372522,-0.007516665152517928,0.24187477736273955
1590514200.1433613,2.3706033208429305,-3.409276014988484,8.837767712881158,0.13111111111111112,0.5788888888888889,-0.7688888888888888,0.007616071849059489,-0.018465148788776937,0.21702925725049144
1590514200.1533613,2.442697583278903,-3.322762900065317,8.571018941868061,0.13111111111111112,0.5788888888888889,-0.7688888888888888,0.005256792627863391,-0.00902803190399255,0.21152427240103389
1590514200.1633613,2.2500856892466485,-3.416873640819241,8.774496737966178,0.13111111111111112,0.5788888888888889,-0.7688888888888888,-0.009476444159316883,-0.025752479270126256,0.206671556781459
1590514200.1733613,2.246377418282115,-3.381796130748616,8.597184522994464,0.13111111111111112,0.5788888888888889,-0.7688888888888888,-0.011205506454463408,-0.019135213138435418,0.2006115928208469
1590514200.1833613,2.326684915855371,-3.4000109495132227,8.536673966342148,0.13111111111111112,0.5788888888888889,-0.7688888888888888,-0.006543790288371066,-0.021818407259840623,0.19998604159321945
1590514200.1933613,2.348358569554079,-3.355972132547435,8.573282860891842,0.13499158792641808,0.5801823811606579,-0.7688888888888888,0.0026210337455002527,-0.01429510191712182,0.1975381563086724
1590514200.2033613,2.1910648894621807,-3.4040642803396755,8.895708911103945,0.13777777777777778,0.5811111111111111,-0.7688888888888888,0.0007952679756155863,-0.015095669072303242,0.1901282994404709
1590514200.2133613,2.2530789838779124,-3.395640338707363,8.722302540305218,0.13777777777777778,0.5811111111111111,-0.7688888888888888,-0.004838888403912543,-0.014642249303881229,0.17934358131834666
1590514200.2233613,2.288274358714387,-3.3717256412856127,8.49725641285613,0.13777777777777778,0.5811111111111111,-0.7688888888888888,-0.013427847118896604,-0.01883212120952895,0.17182514764211157
1590514200.2333612,2.2948922132927887,-3.3548922132927887,8.441293440486534,0.13777777777777778,0.5811111111111111,-0.7688888888888888,-0.011858046137657226,-0.015130538485146595,0.167430767407389
1590514200.2433612,2.199962835771746,-3.3781366138213293,8.68007432845651,0.13777777777777778,0.5892394662150507,-0.7638868242095415,-0.0023849254653301403,-0.01056818332826293,0.16689710972195776
1590514200.2533612,2.139583076859945,-3.428749230579835,9.0116615371989,0.13777777777777778,0.5955555555555555,-0.76,0.006272109137914498,-0.004681677946560767,0.174214570382858
1590514200.2633612,2.19274000846818,-3.460137147696103,8.884382835367537,0.13777777777777778,0.5955555555555555,-0.76,-0.0008517841958202571,-0.015869408071228705,0.18110783088014318
1590514200.2733612,2.2265333719415086,-3.47,8.66639959461416,0.13777777777777778,0.5955555555555555,-0.76,-0.009584781215780644,-0.020536709637549246,0.19317888253814808
1590514200.2833612,2.217615767449069,-3.4266551860717422,8.592847302347208,0.13777777777777778,0.5955555555555555,-0.76,-0.009557397616549569,-0.02005032976322517,0.19525871006686565
1590514200.2933612,2.162619758690718,-3.4789670688488035,8.838488034085932,0.13777777777777778,0.5911684961750664,-0.7617548237521956,0.0007487217854454439,-0.012743777324632869,0.20128848973213104
1590514200.3033612,2.1298262959022707,-3.4394788877068123,8.869652591804542,0.13777777777777778,0.59,-0.7622222222222222,0.003272492347489368,-0.009441234663179367,0.204361598706126
1590514200.3133612,2.156651652565585,-3.417330330513117,8.820678677947532,0.13777777777777778,0.59,-0.7622222222222222,0.002472877330531256,-0.012724721344762204,0.2034769570754175
1590514200.3233612,2.177754763296318,-3.404490473407364,8.600621390999414,0.13777777777777778,0.59,-0.7622222222222222,-0.007969299852523844,-0.019256280881212305,0.20120269864142132
1590514200.3333611,2.2063020272056284,-3.4920570952196988,8.618906081616885,0.13777777777777778,0.59,-0.7622222222222222,-0.01090830782496456,-0.01929123182153474,0.19425737527280723
1590514200.3433611,2.193318380883541,-3.4919730855903737,8.68668161911646,0.15200797463988927,0.59,-0.7545141989219118,-0.009744102566601383,-0.01563361015653181,0.18391015538670072
1590514200.3533611,2.1358007350636767,-3.455699877489387,8.784098407362034,0.16444444444444445,0.59,-0.7477777777777778,-0.0031308046202777285,-0.011846449025581044,0.17594013700035768
1590514200.3633611,2.168897724156841,-3.4379133534411848,8.707480120647107,0.16444444444444445,0.59,-0.7477777777777778,-0.0005153554807352328,-0.013317587219812091,0.17372983206781709
1590514200.373361,2.157143631619964,-3.451904245586691,8.665476061396673,0.16444444444444445,0.59,-0.7477777777777778,-0.004077558951661988,-0.01358345453862082,0.16806598371243853
1590514200.383361,2.1619985602447582,-3.479142445784217,8.679142445784217,0.16444444444444445,0.59,-0.7477777777777778,-0.008539556952724438,-0.015084541647703172,0.16063275898784984
1590514200.393361,2.15834866658903,-3.49,8.696941888901828,0.16984369136808872,0.5846007530763557,-0.772460049428723,-0.005607609553015146,-0.013667079468550856,0.16238033095143906
1590514200.403361,2.10638402976776,-3.442937641674864,8.747062358325135,0.17222222222222222,0.5822222222222222,-0.7833333333333333,0.002594601270560515,-0.008332205096179837,0.16251528805019613
1590514200.413361,2.104862789983529,-3.4274313949917645,8.688254655090589,0.17222222222222222,0.5822222222222222,-0.7833333333333333,0.00545415391248228,-0.011408821343322833,0.16468551357503822
1590514200.423361,2.0731789658352264,-3.4889136546636377,8.78519151616023,0.17222222222222222,0.5822222222222222,-0.7833333333333333,-0.00016901853895814542,-0.01308996938995747,0.16821620999007864
1590514200.433361,2.108348730253949,-3.491869226154769,8.709128174365128,0.17222222222222222,0.5822222222222222,-0.7833333333333333,-0.006796436349860144,-0.013749222930652788,0.1730342925311226
1590514200.443361,2.083719320527068,-3.4870350849341167,8.749596443879982,0.16675048949568716,0.5876939549487573,-0.7684814873613096,-0.009050068322106967,-0.018017843774259606,0.18099561702445738
1590514200.453361,2.0873835119427553,-3.4680931904457957,8.712372761783183,0.16444444444444445,0.59,-0.7622222222222222,-0.007531815149570971,-0.018440122974535532,0.187441480345807
1590514200.463361,2.064409777575343,-3.4613975556061645,8.714084111440068,0.16444444444444445,0.59,-0.7622222222222222,-0.0028151433448530714,-0.015588371844880463,0.2008416305372149
1590514200.473361,2.1066285103090436,-3.476966228209913,8.735168858950434,0.16444444444444445,0.59,-0.7622222222222222,0.0007598976169268356,-0.014940697789380763,0.21594765562609144
1590514200.483361,2.1162905264030165,-3.5037094735969836,8.761491578794722,0.16444444444444445,0.59,-0.7622222222222222,-0.003435198353869482,-0.017211357727678643,0.21925698728178766
1590514200.493361,2.0321912180872106,-3.52,8.695067705322094,0.16444444444444445,0.59,-0.7705099622337854,-0.010243380026681717,-0.022242518634142734,0.2244347407461718
1590514200.503361,2.007479907467029,-3.4601607402637664,8.702359352269205,0.16444444444444445,0.59,-0.7744444444444445,-0.006287619286778658,-0.019102689225765725,0.23749991006910154
1590514200.513361,1.9587163142302584,-3.459231382163653,8.675126774951476,0.16444444444444445,0.59,-0.7744444444444445,-0.002265504764579216,-0.018152565308412163,0.25715687706650076
1590514200.523361,1.9661614163493397,-3.47602690272489,8.728349735423569,0.16444444444444445,0.59,-0.7744444444444445,-0.0017482638840386304,-0.02051642260706627,0.2773390736553522
1590514200.533361,2.0001789929189613,-3.485089496459481,8.764731510621557,0.16444444444444445,0.59,-0.7744444444444445,-0.0038471953866154023,-0.02459250535263327,0.2963655709829324
1590514200.543361,1.9921328094853894,-3.49,8.71426561897078,0.16907667902230641,0.585367765422138,-0.7671652186792328,-0.009352170194495434,-0.0272707695624114,0.31670965198869794
1590514200.553361,1.9500059171597632,-3.513995266272189,8.701997633136095,0.17222222222222222,0.5822222222222222,-0.7622222222222222,-0.009381661099070703,-0.027925138939508973,0.33597329916090257
1590514200.563361,1.9614179191086867,-3.53,8.653447745604364,0.17222222222222222,0.5822222222222222,-0.7622222222222222,-0.0062649501460456235,-0.027676167679193068,0.3536131519231723
1590514200.573361,1.9039486621709811,-3.5490128344572547,8.73407700674353,0.17222222222222222,0.5822222222222222,-0.7622222222222222,-0.0061454800820983715,-0.0272707695624114,0.37132719849442364
1590514200.583361,1.9007225837844413,-3.534548385134724,8.754187093242503,0.17222222222222222,0.5822222222222222,-0.7622222222222222,-0.0109871294884647,-0.02838130576078289,0.38795783921242794
1590514200.593361,1.9227210994866462,-3.5503174345311588,8.738798167522257,0.17926177428321816,0.5867019371701288,-0.7609423036656775,-0.01589990950720572,-0.033850380993191646,0.4127693686350933
1590514200.603361,1.895946787295102,-3.575315595765034,8.731893574590204,0.18444444444444444,0.59,-0.76,-0.015340483270015295,-0.03759923583859527,0.43455295906543673
1590514200.613361,1.861007092786926,-3.5624028371147705,8.69240283711477,0.18444444444444444,0.59,-0.76,-0.013352078258969124,-0.03900779930086076,0.4585806187433225
1590514200.6233609,1.8046368232132455,-3.5195641878558943,8.695217906072052,0.18444444444444444,0.59,-0.76,-0.010892461248225356,-0.039254061593133216,0.49934824466180383
1590514200.6333609,1.78,-3.523050103780773,8.751312629725968,0.18444444444444444,0.59,-0.76,-0.007564222631920001,-0.04088298268003368,0.5350082333421498
1590514200.6433609,1.78,-3.575767318723342,8.81,0.1812403784870324,0.5855143076596231,-0.7696121978722361,-0.01002537504628615,-0.045982295841532544,0.5775462700025347
1590514200.6533608,1.7309128852467361,-3.565975110070496,8.725850660422976,0.17888888888888888,0.5822222222222222,-0.7766666666666666,-0.01647561742088805,-0.05073041906140448,0.6229186782080306
1590514200.6633608,1.71,-3.5798471142262622,8.656921476289563,0.17888888888888888,0.5822222222222222,-0.7766666666666666,-0.014566646767712611,-0.055246523312060564,0.6648208037177407
1590514200.6733608,1.6870054682753233,-3.584251367068831,8.674491797587015,0.17888888888888888,0.5822222222222222,-0.7766666666666666,-0.014971205117535118,-0.05735027926567492,0.7059248776813791
1590514200.6833608,1.6133566344955756,-3.570559439082596,8.737762243669616,0.17888888888888888,0.5822222222222222,-0.7766666666666666,-0.015847559014809973,-0.059358739640222764,0.749602898324076
1590514200.6933608,1.5727224569167841,-3.577041842687588,8.768638771541607,0.18204478568288665,0.5784351460694249,-0.780453742819464,-0.017750266500828137,-0.06604379491155704,0.808274120347418
1590514200.7033608,1.6014186919192912,-3.6071280378789368,8.731453270201772,0.18444444444444444,0.5755555555555556,-0.7833333333333333,-0.022748919245287786,-0.07230434220805444,0.8678030898728039
1590514200.7133608,1.5840097217912918,-3.614801944358258,8.658019443582583,0.18444444444444444,0.5755555555555556,-0.7833333333333333,-0.026223147818046716,-0.07474351312007313,0.9228322371627996
1590514200.7233608,1.484277097923884,-3.627474515863719,8.662423547591157,0.18444444444444444,0.5755555555555556,-0.7833333333333333,-0.025364595581074657,-0.07780888930070445,0.9826985211088657
1590514200.7333608,1.3720807786633966,-3.624554874310239,8.71158384426732,0.18444444444444444,0.5755555555555556,-0.7833333333333333,-0.021471074433634333,-0.08047304804933719,1.0316876395935577
1590514200.7433608,1.282460698973626,-3.603280931964835,8.739022562903296,0.186176047425885,0.5745530485663005,-0.7833333333333333,-0.018169080836446968,-0.08261757054330084,1.076743187864423
1590514200.7533607,1.2945300324372693,-3.6245300324372693,8.801325081093173,0.20555555555555555,0.5633333333333334,-0.7833333333333333,-0.027023694620997355,-0.09542668701457317,1.1700463030463495
1590514200.7633607,1.2017749553482835,-3.6107723754713237,8.722046040881127,0.20555555555555555,0.5633333333333334,-0.7833333333333333,-0.02875329497039884,-0.10379743052511634,1.2493176063683529
1590514200.7733607,1.0846849743002962,-3.6440549229008883,8.69,0.20555555555555555,0.5633333333333334,-0.7833333333333333,-0.03098558538199463,-0.110547504558133,1.3428250163383135
1590514200.7833607,1.0640131174420988,-3.6451503528240567,8.719699294351887,0.20555555555555555,0.5633333333333334,-0.7833333333333333,-0.0311050782500206,-0.1146612852982862,1.425479064983851
1590514200.7933607,0.9962384398096196,-3.61207947993654,8.78980130015865,0.2231567112521336,0.5602531310864322,-0.7806931599788466,-0.031385581829418925,-0.12060686992149217,1.525044959849159
1590514200.8033607,0.9387114957129248,-3.6425770085741505,8.78593839314068,0.25,0.5555555555555556,-0.7766666666666666,-0.03739074516976201,-0.1311808019275188,1.6230400719254372
1590514200.8133607,0.8636409650750801,-3.6814563860300322,8.702912772060063,0.25,0.5555555555555556,-0.7766666666666666,-0.04280979853387758,-0.1419959662054172,1.7232900531238253
1590514200.8233607,0.761946975973488,-3.63997790665562,8.63997790665562,0.25,0.5555555555555556,-0.7766666666666666,-0.04603209501734492,-0.15075667015703229,1.8171526716768642
1590514200.8333607,0.6043716984152393,-3.620703537698095,8.69562830158476,0.25,0.5555555555555556,-0.7766666666666666,-0.04472406208235469,-0.16007531383793588,1.9395547984574915
1590514200.8433607,0.5129897282065267,-3.6470102717934734,8.752989728206527,0.26512024159419856,0.5366552535628074,-0.7804467270652162,-0.047198105827814946,-0.1735207923563094,2.1200349637563303
1590514200.8533607,0.48241201662143823,-3.6013733887381276,8.775175966757123,0.2766666666666667,0.5222222222222223,-0.7833333333333333,-0.04908738521234052,-0.1810779098944117,2.2187498115977915
1590514200.8633606,0.4197443047429354,-3.548832067720652,8.71065654176522,0.2766666666666667,0.5222222222222223,-0.7833333333333333,-0.050914733858412754,-0.1865599558326284,2.279661433133533
1590514200.8733606,0.29228015075376884,-3.6043278894472364,8.680935929648243,0.2766666666666667,0.5222222222222223,-0.7833333333333333,-0.05299779430512146,-0.20110205486154512,2.4713641575380434
1590514200.8833606,0.22033760049957068,-3.606519202248068,8.724493599250644,0.2766666666666667,0.5222222222222223,-0.7833333333333333,-0.05345070834232633,-0.21467270514153108,2.639672085598574
1590514200.8933606,0.20350028385794486,-3.5502504257869174,8.762749006497193,0.29472143372793097,0.5157225060801671,-0.7811667612859816,-0.05522323095363704,-0.2253381985916641,2.754673055264199
1590514200.9033606,0.16864583333333333,-3.528058712121212,8.806117424242425,0.3322222222222222,0.5022222222222222,-0.7766666666666666,-0.06038719385791697,-0.23492011905734994,2.868847770552639
1590514200.9133606,0.07218012299146995,-3.5273854393969453,8.78565562388415,0.3322222222222222,0.5022222222222222,-0.7766666666666666,-0.0671093552360332,-0.2416422804354662,2.969568790664323
1590514200.9233606,-0.12158846825657611,-3.668411531743424,8.711588468256576,0.3322222222222222,0.5022222222222222,-0.7766666666666666,-0.07828496908102867,-0.2571913479144026,3.144303742460183
1590514200.9333606,-0.17674145667932345,-3.618501898515706,8.752509492578529,0.3322222222222222,0.5022222222222222,-0.7766666666666666,-0.07477707142794397,-0.26479813697132815,3.2620332495793214
1590514200.9433606,5.09211179425658,-11.257328484666717,8.543068718602385,0.350040322244716,0.48291928053118727,-0.7740681937467196,-0.11281897124990015,-0.2938399758794905,3.248145216259672
1590514200.9533606,12.556402516466314,-21.43215642260094,7.536587116401336,0.3855555555555555,0.4444444444444444,-0.7688888888888888,-0.20443490477791598,-0.27598872594476587,2.2262479562853676
1590514200.9633605,-1.712911166088023,0.29587742458576743,7.968999189206045,0.3855555555555555,0.4444444444444444,-0.7688888888888888,0.039170533510532735,0.09569160587111633,-0.9536923012205708
1590514200.9733605,-3.305013198668656,-0.3315344886950534,11.875727074486399,0.3855555555555555,0.4444444444444444,-0.7688888888888888,0.5083139990870347,0.2563706486288738,-1.0348726531841033
1590514200.9833605,-2.3036502437255773,-2.2212927526890387,6.137453974136889,0.3855555555555555,0.4444444444444444,-0.7688888888888888,-0.09042281001073008,0.023784400027700082,-0.17418616027558492
1590514200.9933605,-0.597677673856334,-3.2230050264045302,10.7015165107845,0.4134607961655108,0.4264223098838483,-0.7654007338126445,-0.24735061678930803,-0.05725792778555559,0.4361949614608487
1590514201.0033605,-0.5920938507356139,-3.474966481880138,9.875317390382921,0.4388888888888889,0.41,-0.7622222222222222,-0.044415220685501196,-0.15017461895197354,0.6852537944698931
1590514201.0133605,-0.6575910454753326,-3.451574626615953,8.70104625612082,0.4388888888888889,0.41,-0.7622222222222222,0.018865837653548892,-0.05117038251829842,0.8332498180047683
1590514201.0233605,-1.2211991996136065,-2.499436279583247,8.904615331539365,0.4388888888888889,0.41,-0.7622222222222222,0.054431048571541574,0.03503062348117233,0.3302215661110818
1590514201.0333605,-1.7442374706194557,-1.9778930927287892,8.949184775191448,0.4388888888888889,0.41,-0.7622222222222222,0.06963285092957236,0.06637431962811266,-0.22299042572958855
1590514201.0433605,-1.6679138676169534,-2.976460232011525,7.2827861096368185,0.4388888888888889,0.41,-0.7622222222222222,0.09252828821576861,0.049723092510879016,-0.10990084155837676
1590514201.0533605,-0.5651154608083735,-3.6079900062091603,8.071497590254575,0.4388888888888889,0.4180279182230633,-0.7702501404452855,-0.026349880159323408,-0.010204481523683168,0.06733442556816205
1590514201.0633605,0.23746582651557496,-4.040074190761726,8.739258092382743,0.4388888888888889,0.4244444444444445,-0.7766666666666666,-0.09710949343001582,-0.04529439380251862,0.15610465312598948
1590514201.0733604,-0.018297169571624583,-4.0755968291071705,8.3840317089283,0.4388888888888889,0.4244444444444445,-0.7766666666666666,-0.004886427459190518,-0.004995238924510932,0.0026578710904986425
1590514201.0833604,-0.03198735232119222,-4.130435413500662,8.509318888180793,0.4388888888888889,0.4244444444444445,-0.7766666666666666,0.004580109638748049,0.0003929750112461374,-0.011646761602493191
1590514201.0933604,-0.011426050296583168,-4.188007059169567,8.702595127212119,0.4388888888888889,0.4244444444444445,-0.7766666666666666,0.0023372195210830237,0.0008415530347791424,-0.006263825320097132
1590514201.1033604,-0.017071532178028856,-4.1773211695549275,8.812845255363005,0.44394712064534186,0.42096691011188303,-0.770027737486322,0.001711569209302211,0.00047009235569070115,-0.0017206462804749806
1590514201.1133604,-0.05549553401022979,-4.081261164974426,8.819249255668373,0.45533201007710505,0.4131397986275458,-0.7550850701071328,0.0031087053421443777,-0.0009270437771514656,0.0017721940516304364
1590514201.1233604,-0.05123779773525966,-4.1357165169855525,8.767426786411558,0.4566666666666666,0.4122222222222222,-0.7533333333333333,0.0004050683616376922,-0.00013502278721256407,0.00027004557442512813
1590514201.1333604,-0.04131198750488091,-4.210160093713393,8.707871925029284,0.4566666666666666,0.4122222222222222,-0.7533333333333333,-0.002843145440516925,0.0009477151468389748,-0.0018954302936779496
1590514201.1433604,-0.03447788818933475,-4.2420884472426605,8.628212546461352,0.4566666666666666,0.4122222222222222,-0.7533333333333333,-0.0020677544379971886,0.0004884618277503663,-0.0015792926102468222
1590514201.1533604,-0.03700527072352659,-4.2459894585529465,8.62253953042645,0.44304530692647603,0.4165032209977107,-0.7689006016078369,5.540395924514825e-05,0.0003820782472472014,-0.00223706552423806
1590514201.1633604,-0.05,-4.218760733942546,8.710085871540375,0.4177777777777778,0.4244444444444445,-0.7977777777777778,0.0015057467834064023,0.0008204648698618522,-0.004228140173668522
1590514201.1733603,-0.05,-4.216009236602662,8.688073892821297,0.4177777777777778,0.4244444444444445,-0.7977777777777778,5.037785254744312e-06,0.0002201812706011891,-0.00392799837403819
1590514201.1833603,-0.05,-4.213257739262778,8.66606191410222,0.4177777777777778,0.4244444444444445,-0.7977777777777778,-0.0014956712128969137,-0.000380102328659474,-0.003627856574407859
1590514201.1933603,-0.05,-4.210506241922893,8.644049935383142,0.4177777777777778,0.4244444444444445,-0.7977777777777778,-0.002996380211048572,-0.000980385927920137,-0.0033277147747775276
1590514201.2033603,-0.05,-4.142150167265519,8.699368603642672,0.4403943886892716,0.41973265050454994,-0.7676222965624527,-0.0004970166174640646,-0.00016567220582135492,-0.004197650924164469
1590514201.2133603,-0.05141654978962132,-4.222917251051894,8.68866760168303,0.4444444444444444,0.4188888888888889,-0.7622222222222222,0.004054279906894261,-0.0018726183419013494,-0.00015452161154578127
1590514201.2233603,-0.06,-4.191284261566435,8.62,0.4444444444444444,0.4188888888888889,-0.7622222222222222,0.0015662005712724387,0.0009231914905807101,-0.0013985612793566927
1590514201.2333603,-0.05557219679125372,-4.215572196791253,8.633283409626237,0.4444444444444444,0.4188888888888889,-0.7622222222222222,-0.0009659968077874042,0.003030993145542517,-0.002181661564992912
1590514201.2433603,-0.04421953306441755,-4.2021097665322085,8.692658599193253,0.4444444444444444,0.4174823778674164,-0.7666761737902186,-0.002292064680493103,0.0017213819095500851,-0.002181661564992912
1590514201.2533603,-0.05605630702247878,-4.206056307022479,8.732112614044958,0.4444444444444444,0.4122222222222222,-0.7833333333333333,0.00459377357316323,0.000430190169659525,-0.001751471395333387
1590514201.2633603,-0.05311094615635297,-4.1844452692182355,8.69822337690553,0.4444444444444444,0.4122222222222222,-0.7833333333333333,0.0036118439304932536,0.001090830782496456,-0.001090830782496456
1590514201.2733603,-0.06,-4.160358295352474,8.648705213080941,0.4444444444444444,0.4122222222222222,-0.7833333333333333,0.0037983657587524217,0.001090830782496456,-0.001090830782496456
1590514201.2833602,-0.05413673275974207,-4.218273465519484,8.657589801720775,0.4444444444444444,0.4122222222222222,-0.7833333333333333,0.00031979161958381973,0.0004512475433288165,-0.0014106224020802756
1590514201.2933602,-0.04120797897015618,-4.196039894850781,8.701207978970155,0.4444444444444444,0.4122222222222222,-0.7825280140198959,0.0008272906534455108,-0.0008272906534455108,-0.0017863513714164942
1590514201.3033602,-0.0524493864752687,-4.232651840574194,8.707550613524731,0.4444444444444444,0.4122222222222222,-0.7766666666666666,-2.2084316315019005e-05,0.0021595772486778927,0.0005564575494057375
1590514201.3133602,-0.06,-4.21009842997262,8.699114130246421,0.4444444444444444,0.4122222222222222,-0.7766666666666666,0.0032617553030839684,0.005421942779266081,-0.0011015678269018555
1590514201.3233602,-0.055245222646875834,-4.205735667940627,8.626641720735934,0.4444444444444444,0.4122222222222222,-0.7766666666666666,0.0011443300648519394,0.0014036629398871824,-0.0016629958149224256
1590514201.3333602,-0.04033348146831393,-4.161000444404942,8.6788328148609,0.4444444444444444,0.4122222222222222,-0.7766666666666666,-0.002108907194787122,-0.0010362650048421139,-3.6377185102895015e-05
1590514201.3433602,-0.0343483138652412,-4.21144943795508,8.69579775182032,0.445410736414498,0.4131885141922758,-0.7755393260349375,-0.0017073341033767863,-0.001090830782496456,0.0012489399363684978
1590514201.3533602,-0.059014843073766546,-4.219014843073766,8.726059372295067,0.4511111111111111,0.4188888888888889,-0.7688888888888888,0.0011982947325689596,-0.0009833668324239523,0.0015368778645578896
1590514201.3633602,-0.04324323003226122,-4.213378384983869,8.666351305112913,0.4511111111111111,0.4188888888888889,-0.7688888888888888,0.0029187108320986167,0.0007370492671057049,-0.003626273862880119
1590514201.3733602,-0.03695013221631994,-4.20957480167552,8.64085039664896,0.4511111111111111,0.4188888888888889,-0.7688888888888888,0.0024679685889902967,0.0018025906567938066,-0.002181661564992912
1590514201.3833601,-0.04479394231125264,-4.19,8.690412115377494,0.4511111111111111,0.4188888888888889,-0.7688888888888888,-0.0013747771816133548,0.0005229379842626584,-0.0018977151658760131
1590514201.3933601,-0.031890384920006336,-4.190630128306669,8.719369871693331,0.4506910255733319,0.41846880335110975,-0.7697990742207438,-0.002181661564992912,-0.0009533581117291219,-0.001090830782496456
1590514201.4033601,-0.06,-4.206272888663454,8.716272888663456,0.4444444444444444,0.4122222222222222,-0.7833333333333333,-0.0014973955600660201,0.0004065647775695642,-0.0017750967874233478
1590514201.41336,-0.055738282424711086,-4.217869141212355,8.702298835760622,0.4444444444444444,0.4122222222222222,-0.7833333333333333,0.0,-0.0006259495107533257,-0.0025751704398746726
1590514201.42336,-0.04372556600936547,-4.211862783004682,8.624216179060875,0.4444444444444444,0.4122222222222222,-0.7833333333333333,0.0,0.0006844345739726227,-0.0006095943127857498
1590514201.43336,-0.03968790510759658,-4.2,8.690312094892404,0.4444444444444444,0.4122222222222222,-0.7833333333333333,0.0009546536962190271,0.0021135730218541974,0.001090830782496456
1590514201.44336,-0.03289133393829401,-4.2,8.697108666061705,0.4444444444444444,0.4122222222222222,-0.7833333333333333,-0.0020109099225422413,0.0006307912124735632,0.001090830782496456
1590514201.45336,-0.04687970583085274,-4.233759411661706,8.708439852915427,0.4444444444444444,0.4178487908325065,-0.7833333333333333,-0.0023518472115004138,-0.0018412902719779085,0.00017018564650750172
1590514201.46336,-0.05,-4.20008262878804,8.686049577272824,0.4444444444444444,0.4188888888888889,-0.7833333333333333,0.0004309242714677099,0.0013017862169545837,-0.0008708619454868739
1590514201.47336,-0.047655481445237055,-4.207655481445237,8.623516777832144,0.4444444444444444,0.4188888888888889,-0.7833333333333333,0.0012187044329799322,0.0008350834815295035,-0.001090830782496456
1590514201.48336,-0.03299650069399644,-4.192996500693996,8.65898950208199,0.4444444444444444,0.4188888888888889,-0.7833333333333333,0.0013644927657970839,-0.0012542645423356215,-0.0009273970226572904
1590514201.49336,-0.049395538873575354,-4.209395538873576,8.708186616620727,0.4444444444444444,0.4188888888888889,-0.7833333333333333,-0.0031076511466077467,-0.0021486933248165874,-3.296824017632455e-05
1590514201.50336,-0.05900914362176628,-4.191981712756467,8.700990856378233,0.4324322529487561,0.4188888888888889,-0.7643140301318267,-0.0013070021101785141,0.0017493189096287943,-0.0009827451186554266
1590514201.51336,-0.06,-4.217110341615536,8.70555170807768,0.4311111111111111,0.4188888888888889,-0.7622222222222222,0.00031521283166726255,-0.0009332243666628247,-0.0018664487333256495
1590514201.52336,-0.06,-4.200123524289736,8.620617621448677,0.4311111111111111,0.4188888888888889,-0.7622222222222222,0.0021681871552299806,-6.737204881465675e-06,-1.347440976293135e-05
1590514201.53336,-0.05,-4.19,8.691822359297054,0.4311111111111111,0.4188888888888889,-0.7622222222222222,0.0008920422206968907,-0.001090830782496456,-0.0006932536588973254
1590514201.54336,-0.05,-4.190680922431866,8.700680922431864,0.43247295597484275,0.4188888888888889,-0.7617682739343117,0.0,-0.0010165536675792969,0.0010165536675792969
1590514201.55336,-0.04783198105125233,-4.204336037897495,8.703495943153758,0.4511111111111111,0.4188888888888889,-0.7555555555555555,-0.0007094825418988693,-0.0002364941806329564,-0.0007094825418988693
1590514201.56336,-0.044292121954593054,-4.215707878045407,8.664977573158923,0.4511111111111111,0.4188888888888889,-0.7555555555555555,-0.002804294472459472,-0.001090830782496456,-0.0021019976599146277
1590514201.57336,-0.06,-4.2,8.611202937469173,0.4511111111111111,0.4188888888888889,-0.7555555555555555,-0.0009596106604172253,-0.001090830782496456,0.001984831381874066
1590514201.58336,-0.05886565658064612,-4.201134343419354,8.639074747354831,0.4511111111111111,0.4188888888888889,-0.7555555555555555,0.001338306126447156,-0.001090830782496456,-0.000843355438545756
1590514201.59336,-0.052641459035125474,-4.207358540964875,8.688868327718996,0.4511111111111111,0.4188888888888889,-0.7555555555555555,0.0026962153822457187,-0.001090830782496456,0.0005145538172528063
1590514201.60336,-0.05,-4.190039684180068,8.729960315819934,0.43891314033226314,0.4122354502822445,-0.7622089941621999,0.0010951596550159738,-0.001090830782496456,0.002179497128733153
1590514201.61336,-0.05737471829543126,-4.228687359147716,8.686873591477156,0.4388888888888889,0.4122222222222222,-0.7622222222222222,-0.0008044569728896216,-0.003933762415575573,-0.001090830782496456
1590514201.62336,-0.040188485965990575,-4.220094242982995,8.600942429829953,0.4388888888888889,0.4122222222222222,-0.7622222222222222,0.0010702701531193459,-0.0011216717265621207,-0.001090830782496456
1590514201.63336,-0.05,-4.201013355628444,8.681013355628442,0.4388888888888889,0.4122222222222222,-0.7622222222222222,-0.0008697508798720322,-0.001960581662368488,-0.00022107990262442377
1590514201.64336,-0.05,-4.210004899559039,8.690009799118078,0.4388850781207469,0.41223147694485274,-0.7622254885949153,0.0010902963235143411,-1.0689179642297462e-06,-0.0021800581880465674
1590514201.65336,-0.05,-4.218939778028673,8.707879556057346,0.43193572819992093,0.4291084696097158,-0.7681820742413376,0.00011565227626024878,-0.0019503570124724144,0.0007438739537157096
1590514201.6633599,-0.05568076144631037,-4.21,8.702723045785241,0.4311111111111111,0.4311111111111111,-0.7688888888888888,-0.0006196749453654446,0.0009337788367861189,0.0
1590514201.6733599,-0.03273726820195832,-4.21,8.610949072807832,0.4311111111111111,0.4311111111111111,-0.7688888888888888,0.0018830719235284267,9.952988048816209e-05,0.0
1590514201.6833599,-0.041295090621150804,-4.217409818757698,8.663885271863453,0.4311111111111111,0.4311111111111111,-0.7688888888888888,0.0009495583109290811,-0.002040389093425537,-0.0013733757256312058
1590514201.6933599,-0.04949557158777641,-4.201008856824448,8.688486714763329,0.4311111111111111,0.4311111111111111,-0.7688888888888888,5.502460396193047e-05,-0.0011458553864583864,-0.0031624431395655076
1590514201.7033598,-0.05198324812357229,-4.21,8.736033503752855,0.4311111111111111,0.4188888888888889,-0.7833333333333333,-0.00021633881025209816,0.004146984319733726,-0.0028398147269851717
1590514201.7133598,-0.05748083675386974,-4.208740418376935,8.707404183769349,0.4311111111111111,0.4188888888888889,-0.7833333333333333,-0.0009534317417458268,0.0027228961844868514,-0.001090830782496456
1590514201.7233598,-0.044570550729994454,-4.203047033819996,8.623047033819995,0.4311111111111111,0.4188888888888889,-0.7833333333333333,0.00016618991430798668,-0.000592261039572496,-0.001090830782496456
1590514201.7333598,-0.06840476443688186,-4.219202382218441,8.645583324470914,0.4311111111111111,0.4188888888888889,-0.7833333333333333,0.0010038241796173385,0.0020946549621137945,-0.0011778373853755734
1590514201.7433598,-0.05566019963233619,-4.212830099816168,8.690189301286825,0.4311111111111111,0.4188888888888889,-0.7833333333333333,0.0003087159997013717,0.0013995467821978276,-0.0018729455652915401
1590514201.7533598,-0.06652374202693126,-4.193476257973069,8.734785613040398,0.44212693912906526,0.4133809748799118,-0.7833333333333333,0.0,0.00018960046024610626,-0.0003792009204922125
1590514201.7633598,-0.06,-4.200827893584712,8.709237383398742,0.4444444444444444,0.4122222222222222,-0.7833333333333333,0.001090830782496456,-0.001090830782496456,-0.0009102124211293816
1590514201.7733598,-0.06,-4.20909953260891,8.60170607608417,0.4444444444444444,0.4122222222222222,-0.7833333333333333,0.001090830782496456,-0.001090830782496456,0.000894379272729409
1590514201.7833598,-0.05964351260772422,-4.219287025215448,8.642138924353656,0.4444444444444444,0.4122222222222222,-0.7833333333333333,-0.0030780586369562163,-3.888674210663036e-05,0.002220548307099542
1590514201.7933598,-0.051276332588573253,-4.202552665177147,8.69234200446856,0.4444444444444444,0.4122222222222222,-0.7833333333333333,0.0014855301268333681,-0.0009516044948645471,0.0031332660598574593
1590514201.8033597,-0.03646703851059374,-4.206766480744703,8.706766480744703,0.4406852884751649,0.40695940386523094,-0.7833333333333333,0.002181661564992912,0.0011234948631510583,0.0025343837989401964
1590514201.8133597,-0.039678507717366016,-4.21,8.680964476847901,0.4388888888888889,0.4044444444444445,-0.7833333333333333,0.002181661564992912,0.0011259001503196764,0.002181661564992912
1590514201.8233597,-0.047128936052157025,-4.217128936052156,8.637226383687057,0.4388888888888889,0.4044444444444445,-0.7833333333333333,0.0014040152757787477,0.001090830782496456,0.002181661564992912
1590514201.8333597,-0.032913778017096315,-4.202913778017097,8.628543110991453,0.4388888888888889,0.4044444444444445,-0.7833333333333333,-0.00170489575183139,0.00015892193772050738,-0.000614064969334934
1590514201.8433597,-0.047501395868230045,-4.208750697934115,8.66500279173646,0.4388888888888889,0.4044444444444445,-0.7833333333333333,0.0016365507049514111,0.0028636592024582426,-0.001090830782496456
1590514201.8533597,-0.059363101154522514,-4.2,8.719681550577262,0.4444444444444444,0.4244444444444445,-0.7833333333333333,0.0032030174608910387,0.0010213558958981268,-0.0010213558958981268
1590514201.8633597,-0.043328618395901825,-4.2,8.711664309197952,0.4444444444444444,0.4244444444444445,-0.7833333333333333,0.0014539267234398247,-0.0007277348415530873,0.0007277348415530873
1590514201.8733597,-0.030857971451169447,-4.2182840570976605,8.614289857255846,0.4444444444444444,0.4244444444444445,-0.7833333333333333,0.004082552629154188,9.359016694387882e-05,-0.002088071398049033
1590514201.8833597,-0.03875654400964182,-4.202486911980716,8.65378272004821,0.4444444444444444,0.4244444444444445,-0.7833333333333333,0.0014977508037851508,0.0009551907754002242,-0.0012264707895926876
1590514201.8933597,-0.04572622982694925,-4.2114524596538985,8.66572622982695,0.4444444444444444,0.4244444444444445,-0.7833333333333333,-0.00015843877008066363,0.00046619600620789617,-0.001090830782496456
1590514201.9033597,-0.04374693713597108,-4.213746937135971,8.707518377184174,0.4444444444444444,0.41193831871638664,-0.7833333333333333,0.0002733759088971836,0.0006821033456968198,-0.0017729341281932758
1590514201.9133596,-0.05009120980211779,-4.219908790197882,8.758631852968232,0.4444444444444444,0.4044444444444445,-0.7833333333333333,0.0021717121190113625,0.004313575900078076,0.0010410835525887082
1590514201.9233596,-0.058300679180286155,-4.211699320819714,8.635489812295708,0.4444444444444444,0.4044444444444445,-0.7833333333333333,0.0012761979284445532,-0.00016399505275596984,-0.003436487400245338
1590514201.9333596,-0.042073407351514505,-4.218963296324243,8.636889888972728,0.4444444444444444,0.4044444444444445,-0.7833333333333333,0.001090830782496456,0.0018424010804399427,-0.0014300912670494252
1590514201.9433596,-0.05694360434086461,-4.22,8.682359010852162,0.4444444444444444,0.4044444444444445,-0.7833333333333333,0.00016670052342367125,0.0003334010468473425,-0.00016670052342367125
1590514201.9533596,-0.06614526020676363,-4.213854739793236,8.702290520413527,0.43625076416875963,0.40171321768588286,-0.7881129801608161,0.0013406877999976592,0.0,-0.0006703438999988296
1590514201.9633596,-0.04641716920893934,-4.19427811280596,8.702139056402979,0.4311111111111111,0.4,-0.7911111111111111,0.0030391574905027194,0.0008574959255098071,-0.00023333485698664883
1590514201.9733596,-0.03318883831977915,-4.1968111616802215,8.652321868238454,0.4311111111111111,0.4,-0.7911111111111111,0.0017865273824203317,0.0025767957475654924,-0.0007429824825345181
1590514201.9833596,-0.03957901229808397,-4.2,8.639579012298084,0.4311111111111111,0.4,-0.7911111111111111,4.592263443024521e-05,-0.0009071402447754749,0.0009989855136359656
1590514201.9933596,-0.04648655085903014,-4.2,8.685405856013212,0.4311111111111111,0.4,-0.7911111111111111,-0.0007075729349258903,0.0010318880222812152,-0.0017394609572071054
1590514202.0033596,-0.05,-4.2143267179987705,8.71,0.4494174729984295,0.41353078922106146,-0.7895192535556921,-0.0003094295322361889,-0.0009439434360481564,-0.0024910910972291006
1590514202.0133595,-0.05,-4.22,8.717052204848185,0.4566666666666666,0.4188888888888889,-0.7888888888888889,0.0,-0.0014123853517059265,-0.002181661564992912
1590514202.0233595,-0.030192136600054747,-4.2,8.640768546400219,0.4566666666666666,0.4188888888888889,-0.7888888888888889,0.001069871930718063,0.0010279542271612767,2.0958851778393103e-05
1590514202.0333595,-0.037368258965234054,-4.2,8.669473035860936,0.4566666666666666,0.4188888888888889,-0.7888888888888889,0.0002870784132281769,-0.0013204263253083811,0.0008037523692682791
1590514202.0433595,-0.04,-4.2,8.68,0.4566666666666666,0.4188888888888889,-0.7888888888888889,0.0005247881980418106,-0.0016568733669511013,0.0005660425844546454
1590514202.0533595,-0.034346346857191457,-4.211307306285617,8.696960959428425,0.4535257482539952,0.4151197867936832,-0.7700433784128604,0.0017075486706697946,0.0013760407701968985,-0.0012334357763466772
1590514202.0633595,-0.05951159761845695,-4.190488402381543,8.680488402381544,0.4511111111111111,0.4122222222222222,-0.7555555555555555,0.002181661564992912,0.0011263484059652377,0.0031836982888174136
1590514202.0733595,-0.06,-4.200149692277149,8.61014969227715,0.4511111111111111,0.4122222222222222,-0.7555555555555555,-2.4493341572433828e-05,-0.002149003776229667,0.0010745018881148335
1590514202.0833595,-0.06,-4.216803652968037,8.626803652968038,0.4511111111111111,0.4122222222222222,-0.7555555555555555,-0.0027494912873883277,0.0014843268181915243,-0.0007421634090957622
1590514202.0933595,-0.037081257748224954,-4.204720838498817,8.691116646004735,0.4511111111111111,0.4122222222222222,-0.7555555555555555,6.090359175574657e-05,-0.0011517343742522028,0.0005758671871261014
1590514202.1033595,-0.042491300953918204,-4.20416376698464,8.71,0.4427835771418323,0.4122222222222222,-0.7546302740034134,0.0006366342626977451,-0.001727465045194201,-0.001634348336295809
1590514202.1133595,-0.05913909212389029,-4.209713030707963,8.71,0.43168504969518423,0.4122222222222222,-0.7533971042871193,3.130349373847057e-05,-0.0011221342762349265,-0.005266332950051456
1590514202.1233594,-0.05975047789482246,-4.2,8.612245698946598,0.4311111111111111,0.4122222222222222,-0.7533333333333333,2.7218639324097114e-05,5.443727864819423e-05,-8.165591797229134e-05
1590514202.1333594,-0.05122097043152886,-4.2,8.689011266116239,0.4311111111111111,0.4122222222222222,-0.7533333333333333,0.0009576435693734901,0.0019152871387469802,-0.0028729307081204703
1590514202.1433594,-0.04406045481589212,-4.2059395451841075,8.7,0.4311111111111111,0.4122222222222222,-0.7533333333333333,0.001090830782496456,-0.000409953923348473,-0.003272492347489368
1590514202.1533594,-0.04,-4.216365501575438,8.706365501575439,0.4311111111111111,0.41646588993918077,-0.7632352246729033,-0.000992274736858724,-0.0007929245520894588,-0.0025781238410376413
1590514202.1633594,-0.04,-4.214080995157295,8.715919004842705,0.4311111111111111,0.4188888888888889,-0.7688888888888888,-0.0015359982965761434,0.001291326536833537,-0.0015359982965761434
1590514202.1733594,-0.05573947149479022,-4.233609207242186,8.67278158551563,0.4311111111111111,0.4188888888888889,-0.7688888888888888,-0.0019492857828335899,0.0004647515643186439,-0.0019492857828335899
1590514202.1833594,-0.03350241852207468,-4.233375604630519,8.686497581477925,0.4311111111111111,0.4188888888888889,-0.7688888888888888,-0.00145905212654719,-0.0007226094384457219,-0.0029042710034386343
1590514202.1933594,-0.03982704848313014,-4.236609016161044,8.71982704848313,0.4311111111111111,0.4188888888888889,-0.7688888888888888,0.0010719646986483463,-0.0018117626095447233,-0.0018306286933928333
1590514202.2033594,-0.03014590001103631,-4.24,8.736618033329655,0.4311111111111111,0.4144768666691192,-0.7688888888888888,1.5915222320497975e-05,-0.0007378306698779694,0.0003530001126184866
1590514202.2133594,-0.029112723787354945,-4.24,8.730887276212645,0.4311111111111111,0.4122222222222222,-0.7688888888888888,0.0018913011033938828,-0.002982131885890339,9.678682053300977e-05
1590514202.2233593,-0.03886923007573026,-4.23113076992427,8.623569239091237,0.4311111111111111,0.4122222222222222,-0.7688888888888888,0.0012141786466279183,-0.0013375265107593804,0.0009674829183649936
1590514202.2333593,-0.04,-4.238709783941881,8.67967827153505,0.4311111111111111,0.4122222222222222,-0.7688888888888888,0.00014074073922671043,-0.001090830782496456,0.00014074073922671043
1590514202.2433593,-0.02496392793832708,-4.247518036030836,8.71255410809251,0.4311111111111111,0.4122222222222222,-0.7688888888888888,0.0008200905126353884,0.0005493502427743209,-0.001640181025270777
1590514202.2533593,-0.028115178983363638,-4.233769642033273,8.74434553695009,0.44193134975559595,0.42214077431300007,-0.7688888888888888,0.00020560207844432074,0.0037465168946528614,-0.0012964328609407767
1590514202.2633593,-0.03697004700071696,-4.236970047000717,8.756970047000717,0.4444444444444444,0.4244444444444445,-0.7688888888888888,0.0007603141823829157,0.0005617522180712451,0.0004297975822693755
1590514202.2733593,-0.04,-4.24,8.668095128939829,0.4444444444444444,0.4244444444444445,-0.7688888888888888,0.001090830782496456,0.0014154857778486249,-0.002250924631296985
1590514202.2833593,-0.06071774737746151,-4.24,8.674529578962435,0.4444444444444444,0.4244444444444445,-0.7688888888888888,0.001090830782496456,0.002934980117770253,-0.0017658552419346856
1590514202.2933593,-0.04864504515985155,-4.235729009031971,8.69854198193606,0.4444444444444444,0.4244444444444445,-0.7688888888888888,0.0020226164664346813,0.0018748138215820304,-0.00015904509855823093
1590514202.3033593,-0.02,-4.232252449133384,8.719009796533536,0.44269253956292387,0.423193083814787,-0.7701402495185464,0.0022896760072084617,-0.0002457040850702266,0.0008451266974262294
1590514202.3133593,-0.03353656220322887,-4.24,8.731951250395696,0.43666666666666665,0.4188888888888889,-0.7744444444444445,0.0003857790915495539,0.0003857790915495539,0.0004922032913486699
1590514202.3233593,-0.03859708112748605,-4.234298540563743,8.664388324509945,0.43666666666666665,0.4188888888888889,-0.7744444444444445,-0.0003060694182966876,-0.0003060694182966876,0.0017127635283188559
1590514202.3333592,-0.044240643365295394,-4.222879678317352,8.665601608413239,0.43666666666666665,0.4188888888888889,-0.7744444444444445,-0.002181661564992912,0.00014845825681980866,0.0014049549577220051
1590514202.3433592,-0.03061876204291065,-4.226460412652363,8.692920825304725,0.43666666666666665,0.4188888888888889,-0.7744444444444445,-0.0014769398661101856,-0.0003186126152689968,0.0003861090836137296
1590514202.3533592,-0.031145270858735412,-4.23,8.72229054171747,0.44100093866728596,0.41517379860264375,-0.7713485358725735,-0.001090830782496456,-0.0016987110090949209,0.0018236406797953945
1590514202.3633592,-0.04,-4.2376570638885935,8.71702880833422,0.4444444444444444,0.4122222222222222,-0.7688888888888888,-0.001090830782496456,0.00032410673297306224,0.0007667240495233939
1590514202.3733592,-0.031404486181393534,-4.24,8.63264037563254,0.4444444444444444,0.4122222222222222,-0.7688888888888888,-0.001090830782496456,-0.0017220445369164202,0.0018752502129419173
1590514202.3833592,-0.02178010590187033,-4.223560211803741,8.702198940981297,0.4444444444444444,0.4122222222222222,-0.7688888888888888,0.0015991232708337814,0.001404943839447405,0.0003883588627727535
1590514202.3933592,-0.03208374663454726,-4.232083746634547,8.732083746634547,0.4444444444444444,0.4122222222222222,-0.7688888888888888,0.0008635292853077018,0.002181661564992912,-0.0006590661398426051
1590514202.4033592,-0.032332342123796855,-4.24,8.755335315752406,0.4401846345132205,0.421593804070915,-0.7637771169714201,0.002509235172304138,0.003018073289094291,-0.001090830782496456
1590514202.4133592,-0.021834520945853947,-4.2318345209458545,8.751834520945854,0.4388888888888889,0.4244444444444445,-0.7622222222222222,0.0006003455756615995,0.003272492347489368,0.0006906003987220562
1590514202.4233592,-0.03649004042273414,-4.246490040422734,8.684039838309063,0.4388888888888889,0.4244444444444445,-0.7622222222222222,0.0,0.003272492347489368,0.00019143859760999268
1590514202.4333591,-0.033193957325077884,-4.243193957325078,8.683612085349845,0.4388888888888889,0.4244444444444445,-0.7622222222222222,-0.0007424240856789563,0.0010452200904524991,-0.0007424240856789563
1590514202.4433591,-0.03,-4.24,8.701993264838404,0.4388888888888889,0.4244444444444445,-0.7622222222222222,0.0002174314643397701,-0.0008721748312241507,0.0002174314643397701
1590514202.4533591,-0.03,-4.238650417336102,8.72539833065559,0.4378392134836353,0.4236946762978348,-0.7631219439981539,0.002181661564992912,-0.002034444933662617,0.0026233114589837964
1590514202.463359,-0.023227433869648213,-4.23,8.732909735478593,0.4311111111111111,0.4188888888888889,-0.7688888888888888,0.002181661564992912,-0.00035205842134839263,0.0032378368290380895
1590514202.473359,-0.03665043068088597,-4.238325215340443,8.645073061936014,0.4311111111111111,0.4188888888888889,-0.7688888888888888,0.0003653813321395276,0.0018162802328533843,0.0012735214485662199
1590514202.483359,-0.017248779234130044,-4.24,8.664126831148804,0.4311111111111111,0.4188888888888889,-0.7688888888888888,-0.0006204432987695886,-0.00030011163008544263,0.001090830782496456
1590514202.493359,-0.014081708795821286,-4.230612194136119,8.713469514659701,0.4311111111111111,0.4188888888888889,-0.7688888888888888,-0.001090830782496456,-0.002181661564992912,0.0021148815441386533
1590514202.503359,-0.025260891928447604,-4.22,8.74,0.43742992187318097,0.41204351056331323,-0.7688888888888888,-0.0005738742858937787,-0.00063079207518488,0.0012046663610786592
1590514202.513359,-0.030071350743383362,-4.230071350743383,8.734964324628308,0.4444444444444444,0.4044444444444445,-0.7688888888888888,0.0005493069706100567,0.001090830782496456,0.0011063970999437708
1590514202.523359,-0.03449183249183249,-4.24,8.691442827442827,0.4444444444444444,0.4044444444444445,-0.7688888888888888,0.001090830782496456,0.0022925265171076393,0.000869100878267001
1590514202.533359,-0.03761658031088083,-4.2323834196891195,8.698082901554406,0.4444444444444444,0.4044444444444445,-0.7688888888888888,0.0002599907564499325,0.0007799722693497975,-0.0044141908866825496
1590514202.543359,-0.04668832982626022,-4.223311670173739,8.71,0.4444444444444444,0.4044444444444445,-0.7688888888888888,0.0007295836057973819,0.0007295836057973819,-0.0010766522776979879
1590514202.553359,-0.05,-4.228008685274813,8.742034741099252,0.43376619741136085,0.4106734218804099,-0.7519816644198398,0.001090830782496456,-0.002403617387540259,0.0019644428250056344
1590514202.563359,-0.036960339634964985,-4.23,8.717400849087412,0.4311111111111111,0.4122222222222222,-0.7477777777777778,0.0018020339284704145,-0.0011388829095674924,4.8052127071036236e-05
1590514202.573359,-0.03,-4.23,8.645688914644124,0.4311111111111111,0.4122222222222222,-0.7477777777777778,0.0013353157973217287,-0.0016926915353423666,-0.001090830782496456
1590514202.583359,-0.02168809193673474,-4.238311908063266,8.671559540316327,0.4311111111111111,0.4122222222222222,-0.7477777777777778,-0.0034426118058486655,-0.0012749730473238876,0.0007225462528415926
1590514202.593359,-0.03267826530984426,-4.24,8.692678265309844,0.4311111111111111,0.4122222222222222,-0.7477777777777778,-0.001597354716258807,0.0002921534243670524,0.001090830782496456
1590514202.603359,-0.04,-4.24,8.72472861730517,0.4377054090591564,0.4155193711962449,-0.7620654233318759,-0.0010789894786021527,0.002169820261098609,-0.0005276534354067735
1590514202.613359,-0.04632901579508382,-4.221012952614749,8.743670984204917,0.4444444444444444,0.4188888888888889,-0.7766666666666666,-0.0008008845145561691,0.001891715297052625,-0.002181661564992912
1590514202.623359,-0.05,-4.232170287841071,8.673489136476787,0.4444444444444444,0.4188888888888889,-0.7766666666666666,0.0,-0.0013275724608882722,-0.002181661564992912
1590514202.633359,-0.03522930993597344,-4.24,8.679541380128052,0.4444444444444444,0.4188888888888889,-0.7766666666666666,0.0016112323400554718,0.00023518694509029603,-0.002181661564992912
1590514202.643359,-0.023981858174527474,-4.227963716349055,8.71407256730189,0.4444444444444444,0.4188888888888889,-0.7766666666666666,0.002181661564992912,0.0017473082181619403,-0.0002122292579964588
1590514202.653359,-0.03975634424420743,-4.233170896162805,8.743170896162805,0.4444444444444444,0.4188888888888889,-0.7715446514922425,0.0014633006166203072,0.0007449396682477024,-0.00034589111424875355
1590514202.663359,-0.02536086391360864,-4.233840215978402,8.762319568043196,0.4444444444444444,0.4188888888888889,-0.7688888888888888,0.001090830782496456,0.0,0.00025302562236129166
1590514202.673359,-0.0442480195186602,-4.23,8.687804753155216,0.4444444444444444,0.4188888888888889,-0.7688888888888888,0.001090830782496456,0.0,-0.0011506968533331844
1590514202.683359,-0.052212713331684396,-4.237787286668316,8.673361860004947,0.4444444444444444,0.4188888888888889,-0.7688888888888888,-0.0006080916194881306,0.0008494612009922933,-0.0004827391630083254
1590514202.693359,-0.04032005397793945,-4.24,8.699359892044122,0.4444444444444444,0.4188888888888889,-0.7688888888888888,-3.491247311967951e-05,-0.001021005836257097,-0.0010559183093767765
1590514202.703359,-0.03221277152577859,-4.237787228474222,8.726638314577336,0.441494082410073,0.4174137078717032,-0.7674137078717032,0.0008494548530013622,-0.0018242367705188051,-0.002181661564992912
1590514202.7133589,-0.036272833747714055,-4.226272833747714,8.742545667495428,0.4311111111111111,0.4122222222222222,-0.7622222222222222,-0.00040657076794754586,0.002459350811594276,-0.0005553784932027285
1590514202.7233589,-0.025585676166905137,-4.233242971499284,8.685856761669053,0.4311111111111111,0.4122222222222222,-0.7622222222222222,-0.001090830782496456,0.001090830782496456,0.002181661564992912
1590514202.7333589,-0.04546557392230402,-4.237267213038848,8.66183196740288,0.4311111111111111,0.4122222222222222,-0.7622222222222222,-0.00039636498428674994,-0.0002981008139229561,0.0007927299685734999
1590514202.7433589,-0.04915058074649692,-4.235424709626752,8.707123548133758,0.4311111111111111,0.4122222222222222,-0.7622222222222222,-0.0011834880493930878,-0.0022743188318895442,0.0011834880493930878
1590514202.7533588,-0.0444097345920912,-4.24,8.734409734592091,0.43699075723389935,0.4122222222222222,-0.7676118978347781,0.00022347555285335543,-0.003272492347489368,0.002181661564992912
1590514202.7633588,-0.03919175707774283,-4.24,8.745404121461128,0.4444444444444444,0.4122222222222222,-0.7744444444444445,0.0026829941432744892,-0.0026829941432744892,0.0010026651565631544
1590514202.7733588,-0.051653646173542705,-4.254435764115695,8.677821179421525,0.4444444444444444,0.4122222222222222,-0.7744444444444445,-0.00018038481494578621,0.00018038481494578621,0.0007873487933128993
1590514202.7833588,-0.03960839251971069,-4.2396083925197106,8.67718880997372,0.4444444444444444,0.4122222222222222,-0.7744444444444445,0.00039208876044251545,0.0018322905539659416,0.0025737503254354274
1590514202.7933588,-0.03,-4.23,8.722599236869968,0.4444444444444444,0.4122222222222222,-0.7744444444444445,0.001683501633557369,0.002181661564992912,0.0020871506453675422
1590514202.8033588,-0.035888724310312904,-4.241777448620626,8.744111275689686,0.441172930938715,0.4076421033142011,-0.7711729309387151,0.0015393013902604588,0.0008969412155280059,0.0017331909572289089
1590514202.8133588,-0.03418233560321171,-4.238364671206424,8.722547006809636,0.4388888888888889,0.4044444444444445,-0.7688888888888888,0.001090830782496456,0.0,0.0002778353431178084
1590514202.8233588,-0.03,-4.2364608593112205,8.658313125510237,0.4388888888888889,0.4044444444444445,-0.7688888888888888,-0.00031871006111520734,0.002114311265417495,0.001023480482921039
1590514202.8333588,-0.03,-4.234689684240104,8.65655157879948,0.4388888888888889,0.4044444444444445,-0.7688888888888888,-0.0005115651929293906,0.0026932267579223026,0.0016023959754258466
1590514202.8433588,-0.04052877639851685,-4.2264904078671615,8.697547960664195,0.4388888888888889,0.4044444444444445,-0.7688888888888888,0.00038283711325081164,0.0017988244517421004,0.0007079936692456443
1590514202.8533587,-0.05647984242300215,-4.227040315153996,8.733520157576999,0.440844531987221,0.40952911650010804,-0.7665421171708903,0.000322851533650977,0.001090830782496456,-0.0003839896244227395
1590514202.8633587,-0.05,-4.236737883905428,8.74,0.4444444444444444,0.4188888888888889,-0.7622222222222222,-2.3305786885479242e-05,0.0003791474520891381,-2.3305786885479242e-05
1590514202.8733587,-0.03561383002790137,-4.2328772339944205,8.711227660055803,0.4444444444444444,0.4188888888888889,-0.7622222222222222,0.002181661564992912,0.00047845692228268137,0.001553946483081257
1590514202.8833587,-0.013100952886127266,-4.248733968590751,8.670568890067631,0.4444444444444444,0.4188888888888889,-0.7622222222222222,0.002181661564992912,0.003886959040378377,0.00047636408960744696
1590514202.8933587,-0.03317693288573138,-4.253646134228537,8.716353865771463,0.4444444444444444,0.4188888888888889,-0.7622222222222222,0.0014885623278566933,0.00223284349178504,0.001090830782496456
1590514202.9033587,-0.02935097184910942,-4.232900647899406,8.737099352100595,0.44681089514464234,0.42322738183925174,-0.7645886729224202,0.0,0.0,0.0007036211921410307
1590514202.9133587,-0.03487441860465116,-4.229949767441861,8.75994976744186,0.4511111111111111,0.4311111111111111,-0.7688888888888888,0.001628026890639362,-0.0010853512604262414,-0.001628026890639362
1590514202.9233587,-0.05016581654707357,-4.2350829082735375,8.706077807555978,0.4511111111111111,0.4311111111111111,-0.7688888888888888,0.0016633778428139527,-0.0005725470603174965,-0.0027361208459308964
1590514202.9333587,-0.04,-4.23,8.663742477574656,0.4511111111111111,0.4311111111111111,-0.7688888888888888,-0.0005179805078233426,0.001090830782496456,-0.0006277200415228837
1590514202.9433587,-0.04523129682782272,-4.2247687031721775,8.705693890483468,0.4511111111111111,0.4311111111111111,-0.7688888888888888,0.0011917530623695766,0.0005201848212799478,-0.0006211071011530686
1590514202.9533587,-0.03513225268898652,-4.224955915770338,8.734867747311014,0.4511111111111111,0.42174993687825074,-0.7611796865794744,0.0011100661563917128,0.0010812130955488277,-1.9235373895256595e-05
1590514202.9633586,-0.03184195126518574,-4.224079024367407,8.732237073102223,0.4511111111111111,0.4122222222222222,-0.7533333333333333,0.0008468039622366627,0.001535783316748539,0.001535783316748539
1590514202.9733586,-0.0461690403099995,-4.238507120929999,8.670647677520005,0.4511111111111111,0.4122222222222222,-0.7533333333333333,-0.00051009006245066,0.000417892875635563,0.001090830782496456
1590514202.9833586,-0.03719236853458607,-4.230788552801879,8.665615262930828,0.4511111111111111,0.4122222222222222,-0.7533333333333333,-8.601776699135527e-05,0.0020956437980015567,-0.0017033609481722858
1590514202.9933586,-0.03427922418312074,-4.224279224183121,8.697116896732483,0.4511111111111111,0.4122222222222222,-0.7533333333333333,-0.0003095420567489507,0.001405328561828826,-0.001405328561828826
1590514203.0033586,-0.04,-4.232079694131678,8.724159388263356,0.44695172284775564,0.4122222222222222,-0.755181950339269,-0.001954802127291783,-0.0006371119070941978,0.0015445496578987141
1590514203.0133586,-0.04,-4.24,8.74674375272094,0.4311111111111111,0.4122222222222222,-0.7622222222222222,-0.0007230161296191574,0.001090830782496456,0.002169048388857472
1590514203.0233586,-0.04,-4.23843305878553,8.745897529069767,0.4311111111111111,0.4122222222222222,-0.7622222222222222,0.0,0.0007489772402751425,-0.00017092677111065673
1590514203.0333586,-0.03424101526174717,-4.23,8.698794923691265,0.4311111111111111,0.4122222222222222,-0.7622222222222222,0.0012564155656826965,-0.0004626229996551077,0.00016558478318624056
1590514203.0433586,-0.03,-4.215578244899444,8.729614503400372,0.4311111111111111,0.4122222222222222,-0.7622222222222222,8.410231148461584e-05,-0.001048779626754148,0.001090830782496456
1590514203.0533586,-0.03,-4.205593114110225,8.74,0.43483985385126067,0.4100471222904683,-0.764086593592297,-0.0018766045129205106,-0.001266490408775708,0.001090830782496456
1590514203.0633585,-0.03,-4.228129334446825,8.726451109255292,0.4444444444444444,0.4044444444444445,-0.7688888888888888,-0.000795239840636282,0.00138642172435663,0.001090830782496456
1590514203.0733585,-0.026100618836160005,-4.24610061883616,8.67440247534464,0.4444444444444444,0.4044444444444445,-0.7688888888888888,0.0012760695018610567,0.0013309485637522074,0.0006654742818761037
1590514203.0833585,-0.02,-4.237289293849659,8.658132118451025,0.4444444444444444,0.4044444444444445,-0.7688888888888888,0.0026811080052703325,0.0005913843422190354,-0.0005913843422190354
1590514203.0933585,-0.02,-4.234095893064704,8.696383572258814,0.4444444444444444,0.4044444444444445,-0.7688888888888888,0.001090830782496456,0.0012880763176344244,-0.0012880763176344244
1590514203.1033585,-0.023326467260436915,-4.243326467260437,8.72997940178131,0.4444444444444444,0.4070316967581176,-0.7736937860428533,0.00036510820556620767,-0.00036286128846512415,-0.00036286128846512415
1590514203.1133585,-0.025864989957208977,-4.245864989957209,8.741729979914417,0.4444444444444444,0.4122222222222222,-0.7833333333333333,0.0002623480896860747,-0.00018871153437476898,0.0002623480896860747
1590514203.1233585,-0.032827369137412805,-4.24,8.695793682300232,0.4444444444444444,0.4122222222222222,-0.7833333333333333,0.0026480778687774085,0.0001579981749274626,0.0003159963498549252
1590514203.1333585,-0.04488515340307982,-4.23488515340308,8.685803926178442,0.4444444444444444,0.4122222222222222,-0.7833333333333333,0.0015986627127890344,-0.0016487739940632337,-0.0010657751418593562
1590514203.1433585,-0.036202472591555866,-4.233797527408444,8.727595054816888,0.4444444444444444,0.4122222222222222,-0.7833333333333333,-0.0004142459794504852,-0.00011043166774048555,0.0004142459794504852
1590514203.1533585,-0.028154431266576588,-4.238154431266577,8.741845568733424,0.4407533069775976,0.410786779874004,-0.7816928277925125,-0.0012921511010595811,0.002869851710363118,0.0008895104639333308
1590514203.1633584,-0.021820074725616874,-4.231820074725618,8.753640149451234,0.4244444444444445,0.4044444444444445,-0.7744444444444445,-0.0015860435038489084,0.001090830782496456,0.00039707870742933574
1590514203.1733584,-0.029982096987623566,-4.239982096987624,8.769964193975246,0.4244444444444445,0.4044444444444445,-0.7744444444444445,0.0010849720353965685,0.001090830782496456,0.0021777557335929867
1590514203.1833584,-0.03231743914638213,-4.23,8.64457152384128,0.4244444444444445,0.4044444444444445,-0.7744444444444445,-0.0010042626843857,0.00025279339574359346,-0.0009246054848636182
1590514203.1933584,-0.027968334541938603,-4.23,8.707968334541938,0.4244444444444445,0.4044444444444445,-0.7744444444444445,-0.002190296979091718,-0.0023946464730329195,0.001090830782496456
1590514203.2033584,-0.042422431256142326,-4.23,8.722422431256144,0.42794351181442786,0.40794351181442784,-0.7730986493021432,0.001090830782496456,-0.003834830613449504,0.001090830782496456
