time,acc_x,acc_y,acc_z,mag_x,mag_y,mag_z,gyr_x,gyr_y,gyr_z
1590514342.2763436,0.06,-4.22,8.8,0.4633333333333333,0.3511111111111111,-0.5755555555555556,0.01308996938995747,-0.02617993877991494,0.0
1590514342.2863436,-0.06221821559307217,-4.3040250232202375,8.960411407965907,0.4633333333333333,0.3511111111111111,-0.5755555555555556,0.003924261207096057,-0.01951396919237937,0.0024997385953258403
1590514342.2963436,-0.004470378795371377,-4.26312926515676,8.94312926515676,0.47076341498258223,0.3649098341740019,-0.6031530016813371,0.0073432298695105605,-0.017453292519943295,0.00014629280398231574
1590514342.3063436,0.06,-4.27983870967742,8.829193548387098,0.4711111111111111,0.3655555555555556,-0.6044444444444445,-0.0032109131904129555,-0.018456153078044876,0.0021728645425534245
1590514342.3163435,0.06,-4.262755376344086,8.74377688172043,0.4711111111111111,0.3655555555555556,-0.6044444444444445,0.0033113458632637706,-0.00913864014422098,0.001241113249171035
1590514342.3263435,0.04139714436805923,-4.26,8.702095716552089,0.4711111111111111,0.3655555555555556,-0.6044444444444445,0.004363323129985824,0.0014958399270711565,0.002105459160779384
1590514342.3363435,0.0029081883045792567,-4.26,8.781601985729926,0.4711111111111111,0.3655555555555556,-0.6044444444444445,0.007600194328059984,0.008655403961141232,0.0005632259659558319
1590514342.3463435,-0.03261053894610539,-4.248694730526947,8.79304209579042,0.46671461742714615,0.35048186292481864,-0.6170058549700586,0.005643612273565806,0.013374735014089234,0.0
1590514342.3563435,-0.07994848990179729,-4.2549742449508985,8.787487122475449,0.4633333333333333,0.3388888888888889,-0.6266666666666667,0.002455773980635249,0.014454912588096263,0.002450155100562357
1590514342.3663435,-0.054113694738811675,-4.254018949123135,8.730189491231352,0.4633333333333333,0.3388888888888889,-0.6266666666666667,0.0047913873282574935,0.009613780086740907,0.0019676294658570763
1590514342.3763435,-0.0015931914233647398,-4.264203404288318,8.74681361715327,0.4633333333333333,0.3388888888888889,-0.6266666666666667,0.004220958102887881,-0.001201770611990784,0.00031615525179950403
1590514342.3863435,0.0032443503655357597,-4.249733051096607,8.790266948903392,0.4633333333333333,0.3388888888888889,-0.6266666666666667,0.005483273520599725,-0.006574104303096181,0.0
1590514342.3963435,0.016694611565900647,-4.2316526942170505,8.8166946115659,0.4633333333333333,0.3388888888888889,-0.6016247493178157,0.0029027854553975783,-0.015830763766532797,-0.001821099619790579
1590514342.4063435,-0.02315238228830598,-4.2386304764576614,8.725064758965727,0.4633333333333333,0.3388888888888889,-0.5966666666666667,0.002181661564992912,-0.011804658887366613,0.0015840941900582095
1590514342.4163435,-0.03954958054357319,-4.230450419456427,8.624053775107841,0.4633333333333333,0.3388888888888889,-0.5966666666666667,0.005306754490050573,-0.008824912541592785,0.002181661564992912
1590514342.4263434,-0.022040479325195813,-4.247959520674804,8.727757124048825,0.4633333333333333,0.3388888888888889,-0.5966666666666667,0.006433693812030176,-0.0028494068626842683,0.002181661564992912
1590514342.4363434,-0.02,-4.25,8.861902486760304,0.4633333333333333,0.3388888888888889,-0.5966666666666667,0.0049805731064963095,-0.001399455770751699,0.000617249976510486
1590514342.4463434,-0.004826354988981561,-4.234826354988982,8.902413177494491,0.4633333333333333,0.3481616719511779,-0.612683291956075,0.002708135223916555,-0.00026323682946182163,0.0016551879060692687
1590514342.4563434,0.0,-4.26628951384347,8.86371048615653,0.4633333333333333,0.3511111111111111,-0.6177777777777778,-0.0007872673436787703,-0.003958571878228909,0.003171304534550139
1590514342.4663434,0.0,-4.260693984980562,8.673879699611234,0.4633333333333333,0.3511111111111111,-0.6177777777777778,-0.001090830782496456,-0.0023330656008702846,0.002257363582931598
1590514342.4763434,-0.01731244737891612,-4.234031328931626,8.694624894757832,0.4633333333333333,0.3511111111111111,-0.6177777777777778,-0.00014658325643286674,-0.00501440414318368,0.0002931665128657335
1590514342.4863434,-0.012909766412394767,-4.244180467175211,8.721270700762815,0.4633333333333333,0.3511111111111111,-0.6177777777777778,0.0007734245052450071,-0.00545415391248228,0.0007734245052450071
1590514342.4963434,-0.03878109386978244,-4.242804726532555,8.794757461207011,0.46892965714134655,0.3567074349191244,-0.6081840798211836,0.004230361097204329,-0.0046692713338053115,0.0018757133611734243
1590514342.5063434,-0.008494939861177345,-4.264903036083293,8.78679595188894,0.4711111111111111,0.3588888888888889,-0.6044444444444445,2.1154245026954246e-05,-0.0025523232408340485,0.0012761616204170242
1590514342.5163434,-0.01687191338482968,-4.264376028871723,8.76312808661517,0.4711111111111111,0.3588888888888889,-0.6044444444444445,-0.001090830782496456,-0.0003412213170142927,0.002931271030475075
1590514342.5263433,-0.03554168766231249,-4.248916624675375,8.761083375324624,0.4711111111111111,0.3588888888888889,-0.6044444444444445,-0.001090830782496456,0.00048632643359332675,0.0079903492234046
1590514342.5363433,-0.054092403129484753,-4.244697467709829,8.793487338549141,0.4711111111111111,0.3588888888888889,-0.6044444444444445,-0.002115659258029213,-0.0020496569510655136,0.015007621727095587
1590514342.5463433,-0.07,-4.256517926231623,8.826517926231622,0.47328375318831856,0.35418149772160606,-0.6116865847018027,-0.002205999161765144,-0.006140811772859531,0.024967420013557326
1590514342.5563433,-0.03870591039084843,-4.264784318398474,8.813921591992374,0.4777777777777778,0.34444444444444444,-0.6266666666666667,0.0011378852085288341,-0.010955362250996938,0.04339366967782046
1590514342.5663433,0.009759093927543714,-4.253413635357485,8.730722718217368,0.4777777777777778,0.34444444444444444,-0.6266666666666667,0.002181661564992912,-0.009843755818420667,0.05592590343227791
1590514342.5763433,0.058791057528004564,-4.25,8.715516423011202,0.4777777777777778,0.34444444444444444,-0.6266666666666667,0.002181661564992912,-0.004495198296257823,0.05551970388383756
1590514342.5863433,0.04426591700981945,-4.23713295850491,8.784335207475452,0.4777777777777778,0.34444444444444444,-0.6266666666666667,0.0007780850707425427,-0.002570704100364183,0.040505774182319106
1590514342.5963433,-0.00784621641774183,-4.246219807036175,8.847033011726959,0.4669645730869944,0.35585838272916026,-0.6068424580668972,0.0,-0.00041235508487167446,0.018570471633923783
1590514342.6063433,-0.03203170506912442,-4.2520317050691245,8.846095115207373,0.4577777777777778,0.3655555555555556,-0.59,0.0017384122789219096,-0.0006475814964254536,0.0013297478582130068
1590514342.6163433,-0.03,-4.25,8.707056474982291,0.4577777777777778,0.3655555555555556,-0.59,0.0013286092742699446,-0.0019438830732194233,-0.0008530522907229674
1590514342.6263433,-0.022190064370301212,-4.25,8.693429806889096,0.4577777777777778,0.3655555555555556,-0.59,0.0019427626019155838,-0.0038855252038311676,-0.00023889896307732815
1590514342.6363432,-0.013780903425031538,-4.243780903425032,8.7,0.4577777777777778,0.3655555555555556,-0.59,0.0028600597633222998,-0.005720119526644599,-0.0006783981983293876
1590514342.6463432,0.003511525863667264,-4.253511525863667,8.733778814659168,0.4795463472247973,0.36105171360099986,-0.584745517719685,0.0047463711805478944,-0.005808045278449472,0.00038304805056207057
1590514342.6563432,0.002267932230063689,-4.244535864460127,8.788660338849683,0.49,0.3588888888888889,-0.5822222222222222,0.006297591666061805,-0.006297591666061805,0.0019342685360759814
1590514342.6663432,-0.03325456716721295,-4.24,8.75011814924918,0.49,0.3588888888888889,-0.5822222222222222,0.004731229418749143,-0.004731229418749143,0.003995416841222505
1590514342.6763432,-0.04731336481895766,-4.24,8.754626729637915,0.49,0.3588888888888889,-0.5822222222222222,0.0011722657427275691,-0.0011722657427275691,0.005958851823614951
1590514342.6863432,-0.040858377900831404,-4.244570811049584,8.782854055247922,0.49,0.3588888888888889,-0.5822222222222222,-0.0009971962787722977,-0.0024929906969307445,0.005547788416206438
1590514342.6963432,-0.018369955589882213,-4.25290751110253,8.81290751110253,0.4806313531140718,0.35662749136469934,-0.588683358005621,-0.002181661564992912,-0.005771314173591212,0.005631964174421555
1590514342.7063432,0.017626888364118656,-4.244746223271763,8.812373111635882,0.4577777777777778,0.3511111111111111,-0.6044444444444445,0.0011461962759049555,-0.0040490913143053356,0.005398788419073781
1590514342.7163432,0.00036593668444344016,-4.246544687771852,8.75109781005333,0.4577777777777778,0.3511111111111111,-0.6044444444444445,0.002895576253329363,-0.003986407035825819,0.003649408441649373
1590514342.7263432,-0.01,-4.240741732991768,8.73388740051235,0.4577777777777778,0.3511111111111111,-0.6044444444444445,0.0022625720829741987,-0.0018385224686979008,0.003777452479746953
1590514342.7363431,-0.01767941441680369,-4.233839707208402,8.757679414416803,0.4577777777777778,0.3511111111111111,-0.6044444444444445,0.00025313661875680236,0.00192852494623611,0.004363323129985824
1590514342.7463431,-0.0339206854652868,-4.243920685465287,8.785682741861146,0.4599559363696038,0.3511111111111111,-0.5987812321056969,-0.00023546990369220015,0.003700172786891496,0.0030802818117794404
1590514342.7563431,-0.0447160998394395,-4.254716099839439,8.786419500802802,0.4633333333333333,0.3511111111111111,-0.59,0.001090830782496456,0.0012766430030735046,0.003663064221590055
1590514342.766343,-0.044308304491098634,-4.26,8.742924913473296,0.4633333333333333,0.3511111111111111,-0.59,0.0004699631159258114,-0.004044264564704845,0.009028455361261314
1590514342.776343,-0.05381415698054068,-4.26690707849027,8.743814156980541,0.4633333333333333,0.3511111111111111,-0.59,0.001506890766861207,-0.00545415391248228,0.016182425508978783
1590514342.786343,-0.040566971232494115,-4.263522323744165,8.769433028767505,0.4633333333333333,0.3511111111111111,-0.59,0.002888266430884065,-0.008987178241938044,0.027023381693133584
1590514342.796343,-0.03,-4.2453126511852926,8.802031023222062,0.47394086303284416,0.3462153281728753,-0.5908159638230394,0.0024714217374720896,-0.009306166604930003,0.036440516352500896
1590514342.806343,-0.01614346308949205,-4.233071731544746,8.823856536910508,0.4777777777777778,0.34444444444444444,-0.5911111111111111,0.0029374184150319327,-0.007970889409932628,0.04422513218768813
1590514342.816343,0.08440063364768201,-4.216514195193189,8.755828073562537,0.4777777777777778,0.34444444444444444,-0.5911111111111111,0.006214638549491146,-0.006164742376474303,0.04690572364734761
1590514342.826343,0.04033394251536801,-4.263799634490779,8.77379963449078,0.4777777777777778,0.34444444444444444,-0.5911111111111111,0.0037233956515018585,-0.002193804057504502,0.030603974372458723
1590514342.836343,-0.015871886771751456,-4.279359433858757,8.81,0.4777777777777778,0.34444444444444444,-0.5911111111111111,0.0019914453790973227,0.0004503072983004333,0.011079115417227977
1590514342.846343,-0.006269681678491483,-4.238809045035475,8.798809045035474,0.4723895402022655,0.3423720453769397,-0.5931835101786158,0.003272492347489368,0.0019046599932188565,-0.0006839161771352558
1590514342.856343,-0.013591786535479386,-4.22,8.78,0.4633333333333333,0.3388888888888889,-0.5966666666666667,0.0017898584332871905,0.002531175390388279,0.0014826339142021772
1590514342.866343,-0.012790345093131828,-4.248838619627472,8.729532415651923,0.4633333333333333,0.3388888888888889,-0.5966666666666667,0.0003043794321376139,0.0013952102146340699,0.0006087588642752278
1590514342.876343,-0.0158407590600281,-4.2541592409399716,8.745044554360168,0.4633333333333333,0.3388888888888889,-0.5966666666666667,0.0025485119103294865,-0.000820553150250659,0.0006371279775823716
1590514342.886343,-0.024796980063701783,-4.25,8.784390940191106,0.4633333333333333,0.3388888888888889,-0.5966666666666667,0.004363323129985824,-0.0037514696199452257,-0.0015255159757574007
1590514342.896343,-0.03,-4.241705933864309,8.812441099203536,0.47761755834480074,0.3471829550245797,-0.5998921368305464,0.003910951997342179,-0.004549411647194989,-0.002553838599411243
1590514342.906343,-0.03,-4.2463252255786585,8.802791290702237,0.4977777777777778,0.3588888888888889,-0.6044444444444445,0.003272492347489368,-0.0008980845351695028,0.0005936019530799663
1590514342.916343,-0.03,-4.26,8.75427509798266,0.4977777777777778,0.3588888888888889,-0.6044444444444445,0.0027112620475449756,0.001090830782496456,-3.1629817392328334e-05
1590514342.926343,-0.03,-4.243927322426337,8.740715118382441,0.4977777777777778,0.3588888888888889,-0.6044444444444445,0.0033504996619590065,-7.800731446963843e-05,0.0006624263629526857
1590514342.936343,-0.03,-4.240245053426366,8.775612633565915,0.4977777777777778,0.3588888888888889,-0.6044444444444445,0.0032457611654057423,-0.002767173729366579,0.0010640996004128303
1590514342.946343,-0.02059287393742087,-4.245296436968711,8.818814252125158,0.47896352565261957,0.3520948533992484,-0.6044444444444445,0.0016685824307986121,-0.002311006593208625,-0.0010261582683885994
1590514342.956343,-0.003666836782035817,-4.227333673564072,8.79566785747425,0.4577777777777778,0.34444444444444444,-0.6044444444444445,0.0003999898436234916,0.0013816818777459287,-0.0007999796872469832
1590514342.966343,0.0,-4.240211893898383,8.729576212203233,0.4577777777777778,0.34444444444444444,-0.6044444444444445,0.000734925201230309,-2.3114038698014705e-05,-0.000734925201230309
1590514342.976343,-0.020016403526758254,-4.236655730982162,8.750032807053516,0.4577777777777778,0.34444444444444444,-0.6044444444444445,0.0025464647239536913,0.00036480315896077913,0.00036480315896077913
1590514342.986343,-0.03,-4.240439564636242,8.790879129272485,0.4577777777777778,0.34444444444444444,-0.6044444444444445,0.0004255427322207863,-0.0006173389866646927,0.0022296106286038885
1590514342.996343,-0.02636724960254372,-4.253632750397456,8.81,0.4597959724430313,0.3468662780427486,-0.6016189719130896,-0.0017853899691257574,-0.0037667479484615298,0.0028762207516222138
1590514343.006343,-0.024690501600853787,-4.264690501600853,8.819381003201707,0.4633333333333333,0.3511111111111111,-0.5966666666666667,-0.001090830782496456,-0.005521675988666692,0.00013504415236882455
1590514343.0163429,-0.010085073105997773,-4.27,8.756978601388658,0.4633333333333333,0.3511111111111111,-0.5966666666666667,0.002529805098694238,-0.00653570465870024,-0.002905788741231051
1590514343.0263429,0.0,-4.27,8.753381266536095,0.4633333333333333,0.3511111111111111,-0.5966666666666667,0.0054037035041656035,-0.008156005664565081,-0.0022321119733095885
1590514343.0363429,-0.005863388256899455,-4.26120491761465,8.798795082385348,0.4633333333333333,0.3511111111111111,-0.5966666666666667,0.006544984694978735,-0.00840684803995394,-0.0017304272225318724
1590514343.0463428,-0.04908084028118359,-4.231275747915645,8.825816168056237,0.4617177310954898,0.34917238842569887,-0.5966666666666667,0.005910539179787177,-0.009856374780645648,-0.003272492347489368
1590514343.0563428,-0.15969362386662767,-4.188830067271132,8.842646241591108,0.4577777777777778,0.34444444444444444,-0.5966666666666667,0.0040746629514354675,-0.017580912383353235,-0.002406511811838299
1590514343.0663428,-0.3929264172193718,-4.07536603679139,8.781707545989239,0.4577777777777778,0.34444444444444444,-0.5966666666666667,0.006997267899847511,-0.025488187435865287,0.007449551104716286
1590514343.0763428,-0.45671451490331844,-3.989569365870134,8.729856455290046,0.4577777777777778,0.34444444444444444,-0.5966666666666667,0.009459086214578742,-0.03277189837137878,0.03800858614542705
1590514343.0863428,-0.4546733840841629,-3.9759798477475115,8.762612927326698,0.4577777777777778,0.34444444444444444,-0.5966666666666667,0.005750171417196652,-0.030768022875605462,0.08496957910101116
1590514343.0963428,-0.5692031563743968,-3.7449712896748513,8.634440060591116,0.46660764121291826,0.3407653346798026,-0.6106472837723058,-0.0014302960001162713,-0.021845589701783925,0.15715833143041624
1590514343.1063428,-0.6551946569243065,-3.6048832058454163,8.640700764927503,0.4711111111111111,0.3388888888888889,-0.6177777777777778,-0.008219451666434136,-0.019451733369419737,0.19172169841557188
1590514343.1163428,-0.7879675738274464,-3.504105385060799,9.010324261725536,0.4711111111111111,0.3388888888888889,-0.6177777777777778,-0.035549587782550976,-0.01767499582316058,0.2763307444766905
1590514343.1263428,-0.8449407371667121,-3.354275315194361,8.793919738194633,0.4711111111111111,0.3388888888888889,-0.6177777777777778,-0.03103548474091251,-0.020982331132354683,0.3987001269844444
1590514343.1363428,-0.8878448731868928,-3.195861521757287,8.92823269021966,0.4711111111111111,0.3388888888888889,-0.6177777777777778,-0.018567689790571863,-0.04081217689835316,0.48369430329244645
1590514343.1463428,-0.39911889571425185,-2.7303901525033796,8.785972297986387,0.47429130859863966,0.33570869140136034,-0.6050569878276636,-0.0395396988251833,-0.050478897524950425,0.5656784856592375
1590514343.1563427,0.015279135504387253,-2.5908674400800895,8.79643572227784,0.4777777777777778,0.3322222222222222,-0.5911111111111111,-0.07328958694990757,-0.01743642996294398,0.6323561334850301
1590514343.1663427,0.1470550911039657,-2.6503729903536977,8.672944908896033,0.4777777777777778,0.3322222222222222,-0.5911111111111111,-0.053613456086081444,-0.035409185615213036,0.6551502555049756
1590514343.1763427,0.24453232242617717,-2.651630752859803,8.754196860867252,0.4777777777777778,0.3322222222222222,-0.5911111111111111,-0.025253907891374255,-0.03041505519542699,0.6818085020038529
1590514343.1863427,0.10966782791865835,-2.762462124280969,8.844259904399255,0.4777777777777778,0.3322222222222222,-0.5911111111111111,-0.027646457940957332,-0.03388822296367281,0.7479901707202142
1590514343.1963427,-0.021099383226298722,-2.839162268709862,8.84471196032301,0.46855150025080716,0.3322222222222222,-0.5946596793907152,-0.01730482661481621,-0.05126904677733343,0.8412303258951523
1590514343.2063427,-0.05,-2.85,8.87,0.4633333333333333,0.3322222222222222,-0.5966666666666667,-0.009817477042468105,-0.05126904677733343,0.8715737952146684
1590514343.2163427,-0.10405122807017544,-2.889871929824561,8.935820701754386,0.4633333333333333,0.3322222222222222,-0.5966666666666667,-0.019841944010260446,-0.0770350057065999,0.9485135733076944
1590514343.2263427,-0.1549424172626985,-2.8538824908069667,8.825645128702469,0.4633333333333333,0.3322222222222222,-0.5966666666666667,-0.012550835300948129,-0.09119370907672467,1.009840376697266
1590514343.2363427,-0.2154032146000278,-2.884314465700125,8.785927324100236,0.4633333333333333,0.3322222222222222,-0.5966666666666667,-0.008018482897514884,-0.10253809355466686,1.046102299287904
1590514343.2463427,-0.26239689387402937,-2.9356013805004317,8.97839344262295,0.47093260473588344,0.32782264404179845,-0.5966666666666667,-0.027312934548654577,-0.09547018773565445,1.09008762461392
1590514343.2563426,-0.3324024241567574,-2.9224024241567577,9.025585455059455,0.4844444444444445,0.32,-0.5966666666666667,-0.0455222417596437,-0.08696182328406125,1.128997871673384
1590514343.2663426,-0.35,-2.9309269507470948,8.929073049252905,0.4844444444444445,0.32,-0.5966666666666667,-0.03107539657219774,-0.09107108960950282,1.1558016176997512
1590514343.2763426,-0.3655791657723403,-2.9294739572154254,8.946105208556915,0.4844444444444445,0.32,-0.5966666666666667,-0.03364360715869288,-0.08896588595872487,1.1820473020244686
1590514343.2863426,-0.3943183766000387,-2.9621591883000193,8.929204058499902,0.4844444444444445,0.32,-0.5966666666666667,-0.04033579861184401,-0.09115872391712884,1.1961952469265635
1590514343.2963426,-0.41569428140197884,-2.975694281401979,8.872917155794063,0.49203681964708296,0.31430571859802114,-0.6052080887696349,-0.029603899832402976,-0.08851639954908805,1.2092540192879444
1590514343.3063426,-0.43800675675675677,-3.0006756756756756,8.824662162162163,0.5111111111111111,0.3,-0.6266666666666667,-0.032142655692344896,-0.08966923851251273,1.2156940547009996
1590514343.3163426,-0.4695147301602065,-3.0204852698397935,8.705337968237728,0.5111111111111111,0.3,-0.6266666666666667,-0.03158115796449083,-0.09822770515258741,1.2151325569731455
1590514343.3263426,-0.5086006389776357,-3.0195335463258783,8.637667731629392,0.5111111111111111,0.3,-0.6266666666666667,-0.03168497489503125,-0.09968381109184067,1.2121165281640989
1590514343.3363426,-0.5629386606432023,-3.064407990964803,8.754992871822406,0.5111111111111111,0.3,-0.6266666666666667,-0.035547701337669775,-0.10504031326855137,1.204213383271731
1590514343.3463426,-0.609283782321757,-3.116905405892748,8.86,0.5128303300595847,0.2896846863091589,-0.6225405411903302,-0.03553160287220307,-0.10570739973812261,1.197810326410148
1590514343.3563426,-0.6555286027863638,-3.1253171616718185,8.972325852260001,0.5166666666666667,0.26666666666666666,-0.6133333333333333,-0.02469361281585082,-0.10040256128496028,1.1888671650352778
1590514343.3663425,-0.6754658903707716,-3.1263976711123145,8.953044930381603,0.5166666666666667,0.26666666666666666,-0.6133333333333333,-0.03262328196335242,-0.10055971501275647,1.1814713789552032
1590514343.3763425,-0.6803532481694968,-3.0961956691073373,8.831059744508492,0.5166666666666667,0.26666666666666666,-0.6133333333333333,-0.0300512069900194,-0.09666895151773275,1.1814082708413767
1590514343.3863425,-0.7118651204281891,-3.0803819803746655,8.906314540588761,0.5166666666666667,0.26666666666666666,-0.6133333333333333,-0.024525301257562603,-0.09364966181218151,1.1825806861135724
1590514343.3963425,-0.7717302408563782,-3.132763960749331,8.98862908117752,0.5166666666666667,0.26666666666666666,-0.6133333333333333,-0.032688140777678364,-0.09283337786016994,1.1776829824015032
1590514343.4063425,-0.8079331324715716,-3.14,8.876778112547381,0.5244444444444445,0.2588888888888889,-0.6266666666666667,-0.02836160034490785,-0.08726646259971647,1.1693705988362009
1590514343.4163425,-0.8568510059286617,-3.14,8.79524832345223,0.5244444444444445,0.2588888888888889,-0.6266666666666667,-0.02836160034490785,-0.08726646259971647,1.1693705988362009
1590514343.4263425,-0.8535124980224648,-3.1535124980224647,8.721756249011232,0.5244444444444445,0.2588888888888889,-0.6266666666666667,-0.025929730224184513,-0.08791550777816437,1.1569453571507726
1590514343.4363425,-0.8702895354426443,-3.1705790708852883,8.7313029094919,0.5244444444444445,0.2588888888888889,-0.6266666666666667,-0.01963495408493621,-0.08077674888509326,1.1342666174379017
1590514343.4463425,-0.9130149378875135,-3.248492531056243,8.911507468943757,0.5264544030361201,0.25302650966316814,-0.6275041494131982,-0.01947051473218548,-0.08769953597121001,1.1017667455931286
1590514343.4563425,-0.9274290074063047,-3.24,8.922570992593695,0.5377777777777778,0.22,-0.6322222222222222,-0.01854412330243975,-0.08413419614536577,1.0661476962585277
1590514343.4663424,-0.9421785380891388,-3.2319553654777153,8.863575972038294,0.5377777777777778,0.22,-0.6322222222222222,-0.022493024039318566,-0.0881561682745182,1.01569155054559
1590514343.4763424,-0.99,-3.2013936670282557,8.809540265509582,0.5377777777777778,0.22,-0.6322222222222222,-0.027143818699610398,-0.0890672715763064,0.9777636559759072
1590514343.4863424,-1.0006842923794712,-3.1593157076205287,8.931368584758943,0.5377777777777778,0.22,-0.6322222222222222,-0.020427205990730675,-0.07707576196137089,0.9443761470032419
1590514343.4963424,-1.0360551922156644,-3.1592662306587975,8.931467538682405,0.5395616880239628,0.21357792311373425,-0.6322222222222222,-0.013400218438480549,-0.06443905798575451,0.9212115549309229
1590514343.5063424,-1.065226621696544,-3.195226621696544,8.888187026427648,0.5433333333333333,0.2,-0.6322222222222222,-0.021048714928366227,-0.06364055663024239,0.9051160605956392
1590514343.5163424,-1.0972447034125232,-3.1982766007583385,8.859648893554123,0.5433333333333333,0.2,-0.6322222222222222,-0.02211717188318182,-0.06447157870621006,0.8974903091448353
1590514343.5263424,-1.1708583690987124,-3.2134763948497853,8.777381974248927,0.5433333333333333,0.2,-0.6322222222222222,-0.016741677588872645,-0.06075412474015669,0.8910214822124806
1590514343.5363424,-1.2079240099080375,-3.2096200495401876,8.822455940551775,0.5433333333333333,0.2,-0.6322222222222222,-0.01700038174064922,-0.06308317616088614,0.8781794506363391
1590514343.5463424,-1.2019531361216296,-3.1797656806081487,8.858281183270222,0.5433333333333333,0.2,-0.6322222222222222,-0.015697739155726267,-0.06568846133073204,0.8658043460795711
1590514343.5563424,-1.1390775129006467,-3.063025837633549,8.85,0.5433333333333333,0.17333333333333334,-0.67,-0.019094236108024985,-0.06970314751865614,0.8369784882007848
1590514343.5663424,-1.207666618213533,-3.0858888727378444,8.85,0.5433333333333333,0.17333333333333334,-0.67,-0.02325085318686873,-0.06887182410288739,0.8228459901327161
1590514343.5763423,-1.2738164852255054,-3.1174556765163297,8.75,0.5433333333333333,0.17333333333333334,-0.67,-0.016104258867935237,-0.06751207696409947,0.8006311148160986
1590514343.5863423,-1.2968388985454213,-3.1021074009697194,8.75,0.5433333333333333,0.17333333333333334,-0.67,-0.02112697029527936,-0.07337190696266763,0.7872372176765143
1590514343.5963423,-1.35,-3.1357314550105326,8.92861721336142,0.548866632393754,0.17443999314541747,-0.67,-0.014029961549355185,-0.0632725554373951,0.7567348858063428
1590514343.6063423,-1.35,-3.11206515197111,8.865507071922961,0.5795451733707827,0.1805757013408232,-0.67,-0.007145713052477536,-0.05724883800262715,0.7429663888125876
1590514343.6163423,-1.4170187613668994,-3.1842251364027954,8.91391930697808,0.5822222222222222,0.1811111111111111,-0.67,-0.020997161262924988,-0.05423680191426322,0.720503964577177
1590514343.6263423,-1.431037194119469,-3.1150265672281923,8.696223164716814,0.5822222222222222,0.1811111111111111,-0.67,-0.0102700383516446,-0.05237146969995697,0.7130697068408633
1590514343.6363423,-1.47735350392128,-3.13412102352768,8.96882803137024,0.5822222222222222,0.1811111111111111,-0.67,-0.02874721330397333,-0.06387856530982922,0.7052540613703954
1590514343.6463423,-1.47838300303732,-3.09419150151866,8.87227648633206,0.5819893610267411,0.1780839155698567,-0.6744243627141411,-0.021183006755576154,-0.05482237400675681,0.7057152923373448
1590514343.6563423,-1.529065727794801,-3.078223787008665,8.809440532478337,0.5811111111111111,0.16666666666666666,-0.6911111111111111,-0.021867572293962214,-0.05964906832448396,0.7041771908477902
1590514343.6663423,-1.5656551472123617,-3.003482720818542,8.867033827521404,0.5811111111111111,0.16666666666666666,-0.6911111111111111,-0.01584335475199906,-0.05795696242157434,0.7132115138632042
1590514343.6763422,-1.5560164074689216,-3.0040656298756856,8.607401982988575,0.5811111111111111,0.16666666666666666,-0.6911111111111111,-0.01563557062263215,-0.05421339500146574,0.7249679278243609
1590514343.6863422,-1.5810959601896477,-3.068321970142236,8.916712119431056,0.5811111111111111,0.16666666666666666,-0.6911111111111111,-0.037222671698369236,-0.055871471329570925,0.7286114687564786
1590514343.6963422,-1.6046340325351547,-3.093219580478907,8.842878321915629,0.5802764050610241,0.16666666666666666,-0.6942114478685774,-0.012935676605625484,-0.06346509434977413,0.7340120493703443
1590514343.7063422,-1.5601548283102504,-3.11990710301385,8.949628412055398,0.5733574177371501,0.16666666666666666,-0.7199105436429664,-0.020698762229540958,-0.07413933708265792,0.7330416636673549
1590514343.7163422,-1.5680995049694924,-3.0180995049694923,8.894600330020339,0.5733333333333334,0.16666666666666666,-0.72,-0.02211112196138596,-0.0615011475160534,0.7329181684528234
1590514343.7263422,-1.59,-3.0527856478696056,8.893851118525406,0.5733333333333334,0.16666666666666666,-0.72,-0.023721020164861262,-0.05683942550873508,0.7394222383014558
1590514343.7363422,-1.6001557366276777,-3.1559377053489293,8.95515902221054,0.5733333333333334,0.16666666666666666,-0.72,-0.028106060080773286,-0.05692777626172035,0.7481053412206641
1590514343.7463422,-1.6631980493438994,-3.134646603997562,8.775689306682922,0.5677816634048788,0.16448565348048808,-0.7287240527447143,-0.021269292905937907,-0.05286674342729101,0.7478839646781678
1590514343.7563422,-1.745046480164099,-3.1171295770959717,8.947129577095971,0.5422222222222223,0.15444444444444444,-0.7688888888888888,-0.030704889392403078,-0.04978935788671359,0.7250237526507748
1590514343.7663422,-1.690318743683433,-3.1154781155251494,8.851085866438623,0.5422222222222223,0.15444444444444444,-0.7688888888888888,-0.020600847725994978,-0.04644723211150316,0.7041975654419129
1590514343.7763422,-1.6662531860662702,-3.0825063721325403,8.560918800825343,0.5422222222222223,0.15444444444444444,-0.7688888888888888,-0.009565787599874856,-0.03876374891735586,0.6661050467180178
1590514343.7863421,-1.720715536360453,-3.1844677249912454,9.02197210225283,0.5422222222222223,0.15444444444444444,-0.7688888888888888,-0.030486154683806492,-0.03991336718228584,0.5963741363310424
1590514343.7963421,-1.6962491310118182,-3.1070302723882954,8.849528534411933,0.5390108632300379,0.149844389671856,-0.7707115521006692,-0.001652757200250903,-0.026384137779962624,0.5582673812498786
1590514343.8063421,-1.77,-3.1786031774366297,9.059485719385934,0.5011111111111111,0.09555555555555556,-0.7922222222222223,-0.04814892413482505,-0.0523037782473634,0.49202909683357926
1590514343.816342,-1.77,-3.1411674401999288,8.992101392359872,0.5011111111111111,0.09555555555555556,-0.7922222222222223,-0.05223252958914929,-0.044953288429579755,0.4528264844720664
1590514343.826342,-1.8180349595243213,-3.1737552833297515,8.655720323805431,0.5011111111111111,0.09555555555555556,-0.7922222222222223,-0.020630447554255096,-0.015038210828342679,0.3979342723722527
1590514343.836342,-1.822103935629117,-3.23,8.752853539564747,0.5011111111111111,0.09555555555555556,-0.7922222222222223,-0.04273101973984173,-0.019109980969879595,0.33873267771485194
1590514343.846342,-1.8857001509307394,-3.2268332494829224,8.904933199172676,0.49780361612660784,0.09119247706535985,-0.7884924938354421,-0.04321870462651647,-0.02084938674546499,0.2919680634551022
1590514343.856342,-1.9489540688966551,-3.2094643035446833,8.857359710434348,0.4488888888888889,0.02666666666666667,-0.7333333333333333,-0.038236124079570916,-0.005167531725349037,0.24498055252414294
1590514343.866342,-1.8867863287607534,-3.288825389444315,8.888058591025343,0.4488888888888889,0.02666666666666667,-0.7333333333333333,-0.039141778034713796,0.0020926907585526056,0.20189799164278652
1590514343.876342,-1.9332185200576917,-3.1854790133717943,8.693907399711541,0.4488888888888889,0.02666666666666667,-0.7333333333333333,-0.03378639486433934,0.007000575276516173,0.16688889655841585
1590514343.886342,-1.9206222754787925,-3.165751089808483,8.843991281532137,0.4488888888888889,0.02666666666666667,-0.7333333333333333,-0.050737682849690484,0.0031765096955328276,0.13446013420293368
1590514343.896342,-1.9513433342768185,-3.153246249646193,8.958097084630626,0.45550161964965247,0.025704814919646508,-0.7333333333333333,-0.041300990008676944,0.01244278840971665,0.10996633316600211
1590514343.906342,-1.8884287041150103,-3.1736784719137425,8.830499535597463,0.51,0.017777777777777778,-0.7333333333333333,-0.012170540399436693,0.025089107997418484,0.09949545845480767
1590514343.916342,-1.921528474739718,-3.1494905084200937,8.724585424219155,0.51,0.017777777777777778,-0.7333333333333333,-0.009560299908148082,0.024144300529485192,0.10035643198967394
1590514343.926342,-1.943999142811222,-3.142000285729593,8.791997428433667,0.51,0.017777777777777778,-0.7333333333333333,-0.021816148125976403,0.010254339215946423,0.10035643198967394
1590514343.936342,-1.915694705973144,-3.087129803982096,8.828564901991047,0.51,0.017777777777777778,-0.7333333333333333,-0.01285515202734784,0.012385517302128574,0.09785669703151968
1590514343.946342,-1.8768526007099862,-3.0612350671399904,8.815617533569995,0.51,0.017777777777777778,-0.7333333333333333,-0.010736643823446829,0.006029992690425538,0.08514564780811362
1590514343.956342,-1.9417008831287992,-3.0863115036127997,8.8826230072256,0.4918442481936002,-0.046776006422754896,-0.7656102254335996,-0.014768690279914743,0.003272492347489368,0.05883555152496539
1590514343.966342,-1.9251325225414133,-3.139734954917173,8.923156636611449,0.49,-0.05333333333333334,-0.7688888888888888,-0.002612733004014262,0.010506148319452863,0.036830646766916095
1590514343.976342,-1.9405089519211425,-3.084067592033796,8.76762623214645,0.49,-0.05333333333333334,-0.7688888888888888,0.003032206749655206,0.017749096160016766,-0.025384472759687693
1590514343.986342,-1.8868155300744316,-3.1070790585395294,8.867342587004627,0.49,-0.05333333333333334,-0.7688888888888888,-0.004498278054796791,0.01942253722767277,-0.07642442532319568
1590514343.996342,-1.8605168664622247,-3.0813783105659325,8.821378310565933,0.4900382864046092,-0.053869342997862654,-0.7671851438837778,0.004400910719814807,0.029602781486720246,-0.15971155464497444
1590514344.006342,-1.89,-3.1549604579347745,8.8932806105797,0.4922222222222222,-0.08444444444444445,-0.67,0.0076444422178654995,0.03927853491026272,-0.2611785637422989
1590514344.016342,-1.886234655032294,-3.139413362419265,8.839290602677616,0.4922222222222222,-0.08444444444444445,-0.67,0.012268498550459092,0.04492942979222928,-0.3427158052226549
1590514344.026342,-1.8709619141802745,-3.1761523432789023,8.756733399261922,0.4922222222222222,-0.08444444444444445,-0.67,0.008516789140378997,0.045919821424647476,-0.41025943397539033
1590514344.036342,-1.8789491246622019,-3.148407002702385,8.816847373986606,0.4922222222222222,-0.08444444444444445,-0.67,0.007232780995200682,0.04702035636405127,-0.46698292772993993
1590514344.046342,-1.8123127218382216,-3.258114808785461,8.817813509113714,0.4922222222222222,-0.07986608903477949,-0.6632469257707442,0.013314708885590698,0.04912025190801019,-0.5069649380087415
1590514344.056342,-1.356055275174237,-3.539939918288873,9.013944724825764,0.4922222222222222,-0.04,-0.6044444444444445,0.021606052015105483,0.06436557006528716,-0.5242540605355562
1590514344.0663419,-1.5328746171083198,-3.34534403716876,8.765871553974879,0.4922222222222222,-0.04,-0.6044444444444445,0.04515689157340098,0.08364954104374156,-0.5124919820044492
1590514344.0763419,-1.516450397655923,-3.369412485798003,8.492325539675896,0.4922222222222222,-0.04,-0.6044444444444445,0.034140205152094275,0.06846999947295765,-0.4388437742667567
1590514344.0863419,-1.7730182585019487,-3.343243820404677,8.837432865303507,0.4922222222222222,-0.04,-0.6044444444444445,-0.010957517798335415,0.012456092519951455,-0.2989473852119324
1590514344.0963418,-1.7450278949335327,-3.2760669478404782,8.78705021088036,0.4922222222222222,-0.04,-0.6044444444444445,-0.0024083477441006716,0.014288057531573188,-0.20734913463084595
1590514344.1063418,-1.7461416046869156,-3.2319291976565423,8.751929197656542,0.5191248967004151,0.006631302428867558,-0.6152055142357216,0.011865929164250097,0.008228527246399699,-0.057806235615138896
1590514344.1163418,-1.6452561030402877,-3.216034147072038,8.952504867455444,0.5255555555555556,0.017777777777777778,-0.6177777777777778,-0.011717649699532094,-0.0178300269492434,0.005031920550588896
1590514344.1263418,-1.5402337241592101,-3.2797273218142546,8.721246528849122,0.5255555555555556,0.017777777777777778,-0.6177777777777778,0.009690000288728354,0.004235846376246081,0.06853962261691642
1590514344.1363418,-1.5554658189949917,-3.2258696335175294,8.766397456984974,0.5255555555555556,0.017777777777777778,-0.6177777777777778,0.010661006614280865,-0.0040719725881417914,0.056069395720085305
1590514344.1463418,-1.6142308043736486,-3.1919230652087838,8.888461608747297,0.5255555555555556,0.017777777777777778,-0.6177777777777778,0.01090830782496456,0.0003566222282251688,0.004048629097402556
1590514344.1563418,-1.62,-3.1511837233041775,8.760261403895038,0.5203800519961125,0.05486888662045285,-0.6246784491903685,0.013448827193866753,0.0044781899410327175,-0.0612164558465151
1590514344.1663418,-1.65,-3.223485511005707,8.835657007337138,0.5188888888888888,0.06555555555555556,-0.6266666666666667,0.006139874411788211,0.016599335241687156,-0.16831228743244472
1590514344.1763418,-1.65,-3.176858000444675,8.804572000296451,0.5188888888888888,0.06555555555555556,-0.6266666666666667,0.01885555536957619,0.01829475936939222,-0.21747958713589155
1590514344.1863418,-1.5742228021529932,-3.1405251998042734,9.059013211547871,0.5188888888888888,0.06555555555555556,-0.6266666666666667,0.02835928737799015,0.0281897291108691,-0.2708651505933632
1590514344.1963418,-1.480157192953841,-3.149076618822378,8.554479489479693,0.5188888888888888,0.06555555555555556,-0.6266666666666667,0.0460827744660412,0.02539128378117683,-0.31190901542884986
1590514344.2063417,-1.4122654887829826,-3.0407032430547485,8.893671974892479,0.54,0.07777777777777778,-0.6044444444444445,0.023682934176904053,0.025617469251709168,-0.40843935272947446
1590514344.2163417,-1.5437424277999532,-2.938732331533224,8.817464663066447,0.54,0.07777777777777778,-0.6044444444444445,0.04418415335037477,0.03626737018837301,-0.4877220196448132
1590514344.2263417,-1.581064475587489,-2.9955742097650044,8.942212895117498,0.54,0.07777777777777778,-0.6044444444444445,0.02641674975934998,0.04617697698174156,-0.5446774877189715
1590514344.2363417,-1.6634130413272206,-2.965855074375804,8.95048550413932,0.54,0.07777777777777778,-0.6044444444444445,0.037008410412842835,0.04948656617252384,-0.5655293624853842
1590514344.2463417,-1.6011604934199677,-3.0211906725155844,8.860565157162176,0.54,0.07777777777777778,-0.6044444444444445,0.03625388824010875,0.05325917703619422,-0.5700564955217886
1590514344.2563417,-1.5995511284831674,-2.9403366536376243,8.969102256966336,0.5455555555555556,0.09777777777777777,-0.6133333333333333,0.022931928575822925,0.051244564633936084,-0.5691566059574779
1590514344.2663417,-1.5466662463749843,-2.9800003152187617,8.863332492749969,0.5455555555555556,0.09777777777777777,-0.6133333333333333,0.025816351442438032,0.04836014176732097,-0.5388701658580192
1590514344.2763417,-1.5592354428469,-2.95291746858372,8.7315291143062,0.5455555555555556,0.09777777777777777,-0.6133333333333333,0.017854939221510067,0.04262580076511973,-0.43800031795374134
1590514344.2863417,-1.451459687335324,-3.138102152741183,8.772774167105803,0.5455555555555556,0.09777777777777777,-0.6133333333333333,0.027692735448569445,0.021506081118370025,-0.23795214115922264
1590514344.2963417,-1.3777849991217286,-3.1217299998048285,8.969240002342058,0.5455555555555556,0.09777777777777777,-0.6133333333333333,0.012512374309661418,0.018827193858562723,-0.12633183866725184
1590514344.3063416,-1.3628117813889316,-3.0696824697225202,9.083446841943891,0.5455555555555556,0.11295290595670021,-0.6333006072529681,0.021885890010139013,0.006782428104038549,-0.04161472193204041
1590514344.3163416,-1.294772577344001,-2.994338706676365,8.611714508026184,0.5455555555555556,0.11888888888888888,-0.6411111111111111,0.025091395976190617,0.011622803002329032,0.033060795068354035
1590514344.3263416,-1.372813985351579,-3.065285441228708,8.803270691317511,0.5455555555555556,0.11888888888888888,-0.6411111111111111,0.0072914931237113186,-0.01236837040753437,0.002878351101106527
1590514344.3363416,-1.5009086568114443,-2.995123256600545,8.939915441395915,0.5455555555555556,0.11888888888888888,-0.6411111111111111,-0.011845717808004828,7.222866326074334e-05,-0.0927838817025248
1590514344.3463416,-1.3173178010783708,-2.6947018563100613,8.130446668390999,0.5455555555555556,0.11888888888888888,-0.6411111111111111,0.057337274547477814,0.04558735521292037,-0.16014626899602108
1590514344.3563416,-1.41,-2.94,9.28,0.5577777777777778,0.08444444444444445,-0.6322222222222222,0.006544984694978735,0.007635815477475192,-0.3108867730114899
1590514344.3663416,-1.4085489361702126,-2.932744680851064,9.242997872340425,0.5577777777777778,0.08444444444444445,-0.6322222222222222,0.010027287899356783,0.010643259153983507,-0.3253699886115168
1590514344.3763416,-1.394594051738741,-2.8465629310553444,8.787063620743895,0.5577777777777778,0.08444444444444445,-0.6322222222222222,0.051319967876465526,0.04994647087856912,-0.5162360439831988
1590514344.3863416,-1.4515912296067575,-2.927634161186408,9.024559030922019,0.5577777777777778,0.08444444444444445,-0.6322222222222222,0.00777426838471425,0.06304065301057035,-0.6007968132370112
1590514344.3963416,-1.345742173002984,-2.7719737838279173,8.956068464884284,0.5577777777777778,0.08444444444444445,-0.6322222222222222,0.036979718957591064,0.07390779740978033,-0.638831818634246
1590514344.4063416,-1.350911914714116,-2.766139893392645,8.288038884841047,0.5780817493491497,0.03368451551601454,-0.6339142198531699,0.058173779324038576,0.09125845065065866,-0.6920840884233377
1590514344.4163415,-1.4374742889566636,-2.882145305813651,9.083080833156014,0.5844444444444444,0.017777777777777778,-0.6344444444444445,-0.041436611656187214,0.026617694689367026,-0.7617094152519999
1590514344.4263415,-1.2570772354284747,-2.9221163607139835,8.201119406141611,0.5844444444444444,0.017777777777777778,-0.6344444444444445,0.062902967930313,0.09120592493182549,-0.7469002618536114
1590514344.4363415,-1.3280407748921412,-3.143877421537941,9.114774976736317,0.5844444444444444,0.017777777777777778,-0.6344444444444445,0.015489824795168035,0.06508031544919458,-0.7546411831817983
1590514344.4463415,-1.2487027972802374,-3.1590330225244183,8.887075369316294,0.5844444444444444,0.017777777777777778,-0.6344444444444445,0.017136849881039647,0.06830041577873852,-0.7381039531388951
1590514344.4563415,-1.1242869893301959,-3.2138086737798695,8.974286989330196,0.6377777777777778,-0.2966666666666667,-0.4266666666666667,0.027738407554972554,0.06680058479486656,-0.6846789324806412
1590514344.4663415,-1.0732386709399977,-3.2478408860400014,8.923238670939998,0.6377777777777778,-0.2966666666666667,-0.4266666666666667,0.022169899845501728,0.05937590784890544,-0.6521959708420613
1590514344.4763415,-1.0424568784181742,-3.222456878418174,8.864913756836348,0.6377777777777778,-0.2966666666666667,-0.4266666666666667,0.01881212716317931,0.05815374013312117,-0.6418728030293258
1590514344.4863415,-0.971669548433793,-3.1127825807229885,9.053878322409426,0.6377777777777778,-0.2966666666666667,-0.4266666666666667,0.02487663526789929,0.05993498654315674,-0.646619828043805
1590514344.4963415,-0.9766686604804552,-2.9966327718322607,8.773247599340426,0.6377777777777778,-0.2966666666666667,-0.4266666666666667,0.025089107997418484,0.06145056906332471,-0.6737778605017616
1590514344.5063415,-0.9196801292407109,-2.931382875605816,8.888513731825524,1.1768267815472986,0.07003984921917072,0.17174474959612268,0.022269160633685323,0.06405731951145342,-0.7483222525203191
1590514344.5163414,-0.9389344600938967,-2.93,9.031270610328638,1.2633333333333334,0.1288888888888889,0.2677777777777778,0.015504095700861552,0.07540592607815914,-0.8157291383702784
1590514344.5263414,-0.9987862598156979,-2.988543511778838,8.640680913621859,1.2633333333333334,0.1288888888888889,0.2677777777777778,0.04927790608944404,0.09772461547198458,-0.898426052482888
1590514344.5363414,-0.946499276129562,-3.034583936558698,9.058005790963504,1.2633333333333334,0.1288888888888889,0.2677777777777778,0.010298721064297231,0.06996732279088463,-0.9631589850836026
1590514344.5463414,-0.8879754477762125,-2.9879754477762126,8.909333869993961,1.2633333333333334,0.1288888888888889,0.2677777777777778,0.01923629264379844,0.07951210242058138,-0.9992143879274967
1590514344.5563414,-0.8051012965063269,-3.008939222096204,8.86595948139747,0.9936431654818472,0.24786984529395634,-0.3105417800213983,0.039572847988224,0.0917812556388781,-1.0380438102503755
1590514344.5663414,-0.7531210478771454,-3.0721973803071365,8.795605239385727,0.8477777777777777,0.31222222222222223,-0.6233333333333333,0.04523474234706001,0.11072277330120303,-1.092407905050553
1590514344.5763414,-0.7762957976047056,-3.1501221269458815,8.964070583232939,0.8477777777777777,0.31222222222222223,-0.6233333333333333,0.02751350279584906,0.09527969991054214,-1.1473645378856099
1590514344.5863414,-0.7160412104320127,-3.086904240493729,8.770712721481187,0.8477777777777777,0.31222222222222223,-0.6233333333333333,0.03206592964461586,0.10468088219310853,-1.1999466529914047
1590514344.5963414,-0.7330826917308269,-3.133859614038596,9.142405759424058,0.8477777777777777,0.31222222222222223,-0.6233333333333333,0.03188561311879827,0.10329265483386998,-1.2479213223930488
1590514344.6063414,-0.7156359776491558,-3.03427089383349,8.882357653561916,0.7124220980508658,0.2790600806891288,-0.6497276908800811,0.03694949780554372,0.11715545761581973,-1.2915639639664955
1590514344.6163414,-0.6919577535504231,-2.871535289054655,8.728464710945346,0.6255555555555555,0.2577777777777778,-0.6666666666666666,0.06053801792389768,0.13180000876216164,-1.3567967964963703
1590514344.6263413,-0.6958239284859127,-2.9548307127464284,8.83735892728869,0.6255555555555555,0.2577777777777778,-0.6666666666666666,0.050202837827807684,0.12990489523082185,-1.4041134479152573
1590514344.6363413,-0.6568966055403823,-2.9622660944206007,8.875369488880219,0.6255555555555555,0.2577777777777778,-0.6666666666666666,0.032552978240352685,0.13031397352389323,-1.4556034895850287
1590514344.6463413,-0.565499321733014,-2.8877496608665068,8.983626300011723,0.6255555555555555,0.2577777777777778,-0.6666666666666666,0.031879566612184274,0.1196776427466037,-1.493811178613803
1590514344.6563413,-0.4690940979728352,-2.84831259942081,8.838720887547415,0.6015314543649984,0.2649200781317272,-0.6777047672136794,0.05148025425477809,0.13776827496772703,-1.5301934133534332
1590514344.6663413,-0.45437600452744764,-2.9046920203735147,9.134408149405772,0.5844444444444444,0.27,-0.6855555555555556,0.05229093359730062,0.1424886751941378,-1.5800710182928246
1590514344.6763413,-0.416122175980975,-2.8422443519619502,8.47754577883472,0.5844444444444444,0.27,-0.6855555555555556,0.056611945029448725,0.1631572852330493,-1.624469838297346
1590514344.6863413,-0.323532980463186,-2.8566052367805583,8.732473314927814,0.5844444444444444,0.27,-0.6855555555555556,0.08248257103977594,0.16689710972195776,-1.6561810789602567
1590514344.6963413,-0.29103508095605246,-2.9637981881264457,8.826201811873554,0.5844444444444444,0.27,-0.6855555555555556,0.07263307698791721,0.17472142361818932,-1.6965442211893194
1590514344.7063413,-0.24417397544251315,-3.133043374262478,8.92368096528996,0.5582544576150062,0.28723025449305145,-0.6945152878919423,0.03356599326256722,0.13642029612315787,-1.7566264215980008
1590514344.7163413,-0.21,-3.1330458211772783,9.001522910588639,0.5422222222222223,0.2977777777777777,-0.7,0.010371222958827211,0.09458669157759797,-1.815441347523475
1590514344.7263412,-0.14353014338347453,-3.2439483256283292,8.971512918592918,0.5422222222222223,0.2977777777777777,-0.7,0.030533867244020026,0.14353078377841982,-1.83700465433057
1590514344.7363412,0.09717311571611956,-3.286488171648634,8.924389785439208,0.5422222222222223,0.2977777777777777,-0.7,0.053525424149636514,0.15512686954157753,-1.8589461394429838
1590514344.7463412,0.10409307178631053,-3.2740930717863104,8.816604966611017,0.5422222222222223,0.2977777777777777,-0.7,0.0504268398221831,0.15338603685442515,-1.8904553187547248
1590514344.7563412,4.828729089862978,-14.63638992477678,-9.816721929805869,0.5077777777777778,0.3388888888888889,-0.65,-0.4417254480774709,0.5428907457252635,-2.7486999155471947
1590514344.7663412,-12.832610437488018,-18.479697615445268,0.8551603554456921,0.5077777777777778,0.3388888888888889,-0.65,-2.8157928776479944,2.5581668758781477,-13.682084784214075
1590514344.7763412,-3.008262121939511,-3.1317746839494305,0.11710353656585037,0.5077777777777778,0.3388888888888889,-0.65,-4.011364107977246,0.2527157645908331,-6.178837890363505
1590514344.7863412,-0.3828261330557322,-0.2364981782430166,-0.32933472133865405,0.5077777777777778,0.3388888888888889,-0.65,-3.8679002697747586,-0.05901229877222183,-2.8185743231510827
1590514344.7963412,-0.09760252089038692,-0.18791798328769047,-0.2904100835615476,0.5077777777777778,0.3388888888888889,-0.65,-3.7951757972577997,-0.014056922208617654,-1.8558472579706942
1590514344.8063412,1.0029978118161924,-1.2973522975929979,3.8464332603938725,0.4818599562363238,0.4038828106005349,-0.6372404570872843,-3.9200137964681234,-0.06286717975796861,-1.6619964636387143
1590514344.8163412,0.8533766373201628,-3.1105248013742752,12.43434829289242,0.4355555555555555,0.52,-0.6144444444444445,-3.8555464367787797,-0.05913825366380142,-1.4577638648953657
1590514344.8263412,-0.41038105087307586,-0.1962491547671137,2.1733518953104483,0.4355555555555555,0.52,-0.6144444444444445,-1.1475994977438009,1.166027209646955,-1.3515899739160038
1590514344.8363411,-0.4898124536193753,-0.11067226607299463,3.0443975578492894,0.4355555555555555,0.52,-0.6144444444444445,0.665740841030397,0.9601044676243089,-1.2970952341031903
1590514344.8463411,-0.5140996624336923,-0.6446998874778974,4.246296736859026,0.4355555555555555,0.52,-0.6144444444444445,1.781115129759165,-0.01497038561106212,-1.1535869560045602
1590514344.8563411,0.7235350738681837,-1.4825320672276179,5.930537085505398,0.4119766198246006,0.5914303053025988,-0.558964595665727,3.189531281745687,0.09107027219234987,-0.948242038418041
1590514344.866341,0.7193656740520639,-1.9327197855435694,6.551123958400621,0.3977777777777778,0.6344444444444445,-0.5255555555555556,4.73167870319136,0.13589862448860768,-0.7183755570341404
1590514344.876341,6.838573994252873,3.3251580459770116,14.731073096264371,0.3977777777777778,0.6344444444444445,-0.5255555555555556,5.990955795900295,0.16600130804218674,-0.5531405420053042
1590514344.886341,-0.54107954265438,0.33901064511359724,0.8313616874476359,0.3977777777777778,0.6344444444444445,-0.5255555555555556,6.007599524611156,-0.4201717175855294,-0.3133000566959637
1590514344.896341,-0.8730355282953361,-0.06444393010068283,-0.8651093623423218,0.3977777777777778,0.6344444444444445,-0.5255555555555556,2.4737749647654947,-0.6317957826452663,0.1391553426303837
1590514344.906341,0.8909657836644591,0.015524282560706398,3.1420584988962474,0.3558756438557763,0.576579592837871,-0.6023761344125583,-0.11406345521630845,-0.7763085088803876,0.6298367841580558
1590514344.916341,1.5244127345082432,-1.8730221716884594,9.60347924957362,0.3511111111111111,0.57,-0.6111111111111112,-0.36162138092108287,0.19911227600343928,0.8855999318298996
1590514344.926341,0.3405366965506764,-0.7801786962467709,3.9524819936179902,0.3511111111111111,0.57,-0.6111111111111112,-0.33668600670992216,1.643272078730247,1.1745978347512303
1590514344.936341,1.2930905928916965,-3.6680917922680205,12.525567704793506,0.3511111111111111,0.57,-0.6111111111111112,-0.11369140547094655,0.24590172734422944,0.9967250511846382
1590514344.946341,0.7145657475145375,-2.6105308572500467,9.674539486025136,0.3511111111111111,0.57,-0.6111111111111112,-0.09349612742303379,-0.610594525550249,0.9205285864770825
1590514344.956341,0.2919891301561258,-1.4860760889071192,5.775202912297793,0.365770531215195,0.5178776174077018,-0.6371723024072602,0.02240234258969348,-0.08091080095950998,1.0951794799310732
1590514344.966341,0.6185422981537614,-3.927661201432902,12.539962110774319,0.3711111111111111,0.4988888888888889,-0.6466666666666666,-0.05642802410441711,0.20292300617719877,1.2361557290716165
1590514344.976341,0.36258359313643823,-2.295053666198624,7.529403127156763,0.3711111111111111,0.4988888888888889,-0.6466666666666666,-0.04056042648369905,-0.2792919584307545,1.2203100261926687
1590514344.986341,0.2880110824562626,-2.2069359447968218,6.979566459887084,0.3711111111111111,0.4988888888888889,-0.6466666666666666,0.019290643274415875,-0.31317563966488604,1.2537209689833853
1590514344.996341,0.36503302694579387,-2.7880183832523677,8.549682661727186,0.3711111111111111,0.4988888888888889,-0.6466666666666666,-0.0036255550769025563,0.05265968160951193,1.360106057239457
1590514345.006341,0.3999632631010265,-2.964418332432919,9.432936610840986,0.38109886547811994,0.4955596374332193,-0.6361240370570462,-0.08287108047752761,-0.021469309901062994,1.3646947626788144
1590514345.016341,0.34354853497345,-2.7267754135309623,8.542665698895977,0.3911111111111111,0.4922222222222222,-0.6255555555555555,-0.06664631459035114,-0.16574493872049675,1.3341651808761914
1590514345.026341,0.2644971851197704,-2.6042477094602052,7.61014460757258,0.3911111111111111,0.4922222222222222,-0.6255555555555555,-0.025741150020513564,-0.08052050687305803,1.3351128175067266
1590514345.036341,0.26,-2.7980423414000795,8.23608468280016,0.3911111111111111,0.4922222222222222,-0.6255555555555555,-0.009424648919583294,-0.09904249371745495,1.3095786078787568
1590514345.046341,-1.7691539593508072,-8.706587259271897,7.553586128942822,0.3911111111111111,0.4922222222222222,-0.6255555555555555,-0.01398680077184317,-0.08348195048870125,1.2961645730789835
1590514345.056341,11.854067327497424,-18.843957904222453,9.898700115859938,0.39685454571461265,0.47020572290879964,-0.6379996638631422,-0.29310723530418376,-0.10297376586448859,2.133726201283134
1590514345.066341,6.815914751339117,-10.810928000363921,13.798712740671665,0.3977777777777778,0.4666666666666667,-0.64,-0.056433246204147525,-0.014446464627619476,1.2505227223583384
1590514345.076341,-1.4123181813012486,-0.5602192628310796,17.68625467696262,0.3977777777777778,0.4666666666666667,-0.64,0.25628220138156804,0.0885779257583567,0.11569345250069141
1590514345.086341,-1.4089650291091793,1.0446233750697822,6.912472286466226,0.3977777777777778,0.4666666666666667,-0.64,0.6348938549324681,0.2552129934660442,-0.20588900349888314
1590514345.096341,-1.5618640876014227,-1.1527382419268593,7.823226466417128,0.3977777777777778,0.4666666666666667,-0.64,0.32545723712212665,-0.00039405130305791847,-0.2575786413473585
1590514345.106341,-1.356911291957485,-2.6426566074893567,11.346803266819196,0.4392416680342771,0.4478905654184405,-0.64,-0.35496535290357073,0.08692018566708179,-0.23229040747829416
1590514345.1163409,-0.6943179158177641,-2.1192648142528934,7.764394642160475,0.4566666666666666,0.44,-0.64,-0.10225579871000506,0.016732424026330323,-0.1115846266863533
1590514345.1263409,-0.6171835081524562,-2.4961665281960745,8.505825371274275,0.4566666666666666,0.44,-0.64,0.06746625257917255,-0.005092601680439762,0.06647630296936416
1590514345.1363409,-1.597131888581183,-6.338110539657421,8.412868111418817,0.4566666666666666,0.44,-0.64,-0.035796885938326604,-0.004307620384414585,0.13859213916974975
1590514345.1463408,-2.872184765238566,-9.505442508180504,7.739885092458717,0.4566666666666666,0.44,-0.64,-0.13178648678058907,-0.020476174627499108,-0.007711520345722422
1590514345.1563408,-0.7186689673086204,-1.742816431036402,8.281417863371555,0.4474531728656186,0.44,-0.6332992772356014,0.13171883904579093,0.05096708389791588,-0.4339062072206133
1590514345.1663408,0.6755244994337244,-4.868383443383122,8.461878752911511,0.4444444444444444,0.44,-0.6311111111111111,0.08887691643077182,-0.0653161883027195,0.2079205009273516
1590514345.1763408,-0.5872815654991898,-4.31034650380157,8.236892683534837,0.4444444444444444,0.44,-0.6311111111111111,-0.08794043096427274,-0.01806675736982788,0.23167298830718885
1590514345.1863408,-0.33942067273670806,-4.202129546633957,8.935264188328537,0.4444444444444444,0.44,-0.6311111111111111,0.004549176570141783,0.0336466515564757,-0.09781616051253186
1590514345.1963408,-0.05364940405131412,-4.4766693195383995,8.723482083641256,0.4444444444444444,0.44,-0.6311111111111111,0.0157557694080918,0.01973838798552197,-0.06875450219681938
1590514345.2063408,-0.023415522197381026,-4.499630150111785,8.617940594059407,0.4392272969232407,0.44,-0.6311111111111111,0.012106723578918982,-0.00039947191798480903,0.008726646259971648
1590514345.2163408,-0.04646141571123792,-4.272463011465145,8.758409969992888,0.43666666666666665,0.44,-0.6311111111111111,0.0039662738182294835,-0.0026739383814463973,0.004536768497670853
1590514345.2263408,-0.03563121652639632,-4.262304896710023,8.85092195868401,0.43666666666666665,0.44,-0.6311111111111111,-0.006494699649343379,-0.000852550607743022,0.0017553862611214008
1590514345.2363408,-0.0525137489325363,-4.1757554227156275,8.857486251067463,0.43666666666666665,0.44,-0.6311111111111111,-0.005545556402984886,-0.0005911166364995312,0.0015905449284933809
1590514345.2463408,-0.05614715492957746,-4.169932169014084,8.833407549295774,0.43666666666666665,0.44,-0.6311111111111111,0.001260840600901987,-0.001090830782496456,0.001090830782496456
1590514345.2563407,-0.028467088028608263,-4.3703027152896174,8.834723689134684,0.4419429775319833,0.44205189866984534,-0.6314042394925176,0.01377245869798828,-0.0008030526670010606,0.0005152745515056651
1590514345.2663407,-0.07767630427824603,-4.1502080443828016,8.847884348661047,0.4566666666666666,0.4477777777777778,-0.6322222222222222,0.0062915088127342795,0.00025347588224445546,-0.000583879018007545
1590514345.2763407,-0.05262190827802557,-4.267378091721975,8.805319789154698,0.4566666666666666,0.4477777777777778,-0.6322222222222222,-0.004971952652774826,0.00014300291292762817,0.00014300291292762817
1590514345.2863407,-0.03,-4.305090688765539,8.660181377531078,0.4566666666666666,0.4477777777777778,-0.6322222222222222,-0.016239529005606587,-0.00043237526911555247,-0.00043237526911555247
1590514345.2963407,-0.03384546437953948,-4.332309071240921,8.716540874671612,0.4566666666666666,0.4477777777777778,-0.6322222222222222,-0.009230407457686437,0.0006713556906769256,0.0013005683284062213
1590514345.3063407,-0.05,-4.226911696717521,8.737656322237633,0.45108353238814397,0.45082312374788097,-0.6418658177942158,0.0013063934189242545,-9.424364423440837e-05,0.002679955134123936
1590514345.3163407,-0.05,-4.247954328824353,8.815919000588128,0.4444444444444444,0.4544444444444444,-0.6533333333333333,0.0028941559780181884,0.001090830782496456,0.003272492347489368
1590514345.3263407,-0.05,-4.315761430044689,8.755622988218382,0.4444444444444444,0.4544444444444444,-0.6533333333333333,-0.0032271873657731334,1.5101660572078377e-05,0.002734627786527179
1590514345.3363407,-0.05,-4.276856568657434,8.64819258158941,0.4444444444444444,0.4544444444444444,-0.6533333333333333,-0.0016416076339670982,-0.0004779086498700013,0.000342895167113548
1590514345.3463407,-0.045893389871850196,-4.257147118974801,8.661599151922246,0.4444444444444444,0.4544444444444444,-0.6533333333333333,0.004869431608691424,-0.0008959233478995039,-0.001090830782496456
1590514345.3563406,-0.05118509079324626,-4.243555272379739,8.791011999575236,0.43905903035880733,0.4544444444444444,-0.6483621818696683,0.00994675039420072,-0.0017749601869165546,0.0005359747298089733
1590514345.3663406,-0.06194352988127308,-4.283887059762546,8.864028235059363,0.43,0.4544444444444444,-0.64,0.0054079544046333585,-0.0015302430626849665,0.0028330800673008576
1590514345.3763406,-0.05235777126099707,-4.2576422287390026,8.832275659824047,0.43,0.4544444444444444,-0.64,-0.005392094917818259,-0.0014100827241185858,0.001152889777160477
1590514345.3863406,-0.06432569188280964,-4.297582610710906,8.71,0.43,0.4544444444444444,-0.64,-0.008254786473835268,0.000618970996360076,-0.0007660822065837718
1590514345.3963406,-0.06682929907367678,-4.325122289810444,8.716341401852647,0.43,0.4544444444444444,-0.64,-0.004177117304951786,0.0006917396345046811,0.00039909114799177483
1590514345.4063406,-0.053223934269522266,-4.273716230056672,8.76049229578715,0.43715251382661535,0.4521857558676185,-0.6445173771536519,0.005120377618245478,0.001442507456690468,1.790037995721039e-05
1590514345.4163406,-0.048325476267355505,-4.286698094930578,8.815837261866323,0.4511111111111111,0.4477777777777778,-0.6533333333333333,0.006002140522559124,0.00045408428956875396,0.0008194086962866499
1590514345.4263406,-0.06562310030395137,-4.290607902735562,8.753768996960487,0.4511111111111111,0.4477777777777778,-0.6533333333333333,-0.003338804249160885,-0.0007493244888881431,0.00013593939842660992
1590514345.4363406,-0.05963332667864511,-4.2988999800359355,8.699633326678645,0.4511111111111111,0.4477777777777778,-0.6533333333333333,-0.005939572521822388,-0.0016162472464419772,0.001090830782496456
1590514345.4463406,-0.05842015442569044,-4.303680617702762,8.71526046327707,0.4511111111111111,0.4477777777777778,-0.6533333333333333,-0.0011485858556649084,-0.000631582600450611,0.001090830782496456
1590514345.4563406,-0.05834896191392823,-4.318930565103808,8.78106943489619,0.44852199153642847,0.4447571382739814,-0.6533333333333333,0.005390710846210315,0.00042364369974418937,0.00024354338300807722
1590514345.4663405,-0.048071533923303836,-4.27,8.834035766961652,0.4444444444444444,0.44,-0.6533333333333333,0.007846178493421226,0.0006505968992212455,0.0006701047506043863
1590514345.4763405,-0.05593664871713652,-4.274063351282863,8.795303135888501,0.4444444444444444,0.44,-0.6533333333333333,0.003885527499312368,0.0004432428659443946,0.0014995208837117898
1590514345.4863405,-0.045519658581801334,-4.297921365672795,8.716558975745404,0.4444444444444444,0.44,-0.6533333333333333,-0.004398564901558445,0.00011337191548346846,-0.0006021013489899622
1590514345.4963405,-0.04,-4.314053103647816,8.71486724088046,0.4444444444444444,0.44,-0.6533333333333333,-0.007547006882020561,-0.0004421250223685865,0.0
1590514345.5063405,-0.046785071795375006,-4.3,8.756785071795376,0.44670613504290274,0.44490032962999304,-0.6457943646718055,-0.0007013885298242021,0.001090830782496456,0.0007401365175843549
1590514345.5163405,-0.06,-4.311747987248069,8.785663982997423,0.4511111111111111,0.4544444444444444,-0.6311111111111111,0.002181661564992912,-0.00019067582976041702,0.001754492694240621
1590514345.5263405,-0.06270644787004807,-4.319174208519808,8.793761312779711,0.4511111111111111,0.4544444444444444,-0.6311111111111111,0.0012959785706317915,-0.0018864339002058717,0.0007956031177094158
1590514345.5363405,-0.05540944925097401,-4.293647637687257,8.742704724625487,0.4511111111111111,0.4544444444444444,-0.6311111111111111,-0.0038760996133539545,-0.0006929352352310991,-0.0003978955472653569
1590514345.5463405,-0.03184922201430366,-4.298150777985696,8.733698444028608,0.4511111111111111,0.4544444444444444,-0.6311111111111111,-0.008323208600597142,0.0004034376593745063,-0.0016959872715582155
1590514345.5563405,-0.042211854984630814,-4.294423709969261,8.752211854984632,0.44791620946664434,0.4529698744546905,-0.6311111111111111,-0.004373501141690571,0.001699109664262209,-0.0029156674277937143
1590514345.5663404,-0.05462993298585257,-4.3007401340282945,8.764629932985851,0.43666666666666665,0.4477777777777778,-0.6311111111111111,0.004030063360768925,0.0,0.001676614222806541
1590514345.5763404,-0.06078317684219636,-4.274608411578901,8.761566353684392,0.43666666666666665,0.4477777777777778,-0.6311111111111111,0.007047684415846656,-0.0005026997208679202,0.0005026997208679202
1590514345.5863404,-0.05447488104313994,-4.2710502379137205,8.753424643129419,0.43666666666666665,0.4477777777777778,-0.6311111111111111,0.0037307450855816778,0.00037357061446361187,0.001090830782496456
1590514345.5963404,-0.052053769769693746,-4.291784920921224,8.762053769769693,0.43666666666666665,0.4477777777777778,-0.6311111111111111,-0.0032578289175019468,0.0013148623109907158,0.00022403152849425972
1590514345.6063404,-0.033944431251484206,-4.321833293754453,8.756055568748515,0.43666666666666665,0.451478403124093,-0.6338024749993403,-0.005223864535697823,-0.0006605600796404567,-0.001090830782496456
1590514345.6163404,-0.036661024217392285,-4.28,8.782495768163045,0.43666666666666665,0.46,-0.64,9.013319553839239e-05,-0.0017273026128866512,0.00027224607382232637
1590514345.6263404,-0.05138297587490294,-4.2756914879374515,8.769840415562161,0.43666666666666665,0.46,-0.64,0.003272492347489368,-0.001090830782496456,0.002181661564992912
1590514345.6363404,-0.05742063157894737,-4.27,8.751775789473685,0.43666666666666665,0.46,-0.64,0.0013721962298048052,0.0003343913057669663,0.0007564394767294897
1590514345.6463404,-0.07129183573628019,-4.276531123197789,8.77564591786814,0.43666666666666665,0.46,-0.64,-0.0020407441462865724,0.0019441832240453829,-0.0003783957596538686
1590514345.6563404,-0.04715128492906271,-4.294636536303202,8.76357564246453,0.43666666666666665,0.46,-0.64,-0.004674069738979821,0.0012858518258720706,0.0015965984348660681
1590514345.6663404,-0.03324723624251589,-4.281082412080839,8.75891758791916,0.4511111111111111,0.4544444444444444,-0.6611111111111111,-0.00486378970391987,0.0002361456834249638,0.0008546850990714921
1590514345.6763403,-0.05895968285755154,-4.289653227619184,8.750346772380816,0.4511111111111111,0.4544444444444444,-0.6611111111111111,-0.00018913499375692103,0.0021060075674901434,-0.0010151767849936875
1590514345.6863403,-0.04249299674530822,-4.262492996745308,8.709943973962465,0.4511111111111111,0.4544444444444444,-0.6611111111111111,0.004635266889030393,-0.0013658302878592054,0.001090830782496456
1590514345.6963403,-0.049284615509173055,-4.269284615509172,8.764276924073384,0.4511111111111111,0.4544444444444444,-0.6611111111111111,0.005376117570090821,0.0008567217553220787,0.001090830782496456
1590514345.7063403,-0.03367700807479813,-4.252869528261794,8.78,0.449885441752845,0.45321877508617836,-0.6531442602823818,-0.005053054552934496,0.0006897314229486729,-0.0008902811027225644
1590514345.7163403,-0.05,-4.307473736868434,8.777473736868433,0.4444444444444444,0.4477777777777778,-0.6177777777777778,-0.0028591335091996905,-0.0006774719442067784,0.0001377862794298925
1590514345.7263403,-0.054036739591987445,-4.285963260408012,8.731742822856088,0.4444444444444444,0.4477777777777778,-0.6177777777777778,0.001321019942358627,0.0008606416226342849,0.001090830782496456
1590514345.7363403,-0.064034424011625,-4.2638623039535,8.734378664127876,0.4444444444444444,0.4477777777777778,-0.6177777777777778,0.003272492347489368,-0.00021065600219177946,0.0015309181726487942
1590514345.7463403,-0.06310045662100457,-4.250349315068493,8.8,0.4444444444444444,0.4477777777777778,-0.6177777777777778,0.001767245486893802,0.0007145190673475644,0.001052726419546237
1590514345.7563403,-0.0524975074775673,-4.274995014955135,8.795004985044866,0.4394494294893099,0.4458352719618921,-0.6286003101805694,-0.001090830782496456,-0.0002724358036045486,-0.0008183949788919074
1590514345.7663403,-0.05558453401422579,-4.2811690680284515,8.77116906802845,0.4244444444444445,0.44,-0.6611111111111111,-0.001090830782496456,-0.00205413602576617,0.0009633052432697136
1590514345.7763402,-0.05418795007201152,-4.274187950072012,8.730684349495919,0.4244444444444445,0.44,-0.6611111111111111,-0.00017716181167477254,-0.0023588233766676844,0.002181661564992912
1590514345.7863402,-0.05598641765704584,-4.2759864176570455,8.71809507640068,0.4244444444444445,0.44,-0.6611111111111111,0.001966458616052185,-0.0015286446992743205,0.0026194754817707765
1590514345.7963402,-0.056124965419120265,-4.27306248270956,8.76918744812868,0.4244444444444445,0.44,-0.6611111111111111,0.0036065573885345026,-0.002181661564992912,0.003272492347489368
1590514345.8063402,-0.06190357735133855,-4.282024105662166,8.792024105662165,0.4284926557687752,0.43910039748348206,-0.6611111111111111,0.0034801404246596838,-0.002181661564992912,0.0028309009948262976
1590514345.8163402,-0.026133336768077487,-4.3015999896957675,8.780666683840387,0.4444444444444444,0.4355555555555555,-0.6611111111111111,-0.0004217875278928309,-0.0013380865092072502,0.0002472557267107941
1590514345.8263402,-0.024193705048449386,-4.303225179806203,8.720644064660855,0.4444444444444444,0.4355555555555555,-0.6611111111111111,-0.00017590627058457914,-0.0004574622559559384,0.0007390182413272977
1590514345.8363402,-0.03755282400969001,-4.28,8.691329236014536,0.4444444444444444,0.4355555555555555,-0.6611111111111111,0.0019147160749512734,-0.0006788881362690474,0.003272492347489368
1590514345.8463402,-0.05,-4.271674127651256,8.743303489394977,0.4444444444444444,0.4355555555555555,-0.6611111111111111,0.0023642805625747644,0.0,0.0029697550858511666
1590514345.8563402,-0.051700030692630364,-4.2534000613852605,8.82659993861474,0.4465222597354371,0.43631112475228007,-0.6575221574266692,-0.0007417783242839864,0.0,0.002181661564992912
1590514345.8663402,-0.052292706418001926,-4.273853646790998,8.798439059627002,0.4566666666666666,0.44,-0.64,-0.003942955475536781,0.0012611029633471309,0.0013409262560948247
1590514345.8763402,-0.0448515388518538,-4.287277308277781,8.76301961401851,0.4566666666666666,0.44,-0.64,-0.0030078819513853863,0.0022140507630734416,-0.0002646103961039817
1590514345.8863401,-0.059528983605410035,-4.309293475408115,8.711648557381066,0.4566666666666666,0.44,-0.64,-0.002207351524106873,-0.000988070946040611,-0.0010651408233824948
1590514345.8963401,-0.05,-4.27688355840967,8.756232883180658,0.4566666666666666,0.44,-0.64,0.0025216126068512844,0.001161808439417795,0.00041092869877971136
1590514345.9063401,-0.05,-4.271710800634782,8.77855400317391,0.4566666666666666,0.4413306227159418,-0.64,0.0028992535484623576,-0.0005309725839559405,-0.0005309725839559405
1590514345.91634,-0.05,-4.286256745707277,8.794973017170891,0.4566666666666666,0.4477777777777778,-0.64,-0.000615431921441173,0.0018404090242053863,0.0025229141057804376
1590514345.92634,-0.052300721133920924,-4.295398557732158,8.723894952062553,0.4566666666666666,0.4477777777777778,-0.64,-0.0036104138995394957,0.0008398610390143466,0.0022686133735609305
1590514345.93634,-0.06,-4.27733410347701,8.683329482614953,0.4566666666666666,0.4477777777777778,-0.64,-0.00021841818542790367,-0.0005816083980457015,-0.0005092223844507545
1590514345.94634,-0.06,-4.271599204375932,8.723198408751866,0.4566666666666666,0.4477777777777778,-0.64,0.002181661564992912,-0.001919992360877402,0.0011780538505349592
1590514345.95634,-0.058922345137570636,-4.287844690275142,8.768621238899435,0.45606796952087253,0.4464606440570308,-0.6407184365749529,0.002064107655308419,0.000973276872811963,0.002064107655308419
1590514345.96634,-0.05,-4.271360473771075,8.837959289343386,0.4511111111111111,0.4355555555555555,-0.6466666666666666,0.0008682237822562485,0.0,0.0010537296157897547
1590514345.97634,-0.05,-4.303728835532969,8.748644177664842,0.4511111111111111,0.4355555555555555,-0.6466666666666666,-0.004085998063935113,0.0,0.0003420389621367916
1590514345.98634,-0.05362892063715485,-4.29,8.70177352382293,0.4511111111111111,0.4355555555555555,-0.6466666666666666,-0.0018825384501454897,-0.0011875615014735506,0.001090830782496456
1590514345.99634,-0.05167089178074474,-4.29,8.756658216438511,0.4511111111111111,0.4355555555555555,-0.6466666666666666,-0.0020610726626483188,-0.002363927583858581,0.0007879758612861936
1590514346.00634,-0.032251960339576176,-4.288874019830212,8.803377940509366,0.4511111111111111,0.4360559911865724,-0.6449151419581074,0.0013364815484335428,-0.00036847614890563003,0.0
1590514346.01634,-0.046592935889333616,-4.2834070641106665,8.823185871778668,0.4511111111111111,0.44,-0.6311111111111111,0.0025291862655186068,-0.0029008393065039877,0.0007433060819707611
1590514346.02634,-0.04264308052416493,-4.292643080524165,8.772996872661691,0.4511111111111111,0.44,-0.6311111111111111,0.0002258847035836658,-0.0013167154860801219,0.0016050308457177184
1590514346.03634,-0.04770176615247038,-4.29770176615247,8.679192935390118,0.4511111111111111,0.44,-0.6311111111111111,-0.002056312353679883,0.0008401323598703982,0.00012534921131302892
1590514346.04634,-0.03990843574835498,-4.282477108937089,8.75247710893709,0.4511111111111111,0.44,-0.6311111111111111,-9.988110427064248e-06,-0.0005504094464617601,0.001090830782496456
1590514346.05634,-0.06911360233958849,-4.289778400584897,8.759778400584898,0.4511111111111111,0.44,-0.6311111111111111,0.0031758013621383955,0.0010424852898209696,0.001090830782496456
1590514346.06634,-0.052101468624833114,-4.27,8.833695594125501,0.4444444444444444,0.44,-0.6466666666666666,0.0019524268985510666,0.0014939575656673758,0.00022923466644184538
1590514346.07634,-0.059101301735647524,-4.27,8.812696094793058,0.4444444444444444,0.44,-0.6466666666666666,0.001188863555589637,-0.0007967324632169128,0.0009927980094032748
1590514346.08634,-0.06195189447224592,-4.271951894472245,8.72,0.4444444444444444,0.44,-0.6466666666666666,-0.0013037494399475089,0.0002129186574510528,0.0008779121250454032
1590514346.09634,-0.06861559324698807,-4.28,8.728306440518072,0.4444444444444444,0.44,-0.6466666666666666,-0.002030646214824774,0.0007888000821601797,0.00015101535016813814
1590514346.10634,-0.06037224111161337,-4.28,8.77776655333032,0.4444444444444444,0.44,-0.6466666666666666,-0.0011314359888023125,-0.001009620369884743,0.0010502255761905995
1590514346.11634,-0.051009114583333334,-4.28,8.788990885416666,0.4614272280092592,0.43600405092592587,-0.6196940104166667,0.0018514295898230863,-0.00011007732505660846,0.005994598069695693
1590514346.12634,-0.05199418301141025,-4.28800581698859,8.808063986874487,0.4633333333333333,0.4355555555555555,-0.6166666666666667,0.0008732991610186781,0.0019641299435151343,-0.0008732991610186781
1590514346.13634,-0.05981411738384667,-4.280185882616154,8.722044708777688,0.4633333333333333,0.4355555555555555,-0.6166666666666667,2.0276647963102506e-05,0.0011111074304595585,-2.0276647963102506e-05
1590514346.14634,-0.043683176706208596,-4.288158411646895,8.72368317670621,0.4633333333333333,0.4355555555555555,-0.6166666666666667,0.00020088612642531214,0.00020088612642531214,-0.0018943752881977046
1590514346.15634,-0.059837467262363275,-4.280081266368819,8.739837467262364,0.4633333333333333,0.4355555555555555,-0.6166666666666667,0.0010819659968275778,0.0010819659968275778,-0.005418694769806767
1590514346.1663399,-0.05788668527008172,-4.27,8.787886685270081,0.4444444444444444,0.4477777777777778,-0.6466666666666666,0.005223627036432476,0.0025809117193399556,-0.0019511346889431078
1590514346.1763399,-0.048149227420718435,-4.271850772579281,8.765193819365747,0.4444444444444444,0.4477777777777778,-0.6466666666666666,0.003959547189809685,-0.00040377594017613854,-0.0008889428124083866
1590514346.1863399,-0.040604572518122786,-4.2793954274818775,8.704836580144981,0.4444444444444444,0.4477777777777778,-0.6466666666666666,0.002313558827596858,-0.002049764302388966,-6.594863130197307e-05
1590514346.1963398,-0.05,-4.29,8.75,0.4444444444444444,0.4477777777777778,-0.6466666666666666,-0.0029044131516062894,0.0012135238477908156,-0.0001226930652943596
1590514346.2063398,-0.05,-4.29,8.75,0.4444444444444444,0.4477777777777778,-0.6466666666666666,-0.0008913285626215486,0.0018845520441190624,-0.0007937212616226064
1590514346.2163398,-0.040796975901716805,-4.280796975901717,8.796015120491417,0.4505797938432999,0.4477777777777778,-0.6405313172678112,0.0020077883956927996,-0.0008300210285462875,-0.001090830782496456
1590514346.2263398,-0.04,-4.2720219442001754,8.792021944200176,0.4511111111111111,0.4477777777777778,-0.64,0.003051932450085166,-0.001090830782496456,-0.001090830782496456
1590514346.2363398,-0.05859040751137354,-4.271409592488626,8.735638369954506,0.4511111111111111,0.4477777777777778,-0.64,0.0001682546560747366,0.0018741361895190055,0.0
1590514346.2463398,-0.048703185687549055,-4.278703185687549,8.76870318568755,0.4511111111111111,0.4477777777777778,-0.64,-0.004888311924000892,-0.000141460497120347,-0.000141460497120347
1590514346.2563398,-0.04026242176651708,-4.270262421766517,8.760262421766518,0.4511111111111111,0.4477777777777778,-0.64,-0.001205333878862025,-0.0010622050084050636,-0.0010622050084050636
1590514346.2663398,-0.05678361244760154,-4.286783612447602,8.785175418671402,0.45577322567988926,0.4477777777777778,-0.6511890749650677,-0.0001754267275297334,0.0016553813824037123,-0.0001754267275297334
1590514346.2763398,-0.03838637214526395,-4.295159116435792,8.778704605016847,0.4566666666666666,0.4477777777777778,-0.6533333333333333,0.0008800974677199035,0.001090830782496456,0.0
1590514346.2863398,-0.030908701930791035,-4.272726105792373,8.726360913515538,0.4566666666666666,0.4477777777777778,-0.6533333333333333,0.004958533893371866,0.001090830782496456,0.0
1590514346.2963398,-0.05,-4.2733755321742715,8.741687766087136,0.4566666666666666,0.4477777777777778,-0.6533333333333333,0.0019975548448427664,-0.00018410672015014548,-0.0012749375026466015
1590514346.3063397,-0.05,-4.2891083853785705,8.749554192689285,0.4566666666666666,0.4477777777777778,-0.6533333333333333,0.0011394608162554175,-0.0010422007487374944,-0.0021330315312339506
1590514346.3163397,-0.03505143285610516,-4.271683810952035,8.778316189047965,0.43,0.46,-0.6311111111111111,0.001090830782496456,0.001458181346173356,-0.003995972566308924
1590514346.3263397,-0.061521662224947524,-4.278478337775053,8.75782670220042,0.43,0.46,-0.6311111111111111,0.0012568183820499366,0.0026085419492754454,-0.0018496863658859506
1590514346.3363397,-0.06740485777373685,-4.271297571113132,8.696487855565657,0.43,0.46,-0.6311111111111111,0.0018985754624564891,-0.0009492877312282446,0.00014154305126821138
1590514346.3463397,-0.05,-4.28,8.74077979599141,0.43,0.46,-0.6311111111111111,0.0,8.506254714975497e-05,0.0010624766001132043
1590514346.3563397,-0.05,-4.28,8.759544559770937,0.43,0.46,-0.6311111111111111,0.0,0.0021319807428480755,0.00038017053488043095
1590514346.3663397,-0.04220571572453733,-4.303382852826387,8.77,0.4351961895169751,0.45566984206918737,-0.6432355533173864,-0.0034008980860811074,0.000721818782928537,-0.0017004490430405537
1590514346.3763397,-0.05938143046797212,-4.2718557085960835,8.792577165615667,0.43666666666666665,0.4544444444444444,-0.6466666666666666,0.0010233553138314121,0.0001349509373300876,0.0
1590514346.3863397,-0.05068100730169267,-4.297956978094922,8.688172087620313,0.43666666666666665,0.4544444444444444,-0.6466666666666666,7.428637277912095e-05,0.00203308881943467,0.0
1590514346.3963397,-0.042563668538893595,-4.285127337077787,8.754363314611064,0.43666666666666665,0.4544444444444444,-0.6466666666666666,0.0016223558533243437,-0.00025187221499360386,0.0
1590514346.4063396,-0.04844224811919162,-4.28,8.78844224811919,0.43666666666666665,0.4544444444444444,-0.6466666666666666,0.000339848740615506,0.001671888454069653,0.0
1590514346.4163396,-0.05,-4.27242280825032,8.80515438349936,0.4518210501660259,0.4493929832779913,-0.6306703729728985,0.0,-0.0002979686366357142,0.0
1590514346.4263396,-0.04068364114316528,-4.28863271771367,8.737949076570505,0.4566666666666666,0.4477777777777778,-0.6255555555555555,0.002181661564992912,-0.00014914736062914943,0.00022372104094372415
1590514346.4363396,-0.04775141547586951,-4.274497169048261,8.716745753572392,0.4566666666666666,0.4477777777777778,-0.6255555555555555,0.002181661564992912,-0.0016910965217995745,0.0025366447826993617
1590514346.4463396,-0.06983768598480908,-4.279918842992405,8.749675371969618,0.4566666666666666,0.4477777777777778,-0.6255555555555555,0.002181661564992912,0.0021462501401527403,-0.001055419357656284
1590514346.4563396,-0.05420562340244249,-4.2957943765975575,8.773691564896335,0.4566666666666666,0.4477777777777778,-0.6255555555555555,0.0004587623466971748,0.0013202119558450433,0.00149351804494715
