time,acc_x,acc_y,acc_z,mag_x,mag_y,mag_z,gyr_x,gyr_y,gyr_z
1590515652.733724,0.08,-4.35,8.67,0.4122222222222222,0.2644444444444444,-0.6,0.003272492347489368,0.002181661564992912,-0.001090830782496456
1590515652.743724,0.07271714134088095,-4.367282858659119,8.71728285865912,0.4122222222222222,0.2644444444444444,-0.6,0.001588873281987585,0.001588873281987585,0.0004980424994911291
1590515652.753724,0.08338209357817201,-4.36,8.706617906421828,0.41334958674827954,0.2644444444444444,-0.6013152586137336,0.0,-0.00018446458921768057,-0.001090830782496456
1590515652.763724,0.10411398654389309,-4.355886013456107,8.685886013456107,0.4188888888888889,0.2644444444444444,-0.6077777777777778,0.0013462989482564355,-0.003783428679009327,-0.0024371297307528915
1590515652.773724,0.10633993088281496,-4.35,8.650719447062519,0.4188888888888889,0.2644444444444444,-0.6077777777777778,0.002473989135671353,-0.008833570295202214,-0.0035648199181678086
1590515652.783724,0.10310137048363348,-4.353101370483634,8.621709593385434,0.4188888888888889,0.2644444444444444,-0.6077777777777778,0.0021057518999384526,-0.011584921903259224,-0.0028582756432875764
1590515652.793724,0.11,-4.363199120095787,8.679597360287362,0.4188888888888889,0.2644444444444444,-0.6077777777777778,0.004014353262247072,-0.012740999522218719,-0.0045378080638552
1590515652.803724,0.11,-4.374878177818617,8.714634533455852,0.4188888888888889,0.2644444444444444,-0.6077777777777778,0.0027403656947854607,-0.011467011954757108,-0.005174801847586005
1590515652.813724,0.10037480585302053,-4.360749611706042,8.768500776587917,0.4124720927909026,0.27086124054243077,-0.5938747195654741,0.0042815531775989,-0.007758470406055579,-0.003354262299876293
1590515652.823724,0.1,-4.367979538647061,8.762020461352938,0.4122222222222222,0.27111111111111114,-0.5933333333333334,0.002622457852718947,0.00019807827022575407,-0.0015316270702224908
1590515652.833724,0.12184714285714286,-4.358369428571429,8.71,0.4122222222222222,0.27111111111111114,-0.5933333333333334,-0.0020037938142584183,0.0016244340346999366,0.00017786775073449357
1590515652.843724,0.08727652720788434,-4.3524255090692945,8.72455305441577,0.4122222222222222,0.27111111111111114,-0.5933333333333334,-0.0008262487868953483,0.005686233107991362,0.0008262487868953483
1590515652.853724,0.1086932761853737,-4.3593466380926875,8.766733190463434,0.4122222222222222,0.2706755365062357,-0.5937689079382088,-7.127072806077836e-05,0.009817477042468105,7.127072806077836e-05
1590515652.863724,0.09376016422725213,-4.35,8.718119917886375,0.4122222222222222,0.2644444444444444,-0.6,-0.0006806604938635941,0.010432732475417398,0.001295915926812887
1590515652.873724,0.1059497152529224,-4.35,8.685698291517536,0.4122222222222222,0.2644444444444444,-0.6,0.0008699220184970502,0.012869060625958065,0.0019607528009935064
1590515652.883724,0.09115944073205565,-4.35,8.596956644392334,0.4122222222222222,0.2644444444444444,-0.6,6.323768205032622e-05,0.012062376289511342,0.0011540684645467822
1590515652.893724,0.09,-4.362487027006553,8.662435135032764,0.4122222222222222,0.2644444444444444,-0.6,0.00027695309780211897,0.009274891919338547,0.001362123344061235
1590515652.903724,0.08928723737848855,-4.370712762621512,8.702851050486045,0.4122222222222222,0.2654739904532943,-0.5995248249189924,-0.0021039112241771564,0.007247063773396414,0.002026160883361401
1590515652.913724,0.08627437006871978,-4.37058844489692,8.72745125986256,0.4122222222222222,0.2788888888888889,-0.5933333333333334,-0.0014330445830831528,0.0025238753655796088,0.0
1590515652.923724,0.1032931011739876,-4.3598793035219625,8.676948291782086,0.4122222222222222,0.2788888888888889,-0.5933333333333334,-0.002181661564992912,0.0021948275083511003,-0.0003592216130460892
1590515652.933724,0.11,-4.382254554057251,8.645781878400758,0.4122222222222222,0.2788888888888889,-0.5933333333333334,-0.0024275952616380795,-0.0004918673932903348,-0.001090830782496456
1590515652.943724,0.10899380364959355,-4.3894969018247965,8.702515490876015,0.4122222222222222,0.2788888888888889,-0.5933333333333334,-0.003272492347489368,-0.0021267820673799643,-0.0009261922896576127
1590515652.953724,0.09309817520322893,-4.3815490876016145,8.742254561991928,0.4122222222222222,0.2788888888888889,-0.5933333333333334,-0.003272492347489368,-0.0012598100265589223,0.0016747238328055135
1590515652.963724,0.09771603941204976,-4.36228396058795,8.777716039412049,0.4,0.2644444444444444,-0.6077777777777778,0.001090830782496456,0.006794126146513219,-9.42649763585211e-05
1590515652.973724,0.08728321571034059,-4.37,8.740115372813746,0.4,0.2644444444444444,-0.6077777777777778,-9.458999052884272e-05,0.008228525863987842,0.0029761371542330432
1590515652.9837239,0.08,-4.37,8.663373513211463,0.4,0.2644444444444444,-0.6077777777777778,-0.003272492347489368,0.009817477042468105,0.0014456751537483964
1590515652.9937239,0.08410921029894591,-4.37,8.675890789701054,0.4,0.2644444444444444,-0.6077777777777778,-0.0034966150017814515,0.008920986425299772,-0.0012851709478245788
1590515653.0037239,0.1,-4.37,8.660582342866041,0.4003882285773603,0.2645415015887845,-0.6075674872983743,-0.004363323129985824,0.005485915788694482,0.002181661564992912
1590515653.0137239,0.1,-4.3710378542298445,8.7,0.4266666666666667,0.27111111111111114,-0.5933333333333334,-0.004363323129985824,0.007296178474977733,0.001955236896661273
1590515653.0237238,0.1,-4.38,8.688294881588998,0.4266666666666667,0.27111111111111114,-0.5933333333333334,-0.004363323129985824,0.003795842975519796,0.00014187003861650707
1590515653.0337238,0.1,-4.38,8.624210847975553,0.4266666666666667,0.27111111111111114,-0.5933333333333334,-0.004363323129985824,0.0006889613518716265,0.0009185904445285493
1590515653.0437238,0.08767619644395708,-4.38,8.706971410668128,0.4266666666666667,0.27111111111111114,-0.5933333333333334,-0.0027655170572080984,0.0023084053875632293,0.0012175746050667735
1590515653.0537238,0.07453512963108014,-4.38,8.746394611106759,0.4266666666666667,0.27111111111111114,-0.5933333333333334,0.00010141898165765559,0.003025139397279668,0.0019343086147832118
1590515653.0637238,0.09978421946723534,-4.370071926844255,8.77985614631149,0.41894483198997606,0.27111111111111114,-0.6076738834471873,-0.002158123560252594,2.3538004740318412e-05,-0.002150277558672488
1590515653.0737238,0.08141613800779077,-4.342124207011686,8.752124207011686,0.4188888888888889,0.27111111111111114,-0.6077777777777778,-0.002181661564992912,0.0,-0.002181661564992912
1590515653.0837238,0.09577553988622348,-4.37,8.65,0.4188888888888889,0.27111111111111114,-0.6077777777777778,-0.0013212393390732522,0.0031032957913000965,0.001090830782496456
1590515653.0937238,0.08033175617210081,-4.37,8.65,0.4188888888888889,0.27111111111111114,-0.6077777777777778,-0.002163567072752374,0.0064726067260165825,0.001090830782496456
1590515653.1037238,0.0996506423539163,-4.350698715292167,8.7,0.4188888888888889,0.270878206013722,-0.6077777777777778,0.0,0.007673924484920053,0.001090830782496456
1590515653.1137238,0.09095959386655615,-4.3680808122668875,8.7,0.4188888888888889,0.2650841736888152,-0.6077777777777778,0.0,0.008621970807138222,0.001090830782496456
1590515653.1237237,0.08602634467618002,-4.35602634467618,8.685894621295281,0.4188888888888889,0.2644444444444444,-0.6077777777777778,-0.0017482030103675365,0.005006326565990871,-0.0018529754510573718
1590515653.1337237,0.09400988576969468,-4.364009885769694,8.64198022846061,0.4188888888888889,0.2644444444444444,-0.6077777777777778,-0.0029457822978350124,-0.0007641207328421003,-0.001090830782496456
1590515653.1437237,0.08402995323893922,-4.354029953238939,8.680074883097348,0.4188888888888889,0.2644444444444444,-0.6077777777777778,-0.0019618617127401027,-0.0002197998522528093,-0.0006512310779908374
1590515653.1537237,0.0977453320689317,-4.367745332068932,8.71436333017233,0.4188888888888889,0.2644444444444444,-0.6077777777777778,-0.0012138038416723016,-0.0009678577233206104,0.0008448846641447647
1590515653.1637237,0.09172321788159485,-4.381723217881595,8.74,0.4188888888888889,0.2788888888888889,-0.6077777777777778,-0.0005269090494388589,-0.001993687653973713,-0.001278804693515655
1590515653.1737237,0.10142728876567325,-4.3885727112343265,8.731436267405961,0.4188888888888889,0.2788888888888889,-0.6077777777777778,0.0028044337734360087,-0.0009351377303856818,-0.0024930476692144603
1590515653.1837237,0.10803415033709281,-4.381965849662907,8.691795097977442,0.4188888888888889,0.2788888888888889,-0.6077777777777778,0.005687220964554958,-0.00021444093260594428,-0.003934441264773936
1590515653.1937237,0.1,-4.368744881938245,8.712510236123512,0.4188888888888889,0.2788888888888889,-0.6077777777777778,0.009749020971596602,-6.845607087150281e-05,-0.0032040362766178653
1590515653.2037237,0.1,-4.355832589354431,8.738334821291136,0.4188888888888889,0.2788888888888889,-0.6077777777777778,0.009044764660445402,-0.0007727123820227027,-0.002499779965466665
1590515653.2137237,0.09116349663784822,-4.358836503362152,8.75,0.4316527270786637,0.27201605294054865,-0.6077777777777778,0.00679882028455793,0.004692647143744695,-0.0050734005281134874
1590515653.2237236,0.09884021671068036,-4.34115978328932,8.713041300264083,0.43333333333333335,0.27111111111111114,-0.6077777777777778,0.0010275744168457127,0.003920528570430621,-0.0009010616855442261
1590515653.2337236,0.08631559026941472,-4.36,8.605052472215531,0.43333333333333335,0.27111111111111114,-0.6077777777777778,-0.00041335441653075975,-0.0024457835144278484,0.0019060919539724054
1590515653.2437236,0.12239496954891099,-4.36,8.633915975639129,0.43333333333333335,0.27111111111111114,-0.6077777777777778,-0.0027747442684171197,0.0022769961893448713,0.0003318320527148323
1590515653.2537236,0.1206964586846543,-4.36,8.677214165261383,0.43333333333333335,0.27111111111111114,-0.6077777777777778,-0.005302210198090699,0.004287351272790034,0.0
1590515653.2637236,0.1114705310250924,-4.351470531025092,8.722647344874538,0.4153266766085284,0.2824837364109879,-0.6011437463528496,-0.0026628917176289677,0.005293743861603594,0.0009304207316177708
1590515653.2737236,0.11605854150895786,-4.36,8.758175624526874,0.4122222222222222,0.28444444444444444,-0.6,-0.001966688352494872,0.003272492347489368,-0.000875857569998416
1590515653.2837236,0.1,-4.36,8.711060921794559,0.4122222222222222,0.28444444444444444,-0.6,-0.0010715426799743778,0.003272492347489368,5.786430756623453e-05
1590515653.2937236,0.1,-4.363645278428048,8.768177360785977,0.4122222222222222,0.28444444444444444,-0.6,-0.00039763819200844063,0.002676035059476707,0.002874854155480927
1590515653.3037236,0.1,-4.379107850546534,8.760446074726733,0.4122222222222222,0.28444444444444444,-0.6,-0.0020843431563500694,0.00014597761296426337,0.0011881491911392983
1590515653.3137236,0.11838976110812138,-4.368389761108122,8.770338566648729,0.4122222222222222,0.27111111111111114,-0.6144444444444445,-0.003272492347489368,0.00545415391248228,0.001090830782496456
1590515653.3237236,0.10861957902377065,-4.358619579023771,8.707576211213937,0.4122222222222222,0.27111111111111114,-0.6144444444444445,-0.003724234055591806,0.005905895620584718,0.001391991921231415
1590515653.3337235,0.09736146756232007,-4.3526385324376795,8.633518043250241,0.4122222222222222,0.27111111111111114,-0.6144444444444445,-0.006257165454615067,0.009110405247123206,0.0029846731071257
1590515653.3437235,0.07047998214019945,-4.3795200178598,8.670799970233666,0.4122222222222222,0.27111111111111114,-0.6144444444444445,-0.003220134418131561,0.013055064103718933,1.745264311926909e-05
1590515653.3537235,0.08920732251823188,-4.360792677481768,8.702012204197054,0.4122222222222222,0.27111111111111114,-0.6144444444444445,-0.0011772984822668998,0.011693173479809159,0.0006983979550741561
1590515653.3637235,0.1,-4.35,8.727297552562419,0.4122222222222222,0.276786985326325,-0.6039035351876186,0.0007960394971971304,0.0093162288305703,-0.0005012482118978048
1590515653.3737235,0.10152002228013289,-4.358479977719868,8.697839821758938,0.4122222222222222,0.2788888888888889,-0.6,-0.0001658087093249402,0.00528834520315734,0.0016842354370180913
1590515653.3837235,0.1098637331158368,-4.350136266884163,8.631090135073306,0.4122222222222222,0.2788888888888889,-0.6,-0.001075966371308446,0.004378187541173834,-0.0010462375489324262
1590515653.3937235,0.09406165494862087,-4.3579691725256895,8.685784207679827,0.4122222222222222,0.2788888888888889,-0.6,0.001517074828117705,0.0026247193895763835,0.002386376698322425
1590515653.4037235,0.11487258626147515,-4.36,8.724872586261476,0.4122222222222222,0.2788888888888889,-0.6,0.001277268807182394,0.003990447080613948,0.0014637068318683318
1590515653.4137235,0.1042122601611539,-4.352106130080577,8.714212260161155,0.3981886756988034,0.2788888888888889,-0.6,-0.0023535197379553367,0.005224410760098772,-0.0006313444777294405
1590515653.4237235,0.07292346014492754,-4.342923460144927,8.671461730072464,0.3944444444444444,0.2788888888888889,-0.6,-0.0003189000317488507,0.007635815477475192,0.0014097308142453067
1590515653.4337234,0.08875339673913044,-4.3587533967391305,8.679376698369564,0.3944444444444444,0.2788888888888889,-0.6,-0.002045678243941214,0.007635815477475192,0.0031365090264376706
1590515653.4437234,0.11,-4.362510064893285,8.693765097339927,0.3944444444444444,0.2788888888888889,-0.6,-0.00027380560516584757,0.0053172511098993555,-0.0012277335850793799
1590515653.4537234,0.11,-4.37793113590823,8.716896703862346,0.3944444444444444,0.2788888888888889,-0.6,-0.0019559835013825085,0.0044761621617910256,-0.0020688225331877102
1590515653.4637234,0.10795077275329136,-4.378975386376646,8.701024613623353,0.43333333333333335,0.27111111111111114,-0.6,-0.0052306178963782545,0.0033842603555413807,-0.0009790627744444436
1590515653.4737234,0.09198672139063255,-4.369337759536456,8.70337759536456,0.43333333333333335,0.27111111111111114,-0.6,-0.003416970804099111,0.004002126988461466,0.0
1590515653.4837234,0.1170707863405009,-4.36,8.613661517074373,0.43333333333333335,0.27111111111111114,-0.6,-0.005054744358945942,-0.0008511850503746533,7.988191070726754e-05
1590515653.4937234,0.08017375699656759,-4.359913121501717,8.660781906484555,0.43333333333333335,0.27111111111111114,-0.6,2.843092207950828e-05,0.0021721845909664092,0.001052922886390445
1590515653.5037234,0.09212111717203367,-4.353939441413983,8.714545027274152,0.43333333333333335,0.27111111111111114,-0.6,0.0019833131594251077,0.0015205571785178761,-0.0015535867634036873
1590515653.5137234,0.09418420945478236,-4.3558157905452175,8.755815790545217,0.4210555532934294,0.2633567237174876,-0.5922456126063764,0.002003683677234318,0.0004564264473689313,-0.002003683677234318
1590515653.5237234,0.10758464851051748,-4.3524153514894826,8.76188486382888,0.4122222222222222,0.2577777777777778,-0.5866666666666667,-0.0036677033107807987,-0.001222567770260266,-0.0008273568069688355
1590515653.5337234,0.09279259821376451,-4.37,8.634654330356275,0.4122222222222222,0.2577777777777778,-0.5866666666666667,-0.006951151640941263,-0.0023847450379741756,0.0011923725189870878
1590515653.5437233,0.11727628276224389,-4.37,8.675460471270407,0.4122222222222222,0.2577777777777778,-0.5866666666666667,-0.010512159210863146,-0.0041652488229351175,0.0020826244114675587
1590515653.5537233,0.11170885231316727,-4.345126556939502,8.729746886120996,0.4122222222222222,0.2577777777777778,-0.5866666666666667,-0.012717155648768847,-0.006172170953790111,-0.0005316101707135198
1590515653.5637233,0.1166532023148328,-4.353306404629666,8.726693595370335,0.42996409506177635,0.2577777777777778,-0.5911021348765553,-0.013815721178677099,-0.005093481117539478,-0.0003650789937768269
1590515653.5737233,0.12,-4.38963775938587,8.710120746871377,0.4388888888888889,0.2577777777777778,-0.5933333333333334,-0.00771484411998783,-0.004363323129985824,0.0
1590515653.5837233,0.12707963548573567,-4.3829203645142645,8.674601822571322,0.4388888888888889,0.2577777777777778,-0.5933333333333334,-0.00454674175079731,0.00027028746003099954,0.0
1590515653.5937233,0.10135112207912393,-4.408648877920876,8.707748129868127,0.4388888888888889,0.2577777777777778,-0.5933333333333334,0.0019360206391897464,0.009473579746343674,0.0020834051946716455
1590515653.6037233,0.08485636292733655,-4.36456908878201,8.702428181463668,0.4388888888888889,0.2577777777777778,-0.5933333333333334,0.004659533386665285,0.004035776125232566,0.0005297470172113299
1590515653.6137233,0.07102993271676851,-4.340772449537576,8.74871258410404,0.4066666666666667,0.2644444444444444,-0.5866666666666667,0.0010065696091451095,-0.003216318231921804,0.0
1590515653.6237233,0.11024000795881314,-4.37,8.697359912453054,0.4066666666666667,0.2644444444444444,-0.5866666666666667,-0.002286384792799919,-0.001169373203351711,-5.236161390350337e-05
1590515653.6337233,0.12064184211777007,-4.37,8.59706026329547,0.4066666666666667,0.2644444444444444,-0.5866666666666667,-0.006825041150805258,-0.004363323129985824,-0.0019016051091663897
1590515653.6437232,0.12906753289294098,-4.37046623355353,8.702797401321176,0.4066666666666667,0.2644444444444444,-0.5866666666666667,-0.011060882398571368,-0.004159890365176745,0.0024359525210042605
1590515653.6537232,0.11380193263088934,-4.378099033684555,8.748594202107332,0.4066666666666667,0.2644444444444444,-0.5866666666666667,-0.01355871040044115,-0.0008294530293503654,0.006598999190787236
1590515653.6637232,0.08975771208226221,-4.353010282776349,8.793737146529564,0.4246598114824336,0.27419073121965154,-0.6009112396458155,-0.0082925573007674,0.0007360303589608156,0.007635815477475192
1590515653.6737232,0.06391622508200857,-4.380489528135251,8.726573303053243,0.43333333333333335,0.2788888888888889,-0.6077777777777778,0.0023952585085248953,-0.0012510284901454435,0.016362461737446838
1590515653.6837232,0.1344738834216503,-4.389309235427706,8.664835352006056,0.43333333333333335,0.2788888888888889,-0.6077777777777778,0.006243581791412342,-0.004137270952311029,0.016362461737446838
1590515653.6937232,0.1303302177299569,-4.3793395645400865,8.67099065318987,0.43333333333333335,0.2788888888888889,-0.6077777777777778,0.007671836643951499,-0.010836265492011945,0.01280180005814701
1590515653.7037232,0.13792776147520197,-4.364144477049596,8.693783284425605,0.43333333333333335,0.2788888888888889,-0.6077777777777778,0.008500600102819174,-0.009178738574276594,0.0061716923872056125
1590515653.7137232,0.14560407863310676,-4.36,8.722416314532428,0.4252385530855125,0.2745301610631392,-0.6158725580255986,0.006281405667762249,-0.009337956408023998,0.003752012981933474
1590515653.7237232,0.1284023976023976,-4.374398401598402,8.732800799200799,0.4188888888888889,0.27111111111111114,-0.6222222222222222,0.003578012145871692,-0.007461544090125708,0.00013124841103284062
1590515653.7337232,0.11062350699197467,-4.370623506991975,8.636235069919747,0.4188888888888889,0.27111111111111114,-0.6222222222222222,0.0022496756269876853,0.001637549069034727,0.0019776193790085926
1590515653.7437232,0.11,-4.378563709067329,8.672818545336648,0.4188888888888889,0.27111111111111114,-0.6222222222222222,0.0040499730575903215,0.007786596042785143,0.001247505818694207
1590515653.7537231,0.09758467869578981,-4.361377018043685,8.723453624564735,0.4188888888888889,0.27111111111111114,-0.6222222222222222,0.005717624595307476,0.0100809477252933,0.0017679815151572824
1590515653.7637231,0.09,-4.366445950853407,8.75,0.43076652006079436,0.2656291274933086,-0.6103445910503167,0.006544984694978735,0.010011320353048518,0.003975636508824997
1590515653.7737231,0.09674107062689677,-4.363258929373104,8.743258929373104,0.43333333333333335,0.2644444444444444,-0.6077777777777778,0.0028683010215779007,0.012023487246508605,0.0014219761912651558
1590515653.783723,0.10942525548601759,-4.350574744513982,8.598621167709736,0.43333333333333335,0.2644444444444444,-0.6077777777777778,0.0031471025459047716,0.00897742586314084,0.004112543526816632
1590515653.793723,0.0893884892086331,-4.35,8.624352517985612,0.43333333333333335,0.2644444444444444,-0.6077777777777778,-0.0012242417415068135,0.011724468985969102,0.006611690174483915
1590515653.803723,-0.01680899273165995,-4.260105935320601,8.577765647529647,0.43333333333333335,0.2644444444444444,-0.6077777777777778,-0.008552603812197884,0.011581366114326466,0.009144418753106197
1590515653.813723,-0.0034314998701324637,-4.17600227767677,8.656851611356418,0.41657229625781705,0.26863470371332354,-0.5986988826952064,-0.034905342759920105,-0.006232431414289403,0.024901327573011594
1590515653.823723,-0.12871238152777253,-4.123547936412038,8.631826454706792,0.4066666666666667,0.27111111111111114,-0.5933333333333334,-0.020232659990037816,0.003835845918165045,0.06459412782784635
1590515653.833723,-0.05034756424920053,-4.147177937022946,8.583762750636073,0.4066666666666667,0.27111111111111114,-0.5933333333333334,0.00043723877120116494,0.0016038963100822633,0.09738065192967625
1590515653.843723,-0.11670210852852583,-4.14147754349683,8.690791934541204,0.4066666666666667,0.27111111111111114,-0.5933333333333334,-0.025708012123440396,-0.024939531326707964,0.13289438462617947
1590515653.853723,-0.2653677480357505,-3.9727810171323084,8.773702469663881,0.4066666666666667,0.27111111111111114,-0.5933333333333334,-0.03922933876370199,-0.03118964649816456,0.18717753975833676
1590515653.863723,-0.27818386799221073,-3.733098698370401,8.81181613200779,0.4,0.27111111111111114,-0.5933333333333334,-0.043712475007825186,-0.035918172114416086,0.2922188649552959
1590515653.873723,-0.23519626934508558,-3.569745823511325,8.854803730654915,0.4,0.27111111111111114,-0.5933333333333334,-0.04558816284262067,-0.034042484279620616,0.3925681641168543
1590515653.883723,-0.31723001585011,-3.28830995244967,8.668093965129758,0.4,0.27111111111111114,-0.5933333333333334,-0.03534804235568624,-0.0357188179863292,0.5027060023465475
1590515653.893723,-0.1446166020737374,-2.7754185013087675,8.79572205425806,0.4,0.27111111111111114,-0.5933333333333334,-0.040286855602086356,-0.045704067839427376,0.5785292536779342
1590515653.903723,-0.14783446887581295,-2.6891402136884484,8.838694255187365,0.4,0.27111111111111114,-0.5933333333333334,-0.03267627694882384,-0.04168779253593706,0.6665532644606819
1590515653.913723,-0.20771551894824378,-2.8040086326377063,8.783706886310537,0.42057471719531675,0.2771120702930785,-0.6156226102949265,-0.018356047540075294,-0.05619659719441261,0.8187625617428158
1590515653.923723,-0.2291538705919729,-2.871076988245261,8.808307741183945,0.4266666666666667,0.2788888888888889,-0.6222222222222222,-0.021934096842960875,-0.0712312616487583,0.9259727858712501
1590515653.933723,-0.2685653432726547,-2.999978701454291,8.730021298545708,0.4266666666666667,0.2788888888888889,-0.6222222222222222,-0.022752111315839253,-0.08648514039492858,1.0484274539191833
1590515653.943723,-0.29172522894658204,-3.075175686839746,8.736900915786327,0.4266666666666667,0.2788888888888889,-0.6222222222222222,-0.02309563971660414,-0.09629456324724342,1.1374785576718673
1590515653.953723,-0.3,-3.1107386661998953,8.807585331699633,0.4266666666666667,0.2788888888888889,-0.6222222222222222,-0.022826870449542062,-0.10679916919926377,1.227296329242131
1590515653.963723,-0.33438709110094966,-3.1715806366514245,8.87438709110095,0.43048745456677223,0.2667897272052214,-0.6094862625552038,-0.023692140524600412,-0.11485627043003001,1.3222417273166711
1590515653.973723,-0.39010357500835285,-3.21,8.869896424991646,0.43333333333333335,0.2577777777777778,-0.6,-0.028372898625648714,-0.11753984138417835,1.424569786149009
1590515653.983723,-0.4081307971185084,-3.2181307971185085,8.786822825933424,0.43333333333333335,0.2577777777777778,-0.6,-0.03211322826233505,-0.12224438640116847,1.5109837828027621
1590515653.993723,-0.44246342220206697,-3.2443475666515504,8.79434756665155,0.43333333333333335,0.2577777777777778,-0.6,-0.03361022598097352,-0.12414918092817934,1.5933552551746097
1590515654.003723,-0.4966652961331376,-3.2699994126284873,8.8,0.43333333333333335,0.2577777777777778,-0.6,-0.03454295342162355,-0.12726350586152962,1.6627881423355455
1590515654.013723,-0.5281837291030316,-3.28,8.816367458206063,0.45515661094141735,0.22504286136565177,-0.6,-0.03490658503988659,-0.134966976869421,1.754864446521762
1590515654.023723,-0.5446002405773858,-3.28,8.790799518845228,0.46,0.21777777777777774,-0.6,-0.03570290463256989,-0.14113176536815683,1.8202919831409834
1590515654.0337229,-0.6204289757893869,-3.3191272087718815,8.670443815438732,0.46,0.21777777777777774,-0.6,-0.03941190892330575,-0.15058144198411183,1.8937725889037877
1590515654.0437229,-0.6799132066619751,-3.3433044022206584,8.666608804441317,0.46,0.21777777777777774,-0.6,-0.039635096378118455,-0.15779580756925674,1.9524924238238226
1590515654.0537229,-0.7,-3.367785714285714,8.739285714285714,0.46,0.21777777777777774,-0.6,-0.03926990816987242,-0.1648790727743393,2.0099725914764157
1590515654.0637228,-0.7323110861196418,-3.3746148189800595,8.80154072407976,0.4629917672333002,0.19683540714467654,-0.6119670689332006,-0.039857340292459076,-0.17092510111738748,2.0661207439755693
1590515654.0737228,-0.8034420526659779,-3.391721026332989,8.828688410533196,0.4655555555555556,0.17888888888888888,-0.6222222222222222,-0.040834618235397684,-0.17533761154905173,2.1165243564791107
1590515654.0837228,-0.86599096421353,-3.4080180715729402,8.81004517893235,0.4655555555555556,0.17888888888888888,-0.6222222222222222,-0.04471913382534187,-0.18107298163739885,2.1781235952216
1590515654.0937228,-0.9070771202236719,-3.4052967314605245,8.795296731460525,0.4655555555555556,0.17888888888888888,-0.6222222222222222,-0.045750156102596085,-0.18268178768702883,2.223381775952637
1590515654.1037228,-0.9760265946942268,-3.400993351326443,8.809006648673558,0.4655555555555556,0.17888888888888888,-0.6222222222222222,-0.04570653504437935,-0.18364245011994512,2.2645792096181996
1590515654.1137228,-1.0404309908743248,-3.3797845045628376,8.809784504562838,0.4729334133712839,0.15618778791741703,-0.6182495295522147,-0.04690572364734761,-0.1865555707125284,2.3102925665961167
1590515654.1237228,-1.0962995504699633,-3.3845198201879856,8.821779730281978,0.48,0.13444444444444445,-0.6144444444444445,-0.04690572364734761,-0.18762289458939044,2.358031115784452
1590515654.1337228,-1.1611256658445084,-3.39,8.742356001409414,0.48,0.13444444444444445,-0.6144444444444445,-0.04690572364734761,-0.18762289458939044,2.392891528120425
1590515654.1437228,-1.2110109589775193,-3.335730821789341,8.73325821923314,0.48,0.13444444444444445,-0.6144444444444445,-0.04775141636353293,-0.19100566545413172,2.4189232373809024
1590515654.1537228,-1.2267052993365837,-3.2998841019902487,8.753410598673167,0.48,0.13444444444444445,-0.6144444444444445,-0.04799655442984406,-0.19418052179603587,2.4304089109371043
1590515654.1637228,-1.3027516671959352,-3.314250555731978,8.76,0.5015560495395364,0.10300853886595393,-0.6261206379450267,-0.04799655442984406,-0.1943769349773627,2.435407025928599
1590515654.1737227,-1.341616133239691,-3.312794622253436,8.810437644225946,0.5066666666666667,0.09555555555555556,-0.6288888888888889,-0.05035450878348404,-0.2004557575607424,2.434253167745493
1590515654.1837227,-1.4198034438846132,-3.3022440617905984,8.752440617905986,0.5066666666666667,0.09555555555555556,-0.6288888888888889,-0.04873092193354676,-0.20204848392974523,2.4311053509058067
1590515654.1937227,-1.4802581796549672,-3.3,8.786361451516955,0.5066666666666667,0.09555555555555556,-0.6288888888888889,-0.04799655442984406,-0.20268199199414255,2.42246630831142
1590515654.2037227,-1.5247552562756121,-3.265244743724388,8.82780420502049,0.5066666666666667,0.09555555555555556,-0.6288888888888889,-0.044205344089944976,-0.19910331520444172,2.411454601543878
1590515654.2137227,-1.6068548712206048,-3.2196114221724526,8.876466293393058,0.5066666666666667,0.055712753514993156,-0.641719621749409,-0.0458572801304196,-0.1961144197866354,2.3995078258983393
1590515654.2237227,-1.6868498853626162,-3.1926300229274767,8.885260045854954,0.5066666666666667,0.03,-0.65,-0.04558473507274362,-0.19123901113836486,2.383922350365619
1590515654.2337227,-1.7248733561250718,-3.1568355251665707,8.797088812916428,0.5066666666666667,0.03,-0.65,-0.04381964133151386,-0.18980455615438327,2.363008773141291
1590515654.2437227,-1.7519842976759725,-3.120687603098703,8.78,0.5066666666666667,0.03,-0.65,-0.04203448805742383,-0.18660706966951449,2.3442789217367075
1590515654.2537227,-1.8147407191001859,-3.0795884893887857,8.78,0.5066666666666667,0.03,-0.65,-0.043441998449881135,-0.1827873280710431,2.3234812441906136
1590515654.2637227,-1.8729615803904727,-3.02938455947937,8.787653860130156,0.51006838228007,-0.025277878717804715,-0.6627564335502626,-0.04555896870584451,-0.18274772314139134,2.2877699843467987
1590515654.2737226,-1.9009978303668287,-2.992002892844228,8.803998553577886,0.5111111111111111,-0.042222222222222223,-0.6666666666666666,-0.042760882234214405,-0.17944205817110864,2.250823234426544
1590515654.2837226,-1.944391282200553,-2.9357826371707176,8.780521758113812,0.5111111111111111,-0.042222222222222223,-0.6666666666666666,-0.041987499295920834,-0.1778054175469223,2.2148038649962856
1590515654.2937226,-2.005550073099415,-2.884889985380117,8.780660087719298,0.5111111111111111,-0.042222222222222223,-0.6666666666666666,-0.04087015214344918,-0.17669058529764725,2.1680915662673823
1590515654.3037226,-2.058503572426456,-2.857197142058835,8.867007144852913,0.5111111111111111,-0.042222222222222223,-0.6666666666666666,-0.041135462622706134,-0.1743800530133736,2.118771663160519
1590515654.3137226,-2.107841692255203,-2.805197884680996,8.9030395769362,0.5165247734940672,-0.08321138026460442,-0.6666666666666666,-0.043301664891081,-0.1696457725483404,2.059704376054724
1590515654.3237226,-2.1577222465409287,-2.7711388767295357,8.88742591781969,0.5188888888888888,-0.10111111111111112,-0.6666666666666666,-0.0408899921190739,-0.16455889152847378,2.0088355658560575
1590515654.3337226,-2.186161155662968,-2.729194221685159,8.84919422168516,0.5188888888888888,-0.10111111111111112,-0.6666666666666666,-0.03859783034458061,-0.15917339746551287,1.9543085474011566
1590515654.3437226,-2.2164175896842453,-2.6769780128946934,8.843208794842122,0.5188888888888888,-0.10111111111111112,-0.6666666666666666,-0.03601779338535579,-0.15275706467544933,1.8940490345473568
1590515654.3537226,-2.2694107434640522,-2.620589256535948,8.889410743464053,0.5188888888888888,-0.10111111111111112,-0.6666666666666666,-0.03306413709138691,-0.1450073041390119,1.834127578778085
1590515654.3637226,-2.3247708025677345,-2.5776145987161327,8.895229197432267,0.507879643303229,-0.11968921303691203,-0.6749236008559115,-0.028932017297594516,-0.13869061439594077,1.7592345583010978
1590515654.3737226,-2.2309300652459747,-2.453658736262373,8.887271328983603,0.5011111111111111,-0.13111111111111112,-0.68,-0.0272707695624114,-0.12792653121258776,1.6790962930550635
1590515654.3837225,-2.2684457606416077,-2.4242628655712015,8.654662718075178,0.5011111111111111,-0.13111111111111112,-0.68,-0.014046152672487322,-0.11657552279875827,1.603143478055078
1590515654.3937225,-2.3752257077276204,-2.450516102107533,8.84038672880295,0.5011111111111111,-0.13111111111111112,-0.68,-0.03558216111885636,-0.12836613185678958,1.5149669897378688
1590515654.4037225,-2.404501699524133,-2.4105152957171994,8.827044187627465,0.5011111111111111,-0.13111111111111112,-0.68,-0.0342018089857162,-0.12326758620857978,1.4390380578579498
1590515654.4137225,-2.4259476649728646,-2.3764869162432163,8.84622524110754,0.49966957416817415,-0.15994184996984956,-0.69873998025818,-0.02219983364026793,-0.10566266066589731,1.3451085321353344
1590515654.4237225,-2.4535571529125697,-2.4003357293688543,8.933557152912568,0.4988888888888889,-0.17555555555555555,-0.7088888888888889,-0.030689751481954554,-0.10366554673017675,1.2479025741680387
1590515654.4337225,-2.482051513782196,-2.365896972435608,8.862819701762314,0.4988888888888889,-0.17555555555555555,-0.7088888888888889,-0.026487520527894062,-0.09389524360424081,1.1651605736607367
1590515654.4437225,-2.5288534428300693,-2.3357706885660137,8.82885344283007,0.4988888888888889,-0.17555555555555555,-0.7088888888888889,-0.015228562778130405,-0.08067840972791776,1.0669021034552748
1590515654.4537225,-2.5606757154345563,-2.3506757154345563,8.908716434890062,0.4988888888888889,-0.17555555555555555,-0.7088888888888889,-0.019568647971232492,-0.07628444565512969,0.9706475601470901
1590515654.4637225,-2.564088794926004,-2.354088794926004,8.96,0.5107112990368804,-0.19788677472398403,-0.7128296922715527,-0.02102143921482388,-0.06817438709025525,0.8635200969934544
1590515654.4737225,-2.5645987161421635,-2.331605135431345,8.937006419289181,0.5188888888888888,-0.21333333333333332,-0.7155555555555555,-0.0149450819560255,-0.05825176425695886,0.7753320514006733
1590515654.4837224,-2.578616565718915,-2.31,8.878405925697312,0.5188888888888888,-0.21333333333333332,-0.7155555555555555,-0.01137252426575459,-0.04922680585129776,0.6898708280457525
1590515654.4937224,-2.5753627296587926,-2.3149274540682416,8.8,0.5188888888888888,-0.21333333333333332,-0.7155555555555555,-0.008742473327073067,-0.03715155487328518,0.5647033867044344
1590515654.5037224,-2.5075891260283774,-2.3412054369858115,8.812723262191486,0.5188888888888888,-0.21333333333333332,-0.7155555555555555,-0.003934768530209286,-0.02994913826444425,0.4696657970113681
1590515654.5137224,-2.457744504896627,-2.3545109902067467,8.837744504896627,0.5111443839922621,-0.20472832789263692,-0.7405100713335752,0.0023580224329617077,-0.019421583310766932,0.3702706749694541
1590515654.5237224,-2.427763480392157,-2.3863153594771243,8.859385893246186,0.4988888888888889,-0.19111111111111112,-0.78,0.004363323129985824,-0.005655119877721619,0.2619193286837989
1590515654.5337224,-2.510672947510094,-2.3379946164199192,8.826442350829968,0.4988888888888889,-0.19111111111111112,-0.78,-0.0031031664386765483,0.0025697408877922343,0.1713069240696812
1590515654.5437224,-2.554947873274639,-2.340104253450722,8.870104253450721,0.4988888888888889,-0.19111111111111112,-0.78,-0.008273081124541696,0.0048168882654157745,0.13979866838386004
1590515654.5537224,-2.606459029918798,-2.303346432758696,8.812957358113684,0.4988888888888889,-0.19111111111111112,-0.78,-0.00650254323503185,0.0026952458612809756,0.13581904278579549
1590515654.5637224,-2.7719053194519163,-2.2506351064839722,8.80803234074871,0.48255016543077045,-0.185664869958405,-0.8058696454753541,-0.019735473031761618,-0.011607901745057462,0.12432346962805853
1590515654.5737224,-2.7323170158789813,-2.458388612233393,8.932796204077798,0.4722222222222222,-0.18222222222222226,-0.8222222222222222,-0.04543577202820223,-0.02724606879960189,0.09845221841192314
1590515654.5837224,-2.7203881852971645,-2.5069693638074297,8.920363236568916,0.4722222222222222,-0.18222222222222226,-0.8222222222222222,-0.04659494400394232,-0.025787191726293526,0.08736824149146767
1590515654.5937223,-2.924278989371483,-2.2850627045713656,8.66757051965724,0.4722222222222222,-0.18222222222222226,-0.8222222222222222,-0.008511216106538306,0.005777299142632291,0.065607147067406
1590515654.6037223,-3.0416176785714284,-2.156764642857143,8.864853035714287,0.4722222222222222,-0.18222222222222226,-0.8222222222222222,-0.005534349454116885,0.012528522682030769,0.03360723026584327
1590515654.6137223,-3.019426675801392,-2.2085998629791224,8.81261313236938,0.46725341250095154,-0.1819674114672853,-0.8240058975067809,-0.014618579951388247,0.005641773817739846,0.021378835870994796
1590515654.6237223,-2.9489324778726855,-2.3255729911490746,8.937558845128125,0.3855555555555555,-0.17777777777777778,-0.8533333333333334,-0.014155967360994476,0.012057362907334538,0.013181585178245058
1590515654.6337223,-2.81,-2.27,8.767492889958433,0.3855555555555555,-0.17777777777777778,-0.8533333333333334,0.002318403205415242,0.0210660877980474,0.008523084969779243
1590515654.6437223,-2.737404261772958,-2.3892644270872827,8.83518540987336,0.3855555555555555,-0.17777777777777778,-0.8533333333333334,-0.0061815950212465035,0.023917376896026032,-0.013009730832361234
1590515654.6537223,-2.706390511383955,-2.4590606746930503,8.835451186077005,0.3855555555555555,-0.17777777777777778,-0.8533333333333334,-0.009419711949649334,0.026778601900979873,-0.04295225850120119
1590515654.6637223,-2.7646999209518213,-2.4041200316192715,8.832939984190364,0.36758898550332963,-0.18333108124846578,-0.8428800562120383,-0.0073151129519849695,0.034328436102344796,-0.08263906012023356
1590515654.6737223,-2.8333588741204063,-2.370540656763096,8.8372200938233,0.3244444444444444,-0.19666666666666666,-0.8177777777777778,-0.010183873370975123,0.03757259594137656,-0.13957572185857595
1590515654.6837223,-2.973592383735531,-2.368233145361978,8.872873906988424,0.3244444444444444,-0.19666666666666666,-0.8177777777777778,-0.02781938514898738,0.03307440472807905,-0.1909801609827604
1590515654.6937222,-2.9710827256726176,-2.399129494593915,8.833906462157405,0.3244444444444444,-0.19666666666666666,-0.8177777777777778,-0.020677126737984622,0.04240114382815241,-0.2174320057141692
1590515654.7037222,-2.9891064944000614,-2.371813386338443,8.820013187569282,0.3244444444444444,-0.19666666666666666,-0.8177777777777778,-0.0007912390554127412,0.05781547001296413,-0.23334032111296696
1590515654.7137222,-3.035409535452323,-2.4073777506112473,8.904590464547677,0.33355202390654715,-0.2198909942950285,-0.7899996604183646,0.005150108168705762,0.057653007246167357,-0.24956788089847326
1590515654.7237222,-2.9427724983670114,-2.494768958469416,8.849389789081101,0.3466666666666667,-0.2533333333333333,-0.75,0.004681914028997253,0.0531986811287299,-0.274804704546364
1590515654.7337222,-2.919294222675679,-2.4781698762912896,8.719437826807805,0.3466666666666667,-0.2533333333333333,-0.75,0.011246255298098138,0.05938112167335197,-0.29764282689534105
1590515654.7437222,-3.0395777327225852,-2.4450301619483867,8.749577732722585,0.3466666666666667,-0.2533333333333333,-0.75,0.002789589961585827,0.05023743884200563,-0.31195786284493016
1590515654.7537222,-3.122762961881116,-2.4591444428216738,8.84871666423251,0.3466666666666667,-0.2533333333333333,-0.75,-0.007983871269868941,0.04036073895236887,-0.3128137055947195
1590515654.7637222,-3.1472659558930918,-2.495898933839638,8.903848400759458,0.3466666666666667,-0.2533333333333333,-0.75,-0.008652086773158686,0.04036073895236887,-0.3081361970716913
1590515654.7737222,-3.093501825529049,-2.5070036510580977,8.827509127645245,0.38222222222222224,-0.2677777777777778,-0.7644444444444445,0.017236719438068752,0.04941423617843326,-0.2634296599430513
1590515654.7837222,-3.0277477595628417,-2.52516087431694,8.798069508196722,0.38222222222222224,-0.2677777777777778,-0.7644444444444445,0.019529662090717534,0.04518173414508736,-0.2320310806890891
1590515654.7937222,-2.927879700641813,-2.6034178271044275,8.891424268402883,0.38222222222222224,-0.2677777777777778,-0.7644444444444445,0.017363542059815745,0.040039699711439516,-0.2120181362444035
1590515654.8037221,-2.6480184994861253,-2.736698184309695,9.154905789653991,0.38222222222222224,-0.2677777777777778,-0.7644444444444445,0.023638104995610594,0.037551335849713215,-0.18248773113800407
1590515654.8137221,-2.271622594996437,-2.6000400593186064,8.944258806309342,0.36932158088793876,-0.27888666337118856,-0.7483186427765901,0.057984474438596736,0.06773115241827932,-0.1423743942268235
1590515654.8237221,-2.2466508622498216,-2.256650862249822,8.339489783073889,0.3422222222222222,-0.3022222222222222,-0.7144444444444444,0.09580865671126113,0.12020883822279295,-0.10194656512631188
1590515654.833722,-2.5072434948170086,-2.537708906283055,8.770966786545378,0.3422222222222222,-0.3022222222222222,-0.7144444444444444,0.008820337247425328,0.04400937984554667,-0.10316162322978964
1590515654.843722,-2.6206216063747267,-2.6855933996192087,9.160395952330584,0.3422222222222222,-0.3022222222222222,-0.7144444444444444,-0.053555553018762615,-0.04363950044228637,-0.12628372048363518
1590515654.853722,-2.67,-2.6943590948767877,9.175000335728194,0.3422222222222222,-0.3022222222222222,-0.7144444444444444,-0.05167467498343464,-0.0436612839547764,-0.14805927585497017
1590515654.863722,-2.67,-2.61,8.895506093354793,0.3462390332388033,-0.29820541120564115,-0.7061018369484684,0.012688351029660084,0.02904474284185137,-0.17824345545875306
1590515654.873722,-2.67,-2.61,8.78,0.3566666666666667,-0.2877777777777778,-0.6844444444444444,0.06544984694978735,0.06763150851478028,-0.21053034102181603
1590515654.883722,-2.8039944047985963,-2.534963133312786,8.833597761919439,0.3566666666666667,-0.2877777777777778,-0.6844444444444444,0.0227696022903002,0.0401524468846995,-0.28478227351160873
1590515654.893722,-2.867791080305258,-2.522208919694742,8.822570188335783,0.3566666666666667,-0.2877777777777778,-0.6844444444444444,-0.003360091794911018,0.022057571409837842,-0.3433707407264749
1590515654.903722,-2.8377549298570672,-2.5238371823716252,8.766449014028586,0.3566666666666667,-0.2877777777777778,-0.6844444444444444,0.012742624384308125,0.03230635180999153,-0.3393196000156506
1590515654.913722,-2.8592992709525817,-2.440891727420618,8.773375911309273,0.3597381722265738,-0.28549891881397577,-0.681868343007103,0.022733736378913606,0.04047884601485885,-0.346877287753427
1590515654.923722,-2.7566729355445374,-2.463345871089075,8.941140365874508,0.3911111111111111,-0.26222222222222225,-0.6555555555555556,0.004964781374737247,0.027146374942489167,-0.4265374022964599
1590515654.933722,-2.7811554725894316,-2.508844527410568,9.037289801516248,0.3911111111111111,-0.26222222222222225,-0.6555555555555556,-0.011116841059242712,0.016700112699684782,-0.5151303647942468
1590515654.943722,-2.8218173457838143,-2.5193911526127146,8.771208498396529,0.3911111111111111,-0.26222222222222225,-0.6555555555555556,0.016494288462599975,0.057945858197465304,-0.6751880373840349
1590515654.953722,-2.849972979611889,-2.5966216326864817,8.843351346925408,0.3911111111111111,-0.26222222222222225,-0.6555555555555556,0.024726480225623217,0.06871644436305542,-0.7791214875267239
1590515654.963722,-2.86825735362779,-2.6509117564665234,8.835227939116631,0.3953709133542918,-0.2552516367333811,-0.6518766354364449,0.02646948921247862,0.07555687442481915,-0.8704773416980982
1590515654.973722,-2.86042412923709,-2.7449104491549163,8.858727612288728,0.41451879519822377,-0.22391873917058341,-0.6353398283894128,0.03757762819152868,0.08666501340386919,-0.9636148146762871
1590515654.983722,-2.9174047235165927,-2.8172776882053827,8.795063517655606,0.4155555555555556,-0.2222222222222222,-0.6344444444444445,0.03572817247745722,0.09814705561909468,-1.1321497308952448
1590515654.993722,-2.939698623341188,-2.869296787796106,8.780200917772541,0.4155555555555556,-0.2222222222222222,-0.6344444444444445,0.03491754340443852,0.10463208820324432,-1.2269933324384334
1590515655.003722,-2.9759388655001096,-2.836992358187514,8.776992358187513,0.4155555555555556,-0.2222222222222222,-0.6344444444444445,0.028574764946830686,0.1076641646399708,-1.3223250807605096
1590515655.013722,-2.927316762719655,-2.849511367252413,8.75536647456069,0.4220593446396933,-0.21246653859601566,-0.6344444444444445,0.027456862216144927,0.10557119168418233,-1.3095037666771383
1590515655.023722,-2.90815118067493,-2.998347507464037,8.900644621369764,0.44222222222222224,-0.18222222222222226,-0.6344444444444445,0.03817907738737596,0.1014472627721704,-1.213003830136059
1590515655.033722,-2.8462495614254926,-3.0908330409503284,9.014579970928775,0.44222222222222224,-0.18222222222222226,-0.6344444444444445,0.03917903749870259,0.0984473824381905,-1.1750053459056469
1590515655.043722,-2.7698635833724836,-3.101224617633241,8.844013328461312,0.44222222222222224,-0.18222222222222226,-0.6344444444444445,0.041518362265421695,0.09104353370034891,-1.091513246897901
1590515655.053722,-2.658623279816514,-3.120725917431193,8.769637041284403,0.44222222222222224,-0.18222222222222226,-0.6344444444444445,0.04032934003879013,0.08099043274216519,-1.0205670817901735
1590515655.063722,-2.670762971388573,-3.0,8.848167599965002,0.45289208251912777,-0.17039886351484043,-0.6344444444444445,0.019351842980851852,0.06132802129004492,-1.0217086755263745
1590515655.073722,-2.6964848233832317,-3.0311212354298562,8.868878764570145,0.4833333333333333,-0.13666666666666666,-0.6344444444444445,0.024028031252596185,0.06334421630969717,-1.0439845669244565
1590515655.0837219,-2.6069826125164774,-3.1198104324901137,8.73263825246375,0.4833333333333333,-0.13666666666666666,-0.6344444444444445,0.040710563474858005,0.08263602937729962,-1.1010618316892145
1590515655.0937219,-2.611407435223432,-3.1,8.680794592564776,0.4833333333333333,-0.13666666666666666,-0.6344444444444445,0.03728511227294853,0.09016873607329662,-1.15477255486538
1590515655.1037219,-2.5067798199549887,-3.130960240060015,8.796760440110027,0.4833333333333333,-0.13666666666666666,-0.6344444444444445,0.03698138665013007,0.0882504334274635,-1.1933667620379784
1590515655.1137218,-2.40160290887054,-3.2343989091735477,8.926402545261723,0.4833333333333333,-0.1348890235588213,-0.634622208755229,0.053232476079878556,0.10537412137726067,-1.2303253239212033
1590515655.1237218,-2.185279232111693,-3.3226178010471203,8.771029668411867,0.4833333333333333,-0.12555555555555556,-0.6355555555555555,0.05391426383192126,0.1140784359691407,-1.3183270640655818
1590515655.1337218,-2.1248831405410327,-3.383644958557246,8.836355041442754,0.4833333333333333,-0.12555555555555556,-0.6355555555555555,0.03982807095062737,0.11328584189839322,-1.439924850031876
1590515655.1437218,-2.1019613808179254,-3.4447696511521997,8.7752303488478,0.4833333333333333,-0.12555555555555556,-0.6355555555555555,0.0423284470601227,0.11745313541421878,-1.5524417749591666
1590515655.1537218,-2.0060547256736,-3.5639452743263997,8.751972637163199,0.4833333333333333,-0.12555555555555556,-0.6355555555555555,0.04953267199274253,0.14678702063194138,-1.7642565290380454
1590515655.1637218,-1.993042486853739,-3.5769575131462608,8.75847875657313,0.4833333333333333,-0.12555555555555556,-0.6355555555555555,0.047403549394657525,0.1560132185569765,-1.8806485644000261
1590515655.1737218,-1.9900133948504242,-3.631440052728935,8.818586736971913,0.49,-0.07222222222222223,-0.6288888888888889,0.049709882144328796,0.172037092865412,-2.1071416779837855
1590515655.1837218,-1.929469964664311,-3.5842402826855126,8.746289752650176,0.49,-0.07222222222222223,-0.6288888888888889,0.05368197988631851,0.18418465763537334,-2.25675158080144
1590515655.1937218,-1.9138950334624867,-3.66915744980627,8.692209933075027,0.49,-0.07222222222222223,-0.6288888888888889,0.05914592855735821,0.20337665814943998,-2.4239736201184092
1590515655.2037218,-1.8881006490379986,-3.6971396105772008,8.739038961539203,0.49,-0.07222222222222223,-0.6288888888888889,0.062177354602297986,0.21099713163784917,-2.522822080277366
1590515655.2137218,-1.8445442547697606,-3.72204590446134,8.799318031846221,0.4905304196751622,-0.06957012384641133,-0.6299497282392132,0.062177354602297986,0.2162820596762285,-2.5972444957518053
1590515655.2237217,-1.7574692191595838,-3.7575184685042498,8.797518468504249,0.4977777777777778,-0.03333333333333333,-0.6444444444444445,0.059990320767187126,0.22007443883489525,-2.6886674777853186
1590515655.2337217,-1.7132406719191318,-3.7901389921213022,8.759166047272187,0.4977777777777778,-0.03333333333333333,-0.6444444444444445,0.05713734991212816,0.22220630053762913,-2.7538074994393638
1590515655.2437217,-1.6716305183459523,-3.802907629586488,8.700285148514853,0.4977777777777778,-0.03333333333333333,-0.6444444444444445,0.06551950256247979,0.2291441199369482,-2.7882642405513924
1590515655.2537217,-1.606248189280541,-3.8505079671656204,8.815500724287784,0.4977777777777778,-0.03333333333333333,-0.6444444444444445,0.0661314186699952,0.23095610792029164,-2.808644657581493
1590515655.2637217,-1.560463690776664,-4.005231845388332,8.831589384870556,0.4998969576051858,-0.029094973678517343,-0.6409124780654312,0.06287085457911264,0.23103217007777052,-2.827158851602061
1590515655.2737217,-1.4431915848024044,-3.929893688601803,8.773191584802404,0.5111111111111111,-0.006666666666666667,-0.6222222222222222,0.06881807385188822,0.23653040746707624,-2.839983740616807
1590515655.2837217,-1.3394940149953962,-3.9160319200245537,8.704513965010742,0.5111111111111111,-0.006666666666666667,-0.6222222222222222,0.06702872251259659,0.2374191021894451,-2.841885807994349
1590515655.2937217,-1.2843841111639545,-4.022543992059718,8.72964806352226,0.5111111111111111,-0.006666666666666667,-0.6222222222222222,0.06058909632147862,0.2367102798017309,-2.838064189570862
1590515655.3037217,-1.1771048834082187,-4.03675527204749,8.676755272047489,0.5111111111111111,-0.006666666666666667,-0.6222222222222222,0.06809072283783049,0.23649974098191548,-2.8367245182237433
1590515655.3137217,-1.1564710898297859,-4.084900790397167,8.724900790397166,0.5111111111111111,-0.006666666666666667,-0.6222222222222222,0.06358912739882401,0.23499920916891331,-2.832973188691238
1590515655.3237216,-1.0836286120322123,-4.171873937637584,8.738126062362415,0.5366666666666666,-0.012222222222222223,-0.65,0.0643590161672909,0.23683292873330425,-2.8174523792795814
1590515655.3337216,-0.907435346047196,-4.205341237055062,8.673247128062927,0.5366666666666666,-0.012222222222222223,-0.65,0.0643590161672909,0.23929747658406358,-2.809369246522472
1590515655.3437216,-0.8484006826051659,-4.159279453915867,8.6239191808738,0.5366666666666666,-0.012222222222222223,-0.65,0.06284066907086311,0.23746945334994482,-2.7891411920690183
1590515655.3537216,-0.8136549198933016,-4.1870760640853595,8.665614096128039,0.5366666666666666,-0.012222222222222223,-0.65,0.058292459367572796,0.23974355820159,-2.7724644231569537
1590515655.3637216,-0.7286687727436317,-4.1740468668772746,8.744046866877275,0.5439510270457605,-0.021844772352630153,-0.640197589119491,0.060821657002057765,0.23355743990501082,-2.7464214815921273
1590515655.3737216,-0.6112612468508818,-4.215978126124685,8.785978126124684,0.6194272936910998,-0.12154798878536233,-0.5386307611646517,0.05807726250190287,0.2234946600711096,-2.720807132924015
1590515655.3837216,-0.5003375005941912,-4.17,8.692795313019918,0.6266666666666667,-0.13111111111111112,-0.5288888888888889,0.0605687201313474,0.22143864884678052,-2.678155241245564
1590515655.3937216,-0.4053174810556572,-4.164664227854717,8.653339430363209,0.6266666666666667,-0.13111111111111112,-0.5288888888888889,0.05563236990731925,0.2208566063963343,-2.6386424182438093
1590515655.4037216,-0.2945216214063869,-4.152211196941945,8.68557760611611,0.6266666666666667,-0.13111111111111112,-0.5288888888888889,0.056597186583493386,0.21901578311274414,-2.602765543210949
1590515655.4137216,-0.2477587003265111,-4.15889161423907,8.67221677152186,0.6266666666666667,-0.13111111111111112,-0.5288888888888889,0.05951206851454373,0.21828706262998154,-2.5765316058314953
1590515655.4237216,-0.18858579606993658,-4.187171592139873,8.777146449017483,0.94,-0.3711111111111111,0.14,0.051421941150704,0.2117781802114635,-2.524346295826918
1590515655.4337215,-0.12368868946309762,-4.057377378926195,8.760922172365774,0.94,-0.3711111111111111,0.14,0.06469539644727162,0.20646879809283644,-2.4880655180162994
1590515655.4437215,0.014004311611954923,-4.09,8.70601724644782,0.94,-0.3711111111111111,0.14,0.04734135047448979,0.20638306759076028,-2.4190152906523905
1590515655.4537215,0.03293942300215143,-4.089706057699785,8.765884807796988,0.94,-0.3711111111111111,0.14,0.04504470339170718,0.19853120241435496,-2.3765682199501876
1590515655.4637215,0.13752268261069533,-4.073417652715642,8.641284023916043,0.9430299693848634,-0.26401736561162914,0.11137201339818725,0.05429889917153095,0.19781317971046894,-2.323692412358764
1590515655.4737215,0.20767027637245472,-4.012038508174102,8.746505414558682,0.9712838613166831,0.7346115733578624,-0.15557855175073054,0.04186453655010613,0.19111775368354791,-2.274911451305482
1590515655.4837215,0.24955943182705065,-3.9467049090767192,8.75791188636541,0.9722222222222222,0.7677777777777778,-0.16444444444444445,0.04145156973486533,0.1865801223393781,-2.2232342813915946
1590515655.4937215,0.30553221368251254,-3.938298320523769,8.644149160261884,0.9722222222222222,0.7677777777777778,-0.16444444444444445,0.045211421966827876,0.18265610056138132,-2.137586805469126
1590515655.5037215,0.3373705285131417,-3.986055792769713,8.668027896384856,0.9722222222222222,0.7677777777777778,-0.16444444444444445,0.041738400578821507,0.17918307917337495,-2.0785454418730183
1590515655.5137215,0.40162522537632606,-3.98,8.795124323871022,0.9521777759142009,0.7562808130785824,-0.18834127682968305,0.04266059024196117,0.17423745088793446,-1.9896656505933437
1590515655.5237215,0.4280055767537423,-3.98,8.715983269738773,0.6268201089260672,0.5696642533346379,-0.5762301470828033,0.04457902353099839,0.1694413676653414,-1.9186836188989664
1590515655.5337214,0.46128963289814856,-3.97,8.795496974935178,0.6022222222222222,0.5555555555555556,-0.6055555555555555,0.03916381727177037,0.16017686167239698,-1.8198286823251586
1590515655.5437214,0.4767096825063078,-3.9661658957106813,8.639585260723297,0.6022222222222222,0.5555555555555556,-0.6055555555555555,0.0450829800429853,0.15110268389424605,-1.7321829750019535
1590515655.5537214,0.5428696446236969,-3.9242607107526064,8.725695533064455,0.6022222222222222,0.5555555555555556,-0.6055555555555555,0.03739650321478748,0.14444966167483042,-1.6358758673661193
1590515655.5637214,0.5588284757628796,-3.892343048474241,8.70175728635568,0.6022222222222222,0.5555555555555556,-0.6055555555555555,0.0330444071499666,0.13487505033222452,-1.5610198150512005
1590515655.5737214,0.5986355278976027,-3.904242981401598,8.73,0.4355555555555555,0.4544444444444444,-0.6644444444444444,0.027113771234847865,0.12605721827645003,-1.4418152484969238
1590515655.5837214,0.643126370129411,-3.874582419913726,8.73,0.4355555555555555,0.4544444444444444,-0.6644444444444444,0.02630490489742037,0.11796855490217506,-1.367399545453594
1590515655.5937214,0.6849116232590094,-3.8932744155060064,8.651637207753003,0.4355555555555555,0.4544444444444444,-0.6644444444444444,0.02617993877991494,0.1110161331363967,-1.2467952392432642
1590515655.6037214,0.7373043532571357,-3.928202902171424,8.669101451085712,0.4355555555555555,0.4544444444444444,-0.6644444444444444,0.02617993877991494,0.09672823247115128,-1.1534476215636609
1590515655.6137214,0.7646133382826034,-3.93,8.731533345706508,0.4355555555555555,0.4544444444444444,-0.6644444444444444,0.023495040074048727,0.09532188418322156,-1.0801798969691796
1590515655.6237214,0.7733595239021355,-3.870235715119219,8.756719047804271,0.37283994796461245,0.4544444444444444,-0.6777253966401735,0.025438433518920424,0.0869342787654108,-0.9678411710694965
1590515655.6337214,0.7722928774024634,-3.76,8.782548148441993,0.3411111111111111,0.4544444444444444,-0.6844444444444444,0.020475670742322895,0.07367626495953948,-0.8105918173682691
1590515655.6437213,0.8055697482991848,-3.76,8.674398318027649,0.3411111111111111,0.4544444444444444,-0.6844444444444444,0.016845727230392488,0.06641637793567866,-0.717120771936061
1590515655.6537213,0.8469186872994598,-3.76,8.704302424759351,0.3411111111111111,0.4544444444444444,-0.6844444444444444,0.014751580115222368,0.05981176127200172,-0.620105400325926
1590515655.6637213,0.8846528857845771,-3.809305771569154,8.695347114215423,0.3411111111111111,0.4544444444444444,-0.6844444444444444,0.015077204395493461,0.04884998924191684,-0.49691341413447115
1590515655.6737213,0.8830049067713445,-3.861970559371933,8.794926398429833,0.3146852033584123,0.46299400283502345,-0.6867761421873296,0.006115075330650397,0.04156439953317262,-0.39733623654035133
1590515655.6837213,0.94,-3.85,8.733567555522544,0.3033333333333333,0.4666666666666667,-0.6877777777777778,0.011437801932044285,0.0279405978383453,-0.2438743715314758
1590515655.6937213,0.94,-3.85,8.65568186882567,0.3033333333333333,0.4666666666666667,-0.6877777777777778,0.004640993566858391,0.022842991564455885,-0.15891426696665206
1590515655.7037213,0.9394096309429194,-3.868819261885839,8.712361476228324,0.3033333333333333,0.4666666666666667,-0.6877777777777778,0.0011552300565461438,0.010393113632567057,-0.02647819389207396
1590515655.7137213,0.9308622200485012,-3.8517244400970023,8.746551119805995,0.3033333333333333,0.4666666666666667,-0.6877777777777778,0.002087607947973848,0.002934090501145426,0.06396246157641332
1590515655.7237213,0.8838322844328704,-3.7812335431134256,8.765065827546296,0.3111111111111111,0.4622222222222222,-0.7177777777777777,-0.0031379336675232163,-0.004618079147150885,0.19223191898883504
1590515655.7337213,0.8459063946759259,-3.788818721064815,8.73472511574074,0.3111111111111111,0.4622222222222222,-0.7177777777777777,-0.0023105191075143755,-0.012892224747239289,0.26752664394963954
1590515655.7437212,0.8255208826593428,-3.7425348044322377,8.680746519556775,0.3111111111111111,0.4622222222222222,-0.7177777777777777,-0.0072286522213416415,-0.02448687312228229,0.3783250436269749
1590515655.7537212,0.7721506184908072,-3.6559142008497196,8.696989510095124,0.3111111111111111,0.4622222222222222,-0.7177777777777777,-0.002650853735228632,-0.030836507016298094,0.4618673176109312
1590515655.7637212,0.8036902658194534,-3.7426482310034963,8.799493363913223,0.3111111111111111,0.4622222222222222,-0.7177777777777777,-0.009531737370262486,-0.03513705928819424,0.5323963748700282
1590515655.7737212,0.8313530197925285,-3.7671176732641762,8.713234901037358,0.29924832233748416,0.4416600550146022,-0.6750717381927208,-0.00547338385754379,-0.04065592208017227,0.6086196388012475
1590515655.7837212,0.8330788091878513,-3.7730788091878513,8.819532048761305,0.29444444444444445,0.43333333333333335,-0.6577777777777778,-0.013710615795478168,-0.0505812311751019,0.7267485289505773
1590515655.7937212,0.8810191555250617,-3.8205095777625306,8.661783522168857,0.29444444444444445,0.43333333333333335,-0.6577777777777778,-0.006656157316867595,-0.0567232006898157,0.8164001135122166
1590515655.8037212,0.912130101804291,-3.8360650509021452,8.716227678157509,0.29444444444444445,0.43333333333333335,-0.6577777777777778,-0.010049835104265287,-0.0567232006898157,0.8969999609629119
1590515655.8137212,0.8175589240600387,-3.7654973993163914,8.674123049487294,0.29444444444444445,0.43333333333333335,-0.6577777777777778,-0.004813078059835455,-0.07196127510263847,1.0250710805968002
1590515655.8237212,3.5926680095220656,-13.1877348470976,0.29134224501007144,0.2733333333333333,0.4488888888888889,-0.68,-0.8969161852908645,-0.7557467819936539,3.951855406801264
1590515655.8337212,2.199703286106372,-4.296937170833024,-0.3986588532008011,0.2733333333333333,0.4488888888888889,-0.68,-2.182251120150635,-0.176342210586023,11.482414873583272
1590515655.8437212,2.384340630005339,-7.175237586759209,9.682343833422317,0.2733333333333333,0.4488888888888889,-0.68,-1.9261089742963018,-1.6847901819575217,12.935820964607565
1590515655.8537211,5.403314350121611,-7.722633920626446,3.0389428723972234,0.2733333333333333,0.4488888888888889,-0.68,-0.9725315851245975,-2.0322035761149544,12.625501188055484
1590515655.8637211,-0.7764549713690787,-5.639510671525247,-4.533237896928682,0.2733333333333333,0.4488888888888889,-0.68,-0.2495498294232964,-1.0120127219696091,7.425081847843207
1590515655.8737211,-2.1676026855439035,-0.6129577493357132,6.611666700472607,0.3655555555555556,0.4266666666666667,-0.6355555555555555,0.1596194689003121,0.2036607909681541,1.6892231657921435
1590515655.883721,-0.16833187967789698,-1.0213194458530253,11.443946775927465,0.3655555555555556,0.4266666666666667,-0.6355555555555555,0.9809243760334379,-0.481223979047944,1.874828794522793
1590515655.893721,-2.3907815140410507,0.44086676666603375,8.557651850304746,0.3655555555555556,0.4266666666666667,-0.6355555555555555,2.5000234709821982,-0.15067809822848857,2.0779581194345775
1590515655.903721,1.8857846469326143,0.8948039569369814,-0.29810526515655056,0.3655555555555556,0.4266666666666667,-0.6355555555555555,2.2454894051629393,-0.36611990137926076,2.0188853669577527
1590515655.913721,-0.0605519218049535,0.5288417726170354,0.3834107444697583,0.3655555555555556,0.4266666666666667,-0.6355555555555555,0.6645528396808045,-0.2626850715270116,1.7186103512572808
1590515655.923721,-1.4120428048167388,1.0020581264513657,11.761147207392687,0.45423190996411655,0.30941682028201384,-0.6631437547048856,-0.63443698650124,-0.07023048055604364,1.528855683805989
1590515655.933721,-4.685166459240821,-1.9766521468574985,16.82784225264468,0.4655555555555556,0.29444444444444445,-0.6666666666666666,-0.9285932918824303,0.47012498807326875,1.5453432974202126
1590515655.943721,-2.417712741132545,-0.5411418792781579,9.47085213130056,0.4655555555555556,0.29444444444444445,-0.6666666666666666,0.007387120313855355,-0.17758769261009233,1.7188377654603986
1590515655.953721,-1.6684502344562382,-0.5656422531342581,7.209271125586141,0.4655555555555556,0.29444444444444445,-0.6666666666666666,0.20148878797274408,-0.29398834479861574,1.7357314007143834
1590515655.963721,-2.1786556534364028,-1.2568883046557713,9.307696639133592,0.4655555555555556,0.29444444444444445,-0.6666666666666666,-0.12346330084026158,0.010317616824613352,1.6576351804747935
1590515655.973721,-2.608140331643141,-2.0259202411950117,10.509620391941894,0.48,0.2344444444444445,-0.6877777777777778,-0.1911936201027124,-0.06502738733743502,1.607555395740045
1590515655.983721,-2.6984657099786604,-2.0916114254390257,10.616368566338418,0.48,0.2344444444444445,-0.6877777777777778,-0.012944429896570492,-0.2782098359256851,1.6765261879303615
1590515655.993721,-3.103743311420272,-9.966092531722978,6.226446262039444,0.48,0.2344444444444445,-0.6877777777777778,-0.1209289777292567,-0.051513737415709505,1.805925039545771
1590515656.003721,-11.279454211894206,-15.200150588595015,6.00201498241859,0.48,0.2344444444444445,-0.6877777777777778,-0.33514345754906577,0.01668515820039297,1.1475433934057044
1590515656.013721,-4.011294213909993,-2.439992051431913,7.816973232028053,0.48,0.2344444444444445,-0.6877777777777778,0.06900479497809325,-0.15746317668811027,0.2296814278182171
1590515656.023721,-1.12907658650471,-0.10556235816558096,6.205573296762502,0.4922222222222222,0.1988888888888889,-0.6944444444444444,0.5595830660466193,-0.009684762948148604,0.1285165747614548
1590515656.033721,-1.115381136634504,-1.0779392989502212,7.623052358328843,0.4922222222222222,0.1988888888888889,-0.6944444444444444,0.02549886187317041,-0.07243031980209227,0.1255286911017432
1590515656.043721,-1.6054276597400579,-3.8875955327262823,10.954394894544322,0.4922222222222222,0.1988888888888889,-0.6944444444444444,-0.4091683428076692,0.09747004738588401,0.14381010790740278
1590515656.053721,-1.1738710112662754,-3.5934547662416514,8.672736962828038,0.4922222222222222,0.1988888888888889,-0.6944444444444444,-0.09587168466815343,0.037112089900671774,-0.020218378927655795
1590515656.063721,-0.30784682672036756,-2.5172489852427553,7.90694534470281,0.4922222222222222,0.1988888888888889,-0.6944444444444444,0.15748416782950075,-0.015846341336062386,-0.3544863674161326
1590515656.073721,-1.109453559231233,-3.0930442643809015,8.802221254938727,0.5016403639962201,0.20316986242252436,-0.6875948867906277,0.025213874553134286,0.02307348529726281,-0.461299065035331
1590515656.083721,-1.655902841693511,-4.461116543948458,8.339614012885411,0.5044444444444445,0.20444444444444448,-0.6855555555555556,-0.04495861831020627,0.060931658980224845,-0.4621029078640004
1590515656.093721,-1.1341481548644483,-3.839262852479826,8.173155317798532,0.5044444444444445,0.20444444444444448,-0.6855555555555556,0.029924211237342492,0.030615463058801154,-0.48927227239170107
1590515656.103721,-1.248015598855724,-3.8686422518486534,9.258406919630808,0.5044444444444445,0.20444444444444448,-0.6855555555555556,0.01661310494147811,0.04021263160453221,-0.5319152784334921
1590515656.113721,-1.399282136228471,-3.994401780190392,8.631404195022652,0.5044444444444445,0.20444444444444448,-0.6855555555555556,-0.00354039430947874,0.05212151752555216,-0.5431815251565935
1590515656.123721,-1.1494938156116827,-3.9989876312233656,8.479741191144372,0.5111111111111111,0.1955555555555556,-0.6855555555555556,0.013862995507311264,0.043039345878517786,-0.5801833123189852
1590515656.1337209,-1.1407747635380936,-3.9815495270761874,8.819784222014343,0.5111111111111111,0.1955555555555556,-0.6855555555555556,0.027178410061795905,0.051599255234972205,-0.6153740507844089
1590515656.1437209,-1.2797124055569096,-4.101084084815988,9.120110650743358,0.5111111111111111,0.1955555555555556,-0.6855555555555556,0.015153375646138677,0.054391912128871296,-0.6571097104872774
1590515656.1537209,-1.234487373498534,-4.147008417667644,8.917949493994136,0.5111111111111111,0.1955555555555556,-0.6855555555555556,0.014180800172453925,0.055550787154906585,-0.6861930721925346
1590515656.1637208,-1.1875463435994744,-4.079243905999125,8.9,0.5111111111111111,0.1955555555555556,-0.6855555555555556,0.01032165390318552,0.06026334543044134,-0.7137845891324353
1590515656.1737208,-1.2632026613918361,-4.077960798417551,8.555150152850207,0.5028264300985035,0.20694699194789104,-0.6855555555555556,0.007709962939403561,0.06726077120513843,-0.7639622890798021
1590515656.1837208,-1.2138928838251775,-4.198448356369069,8.748194340679866,0.5022222222222222,0.20777777777777776,-0.6855555555555556,0.015116227297993126,0.06423132132363575,-0.7797747514213577
1590515656.1937208,-1.0536047477744808,-4.087429080118694,8.781692581602375,0.5022222222222222,0.20777777777777776,-0.6855555555555556,0.025762768835558433,0.06753919250909243,-0.8136230376525857
1590515656.2037208,-1.017380647767827,-4.027380647767827,8.803729041815366,0.5022222222222222,0.20777777777777776,-0.6855555555555556,0.02520170941076217,0.07170910464026059,-0.8493152208536571
1590515656.2137208,-0.9862027768808524,-4.029050694220213,8.69123506619309,0.5022222222222222,0.20777777777777776,-0.6855555555555556,0.018129910515802414,0.07547443038557414,-0.8881121917199089
1590515656.2237208,-0.95,-4.042784107905256,8.689109944796455,0.4988467988288509,0.21874790380623463,-0.6923064023422982,0.015009253714279752,0.08076279972455166,-0.9426699588542203
1590515656.2337208,-0.9325487714858167,-4.10235368554255,8.660195085943267,0.4977777777777778,0.2222222222222222,-0.6944444444444444,0.020982532131645686,0.0856195761383644,-1.0058750452746568
1590515656.2437208,-0.8597165929165447,-4.058884794848397,8.6372211987121,0.4977777777777778,0.2222222222222222,-0.6944444444444444,0.026695444082815826,0.08338772985557048,-1.0489275469502393
1590515656.2537208,-0.8276680925743117,-4.037668092574312,8.722017110891741,0.4977777777777778,0.2222222222222222,-0.6944444444444444,0.026943053700476793,0.09017690011032592,-1.1100006648196763
1590515656.2637208,-0.7536336157772161,-4.051748674495813,8.73237698825628,0.4977777777777778,0.2222222222222222,-0.6944444444444444,0.022975984831524007,0.09592457046058969,-1.152582042303728
1590515656.2737207,-0.7332725347140503,-4.06,8.72,0.48816571219371874,0.2303555084856568,-0.7040565100285034,0.021451678968988024,0.1025301350340132,-1.21075452114551
1590515656.2837207,-0.6618955846397239,-4.035971523083561,8.711990507694521,0.4833333333333333,0.2344444444444445,-0.7088888888888889,0.02356401580172626,0.10559345519555834,-1.2765460959720287
1590515656.2937207,-0.6230350253423103,-4.114824873288448,8.718482487328846,0.4833333333333333,0.2344444444444445,-0.7088888888888889,0.03232593967631811,0.11228765670546427,-1.3474900871871311
1590515656.3037207,-0.49475097121227213,-3.9868582528140255,8.711053640800877,0.4833333333333333,0.2344444444444445,-0.7088888888888889,0.03576754705852496,0.11637409058133365,-1.4166381082421327
1590515656.3137207,-0.44374055342960983,-3.955496221371844,8.768015114512623,0.4833333333333333,0.2344444444444445,-0.7088888888888889,0.032833182184361674,0.12146524418415285,-1.471788734137701
1590515656.3237207,-0.42438115944973887,-4.011807246052872,8.784381159449739,0.4639795492157673,0.2531739129453148,-0.7007727858718451,0.028569490575315153,0.1275543213860144,-1.5299146764122258
1590515656.3337207,-0.3877225488449433,-4.124554902310113,8.76386127442247,0.4488888888888889,0.2677777777777778,-0.6944444444444444,0.02706016971242648,0.13442061762962088,-1.585185200396496
1590515656.3437207,-0.31506844494492736,-4.1701368898898545,8.669360594010628,0.4488888888888889,0.2677777777777778,-0.6944444444444444,0.03017467419221308,0.13962634015954636,-1.649530455884791
1590515656.3537207,-0.26190234668000145,-4.0638046933600025,8.637866199949995,0.4488888888888889,0.2677777777777778,-0.6944444444444444,0.037660292807994586,0.14308109869271698,-1.725231541285337
1590515656.3637207,-0.22866258038585208,-4.027558279742765,8.780466237942123,0.4488888888888889,0.2677777777777778,-0.6944444444444444,0.04115979003801991,0.15014783710916627,-1.7925588708348321
1590515656.3737206,-0.11443020719738276,-4.173797709923664,8.848143402399128,0.4425175693687144,0.2925551314673452,-0.6993999151823579,0.0370882466048795,0.15281296167717867,-1.865955865591135
1590515656.3837206,-0.051187134502923975,-4.232374269005848,8.768309941520467,0.4388888888888889,0.30666666666666664,-0.7022222222222222,0.03228157412177378,0.16412282722308227,-1.946480999937629
1590515656.3937206,-0.0063812764843507105,-4.092912583236531,8.597987598370445,0.4388888888888889,0.30666666666666664,-0.7022222222222222,0.03843132787869326,0.16648600245809092,-2.007787196686758
1590515656.4037206,0.11682278331429473,-4.158958128175838,8.634062315358253,0.4388888888888889,0.30666666666666664,-0.7022222222222222,0.0466046033052932,0.16852199083713032,-2.0861626750507907
1590515656.4137206,0.03982700036891054,-4.4854324990777235,8.631799312661398,0.4388888888888889,0.30666666666666664,-0.7022222222222222,0.05024993129354837,0.17433665063559406,-2.143342827038583
1590515656.4237206,-10.534895345973897,-23.76439828332219,8.2546139233827,0.3902890835395144,0.3309665693413539,-0.7082971978908941,0.015484486280890788,0.2254213496623617,-2.1590445641999385
1590515656.4337206,-10.26011474249871,-23.381837792354325,7.979782754202445,0.3855555555555555,0.3333333333333333,-0.7088888888888889,0.04644424158407885,0.18124479609394836,-1.861533030605805
1590515656.4437206,0.5041670650781196,-4.764924174332101,5.990556309881242,0.3855555555555555,0.3333333333333333,-0.7088888888888889,0.33168233717110396,-0.22386329671829885,0.5997392481865305
1590515656.4537206,0.3918687932591034,-2.691561841709299,7.785200120373157,0.3855555555555555,0.3333333333333333,-0.7088888888888889,0.24078735422803427,-0.04068408181145977,0.31081685216987953
1590515656.4637206,0.34904480590759407,-3.4112663406845622,9.541994411735356,0.3855555555555555,0.3333333333333333,-0.7088888888888889,-0.10401855807659724,0.0003200539533675361,-0.13207334117337172
1590515656.4737206,0.18976921487128845,-4.221740418398512,9.600771120857923,0.3855555555555555,0.34584487258976887,-0.6935970075754676,-0.18730361360209621,0.09007661623839609,-0.36169348108001365
1590515656.4837205,0.4489478348201098,-4.456695811425533,8.926490813493237,0.3855555555555555,0.3533333333333333,-0.6844444444444444,-0.010034199670313299,0.0531188900816142,-0.43047629101971807
1590515656.4937205,0.2335914115230363,-3.6959437053702437,8.488334882128534,0.3855555555555555,0.3533333333333333,-0.6844444444444444,0.017294891043212784,-0.0020929642072750054,0.009209319941339444
1590515656.5037205,0.016393976196259402,-4.55368957979111,8.639632742288073,0.3855555555555555,0.3533333333333333,-0.6844444444444444,0.00848262023357397,-0.010400224971305293,0.0474192646292846
1590515656.5137205,0.04302063719915736,-4.64058630525158,8.77941369474842,0.3855555555555555,0.3533333333333333,-0.6844444444444444,0.0061899018983647535,-0.004401696718967588,0.006001104654005083
1590515656.5237205,0.023097594546765424,-4.363305040309366,8.736195189093532,0.37600136185211885,0.36896746848441153,-0.6853130075083933,0.0020433147363810846,-0.003648960164572352,-0.0012903791022151178
1590515656.5337205,0.06096959044615126,-4.350969590446152,8.7779594539282,0.37333333333333335,0.37333333333333335,-0.6855555555555556,-0.0035424357366617984,0.0002699433891724303,0.002944137390159758
1590515656.5437205,0.06465739957475022,-4.416097304465123,8.717874894259127,0.37333333333333335,0.37333333333333335,-0.6855555555555556,-0.0037805358297417126,0.001090830782496456,0.0021069177470011457
1590515656.5537205,0.053969968282009076,-4.558090095153973,8.55969968282009,0.37333333333333335,0.37333333333333335,-0.6855555555555556,-0.001748605204237905,0.001090830782496456,-0.0002247180609864422
1590515656.5637205,0.039029519432977645,-4.424662356881377,8.688154061842821,0.37333333333333335,0.37333333333333335,-0.6855555555555556,0.0029123372195975945,0.0016627119256527488,0.000518949639340163
1590515656.5737205,0.03147735465687881,-4.371648095955955,8.772954709313757,0.38417305717594114,0.368869917633436,-0.6938447561410791,0.00529299951884349,0.002181661564992912,-0.0006259925880676228
1590515656.5837204,0.03455820687839642,-4.426325379364811,8.724698482540756,0.3922222222222223,0.3655555555555556,-0.7,0.004363323129985824,0.004556091744601977,-0.001090830782496456
1590515656.5937204,0.03,-4.433836565579193,8.602202221371122,0.3922222222222223,0.3655555555555556,-0.7,-0.0010152880637058336,0.005200331896555822,0.0002538220159264584
1590515656.6037204,0.043528742672149796,-4.436764371336075,8.627643713360749,0.3922222222222223,0.3655555555555556,-0.7,-0.001411809338934953,0.0028875662344603884,-0.00038492611302897947
1590515656.6137204,0.05,-4.423444512195122,8.637926016260161,0.3922222222222223,0.3655555555555556,-0.7,0.0006019745238935219,0.0015796870410993901,0.0007150927891841096
1590515656.6237204,0.043809049604779986,-4.428572851185661,8.70667330553308,0.37571302116830224,0.3655555555555556,-0.6869302158323133,0.0058181262673066714,-0.0002598250703064627,0.002181661564992912
1590515656.6337204,0.03265050105158976,-4.381204008412718,8.73795150315477,0.3655555555555556,0.3655555555555556,-0.6788888888888889,0.0015112925400055438,0.0021159930930440343,0.0005782496272226667
1590515656.6437204,0.02261049593034261,-4.41911603255726,8.663494463373084,0.3655555555555556,0.3655555555555556,-0.6788888888888889,-0.00270297048380948,0.0016603526461763441,0.0
1590515656.6537204,0.05437194199804288,-4.412502446401566,8.674371941998043,0.3655555555555556,0.3655555555555556,-0.6788888888888889,-0.004772251242915284,-0.0004089281129294605,0.0014997588954259165
1590515656.6637204,0.058753982015403855,-4.422492035969193,8.69,0.3655555555555556,0.3655555555555556,-0.6788888888888889,-0.0011605280031450962,0.00013591947731416776,0.0009549113051822882
1590515656.6737204,0.038475908417815244,-4.411189771044538,8.724572274746555,0.3700371467264052,0.3655555555555556,-0.6872118439204667,0.004695828332623995,0.0023479141663119985,0.0006285416919077711
1590515656.6837204,0.04076091062729894,-4.379239089372701,8.776902276568247,0.37333333333333335,0.3655555555555556,-0.6933333333333334,0.005958068066981189,0.0026855757194918215,0.0005039141544989096
1590515656.6937203,0.055071564109514776,-4.395357820547574,8.71378341013825,0.37333333333333335,0.3655555555555556,-0.6933333333333334,0.0010283793156319254,0.002181661564992912,0.0
1590515656.7037203,0.06,-4.433300495368168,8.643300495368168,0.37333333333333335,0.3655555555555556,-0.6933333333333334,-0.003997921835991811,0.0007308025879880263,-0.0014508589770048856
1590515656.7137203,0.06,-4.44,8.654209535847203,0.37333333333333335,0.3655555555555556,-0.6933333333333334,-0.0020673774889108454,0.0009183782564299916,-0.0012632833085629205
1590515656.7237203,0.05917887210241033,-4.439178872102411,8.66164225579518,0.37366786692124027,0.3655555555555556,-0.693090036178492,0.00121025899410411,0.002181661564992912,2.9857052901913528e-05
1590515656.7337203,0.036512610796955405,-4.406743694601523,8.716743694601522,0.3855555555555555,0.3655555555555556,-0.6844444444444444,0.00651977736224294,0.003247285014753572,0.0007356229659095692
1590515656.7437203,0.04727855011281753,-4.3972785501128175,8.690949850789723,0.3855555555555555,0.3655555555555556,-0.6844444444444444,0.006945461473995558,0.00486042565049025,0.0005937282619920298
1590515656.7537203,0.034674933870458904,-4.4059751983886235,8.629349867740917,0.3855555555555555,0.3655555555555556,-0.6844444444444444,0.0004390377491131051,0.00211074313690283,0.001019912354406374
1590515656.7637203,0.03,-4.4103829191756425,8.653659782885251,0.3855555555555555,0.3655555555555556,-0.6844444444444444,-0.001090830782496456,0.001090830782496456,-0.0005245303900482809
1590515656.7737203,0.03,-4.424962109296806,8.704977265578083,0.3755707118368332,0.3694385503350587,-0.6844444444444444,0.0005429354505233441,0.0016354195268363891,-1.6532938165894455e-06
1590515656.7837203,0.03,-4.430933354143905,8.745422194474793,0.3655555555555556,0.37333333333333335,-0.6844444444444444,0.006341358408750273,-0.000591469664178662,0.0017841135897893495
1590515656.7937202,0.03,-4.395092068304427,8.67904922198939,0.3655555555555556,0.37333333333333335,-0.6844444444444444,0.004651095466694171,-0.00014388616835417367,0.00421943696163165
1590515656.8037202,0.036192574257425746,-4.404770297029703,8.63,0.3655555555555556,0.37333333333333335,-0.6844444444444444,0.002181661564992912,-0.0002601793420825705,0.0014011235387452001
1590515656.8137202,0.049852185685936315,-4.42,8.65955655705781,0.3655555555555556,0.37333333333333335,-0.6844444444444444,3.2248080774854165e-05,-1.6124040387427083e-05,-0.001090830782496456
1590515656.8237202,0.04533679624664879,-4.429775469168901,8.699775469168902,0.369357126899017,0.366273272266905,-0.6844444444444444,-4.898502843650324e-05,0.0021571690507746605,-0.001090830782496456
1590515656.8337202,0.03561781669683829,-4.4006752831221325,8.698764366606323,0.37333333333333335,0.3588888888888889,-0.6844444444444444,0.0027944703033262893,0.0026596836091559908,-0.001090830782496456
1590515656.8437202,0.04,-4.388459454736107,8.662310817895841,0.37333333333333335,0.3588888888888889,-0.6844444444444444,0.0037758958838454855,0.0006714509559245594,-0.001090830782496456
1590515656.8537202,0.04,-4.404988988060739,8.640022023878522,0.37333333333333335,0.3588888888888889,-0.6844444444444444,0.0032700899150253093,0.0005490190399443158,-0.001090830782496456
1590515656.8637202,0.058997022952079134,-4.409498511476039,8.65949851147604,0.37333333333333335,0.3588888888888889,-0.6844444444444444,-0.00040865561149704,0.002181661564992912,-0.0005727673471984657
1590515656.8737202,0.06329520759464714,-4.407471405695985,8.690880990506692,0.36730104718695594,0.3588888888888889,-0.6881566205345229,-0.002361387258940773,-0.0005516537006528747,0.00045555254427429774
1590515656.8837202,0.04359665938755439,-4.397193318775108,8.72,0.3588888888888889,0.3588888888888889,-0.6933333333333334,0.0004785079271432135,-0.0031863190977560714,0.0014831654599063732
1590515656.8937201,0.05,-4.408736080776254,8.708624726986287,0.3588888888888889,0.3588888888888889,-0.6933333333333334,0.0034103645470744764,-0.0008150863833262394,0.0019059171658226954
1590515656.9037201,0.04097971670222885,-4.4,8.643530424946658,0.3588888888888889,0.3588888888888889,-0.6933333333333334,0.003871342995583453,0.0005988506480940851,0.0004919801344023709
1590515656.9137201,0.03394089047126833,-4.411822671413805,8.663940890471268,0.3588888888888889,0.3588888888888889,-0.6933333333333334,0.0015529544928867853,0.0004298844636506457,0.0006609463188458103
1590515656.9237201,0.03683093602735085,-4.43,8.679507191917947,0.3655791350533705,0.3588888888888889,-0.6975587519635322,-0.0017822132891096962,0.001090830782496456,0.0003456912533066201
1590515656.93372,0.03488857559793228,-4.43,8.709777151195864,0.38,0.3588888888888889,-0.7066666666666667,-0.0016727097240537034,0.001090830782496456,0.0016240916569750109
1590515656.94372,0.036173545544465426,-4.426173545544465,8.689388364355723,0.38,0.3588888888888889,-0.7066666666666667,0.001669605723167132,0.0019256336440800221,0.0005120558418257799
1590515656.95372,0.03,-4.410349357891179,8.65286752281176,0.38,0.3588888888888889,-0.7066666666666667,0.0036615086311086262,0.0022197705991735713,-0.0014798470661157143
1590515656.96372,0.03485656929513518,-4.404569707885405,8.69942627718054,0.38,0.3588888888888889,-0.7066666666666667,6.25834512086856e-05,-0.0010595390568921132,-0.0005297695284460566
1590515656.97372,0.04453858169322087,-4.429077163386442,8.72,0.3825214342740116,0.36847033913013294,-0.6940594952966087,-0.00119149664102487,-0.0006964141790408488,-0.00010066585852841394
1590515656.98372,0.04464126886761452,-4.429282537735229,8.709282537735229,0.3855555555555555,0.38,-0.6788888888888889,0.002338187549731269,0.001090830782496456,0.0005062838950636387
1590515656.99372,0.03461500544803611,-4.414615005448036,8.651535049032324,0.3855555555555555,0.38,-0.6788888888888889,0.004363323129985824,0.001090830782496456,-0.000587411782085792
1590515657.00372,0.0349971036080768,-4.400005792783847,8.649976828864613,0.3855555555555555,0.38,-0.6788888888888889,0.0016378259104786867,0.0016359302263978834,-0.0005457313385950286
1590515657.01372,0.04280035948536832,-4.3984010784561045,8.695600718970736,0.3855555555555555,0.38,-0.6788888888888889,-0.001090830782496456,0.0015707178992537736,-0.0003054718328695692
1590515657.02372,0.049413471241170535,-4.418240413723511,8.708826942482341,0.3855555555555555,0.38,-0.6788888888888889,-0.001090830782496456,0.0001279607249901238,-0.001026850420001394
1590515657.03372,0.03554532044914055,-4.431090640898281,8.723364038652578,0.38,0.37333333333333335,-0.6844444444444444,0.0014577904740704919,0.003272492347489368,0.0006049006244729587
1590515657.04372,0.03,-4.414839969288143,8.683239662169575,0.38,0.37333333333333335,-0.6844444444444444,0.0038353643814014364,0.003272492347489368,0.0016886161017362054
1590515657.05372,0.03,-4.41444116792887,8.661088175502089,0.38,0.37333333333333335,-0.6844444444444444,0.002425498055166929,0.001819123541375197,0.0023035798100799207
1590515657.06372,0.03,-4.42,8.7,0.38,0.37333333333333335,-0.6844444444444444,-0.0008086196727813305,0.0008086196727813305,0.001090830782496456
1590515657.07372,0.032652777493815295,-4.42,8.707958332481445,0.38,0.37127006194925477,-0.6868024688833914,-0.0013135421601826536,0.001892288430056159,0.0008014576475597031
1590515657.08372,0.0424106103776235,-4.422410610377623,8.713125727356635,0.38,0.3655555555555556,-0.6933333333333334,0.001090830782496456,0.0008278739820447439,-0.000262956800451712
1590515657.09372,0.053804952997736626,-4.422390094004527,8.652390094004527,0.38,0.3655555555555556,-0.6933333333333334,0.0023359987392614387,0.0,-0.0006757747969081285
1590515657.10372,0.05496088878811926,-4.41,8.646718814949175,0.38,0.3655555555555556,-0.6933333333333334,0.004363323129985824,0.0003664545084228354,0.0
1590515657.11372,0.03762402188677801,-4.406187989056611,8.695248043773557,0.38,0.3655555555555556,-0.6933333333333334,0.002284193689854782,0.001350009788940495,0.0
1590515657.12372,0.05,-4.409306466729148,8.716897844423618,0.38,0.3679683432260752,-0.6933333333333334,-0.0014292234619775496,0.0,0.00033839267948109365
1590515657.13372,0.04072054418091313,-4.43,8.719279455819088,0.38,0.37333333333333335,-0.6933333333333334,-0.001169429959765329,0.0005061158026137914,0.001090830782496456
1590515657.14372,0.03879437780201139,-4.425602811098994,8.672836544286927,0.38,0.37333333333333335,-0.6933333333333334,0.002877953405801264,0.0020501485844302107,0.0015704896834633332
1590515657.15372,0.04299322513400834,-4.423503387432996,8.617516937164979,0.38,0.37333333333333335,-0.6933333333333334,0.005016343553009499,0.0025081717765047494,0.0014173409940082934
1590515657.16372,0.03401651194643129,-4.427322325369046,8.658033023892862,0.38,0.37333333333333335,-0.6933333333333334,0.002181661564992912,0.001090830782496456,-0.00029208899129546707
1590515657.17372,0.05795293714807487,-4.41136470856795,8.70590587429615,0.38,0.37333333333333335,-0.6933333333333334,0.002181661564992912,0.001090830782496456,-0.002032794953487251
1590515657.1837199,0.03652766495171044,-4.403263832475855,8.72,0.37333333333333335,0.3588888888888889,-0.6844444444444444,0.0018256326716354623,0.0011135748849205628,0.0
1590515657.1937199,0.04065832218612651,-4.41,8.673291610930633,0.37333333333333335,0.3588888888888889,-0.6844444444444444,0.002619359240427067,0.00043769767543415513,0.0010190189719537408
1590515657.2037199,0.03458661371335124,-4.419173227426702,8.652106295993459,0.37333333333333335,0.3588888888888889,-0.6844444444444444,0.0038630011873914327,0.0011810176798041294,0.00018037379461534678
1590515657.2137198,0.03645649670586903,-4.43,8.700630509882393,0.37333333333333335,0.3588888888888889,-0.6844444444444444,0.003272492347489368,0.0,-0.0010220528236582144
1590515657.2237198,0.03295808017119493,-4.427041919828805,8.722958080171196,0.37119694209858145,0.3598749156126206,-0.6877312001902166,0.0027884776113145963,0.00016133824539159053,0.0009294925371048654
1590515657.2337198,0.04898582292024915,-4.411014177079751,8.738985822920249,0.35962135011315344,0.36521749652897195,-0.7055398032447213,0.0001659443366241885,0.0010355160036217264,5.531477887472957e-05
1590515657.2437198,0.037649814329029405,-4.42,8.655898885974176,0.3588888888888889,0.3655555555555556,-0.7066666666666667,0.0,0.0005780998076010926,-0.0016689305900975484
1590515657.2537198,0.03050522944843798,-4.42,8.613031376690627,0.3588888888888889,0.3655555555555556,-0.7066666666666667,0.0,-0.000980606815580485,-0.0001102239669159709
1590515657.2637198,0.0475133362483603,-4.41,8.659839965019676,0.3588888888888889,0.3655555555555556,-0.7066666666666667,0.001362083719097127,0.001090830782496456,-0.000271252936600671
1590515657.2737198,0.04,-4.407675125034519,8.747675125034519,0.3622470416168063,0.368913708283473,-0.6981421251265687,0.0016744525294324413,0.0013444353002766913,-0.0005836217469359855
1590515657.2837198,0.04,-4.4,8.723783706116194,0.37333333333333335,0.38,-0.67,-0.0013266924409849013,0.0008549691240080106,0.0006485999688348222
1590515657.2937198,0.03596900320331638,-4.408061993593368,8.663721028829846,0.37333333333333335,0.38,-0.67,-0.003272492347489368,-0.001090830782496456,0.0008794270779934213
1590515657.3037198,0.037623005395476986,-4.423811502697738,8.63668051888417,0.37333333333333335,0.38,-0.67,-0.0024409514534370815,-0.0006750603354703129,0.002181661564992912
1590515657.3137197,0.04711683465415096,-4.4213505039624525,8.697298992075094,0.37333333333333335,0.38,-0.67,0.00048169197264313164,-0.0009435136530837529,0.0018671570139649945
1590515657.3237197,0.04,-4.4022237214950755,8.743335582242613,0.37333333333333335,0.38,-0.6716060210797763,0.0037568971653541413,-0.002787351575784022,0.000848260396643783
1590515657.3337197,0.03911061312956908,-4.421778773740861,8.762884905036552,0.37333333333333335,0.38,-0.6844444444444444,-0.0011878478400778791,0.0009938137249150328,-0.0008967966673336096
1590515657.3437197,0.03,-4.43576935416204,8.651924187458354,0.37333333333333335,0.38,-0.6844444444444444,-0.002181661564992912,-0.0009229837419775793,0.0020138145244740354
1590515657.3537197,0.02599486548874938,-4.425994865488749,8.620025672556253,0.37333333333333335,0.38,-0.6844444444444444,-0.001307876762410697,-0.0017447691637018045,0.0028355999461982606
1590515657.3637197,0.02289084039620137,-4.42,8.664454201981007,0.37333333333333335,0.38,-0.6844444444444444,0.0006306835382921407,-0.001090830782496456,0.001550978026700771
1590515657.3737197,0.02836795863268201,-4.418367958632682,8.70652816546927,0.37333333333333335,0.37891197242178803,-0.6880712030384843,0.001469549180281685,-0.0012688588786742626,0.0
1590515657.3837197,0.021262727208596892,-4.411262727208597,8.738737272791404,0.37333333333333335,0.37333333333333335,-0.7066666666666667,-0.0024571459067995747,-0.001768435052282918,0.0
1590515657.3937197,0.03309283013990759,-4.42,8.712989434230508,0.37333333333333335,0.37333333333333335,-0.7066666666666667,-0.004194635413903623,0.000922143066414255,0.000168687716082201
1590515657.4037197,0.04378519948013076,-4.426214800519869,8.626214800519868,0.37333333333333335,0.37333333333333335,-0.7066666666666667,-0.0019166332046596983,0.00033896478570741745,0.00041290121108162106
1590515657.4137197,0.03,-4.437786317971615,8.649961569127731,0.37333333333333335,0.37333333333333335,-0.7066666666666667,0.0009700931575353987,0.0012115684074575131,-0.001090830782496456
1590515657.4237196,0.03,-4.424409504066337,8.710157231701483,0.37333333333333335,0.37333333333333335,-0.7066666666666667,0.0002405011385551906,0.0019411604264377214,-0.001090830782496456
