time,acc_x,acc_y,acc_z,mag_x,mag_y,mag_z,gyr_x,gyr_y,gyr_z
1590514588.7142167,-0.06,-4.32,8.8,0.4755555555555556,0.2255555555555556,-0.5544444444444444,0.008726646259971648,-0.007635815477475192,-0.004363323129985824
1590514588.7242167,-0.06394564237107486,-4.31,8.863945642371075,0.4488888888888889,0.20777777777777776,-0.5777777777777777,0.006645173526994121,-0.011668924623967325,-0.0047937259454949
1590514588.7342167,-0.05241725389707452,-4.307582746102925,8.81857569933803,0.4488888888888889,0.20777777777777776,-0.5777777777777777,0.004363323129985824,-0.01090830782496456,-0.003008810851485527
1590514588.7442167,-0.05580454266421117,-4.308390914671578,8.745172744014733,0.4488888888888889,0.20777777777777776,-0.5777777777777777,0.0048209765308387265,-0.01090830782496456,-0.002639314965845814
1590514588.7542167,-0.04526293995859213,-4.317631469979296,8.787105590062112,0.4488888888888889,0.20777777777777776,-0.5777777777777777,0.005712520458067361,-0.01090830782496456,-0.0030141258019042863
1590514588.7642167,-0.03440812629399586,-4.312204063146997,8.803387810559007,0.4488888888888889,0.20777777777777776,-0.5777777777777777,0.0063045587022476,-0.01090830782496456,-0.0024220875577240474
1590514588.7742167,-0.03,-4.329247411528358,8.790752588471642,0.4681363004172462,0.2248865880252065,-0.563876869451742,0.003395634348202343,-0.009858524376039096,-0.0032314450139183763
1590514588.7842166,-0.01362515163768702,-4.318791616120771,8.772749696724626,0.4688888888888889,0.2255555555555556,-0.5633333333333334,0.003008863880982272,-0.008397110676837778,-0.002049847331739364
1590514588.7942166,-0.0612166172106825,-4.308783382789318,8.673175074183977,0.4688888888888889,0.2255555555555556,-0.5633333333333334,-0.0022884788226260958,-0.003751551563541224,-0.000239529608025928
1590514588.8042166,-0.035014524441667964,-4.334985475558332,8.712478213337498,0.4688888888888889,0.2255555555555556,-0.5633333333333334,-0.005861234992409701,-0.005180654031454666,-0.000954080841982649
1590514588.8142166,-0.03810517448076985,-4.326210348961539,8.749474127596152,0.46783620804487214,0.22323965769871873,-0.5643860141773501,-0.002652412146338546,-0.007635815477475192,0.0008841373821128486
1590514588.8242166,-0.03694154552723843,-4.30652922723638,8.772646136181903,0.4633333333333333,0.21333333333333332,-0.5688888888888889,-0.0007572051539212272,-0.006878610323553965,-0.0003786025769606136
1590514588.8342166,-0.04812642633170677,-4.303747147336586,8.736252852663414,0.4633333333333333,0.21333333333333332,-0.5688888888888889,-0.0017729111988631007,-0.006067279461676996,-0.0008864555994315504
1590514588.8442166,-0.04034436053954765,-4.319311278920905,8.720688721079096,0.4633333333333333,0.21333333333333332,-0.5688888888888889,-7.512781536313413e-05,-0.008613954536926946,-3.756390768156707e-05
1590514588.8542166,-0.031401692580200743,-4.33,8.769952962015351,0.4633333333333333,0.21333333333333332,-0.5688888888888889,0.002181661564992912,-0.0060811508225946396,0.002181661564992912
1590514588.8642166,-0.05427328348062542,-4.3242732834806255,8.829544527532292,0.4605760253795604,0.21460593700430544,-0.5678283858297455,0.002806349431189387,-0.001556973698796437,0.0017652029875285954
1590514588.8742166,-0.03325702075702076,-4.3097710622710625,8.87325702075702,0.4488888888888889,0.22,-0.5633333333333334,0.004388296362185834,0.0025119741828917167,0.0007105717001976304
1590514588.8842165,-0.0413440284113523,-4.331344028411352,8.863871659063774,0.4488888888888889,0.22,-0.5633333333333334,0.0026214938340887797,0.00545415391248228,0.001448607783166466
1590514588.8942165,-0.05,-4.318485428743803,8.738485428743802,0.4488888888888889,0.22,-0.5633333333333334,0.007409883629021712,0.0031072782526349613,-0.0036636382907972546
1590514588.9042165,-0.05,-4.286370308317095,8.709555462475642,0.4488888888888889,0.22,-0.5633333333333334,0.011603200665592594,-0.0017857236231244912,-0.004015876709671806
1590514588.9142165,-0.04895979020979021,-4.30104020979021,8.73312062937063,0.45039141414141415,0.21872863247863247,-0.5633333333333334,0.012522622960249962,-0.003159023061547866,-0.003272492347489368
1590514588.9242165,-0.040907850036398935,-4.31,8.76,0.4633333333333333,0.20777777777777776,-0.5633333333333334,0.007437753324356295,-0.0019835994118740153,-0.00317346127092992
1590514588.9342165,-0.05,-4.31,8.741666198585543,0.4633333333333333,0.20777777777777776,-0.5633333333333334,0.005787471828200041,-0.000333317915717762,-0.002181661564992912
1590514588.9442165,-0.05,-4.31,8.710785925040845,0.4633333333333333,0.20777777777777776,-0.5633333333333334,0.0061527973932369775,-0.003051767291205245,-0.001789474263251154
1590514588.9542165,-0.05288532675709001,-4.31,8.755967940813811,0.4633333333333333,0.20777777777777776,-0.5633333333333334,0.0051394135880628335,-0.006544984694978735,-0.001090830782496456
1590514588.9642165,-0.058933627743862835,-4.307867255487725,8.822132744512274,0.4617930178522463,0.20967355067757715,-0.5648736488144204,0.0045959694665047455,-0.0064286615267192745,-0.001090830782496456
1590514588.9742165,-0.05,-4.2790470949869075,8.798926606200903,0.4488888888888889,0.2255555555555556,-0.5777777777777777,0.0062462905463277095,-0.00545415391248228,-0.0001947483365433788
1590514588.9842165,-0.04338060329287345,-4.266548491767816,8.71206465569042,0.4488888888888889,0.2255555555555556,-0.5777777777777777,0.004010025574544416,-0.005815185996966746,0.0023020055931544004
1590514588.9942164,-0.02171145685997171,-4.349261669024045,8.801207920792079,0.4488888888888889,0.2255555555555556,-0.5777777777777777,-0.004522550480415293,-0.0056133812629117485,0.0022347373484694014
1590514589.0042164,-0.07671552632033286,-4.2585982631515344,8.644539631567135,0.4488888888888889,0.2255555555555556,-0.5777777777777777,0.0018918393086120146,0.001090830782496456,0.0
1590514589.0142164,-0.04050845116624368,-4.309288168367258,8.738678026967767,0.4488888888888889,0.2255555555555556,-0.5777777777777777,0.0011019234661671525,0.001090830782496456,0.0
1590514589.0242164,-0.04417783229540165,-4.3279110838523,8.811644335409197,0.4566666666666666,0.22,-0.5633333333333334,0.0,0.003679726919196032,-0.0034518615155994348
1590514589.0342164,-0.05736994401459394,-4.3213150279927035,8.785260111970812,0.4566666666666666,0.22,-0.5633333333333334,0.0,0.0015211726867819515,-0.0005737892057139939
1590514589.0442164,-0.058199099846026295,-4.301800900153974,8.700805400923842,0.4566666666666666,0.22,-0.5633333333333334,0.0063485369625630225,-0.0016801739797435936,0.0001964477324157126
1590514589.0542164,-0.047511827243684863,-4.31,8.752488172756316,0.4566666666666666,0.22,-0.5633333333333334,0.004639901282054998,-0.0054489933038888655,5.160608593414093e-06
1590514589.0642164,-0.04018975961454533,-4.31,8.759810240385454,0.4566666666666666,0.22,-0.5633333333333334,0.0022437602536391236,-0.008643848008443367,-0.003189694095961086
1590514589.0742164,-0.031042511674815285,-4.31,8.76,0.46263832555012313,0.2140283411165435,-0.5563663979693008,0.0012045511650965008,-0.005795315060282415,-0.0013182715476965454
1590514589.0842164,-0.03566373670840546,-4.31,8.753008789874784,0.4633333333333333,0.21333333333333332,-0.5555555555555556,0.003890310182037751,-0.007017997642926809,-0.003272492347489368
1590514589.0942163,-0.04761105040619507,-4.31,8.721944747969026,0.4633333333333333,0.21333333333333332,-0.5555555555555556,0.004932965961531315,-0.005193559937006797,-0.002490710421062921
1590514589.1042163,-0.04,-4.31,8.769624805598756,0.4633333333333333,0.21333333333333332,-0.5555555555555556,0.003272492347489368,-0.004783284498892508,-0.0002099806844533419
1590514589.1142163,-0.039869795852756795,-4.31,8.810260408294488,0.4633333333333333,0.21333333333333332,-0.5556568254478559,0.003272492347489368,-0.006516578556614417,-0.001048221574949978
1590514589.1242163,-0.03,-4.312728486142794,8.819086055428821,0.4633333333333333,0.21333333333333332,-0.5633333333333334,0.002081965677819159,-0.002875164792898063,0.0012887665627402554
1590514589.1342163,-0.03,-4.3111736535769545,8.763520960730862,0.4633333333333333,0.21333333333333332,-0.5633333333333334,-0.0014117657950043158,-0.0011557143050585624,-0.0007698957699885961
1590514589.1442163,-0.03237119511538116,-4.294742390230763,8.709484780461525,0.4633333333333333,0.21333333333333332,-0.5633333333333334,-0.0019230043026766113,-0.006544984694978735,0.0005173145246326014
1590514589.1542163,-0.03990338511268744,-4.309806770225374,8.73961354045075,0.4633333333333333,0.21333333333333332,-0.5633333333333334,-0.0011013698318092528,-0.006544984694978735,0.0021605834663673182
1590514589.1642163,-0.030921150725781693,-4.31,8.758157698548436,0.4633333333333333,0.21333333333333332,-0.5633333333333334,-0.001090830782496456,-0.0015932405659972691,0.00020096391340032474
1590514589.1742163,-0.038539895958383356,-4.32561968787515,8.81,0.4566666666666666,0.21333333333333332,-0.5844444444444444,-0.004657790695360818,-0.002635401773792198,0.0017038436347200344
1590514589.1842163,-0.031826330532212885,-4.3054789915966385,8.81,0.4566666666666666,0.21333333333333332,-0.5844444444444444,-0.000996108781775475,0.0002939437570760755,-0.0004931655134311711
1590514589.1942163,-0.048905070597637865,-4.32,8.742189858804725,0.4566666666666666,0.21333333333333332,-0.5844444444444444,0.005693030451833693,-0.004124446590634411,0.0015844702166143798
1590514589.2042162,-0.041455820975046624,-4.32,8.757088358049907,0.4566666666666666,0.21333333333333332,-0.5844444444444444,0.00731820461079822,-0.0024992724316698837,-0.0024784651807969395
1590514589.2142162,-0.04,-4.301284973518564,8.788072539722153,0.4566666666666666,0.21333333333333332,-0.5844444444444444,0.005594322779356599,-0.004223154263111505,0.0008104930487478172
1590514589.2242162,-0.05,-4.3,8.8,0.4488888888888889,0.23222222222222225,-0.5544444444444444,0.0006223707062977674,-0.0034286457062222644,-0.0020255082062600157
1590514589.2342162,-0.04826775364026201,-4.301732246359737,8.784409782762358,0.4488888888888889,0.23222222222222225,-0.5544444444444444,-0.001803744034578985,-0.0039854055995718965,-0.0009018720172894925
1590514589.2442162,-0.03665429868671581,-4.31,8.713345701313285,0.4488888888888889,0.23222222222222225,-0.5544444444444444,0.0012773578935492236,-0.0019991818659144513,-0.0001824796990784605
1590514589.2542162,-0.018527752707581228,-4.304111010830325,8.738833483754513,0.4488888888888889,0.23222222222222225,-0.5544444444444444,0.007796412744076938,-0.0015726225823016935,-0.001090830782496456
1590514589.2642162,-0.010641358303249098,-4.272565433212996,8.786151850180504,0.4488888888888889,0.23222222222222225,-0.5544444444444444,0.008656684921992267,-0.00415343911604768,-0.001090830782496456
1590514589.2742162,-0.03358426167338232,-4.291792130836691,8.79179213083669,0.43666666666666665,0.21333333333333332,-0.5777777777777777,0.007635815477475192,-0.002572643861577681,-0.00039098229658476906
1590514589.2842162,-0.05651900708587727,-4.290221489371184,8.769034716342084,0.43666666666666665,0.21333333333333332,-0.5777777777777777,0.006746923777401762,-0.005074436490044568,-0.002003883224978226
1590514589.2942162,-0.0821147810876164,-4.251264598446262,8.631402737047898,0.43666666666666665,0.21333333333333332,-0.5777777777777777,0.0010757621986048935,-0.009095279382100988,-0.000845075367743563
1590514589.3042161,-0.01797283688522359,-4.3369592553278355,8.798986418442613,0.43666666666666665,0.21333333333333332,-0.5777777777777777,-0.006640734110442416,-0.01100405724042824,0.001090830782496456
1590514589.3142161,-0.006556979940665741,-4.319835469910998,8.793278489970332,0.43666666666666665,0.21333333333333332,-0.5777777777777777,-0.0010369884367775785,-0.0054003115667634015,0.001090830782496456
1590514589.3242161,-0.030084260195483655,-4.279915739804516,8.744873609706774,0.44084503613826165,0.21834737669924728,-0.5610642998913979,0.0013612406377462515,-0.002181661564992912,0.0019112517097431164
1590514589.334216,-0.04,-4.297654197902486,8.743827098951243,0.44222222222222224,0.22,-0.5555555555555556,-0.0004174717343676162,-0.004444115340289019,0.0029358128234249483
1590514589.344216,-0.05890152484733243,-4.31,8.683844663034336,0.44222222222222224,0.22,-0.5555555555555556,-0.003152667296455641,-0.008546908683421055,-0.0008511806804290005
1590514589.354216,-0.06845339649525362,-4.31,8.756186414018986,0.44222222222222224,0.22,-0.5555555555555556,-0.00712969066408691,-0.015024341528101061,-0.00016870827112942726
1590514589.364216,-0.06069206713421291,-4.31,8.787231731463148,0.44222222222222224,0.22,-0.5555555555555556,-0.004589801570051889,-0.019257490018159434,-0.0010153379691411008
1590514589.374216,-0.021500554267862543,-4.302300110853572,8.79,0.4473554816531739,0.2105890243765886,-0.5615443582249992,-0.0010036126888924362,-0.017955098864389514,-0.0019307583927698029
1590514589.384216,-0.01,-4.290268822136999,8.79677413435602,0.4488888888888889,0.20777777777777776,-0.5633333333333334,0.0010615068362910263,-0.011881842822639295,-8.797183861628941e-05
1590514589.394216,-0.01,-4.2979652090940785,8.704417490871057,0.4488888888888889,0.20777777777777776,-0.5633333333333334,0.00022196125561229425,-0.008523660499924368,-0.002606608580652485
1590514589.404216,-0.0319930000397725,-4.300996500019886,8.743986000079545,0.4488888888888889,0.20777777777777776,-0.5633333333333334,0.0009821294928514307,-0.003272492347489368,0.001090830782496456
1590514589.414216,-0.04867478025693036,-4.309337390128465,8.77734956051386,0.4488888888888889,0.20777777777777776,-0.5633333333333334,7.227952446562042e-05,-0.003272492347489368,0.001090830782496456
1590514589.424216,-0.05828070425547081,-4.3117192957445285,8.808596478722647,0.4633333333333333,0.21333333333333332,-0.5911111111111111,-0.0050790617680127595,-0.007635815477475192,0.0
1590514589.434216,-0.04362359234867046,-4.318405898087168,8.83087077704601,0.4633333333333333,0.21333333333333332,-0.5911111111111111,-0.004141940065966392,-0.007809705021170597,0.0005216686310862145
1590514589.444216,-0.011078733804755351,-4.31,8.732157467609511,0.4633333333333333,0.21333333333333332,-0.5911111111111111,-0.008726646259971648,-0.008726646259971648,0.0031548207434547023
1590514589.454216,-0.02287709312330399,-4.309280726719174,8.754315639684956,0.4633333333333333,0.21333333333333332,-0.5911111111111111,-0.008726646259971648,-0.008883567347122092,0.002338582652143355
1590514589.464216,-0.05063736845588721,-4.302340657886028,8.795956052683831,0.4633333333333333,0.21333333333333332,-0.5911111111111111,-0.008726646259971648,-0.010397655490290031,0.0038526707953112967
1590514589.474216,-0.1991390468018163,-4.220491973256105,8.800061496657014,0.4567076644380087,0.21333333333333332,-0.563504157380592,-0.0011377884950398327,-0.004403572597880148,0.016288671046307244
1590514589.484216,-0.07679787079200716,-4.292401596905995,8.777198136943007,0.4566666666666666,0.21333333333333332,-0.5633333333333334,0.0012218175741068157,-0.0023126483566032717,0.03525588315084755
1590514589.494216,-0.007028049820140145,-4.344728962634894,8.716149543592623,0.4566666666666666,0.21333333333333332,-0.5633333333333334,0.004075832639308541,-0.0051666634218049965,0.042866589991385484
1590514589.504216,0.0525309353052655,-4.346265467652633,8.718713908810525,0.4566666666666666,0.21333333333333332,-0.5633333333333334,0.005046779628208585,-0.006816567551161198,0.034091836471339204
1590514589.514216,0.005773475530452224,-4.322886737765226,8.773264278547805,0.4566666666666666,0.21333333333333332,-0.5633333333333334,0.0024965558065232793,-0.00851671676561807,0.028991388827968586
1590514589.524216,0.0,-4.32,8.80002796491674,0.4611173255370535,0.20962445094134427,-0.5729764275525048,0.0036381362744555756,-0.008726646259971648,0.02326393886178853
1590514589.534216,-0.02850355721692994,-4.300997628522047,8.81,0.4633333333333333,0.20777777777777776,-0.5777777777777777,0.0012540673676982046,-0.006653809085113234,0.021762203454861868
1590514589.544216,-0.045029448147259205,-4.292485275926371,8.749882207410964,0.4633333333333333,0.20777777777777776,-0.5777777777777777,-0.0021880861540964766,-0.008184443163275202,0.020177157181632654
1590514589.554216,-0.028781924542915963,-4.301827113185626,8.788781924542915,0.4633333333333333,0.20777777777777776,-0.5777777777777777,-0.004363323129985824,-0.006611420405178271,0.022148794200926795
1590514589.564216,-0.011683618352663013,-4.327474572471005,8.771683618352663,0.4633333333333333,0.20777777777777776,-0.5777777777777777,-0.004363323129985824,-0.007543988341222153,0.026811633881146203
1590514589.574216,0.0014151709364796932,-4.33141517093648,8.77716965812704,0.4488888888888889,0.21333333333333332,-0.5688888888888889,-0.002027290362992273,0.00030874240400127724,0.025562453971912386
1590514589.5842159,0.008660839221241385,-4.338660839221241,8.762678321557518,0.4488888888888889,0.21333333333333332,-0.5688888888888889,-0.0012369105625146385,0.001889502004956547,0.022400934770001848
1590514589.5942159,-0.003084380024701139,-4.3289718733250995,8.714112506699601,0.4488888888888889,0.21333333333333332,-0.5688888888888889,-0.004139020684928412,0.005229851467424868,0.01700468762982847
1590514589.6042159,-0.028120871321722987,-4.32,8.751879128678278,0.4488888888888889,0.21333333333333332,-0.5688888888888889,-0.002181661564992912,0.003067511206835724,0.012543353014881086
1590514589.6142159,-0.005222470928645518,-4.32,8.774777529071354,0.4488888888888889,0.21333333333333332,-0.5688888888888889,-0.002181661564992912,0.0005696832049659388,0.005882478343228328
1590514589.6242158,-0.030256659586990454,-4.31,8.78051331917398,0.4566666666666666,0.22,-0.5688888888888889,-0.002125667129370509,-0.0011748224359300606,0.004335325912174622
1590514589.6342158,-0.037570013196204524,-4.31,8.792710039588615,0.4566666666666666,0.22,-0.5688888888888889,0.00017671362710935235,-0.004186609502876471,0.003272492347489368
1590514589.6442158,-0.01121342242516914,-4.31,8.713640267275508,0.4566666666666666,0.22,-0.5688888888888889,0.002093418996089845,-0.002269904133895979,0.003272492347489368
1590514589.6542158,-0.042689173216100204,-4.2386554133919505,8.731008439956039,0.4566666666666666,0.22,-0.5688888888888889,-0.002841683972800008,0.00044001493853806396,0.0036391714629377546
1590514589.6642158,-0.11227090807291126,-4.203864545963545,8.757101590527341,0.4566666666666666,0.22,-0.5688888888888889,-0.019919611086096137,0.011825299680735483,0.01312690874810227
1590514589.6742158,-0.2632959313993797,-4.105083926290822,8.776508392629081,0.4566666666666666,0.21333333333333332,-0.5555555555555556,-0.03924552817154076,0.02019255947535026,0.0362045960531035
1590514589.6842158,-0.8386761580960476,-3.6348937526561835,8.733215044623885,0.4566666666666666,0.21333333333333332,-0.5555555555555556,-0.05390456441375176,0.013172488675671185,0.10001337428502143
1590514589.6942158,-0.7906848867239857,-3.449784563078231,8.849765275098893,0.4566666666666666,0.21333333333333332,-0.5555555555555556,-0.07035753347494164,0.01616393759588753,0.20620981095270158
1590514589.7042158,-0.8082927514140159,-3.4753050663885436,9.062744193509568,0.4566666666666666,0.21333333333333332,-0.5555555555555556,-0.058652075162246464,-0.00029934507533628876,0.4117556491141976
1590514589.7142158,-0.8474441255495848,-3.561128938690767,8.870297997068882,0.4566666666666666,0.21333333333333332,-0.5555555555555556,-0.021053347176477992,-0.03104398094947245,0.5257573063017126
1590514589.7242157,-0.7686404682274247,-3.450720735785953,8.663120401337792,0.45103558156819024,0.21333333333333332,-0.5660132850241546,-0.0060169897618790715,-0.06962108900720315,0.7220290123206619
1590514589.7342157,-0.2732980774965704,-2.8911409769577925,8.580816716038093,0.4488888888888889,0.21333333333333332,-0.57,-0.036318404041069896,-0.06135379351827439,0.9110334206291237
1590514589.7442157,-0.19272135416666666,-2.7509895833333333,9.393671875,0.4488888888888889,0.21333333333333332,-0.57,-0.11077471817406391,-0.04860588568725419,1.184758698702824
1590514589.7542157,-0.27282083333333335,-2.780116666666667,8.913075,0.4488888888888889,0.21333333333333332,-0.57,-0.032137238390823705,-0.09864791827658886,1.316615482985833
1590514589.7642157,-0.3165340095465394,-2.8809370525059665,9.105481205250596,0.4488888888888889,0.21333333333333332,-0.57,-0.04693650902682975,-0.11562806294462433,1.5029378981415018
1590514589.7742157,-0.37181881504548064,-2.9518188150454807,8.928308612636236,0.4743870359747603,0.2034630828484799,-0.5757576461161644,-0.040289718297063334,-0.12612566667795733,1.6359782707818762
1590514589.7842157,-0.3907386043577207,-3.0407386043577205,8.81,0.4833333333333333,0.2,-0.5777777777777777,-0.03866249280906859,-0.13764610168692537,1.7811560910917508
1590514589.7942157,-0.40963993600865234,-3.0596399360086526,8.81,0.4833333333333333,0.2,-0.5777777777777777,-0.0510333854460751,-0.14280064028567807,1.8605359855125427
1590514589.8042157,-0.4554178165360415,-3.0872506899216248,8.764582183463958,0.4833333333333333,0.2,-0.5777777777777777,-0.03145178583681718,-0.14983487383621644,1.9165456133078702
1590514589.8142157,-0.4919600837227003,-3.082009979069325,8.8878403348908,0.4833333333333333,0.2,-0.5777777777777777,-0.04601237661694986,-0.15314937621970234,1.9508058493458607
1590514589.8242157,-0.5094315373208107,-3.08,8.863410776075135,0.4697100016477179,0.16856154226396441,-0.5704421376393695,-0.04914939487125653,-0.16203770932064382,1.9796464981763275
1590514589.8342156,-0.5737157425111535,-3.0891022489301645,8.814488755349176,0.4688888888888889,0.16666666666666666,-0.57,-0.053058990541528184,-0.16352668792426886,2.0008067276595027
1590514589.8442156,-0.6206377441893626,-3.1374107015542565,8.749043383715957,0.4688888888888889,0.16666666666666666,-0.57,-0.04680137299838035,-0.1643634324126846,2.018280432466034
1590514589.8542156,-0.684178805737796,-3.1688357611475593,8.799521850328034,0.4688888888888889,0.16666666666666666,-0.57,-0.042669399275203856,-0.16567928018161923,2.043985571564352
1590514589.8642156,-0.707026137576972,-3.187026137576972,8.83837689596162,0.4688888888888889,0.16666666666666666,-0.57,-0.04378057618242716,-0.1682826302695921,2.058780304614005
1590514589.8742156,-0.7698228663446054,-3.218117405943493,8.88717610891524,0.48398672717513297,0.15156882838042257,-0.5735228289334569,-0.046206288890015663,-0.17165182887710811,2.0780966756643537
1590514589.8842156,-0.8590112842557764,-3.2013182876589648,8.900659143829483,0.5022222222222222,0.13333333333333333,-0.5777777777777777,-0.050106314556907776,-0.1755518545440002,2.107964740343251
1590514589.8942156,-0.8773936824252703,-3.1391221115115537,8.778244223023108,0.5022222222222222,0.13333333333333333,-0.5777777777777777,-0.04448614673170124,-0.17562375598192942,2.1180626846708757
1590514589.9042156,-0.9441287016965549,-3.155651480678622,8.869018792884143,0.5022222222222222,0.13333333333333333,-0.5777777777777777,-0.048529980629507675,-0.1770228272189721,2.1187846747720926
1590514589.9142156,-0.9996445108289769,-3.1634518297236744,8.923451829723675,0.5022222222222222,0.13333333333333333,-0.5777777777777777,-0.05269763591862228,-0.17351965012305573,2.1169647904668287
1590514589.9242156,-1.0280329944218065,-3.1900549907030107,8.877923013015785,0.5055616656336679,0.09860312185429881,-0.5817851098715126,-0.04558233017596902,-0.1712604328519436,2.1116218307794163
1590514589.9342155,-1.0758203799654578,-3.2458203799654575,8.921640759930915,0.5077777777777778,0.07555555555555556,-0.5844444444444444,-0.046221834918424964,-0.16539933688588748,2.100761107944242
1590514589.9442155,-1.1121118151626903,-3.2018322772559644,8.785496831767894,0.5077777777777778,0.07555555555555556,-0.5844444444444444,-0.04165144017815276,-0.16383973424543238,2.0840864058980935
1590514589.9542155,-1.128793916432718,-3.1372365014036903,8.741206083567281,0.5077777777777778,0.07555555555555556,-0.5844444444444444,-0.03748293652931572,-0.1636246173744684,2.0562326153619654
1590514589.9642155,-1.1757852987837123,-3.137630883130619,8.823939714436806,0.5077777777777778,0.07555555555555556,-0.5844444444444444,-0.047077049264693686,-0.16279221715281722,2.022144724457236
1590514589.9742155,-1.2169744457305671,-3.1579829638203782,8.867982963820378,0.5367503305994981,0.027600985367880575,-0.5844444444444444,-0.047235760420468696,-0.16057214954239304,1.968445960090437
1590514589.9842155,-1.2279571024545324,-3.128171590181871,8.925699717181725,0.54,0.022222222222222227,-0.5844444444444444,-0.04082982703953024,-0.1568801841082262,1.9192281617795228
1590514589.9942155,-1.2454212983013329,-3.0506041576440017,8.59302078822001,0.54,0.022222222222222227,-0.5844444444444444,-0.026653388000006703,-0.1433722817271275,1.8716956807660194
1590514590.0042155,-1.3272340425531917,-3.0750531914893617,8.766755319148936,0.54,0.022222222222222227,-0.5844444444444444,-0.04818222775452431,-0.1592845034100676,1.8307679928042249
1590514590.0142155,-1.397419533941898,-3.088248771167758,8.857326779561376,0.54,0.022222222222222227,-0.5844444444444444,-0.05149518615032349,-0.15863286014131467,1.8084968636965797
1590514590.0242155,-1.4457039257788762,-3.0642960742211236,8.80373009763805,0.5387324609380275,0.01398321831940112,-0.585711983506417,-0.03449178385184171,-0.141754173912155,1.7955153786446811
1590514590.0342155,-1.501623451454912,-3.032094137136272,9.076964491501007,0.5333333333333333,-0.021111111111111112,-0.5911111111111111,-0.03876169447665877,-0.14530892899713008,1.7476418855352962
1590514590.0442154,-1.4272935849824488,-2.8370183649590475,9.008103983313832,0.5333333333333333,-0.021111111111111112,-0.5911111111111111,-0.0032708275500393583,-0.11099787278340154,1.7067949068311206
1590514590.0542154,-1.488023908888802,-2.7973253637037327,8.659880455555989,0.5333333333333333,-0.021111111111111112,-0.5911111111111111,-0.00577131129257198,-0.10881672050894514,1.660180611044276
1590514590.0642154,-1.5810005923260866,-2.8222729965118574,9.02764034837549,0.5333333333333333,-0.021111111111111112,-0.5911111111111111,-0.06677917058221382,-0.15203241945665819,1.5890325583647256
1590514590.0742154,-1.6147993948562784,-2.80879636913767,9.175586686838123,0.5368004034291478,-0.037868616574214156,-0.5951560262228947,-0.06976610427959648,-0.1483934511257008,1.5423893109233104
1590514590.0842154,-1.6463523473802275,-2.765459061047909,8.939131549431181,0.54,-0.05333333333333334,-0.5988888888888889,-0.01399133364974504,-0.11533302651442821,1.4981166890283835
1590514590.0942154,-1.6347059564739979,-2.7536764891184995,8.921617554407502,0.54,-0.05333333333333334,-0.5988888888888889,-0.027415073477961713,-0.10890663043563892,1.4488640147662128
1590514590.1042154,-1.6490699088145897,-2.728197568389058,8.94,0.54,-0.05333333333333334,-0.5988888888888889,-0.01687604741589274,-0.10452314033120373,1.3863759654967318
1590514590.1142154,-1.505565693430657,-2.54542208822596,8.87956918438591,0.54,-0.05333333333333334,-0.5988888888888889,0.006280585453426319,-0.07066902739555447,1.3286926486510826
1590514590.1242154,-1.7274415584415586,-2.701168831168831,8.970584415584415,0.54,-0.08459595959595959,-0.6212193362193362,-0.02023278602027842,-0.11417173301682387,1.2281068781518965
1590514590.1342154,-1.8598798283261802,-2.8123948497854077,9.359278969957082,0.54,-0.09222222222222222,-0.6266666666666667,-0.07980012383608837,-0.1393323308327619,1.1400558090178325
1590514590.1442153,-1.8623009372874841,-2.750354217793679,8.780887022855621,0.54,-0.09222222222222222,-0.6266666666666667,-0.009238534594113196,-0.08787478758681519,1.078397356420076
1590514590.1542153,-1.8991441209752082,-2.7086847032198333,8.885720604876042,0.54,-0.09222222222222222,-0.6266666666666667,-0.008066245342252467,-0.07218155548203326,1.0178679942289335
1590514590.1642153,-1.9507724114043252,-2.720386205702163,9.007954019007208,0.54,-0.09222222222222222,-0.6266666666666667,-0.02795736504226947,-0.0787083303670627,0.9513263174623282
1590514590.1742153,-2.007874171415281,-2.73,8.964251657169438,0.5442082412683645,-0.10765244020622552,-0.6357845227481231,-0.023603122209982327,-0.07188598959204112,0.8865804249480075
1590514590.1842153,-2.0165084167248466,-2.6895252501745404,8.89976262508727,0.5466666666666666,-0.11666666666666667,-0.6411111111111111,-0.011211499718043824,-0.06765740210096008,0.8179601942141846
1590514590.1942153,-2.0531206854345165,-2.6915603427172585,8.846879314565484,0.5466666666666666,-0.11666666666666667,-0.6411111111111111,-0.011862470995592792,-0.057746952722602704,0.7484851440041903
1590514590.2042153,-2.088313086360356,-2.7122087242402375,8.756747654558577,0.5466666666666666,-0.11666666666666667,-0.6411111111111111,-0.01042643894670516,-0.04679188223419555,0.6911446020629705
1590514590.2142153,-2.155699898547497,-2.7645599188379975,8.787979857966496,0.5466666666666666,-0.11666666666666667,-0.6411111111111111,-0.013587379373374805,-0.05469423330086967,0.6294345181156354
1590514590.2242153,-2.1857244655581947,-2.7904829770387964,8.8547585114806,0.546137943168822,-0.1251262426321809,-0.6522143045658485,-0.019010511760514246,-0.05761106612481678,0.5745223494437253
1590514590.2342153,-2.209783028172034,-2.78,8.866630504695339,0.5455555555555556,-0.13444444444444445,-0.6644444444444444,-0.012769750379753331,-0.046561836682255456,0.5182984633925887
1590514590.2442153,-2.246947312594262,-2.8138946251885244,8.881298208396174,0.5455555555555556,-0.13444444444444445,-0.6644444444444444,-0.014888863012775352,-0.04164295370595284,0.4737689594246245
1590514590.2542152,-2.243334631452241,-2.801114140055229,8.873334631452241,0.5455555555555556,-0.13444444444444445,-0.6644444444444444,-0.014181224980873085,-0.0338161790658093,0.4232444676507206
1590514590.2642152,-2.24626312003099,-2.8079472800723098,8.93047352013429,0.5455555555555556,-0.13444444444444445,-0.6644444444444444,-0.011591508237391968,-0.028269743664121737,0.3748152600348378
1590514590.2742152,-2.272313003452244,-2.7969044879171463,8.92227848101266,0.5571845032604527,-0.1378647231811789,-0.6678647231811788,-0.008388978273214977,-0.023912918764738188,0.3288333871626428
1590514590.2842152,-2.287388714214794,-2.7773887142147937,8.835667714711237,0.5644444444444444,-0.14,-0.67,-0.00545415391248228,-0.017786697195645917,0.29642762416013324
1590514590.2942152,-2.2826374359585366,-2.794725128082926,8.86417538424878,0.5644444444444444,-0.14,-0.67,-0.018304252303729462,-0.024393773231976328,0.27168897170663947
1590514590.3042152,-2.353718478520396,-2.7943293478061233,8.86298804341837,0.5644444444444444,-0.14,-0.67,-0.014247435674549237,-0.02232219198648206,0.2595047303737183
1590514590.3142152,-2.383846628387036,-2.7551288378493806,8.928460114838893,0.5644444444444444,-0.14,-0.67,-0.009537742332241233,-0.01806864158874824,0.25668084824524523
1590514590.3242152,-2.3460886133178325,-2.6787089065426595,8.912658399534974,0.5674866340861303,-0.12870043847373822,-0.6873839408096335,-0.0068791454132749764,-0.016173294221396784,0.26663355134245464
1590514590.3342152,-2.3956023383158205,-2.6451642740861327,8.861423708746486,0.5722222222222222,-0.1111111111111111,-0.7144444444444444,-0.009385551963502697,-0.01969468582824295,0.28145823458140834
1590514590.3442152,-2.491480065802206,-2.7014800658022065,8.754946293787498,0.5722222222222222,-0.1111111111111111,-0.7144444444444444,-0.016618438575801198,-0.015285432592729695,0.29568206548561865
1590514590.3542151,-2.5233065839868685,-2.713346708006566,8.8828652197702,0.5722222222222222,-0.1111111111111111,-0.7144444444444444,-0.02252924666632567,-0.023246254534302555,0.30832691168039716
1590514590.3642151,-2.5914774194870955,-2.7044111436829916,8.944111436829914,0.5722222222222222,-0.1111111111111111,-0.7144444444444444,-0.020083442270372114,-0.02091733601404435,0.3272188450678435
1590514590.3742151,-2.5263214723015843,-2.620425030611109,8.846950020407407,0.5558019904435622,-0.1111111111111111,-0.7468638764176964,-0.009071429088834994,-0.014180800172453925,0.3516487770886286
1590514590.384215,-2.2979770904925543,-2.4835349369988546,8.772930126002292,0.5288888888888889,-0.1111111111111111,-0.8,0.007085277055060601,-0.005365438006918421,0.3790255865637199
1590514590.394215,-2.3772074783905444,-2.6305191792549225,8.75987020518627,0.5288888888888889,-0.1111111111111111,-0.8,-0.010277836491754528,-0.013174919896892933,0.3828462086116996
1590514590.404215,-2.2269329940270883,-2.691102675191386,8.670709809035081,0.5288888888888889,-0.1111111111111111,-0.8,-0.03539599980145378,-0.03579970446368122,0.37399182014242865
1590514590.414215,-2.184681673643996,-2.8415157962162287,8.602152448928237,0.5288888888888889,-0.1111111111111111,-0.8,-0.008644446534545727,-0.028085704727327715,0.3725808361498159
1590514590.424215,-2.391808376609409,-2.817379774452263,9.162731770273178,0.4649117236340295,-0.12113163097030595,-0.8084789014193187,-0.04232918186488782,-0.024263954158721526,0.3253894961423403
1590514590.434215,-2.4869396309865666,-2.644458197181239,9.024218239429647,0.43666666666666665,-0.12555555555555556,-0.8122222222222222,-0.04109155993210657,-0.01633358606369821,0.29167768110747494
1590514590.444215,-2.2303050945720706,-2.7817559243423435,8.771393216899776,0.43666666666666665,-0.12555555555555556,-0.8122222222222222,-0.01952254294117869,-0.005491624293734785,0.2819235517034551
1590514590.454215,-2.1089683117829177,-2.8662274631214713,8.716227463121472,0.43666666666666665,-0.12555555555555556,-0.8122222222222222,-0.007103958491054024,0.014188597496841648,0.2781191380781667
1590514590.464215,-2.309767586354193,-2.720129118692115,8.804522260839175,0.43666666666666665,-0.12555555555555556,-0.8122222222222222,-0.009786490780798058,0.013120955651627516,0.27543336411391556
1590514590.474215,-2.5779427220178666,-2.614922490803994,8.960342879663688,0.4201904887020494,-0.15050519647340457,-0.8032780113271443,-0.02967326274009835,-0.005379349174113499,0.2879962364624504
1590514590.484215,-2.7655614003265008,-2.5520974665941107,8.92,0.3977777777777778,-0.18444444444444444,-0.7911111111111111,-0.04036073895236887,-0.014840614620007863,0.3129193761347124
1590514590.494215,-2.73,-2.6175890697848363,8.862410930215164,0.3977777777777778,-0.18444444444444444,-0.7911111111111111,-0.03329349682099732,-0.008989637949286781,0.32951607624887647
1590514590.504215,-2.5912558559844,-2.6180930298922735,8.715860502722885,0.3977777777777778,-0.18444444444444444,-0.7911111111111111,-0.024170782617970746,0.006199973888881311,0.3369804590898805
1590514590.514215,-2.657131258184749,-2.6901424398106175,8.79946086430946,0.3977777777777778,-0.18444444444444444,-0.7911111111111111,-0.02786889690353004,-0.0005237789873927274,0.3233630772873213
1590514590.524215,-2.7058714944042133,-2.727935747202107,8.946353390388413,0.41386344817496895,-0.21326460390607857,-0.7468755175188354,-0.025712066448504746,-0.007635815477475192,0.31218525661101515
1590514590.534215,-2.6669688919358983,-2.7718199931442284,8.932422229839746,0.4244444444444445,-0.23222222222222225,-0.7177777777777777,-0.013651627119748742,-0.00952004359982451,0.31025869697070685
1590514590.544215,-2.7361712892094543,-2.81,8.855531484316218,0.4244444444444445,-0.23222222222222225,-0.7177777777777777,-0.008262470776389043,-0.007775031330395308,0.3016494233431134
1590514590.554215,-2.8251655237644835,-2.769735161976827,8.729337904942067,0.4244444444444445,-0.23222222222222225,-0.7177777777777777,-0.008177619700372757,0.0005851382431055121,0.29067390302014956
1590514590.564215,-2.880192859602801,-2.749213637929055,8.73979221673746,0.4244444444444445,-0.23222222222222225,-0.7177777777777777,-0.006737580004757125,0.004149690101063891,0.2816058994747205
1590514590.574215,-2.9558563064762122,-2.7973631041212257,9.014932023549862,0.4244444444444445,-0.23222222222222225,-0.7177777777777777,-0.004486597724048882,-0.0018529293141580907,0.27110131549808203
1590514590.584215,-2.783446004010312,-2.616528215411057,8.842675451160126,0.4211111111111111,-0.2588888888888889,-0.72,0.0005043256611140887,-0.003146879636356863,0.2665404864708248
1590514590.594215,-2.570617738736186,-2.5143978464154153,8.535308869368093,0.4211111111111111,-0.2588888888888889,-0.72,0.022348894087860234,-0.003298766254123598,0.2695083065580246
1590514590.604215,-2.912417174614557,-2.8383850842595915,8.889668698458228,0.4211111111111111,-0.2588888888888889,-0.72,-0.002866530421819887,-0.003148840087938899,0.2479008972928145
1590514590.614215,-2.961457783641161,-2.8728951187335094,9.043017810026384,0.4211111111111111,-0.2588888888888889,-0.72,-0.03289732654579483,-0.013564797380306685,0.21738890358949392
1590514590.624215,-2.778115025466893,-2.80581960950764,8.890983022071309,0.4005510516883607,-0.27897080739483116,-0.691311544991511,0.006227574235326595,0.0024856681404543607,0.201915486397003
1590514590.6342149,-2.400195980992018,-2.9337975587787684,9.158411342671677,0.37333333333333335,-0.3055555555555556,-0.6533333333333333,0.017664567507042962,0.008185381155112085,0.17892592711208385
1590514590.6442149,-2.368085879686007,-2.942248908705997,8.736924518050845,0.37333333333333335,-0.3055555555555556,-0.6533333333333333,0.06115956331652564,0.08650884642104947,0.1533381670889044
1590514590.6542149,-2.61013037037037,-2.8747066666666665,8.56837037037037,0.37333333333333335,-0.3055555555555556,-0.6533333333333333,0.06075798174856964,0.12733421248413482,0.0995002510288345
1590514590.6642148,-2.652935803312276,-2.7941283933754484,8.834523646918218,0.37333333333333335,-0.3055555555555556,-0.6533333333333333,-0.008111575633508516,-0.004059279890712239,-0.0016874632584615162
1590514590.6742148,-2.7995880403975892,-2.7161797932218277,9.0559925751467,0.38633791509764526,-0.29723262322639593,-0.636687468675014,-0.06113555481501494,-0.11070911326142088,-0.12197287402948226
1590514590.6842148,-2.8252961636117004,-2.7053417272442695,9.329817745469722,0.4011111111111111,-0.2877777777777778,-0.6177777777777778,-0.06496655932475032,-0.06406956717283277,-0.20061842977470687
1590514590.6942148,-2.79837708129285,-2.6811694417238003,9.169586353248448,0.4011111111111111,-0.2877777777777778,-0.6177777777777778,-0.003359281593879958,0.007248771763986079,-0.22795065576491982
1590514590.7042148,-2.805830485658072,-2.768929791860826,9.13346743295019,0.4011111111111111,-0.2877777777777778,-0.6177777777777778,0.005333684716092885,0.014881249761587253,-0.2766320658266087
1590514590.7142148,-2.7894671857619575,-2.7873633667037447,9.196366332962551,0.4011111111111111,-0.2877777777777778,-0.6177777777777778,-0.020730274382332815,0.014176310657553776,-0.30250286683497674
1590514590.7242148,-2.8406951871657755,-2.8988413547237077,8.89235294117647,0.43312933254109726,-0.27095464448405626,-0.6177777777777778,0.03384103197605761,0.05116599146276603,-0.35967277003971826
1590514590.7342148,-2.7707608492155615,-2.8802415097165537,9.007644812221516,0.4666666666666667,-0.2533333333333333,-0.6177777777777778,0.013701246339477897,0.03115850076401183,-0.4303538398156876
1590514590.7442148,-2.7737625113739766,-2.810677888989991,8.703457688808008,0.4666666666666667,-0.2533333333333333,-0.6177777777777778,0.013001134672001665,0.04272354393665714,-0.48334523384748557
1590514590.7542148,-2.743317910788179,-2.7825557981167117,8.95080838030693,0.4666666666666667,-0.2533333333333333,-0.6177777777777778,0.029449907619354485,0.0550722577473583,-0.510398802582789
1590514590.7642148,-2.6186406543151968,-2.737064376172608,9.284403435741089,0.4666666666666667,-0.2533333333333333,-0.6177777777777778,0.013919732439447916,0.04891543994036926,-0.533096025757092
1590514590.7742147,-2.7319867959562614,-2.9087947183825045,8.97358283474314,0.4666666666666667,-0.24243930953854614,-0.6099963322100727,0.044585384564678955,0.05497859160668953,-0.5726081125095521
1590514590.7842147,-2.6388551936124753,-2.9090741087828467,8.914360310379728,0.4666666666666667,-0.21444444444444444,-0.59,0.007371377846916861,0.04996701754705071,-0.6441998770756081
1590514590.7942147,-2.5553992283667095,-3.0064005144221935,8.837794598566967,0.4666666666666667,-0.21444444444444444,-0.59,0.024500143547005002,0.04476831257597498,-0.7308683883304855
1590514590.8042147,-2.45082336382829,-3.044563502351939,8.662817511759695,0.4666666666666667,-0.21444444444444444,-0.59,0.029553074094891944,0.07229134659393982,-0.8022963236920683
1590514590.8142147,-2.306531623985601,-3.1012911680191984,8.758708831980801,0.4666666666666667,-0.21444444444444444,-0.59,0.04144743636488523,0.07346400355944042,-0.90499054148998
1590514590.8242147,-2.28309802739254,-3.1587320182616936,8.781311482470498,0.46876881921114844,-0.21056354743924732,-0.5930723767957811,0.052754386392658836,0.08094154213874641,-1.000721009184107
1590514590.8342147,-2.2774936545065443,-3.204499576967103,8.875475041059074,0.4811111111111111,-0.18777777777777774,-0.6111111111111112,0.04145249264947751,0.1044472781526887,-1.240937035233633
1590514590.8442147,-2.237063720708663,-3.2811911621259897,8.71284213869292,0.4811111111111111,-0.18777777777777774,-0.6111111111111112,0.05835431229042862,0.12048150891808514,-1.4322288222223798
1590514590.8542147,-2.2689863886475528,-3.3769591659426585,8.871891109180424,0.4811111111111111,-0.18777777777777774,-0.6111111111111112,0.04916494065893851,0.12659907853394614,-1.6198458030313032
1590514590.8642147,-2.251480025128551,-3.3850450219874824,8.92435003141069,0.4811111111111111,-0.18777777777777774,-0.6111111111111112,0.04220968684957645,0.1308800493516408,-1.8013940811422768
1590514590.8742146,-2.212196183890383,-3.3643923677807654,8.991108976821616,0.48720920305630255,-0.17388767945817502,-0.6067069335951395,0.06725937722977957,0.15951482963572744,-1.967623914547748
1590514590.8842146,-2.2167705967375597,-3.398706380342763,9.200953954160644,0.5011111111111111,-0.14222222222222222,-0.5966666666666667,0.06981215650584767,0.17576385442229958,-2.1235713909355614
1590514590.8942146,-2.1070022128042605,-3.3110831489329784,8.788840340546825,0.5011111111111111,-0.14222222222222222,-0.5966666666666667,0.048095601848530026,0.16254213259503347,-2.282724502506455
1590514590.9042146,-1.9293165607573597,-3.3435611464142134,8.624352483465179,0.5011111111111111,-0.14222222222222222,-0.5966666666666667,0.0809608354049302,0.20726961849939518,-2.4649087145731947
1590514590.9142146,-1.8899086645272773,-3.4586859211717274,8.80669711182424,0.5011111111111111,-0.14222222222222222,-0.5966666666666667,0.0650895577404612,0.2127219657413269,-2.5816400325601836
1590514590.9242146,-1.8920238478891396,-3.5460119239445698,8.876357073799548,0.5165700934579439,-0.11716800945321731,-0.6035965553049021,0.07111826491703328,0.21510792820656546,-2.6781908280777773
1590514590.9342146,-1.84,-3.52,8.97,0.5333333333333333,-0.09,-0.6111111111111112,0.07963064712224129,0.22362031041177347,-2.715077817633679
1590514590.9442146,-1.8696253218503065,-3.660187339074847,8.740936695374234,0.5333333333333333,-0.09,-0.6111111111111112,0.07846829200938225,0.2505538938453328,-2.7658180105099364
1590514590.9542146,-1.832385687649827,-3.6788071561750866,8.834035780875432,0.5333333333333333,-0.09,-0.6111111111111112,0.07135941762929388,0.2170406289106304,-2.8216734520677735
1590514590.9642146,-1.7601479269393707,-3.8,8.785828414010233,0.5333333333333333,-0.09,-0.6111111111111112,0.06904829813100277,0.2268928027592628,-2.8528484550619586
1590514590.9742146,-1.7071787062593191,-3.8205133085879255,8.854870721106563,0.5315099281255177,-0.06538402969448939,-0.602449936373987,0.0755190861172725,0.22778786469760512,-2.8557389952948586
1590514590.9842145,-1.538666512728742,-3.728666512728742,8.638333140910927,0.5288888888888889,-0.03,-0.59,0.08039019228754016,0.21694198656180216,-2.8517871945456594
1590514590.9942145,-1.3207556427870462,-3.5107556427870463,8.365944553483807,0.5288888888888889,-0.03,-0.59,0.0856725008380509,0.1951524637909453,-2.8504666174080318
1590514591.0042145,-1.3136614827998716,-3.6936614827998717,8.913239576342894,0.5288888888888889,-0.03,-0.59,0.05322772347195695,0.24176502789944507,-2.8288929429247047
1590514591.0142145,-1.1683326017432747,-3.6238464915031043,8.816793127233963,0.5288888888888889,-0.03,-0.59,0.04300432942400244,0.24114337451246215,-2.823097973733126
1590514591.0242145,-1.0557127919135587,-3.6714290693621474,8.74429069362147,0.5269840439951977,-0.011269025212036713,-0.5919048448936912,0.0858638572471095,0.23468488573468366,-2.8121615671694182
1590514591.0342145,-0.967310912028198,-3.697310912028198,8.981596416507562,0.5222222222222223,0.03555555555555556,-0.5966666666666667,0.07640397319211041,0.2475910324945778,-2.8033067874064366
1590514591.0442145,-0.9272797045138389,-3.714540221614621,8.8909003693577,0.5222222222222223,0.03555555555555556,-0.5966666666666667,0.06316997032369473,0.21890904852377882,-2.80398157291818
1590514591.0542145,-0.812573848432101,-3.714039385830454,8.734236314982724,0.5222222222222223,0.03555555555555556,-0.5966666666666667,0.06358791604619904,0.2242208043830997,-2.7910060845868703
1590514591.0642145,-0.749548508634223,-3.725387441130298,8.636162323390895,0.5222222222222223,0.03555555555555556,-0.5966666666666667,0.07412724314177689,0.22717432957345815,-2.774559707110576
1590514591.0742145,-0.7890552590266876,-3.837323233908948,8.971969701726845,0.5222222222222223,0.03555555555555556,-0.5966666666666667,0.07843676108622734,0.2343568594808755,-2.7558851293512907
1590514591.0842144,-0.6338238020205765,-3.7482343127259243,9.126178051719345,0.5288888888888889,0.06222222222222223,-0.6111111111111112,0.08617563181722003,0.24216443371421326,-2.662717940073849
1590514591.0942144,-0.5841229581352871,-3.84883061084705,8.932646173644118,0.5288888888888889,0.06222222222222223,-0.6111111111111112,0.07867065988344743,0.23610272561385845,-2.6286569136051887
1590514591.1042144,-0.5007466684524209,-3.7616503716600818,8.846228152414115,0.5288888888888889,0.06222222222222223,-0.6111111111111112,0.0625716695131609,0.21830545967361792,-2.5168724107922116
1590514591.1142144,-0.3681312785221689,-3.7006563926108447,8.588602359047632,0.5288888888888889,0.06222222222222223,-0.6111111111111112,0.066917197013559,0.21045873969528478,-2.4347637772691098
1590514591.1242144,-0.38647717497484946,-3.792385874874247,8.765946024756879,0.5288888888888889,0.06222222222222223,-0.6111111111111112,0.03823294537781607,0.2004526054037465,-2.3880684839085977
1590514591.1342144,-0.2646010227801023,-3.727699488609949,8.896479218967922,0.5488888888888889,-0.042222222222222223,-0.54,0.07115494772624477,0.20130180103389406,-2.2717653033071383
1590514591.1442144,-0.20220325430032543,-3.758898372849837,8.639088423988843,0.5488888888888889,-0.042222222222222223,-0.54,0.06775167739540341,0.20810834169557682,-2.203699896690311
1590514591.1542144,-0.14290193918444094,-3.825755636170253,8.647122181914874,0.5488888888888889,-0.042222222222222223,-0.54,0.038325513200004116,0.1687595876240546,-2.1191966011728853
1590514591.1642144,-0.04763891927368191,-3.7447221614526365,8.682916757821046,0.5488888888888889,-0.042222222222222223,-0.54,0.058200362402746196,0.1833201864274103,-2.0631246995088324
1590514591.1742144,-0.023908489063940334,-3.7556339562557612,8.699037123942011,0.5969441418289151,-0.10900323100272821,-0.4353162565062339,0.05510619694293062,0.1751807688058649,-2.006978905374495
1590514591.1842144,0.0011888878735264552,-3.66,8.930766700173628,0.7855555555555556,-0.3711111111111111,-0.024444444444444446,0.03293096818177663,0.1707186558892397,-1.9637087300575924
1590514591.1942143,0.0067796442443284425,-3.605253952153584,8.775254941738206,0.7855555555555556,-0.3711111111111111,-0.024444444444444446,0.041839827879586546,0.1600193785944766,-1.9122262537693504
1590514591.2042143,0.01724019352084618,-3.4520715742541386,8.749676516624769,0.7855555555555556,-0.3711111111111111,-0.024444444444444446,0.05427727795603275,0.17208850292064654,-1.848282505924595
1590514591.2142143,0.05896131536118183,-3.5054584150565455,8.434813671076242,0.7855555555555556,-0.3711111111111111,-0.024444444444444446,0.05693496652882475,0.14828188189661773,-1.7969804059196943
1590514591.2242143,0.09318199794352607,-3.758257006512167,9.06022700308471,0.8102107739314098,-0.10698293009453336,0.012904549728879392,0.014032227000939342,0.13361858869025334,-1.7554027488534494
1590514591.2342143,0.1424093117645911,-3.58831619411868,8.941813764708177,0.8977777777777778,0.8311111111111111,0.14555555555555555,0.050797163006241194,0.15332108025202865,-1.6997659566834642
1590514591.2442143,0.14501523441339317,-3.509033515709465,8.793987812469284,0.8977777777777778,0.8311111111111111,0.14555555555555555,0.02181661564992912,0.14509046497227818,-1.6472898213518885
1590514591.2542143,0.1143867502238138,-3.4891271262309758,8.79762981199642,0.8977777777777778,0.8311111111111111,0.14555555555555555,0.026524668651196275,0.12229780469641947,-1.527333019000996
1590514591.2642143,0.14,-3.63,8.74,0.8977777777777778,0.8311111111111111,0.14555555555555555,0.03490658503988659,0.1341721862470641,-1.4518957715027834
1590514591.2742143,0.27685755992299393,-3.4715333516681124,8.876857559922994,0.8977777777777778,0.8311111111111111,0.14555555555555555,0.044335328567130065,0.12710062860163146,-1.381180195048457
1590514591.2842143,0.3514308508593179,-3.4819078011457574,8.964276596562728,0.5688888888888889,0.6022222222222222,-0.5433333333333333,0.04373728571069194,0.12809370586957958,-1.25985056445296
1590514591.2942142,0.37562036218232153,-3.514160482909762,8.867518551270713,0.5688888888888889,0.6022222222222222,-0.5433333333333333,0.04549639661500386,0.11753904044370805,-1.1850883510197034
1590514591.3042142,0.42,-3.419825093699804,8.685743351775834,0.5688888888888889,0.6022222222222222,-0.5433333333333333,0.028718850833196453,0.09634081968916137,-1.0790744184714995
1590514591.3142142,0.42,-3.3449019204671626,9.05444956203479,0.5688888888888889,0.6022222222222222,-0.5433333333333333,0.02864129479442323,0.08935598424501338,-0.9950647487455805
1590514591.3242142,0.4217337795292926,-3.4430648818828296,8.807863543294951,0.5615684864318756,0.5933606824058377,-0.5471219626751209,0.04161588721386933,0.09634655234675359,-0.9271565480638726
1590514591.3342142,0.44943660421390985,-3.3322535831443605,8.61394377050263,0.4446010044301584,0.45176846735112736,-0.607657764763729,0.009382187023913947,0.06713476154960651,-0.8566453288983451
1590514591.3442142,0.41,-3.2584829183555297,8.765558772437753,0.44222222222222224,0.4488888888888889,-0.6088888888888889,-0.003355236315356788,0.04163663830421765,-0.739185973160165
1590514591.3542142,0.42985480093676814,-3.373526932084309,8.959564402810305,0.44222222222222224,0.4488888888888889,-0.6088888888888889,0.010379497586143094,0.05122153049500454,-0.638085425911496
1590514591.3642142,0.517609719705851,-3.2910060748161567,9.02471981242673,0.44222222222222224,0.4488888888888889,-0.6088888888888889,0.034275361037260275,0.07441660851383747,-0.5202032843199897
1590514591.3742142,0.5659702491849091,-3.3097348043782024,8.626914590125757,0.4356403638151426,0.4431730644827408,-0.6152975404957822,0.03513096237771612,0.06812541809765608,-0.412683303592716
1590514591.3842142,0.49960362008852405,-3.2640241339234937,8.984696224128978,0.4,0.4122222222222222,-0.65,0.003408788876852009,0.03364280089378965,-0.26631921052608004
1590514591.3942142,0.5355716502845318,-3.3813140196585616,8.68340403517848,0.4,0.4122222222222222,-0.65,0.025662457234364375,0.04390128335453274,-0.1151162246002248
1590514591.4042141,0.5893287941921903,-3.4001340263757034,9.230537179432106,0.4,0.4122222222222222,-0.65,0.009275716653626968,0.03589495860747139,0.025469696837808375
1590514591.4142141,0.6620639423445527,-3.6210319711722763,8.981278846891053,0.4,0.4122222222222222,-0.65,0.008292254242469035,-0.008866146815457662,0.15159369806491824
1590514591.4242141,0.6781426818983363,-3.629071340949168,9.302853637966725,0.4,0.4122222222222222,-0.65,-0.046079216309463586,-0.043944514913478706,0.25332096554917927
1590514591.434214,0.677381378271512,-3.627855865185464,8.568312464695914,0.3655555555555556,0.4122222222222222,-0.6644444444444444,0.004468791329347887,-0.02098457733324805,0.40666894547245397
1590514591.444214,0.6333151143107704,-3.5895778353353864,8.802681867313849,0.3655555555555556,0.4122222222222222,-0.6644444444444444,-0.01843495791077067,-0.03567588180856743,0.47460349242824695
1590514591.454214,0.5009403367003367,-3.338028552188552,8.418988282828282,0.3655555555555556,0.4122222222222222,-0.6644444444444444,-0.005156331399044325,-0.03413338067513523,0.5263032132247645
1590514591.464214,0.49486919045788397,-2.9862887724338867,9.001792687615078,0.3655555555555556,0.4122222222222222,-0.6644444444444444,-0.038950690687986525,-0.07202336985980298,0.5716714319349079
1590514591.474214,0.4205228304742684,-2.783419315506223,8.148581399260006,0.36571046828867215,0.4118155762977912,-0.6642895317113279,-0.06386473920197958,-0.08803411228950939,0.6163121685211836
1590514591.484214,0.4469752774974773,-3.462365455768584,9.594648503195426,0.373548230369623,0.39124145083529543,-0.6564517696303771,-0.03885694818140965,-0.07168286431452135,0.6711369411432024
1590514591.494214,0.6215711882060733,-3.6166420959858985,8.743641535133403,0.3744444444444445,0.3888888888888889,-0.6555555555555556,0.0006936009205906497,-0.04830035442984067,0.755898711441506
1590514591.504214,0.6618977646021954,-3.7443429212402854,8.965437705312073,0.3744444444444445,0.3888888888888889,-0.6555555555555556,-0.02350060806648109,-0.06076403784742309,0.8013544980232772
1590514591.514214,0.7908160225109658,-3.853142431515352,8.807508896797154,0.3744444444444445,0.3888888888888889,-0.6555555555555556,0.019710697445568047,-0.044185282134499126,0.9336535591461165
1590514591.524214,0.4144050418587151,-4.713565045621296,7.903160568149752,0.3727369642241245,0.3874827287074489,-0.6517388350630755,-0.0047394858285684655,-0.044163306722901856,1.0634677679078508
1590514591.534214,-3.8649992769574366,-14.138033645580602,-0.4450701351286215,0.3555555555555556,0.37333333333333335,-0.6133333333333333,-0.7764637340032237,-0.4856765921289949,3.672301415748594
1590514591.544214,-8.097241190931438,-12.931709915323683,-9.347604479650368,0.3555555555555556,0.37333333333333335,-0.6133333333333333,-2.0210505129104863,-1.5442737342592125,11.032492101170634
1590514591.554214,11.74805051767647,-13.9000492912903,0.11992099242942383,0.3555555555555556,0.37333333333333335,-0.6133333333333333,-3.236523359487429,-1.6965855990072887,9.980000332634065
1590514591.564214,-0.3907443253467844,-1.0643244010088273,2.1499782471626734,0.3555555555555556,0.37333333333333335,-0.6133333333333333,-3.653582816254213,0.7738061261393944,1.9150521705507295
1590514591.574214,-3.34605974148802,-2.512230611601513,10.857249842370745,0.3555555555555556,0.37333333333333335,-0.6133333333333333,-3.489149979931125,0.9367965691614032,1.6821056524263542
1590514591.584214,0.7790392574633263,0.1818854847794676,0.5694484852937576,0.4211111111111111,0.3555555555555556,-0.6411111111111111,-1.5746807668497462,-0.9095566817449764,1.7853616971772936
1590514591.594214,-0.25916434117356724,-0.4454249482696433,4.546430700305637,0.4211111111111111,0.3555555555555556,-0.6411111111111111,-0.5894302072782163,-0.9819361876794713,1.9647036738560577
1590514591.604214,-1.302225449437136,-1.0107481443514248,7.6676517265599795,0.4211111111111111,0.3555555555555556,-0.6411111111111111,0.9366157169677967,-0.47643890372319375,2.2026869312512813
1590514591.614214,-1.0868265522480258,-1.05140257441942,6.318967894886221,0.4211111111111111,0.3555555555555556,-0.6411111111111111,2.603584647505254,-0.5036578272430735,2.463361725968126
1590514591.624214,-1.0728215102592784,-1.3665160191662353,7.285315792109788,0.4211111111111111,0.3555555555555556,-0.6411111111111111,3.4835473880065586,-0.4349107381414091,2.599328191080307
1590514591.634214,-5.38389204116416,0.36203555478846194,17.206128454618025,0.46848122658266994,0.34993537236401473,-0.6001640621441704,4.529456298087739,-0.3382966528575055,2.749684224756568
1590514591.644214,-0.5167558971640605,1.2206299143033836,-1.375026769149218,0.4866666666666667,0.3477777777777778,-0.5844444444444444,3.2551736283508794,-0.43337530290655557,2.4644418334348517
1590514591.654214,0.37257354890007954,0.47952204258326714,-1.1082279353299762,0.4866666666666667,0.3477777777777778,-0.5844444444444444,1.1589320642891194,-0.46005327113410593,2.0359774952348
1590514591.664214,-0.014293886916481896,0.5786364552487558,0.6576011224632177,0.4866666666666667,0.3477777777777778,-0.5844444444444444,-0.33201458620966956,0.14981797481557008,1.793881191346844
1590514591.674214,-3.5257464225360846,-2.1720013643199336,13.415878668547775,0.4866666666666667,0.3477777777777778,-0.5844444444444444,-1.2158440388657534,0.2179139840089762,1.613710500355957
1590514591.6842139,-0.5603176303874466,-0.9161953478726712,4.705309508174057,0.5123616631528013,0.23043729382442965,-0.6409734367139407,-0.7064294495710384,0.126192830518315,1.526822156678942
1590514591.6942139,-2.258099143853715,-2.250189197759222,13.254383257583765,0.52,0.1955555555555556,-0.6577777777777778,0.21132877704007919,-0.22894355540654654,1.5562014006310494
1590514591.7042139,-1.6403220065624826,-1.4613447527946166,7.486187086368945,0.52,0.1955555555555556,-0.6577777777777778,0.4467853850640311,-0.04033525933896314,1.605405407015398
1590514591.7142138,-2.4567421166787162,-2.697638062399199,12.306953450864802,0.52,0.1955555555555556,-0.6577777777777778,-0.3123247938595125,-0.05475411189952207,1.4832692441494868
1590514591.7242138,-1.5898227766928033,-2.7384807765179118,11.008863788731162,0.52,0.1955555555555556,-0.6577777777777778,-0.18765500870867574,-0.15341941798490605,1.501475488421078
1590514591.7342138,-0.5868303826384923,-1.066215082064907,5.204836739254588,0.5277777777777778,0.16111111111111112,-0.6644444444444444,0.09173487905366834,-0.049884496405896706,1.4770686291284754
1590514591.7442138,1.5872714535901926,0.9366024518388791,10.696413309982486,0.5277777777777778,0.16111111111111112,-0.6644444444444444,-0.3013902409277949,0.0999464630125746,0.3194105362082372
1590514591.7542138,-0.31,1.28,11.16,0.5277777777777778,0.16111111111111112,-0.6644444444444444,0.19962203319685146,-0.3327033886614191,-0.4428772976935611
1590514591.7642138,-1.4465769562302462,1.2042282029179836,7.4168732241483895,0.5277777777777778,0.16111111111111112,-0.6644444444444444,0.4054310128651767,0.02518933501884124,-0.3610496310784439
1590514591.7742138,-1.7504506846940544,-1.5294938464205232,10.127923816952679,0.5277777777777778,0.16111111111111112,-0.6644444444444444,-0.024067576830415993,0.01133384339022861,-0.23419979959732717
1590514591.7842138,-1.2675806324732535,-2.252504129955947,10.070884990560101,0.5383172505419201,0.14464318491713868,-0.6591747080623732,-0.24913686498213958,-0.017850962639026385,-0.13301255641014137
1590514591.7942138,-1.5881841876629017,-5.447011294526498,8.733240660295394,0.5455555555555556,0.13333333333333333,-0.6555555555555556,-0.020170418370001775,0.01920373948368869,0.012543132412111732
1590514591.8042138,-4.747746585735963,-9.208655349013657,8.464867792109256,0.5455555555555556,0.13333333333333333,-0.6555555555555556,0.027622599733609615,0.055229350142875666,-0.17818323564419825
1590514591.8142138,-1.0026653469546458,-3.3828385591572703,8.538925023860866,0.5455555555555556,0.13333333333333333,-0.6555555555555556,0.07315753872471291,-0.07175086097203626,-0.5331628347079108
1590514591.8242137,-1.0315910087541211,-3.012982572964545,8.953280602881227,0.5455555555555556,0.13333333333333333,-0.6555555555555556,0.023931007161144456,0.0329852516735262,-0.5356369262306264
1590514591.8342137,-2.0670445454192397,-4.510262922831955,9.080434579983688,0.5455555555555556,0.12765216340656163,-0.6506859813326084,-0.029234298862109563,0.057794967669751944,-0.49285627576964086
1590514591.8442137,-1.5242815430169436,-4.113900312551406,8.672936749465372,0.5455555555555556,0.12555555555555556,-0.6488888888888888,0.008753607491271222,0.029063534431670562,-0.4937501354944589
1590514591.8542137,-1.3919251373983599,-3.7982888052844186,8.59636366788606,0.5455555555555556,0.12555555555555556,-0.6488888888888888,0.013142469368324123,0.026494938650114857,-0.5019279911202663
1590514591.8642137,-1.4210123268433918,-4.074617105012223,8.843604778168832,0.5455555555555556,0.12555555555555556,-0.6488888888888888,0.013935699408897795,0.0312543188935569,-0.4876498503899403
1590514591.8742137,-1.4834380185606293,-4.195625345707087,8.786404953598426,0.5455555555555556,0.12555555555555556,-0.6488888888888888,0.016123861359172306,0.03661104584833044,-0.4919818119861627
1590514591.8842137,-1.3171227994595336,-4.004573599389038,8.785032800046997,0.5163251110197279,0.1514453778587172,-0.6488888888888888,0.008983253270176473,0.041187806864474145,-0.5078139306229388
1590514591.8942137,-1.3989374304058375,-4.090572152858395,8.779427847141605,0.5066666666666667,0.16,-0.6488888888888888,-0.01823206232732438,0.04581489286485115,-0.5314574917722851
1590514591.9042137,-1.2699435526127758,-4.159717763063878,8.709642499880914,0.5066666666666667,0.16,-0.6488888888888888,0.019645216509532173,0.045810787895012764,-0.5585628302159229
1590514591.9142137,-1.239913969929304,-4.0100501842079055,8.520200736831624,0.5066666666666667,0.16,-0.6488888888888888,0.025087543926596224,0.04363948758314727,-0.5890626991854866
1590514591.9242136,-1.1396817683958977,-4.068518968435726,8.754075873742906,0.5066666666666667,0.16,-0.6488888888888888,0.023265271079429092,0.05092857897181581,-0.6054631548099908
1590514591.9342136,-1.1947383592017737,-3.9959193458980047,8.949476718403549,0.5378076496674058,0.16,-0.6551170854890367,0.018831101289896967,0.057455308987990644,-0.6341607337738262
1590514591.9442136,-1.2197071567309128,-4.029414313461826,8.802342746152698,0.54,0.16,-0.6555555555555556,0.0034961020641463454,0.05888889013219027,-0.6639006713522644
1590514591.9542136,-1.1167915022383055,-4.062252655550529,8.890307435541482,0.54,0.16,-0.6555555555555556,0.007494355086502106,0.056793930885302255,-0.6889434791845827
1590514591.9642136,-1.0675175332053441,-3.929649335893116,8.6167460721702,0.54,0.16,-0.6555555555555556,0.023758083311476896,0.058092476895967866,-0.7434968070718612
1590514591.9742136,-1.076890566037736,-3.96268679245283,8.764950943396228,0.54,0.16,-0.6555555555555556,0.022348447110678335,0.05890486225480863,-0.7878539733779667
1590514591.9842136,-0.9991939345570631,-4.071827613727055,8.960806065442938,0.5220430965682362,0.1659856344772546,-0.6425866808548373,0.015717365480599377,0.0667400394634823,-0.8448540997826003
1590514591.9942136,-1.0265278883529247,-4.025208167470613,8.96086802791177,0.52,0.16666666666666666,-0.6411111111111111,0.011287056451453985,0.07858908839939537,-0.8945836427290736
1590514592.0042136,-1.0396643413203923,-4.048993023961176,8.496111616621171,0.52,0.16666666666666666,-0.6411111111111111,0.015125172226899096,0.07225113441885582,-0.9483927214998106
1590514592.0142136,-0.937609243697479,-4.111434453781512,8.643825210084033,0.52,0.16666666666666666,-0.6411111111111111,0.0197392705076657,0.0764624711974814,-0.9821316950155397
1590514592.0242136,-0.8155385609018584,-3.9910771218037167,8.726769221736195,0.52,0.16666666666666666,-0.6411111111111111,0.030677506181991457,0.08075503897276042,-1.0391085652290568
1590514592.0342135,-0.8054131756201741,-3.951766469525218,8.876125759816002,0.515764470729971,0.1878443130168118,-0.6460525619261449,0.027283179621831126,0.0852774929681685,-1.0896903114762806
1590514592.0442135,-0.7801283075830225,-3.980320768957556,8.799166000710354,0.5133333333333333,0.2,-0.6488888888888888,0.018509132837142568,0.09386043394611127,-1.1566585264714526
1590514592.0542135,-0.7987497780145623,-4.026874445036406,8.678126442905345,0.5133333333333333,0.2,-0.6488888888888888,0.013430914546624805,0.10096993955283612,-1.2115032840090447
1590514592.0642135,-0.6428494287754374,-4.003808238129239,8.748575285612281,0.5133333333333333,0.2,-0.6488888888888888,0.02356592209198637,0.10525670011836273,-1.2723270518939367
1590514592.0742135,-0.5297158769328292,-3.9753770573453173,8.809245885309366,0.5133333333333333,0.2,-0.6488888888888888,0.03583289351876775,0.11297310958305573,-1.34330742085871
1590514592.0842135,-0.4981608076876292,-3.9606130641041237,8.799809025665976,0.4933333333333334,0.2255555555555556,-0.6344444444444445,0.04058219577951722,0.1139814007367687,-1.4344260256295942
1590514592.0942135,-0.4726511373312249,-3.9691162875562584,8.935860600900133,0.4933333333333334,0.2255555555555556,-0.6344444444444445,0.02852394451987251,0.12140186305039623,-1.4947172819278178
1590514592.1042135,-0.4204129614481357,-3.989834815420746,8.652477768688815,0.4933333333333334,0.2255555555555556,-0.6344444444444445,0.033761697730236837,0.12758215444612428,-1.571301545199899
1590514592.1142135,-0.3601929194458697,-4.01563160595177,8.72689481785531,0.4933333333333334,0.2255555555555556,-0.6344444444444445,0.027291813809421077,0.1332191505074874,-1.6352625790719493
1590514592.1242135,-0.30888808600374573,-4.009722021500936,8.745138989249531,0.4933333333333334,0.2255555555555556,-0.6344444444444445,0.032346283210653345,0.13753564684564867,-1.6875463315030284
1590514592.1342134,-0.24523246650906227,-3.9540031520882586,8.78538219070134,0.48861570790648806,0.2322388582435864,-0.6395552053235268,0.041652715836602267,0.1430329299081937,-1.757275955079543
1590514592.1442134,-0.17341394025604553,-3.958620199146515,8.832275960170698,0.48,0.24444444444444444,-0.6488888888888888,0.040262983135445296,0.15306233410782064,-1.8815962057468991
1590514592.1542134,-0.07220468917209846,-4.060272594610371,8.732204689172098,0.48,0.24444444444444444,-0.6488888888888888,0.04009050921167922,0.1595513476246479,-1.9453900158674138
1590514592.1642134,-0.015719213665267445,-4.035368230746852,8.657508623914218,0.48,0.24444444444444444,-0.6488888888888888,0.04102289468129751,0.16607804591197595,-2.0224272683682694
1590514592.1742134,0.10668890124143042,-4.021337780248286,8.758026681489717,0.48,0.24444444444444444,-0.6488888888888888,0.045330887655694554,0.17450981637611157,-2.132734661463229
1590514592.1842134,0.20622498658284136,-4.073730545119988,8.816247220731427,0.4550111170742927,0.2749864124647533,-0.6488888888888888,0.053720384326238005,0.18284778137542723,-2.2192697606106555
1590514592.1942134,-9.228262636112465,-16.566848691695107,7.157147732813262,0.44,0.2933333333333333,-0.6488888888888888,0.024113334776735815,0.23113592708045094,-2.269515548023831
1590514592.2042134,1.6345822379700543,-0.6607257972339688,12.534323922734025,0.44,0.2933333333333333,-0.6488888888888888,-0.17328275257900866,0.06536705901521453,-0.37952644905481847
1590514592.2142134,3.852230885856617,-2.639751642480687,6.461224460327774,0.44,0.2933333333333333,-0.6488888888888888,0.310266501316815,-0.24545472461464785,0.8977455435100418
1590514592.2242134,1.2090688284388205,-2.386477615667992,7.142658646741733,0.44,0.2933333333333333,-0.6488888888888888,0.2502389926069223,-0.05129492866573532,0.4409995666900034
1590514592.2342134,0.22,-3.07,9.28,0.4211111111111111,0.3377777777777778,-0.6488888888888888,-0.2367102798017309,-0.01308996938995747,-0.27270769562411395
1590514592.2442133,0.22,-3.07,9.28,0.4211111111111111,0.3377777777777778,-0.6488888888888888,-0.2367102798017309,-0.01308996938995747,-0.27270769562411395
1590514592.2542133,-1.6174509952702532,-7.3893160836684615,8.26983736752915,0.4211111111111111,0.3377777777777778,-0.6488888888888888,0.030219491789947456,0.029656791185222325,-0.512089554845121
1590514592.2642133,0.5781745383232557,-4.031041253239325,8.988591039618987,0.4211111111111111,0.3377777777777778,-0.6488888888888888,0.0032077296019453194,0.008792376753974481,-0.08886380783212472
1590514592.2742133,0.1939596392944165,-4.420567715600725,9.047652914592748,0.4211111111111111,0.3377777777777778,-0.6488888888888888,0.028294878766962708,-0.007069170493244416,0.07727914881338803
1590514592.2842133,-0.04546094921241246,-4.49393567863964,8.700992339761362,0.42520095290904236,0.34186761957570905,-0.6488888888888888,0.005562401388321168,-0.01090830782496456,0.023673198754264324
1590514592.2942133,-0.011763546020979575,-4.283527092041959,8.837374398611876,0.42777777777777776,0.34444444444444444,-0.6488888888888888,0.006514356431032944,0.0010274233933727159,-0.0035916801543402106
1590514592.3042133,0.0161449571186357,-4.34536239279659,8.726202735847504,0.42777777777777776,0.34444444444444444,-0.6488888888888888,0.003735694554361556,0.0007556753633900287,-0.00037783768169501436
1590514592.3142133,0.01920904538179565,-4.401581909236409,8.69855929578192,0.42777777777777776,0.34444444444444444,-0.6488888888888888,-0.0012633903115154626,-0.0017656658205089393,0.0005885552735029796
1590514592.3242133,0.01,-4.413403207268349,8.713612829073394,0.42777777777777776,0.34444444444444444,-0.6488888888888888,-0.0025528938897459615,-0.0025528938897459615,0.0003712323247530493
1590514592.3342133,0.004897101549529607,-4.358971015495296,8.771440578306585,0.42777777777777776,0.33423864754350363,-0.6341471822541966,0.000601537789870374,-0.002181661564992912,0.0005566398709726571
1590514592.3442132,0.010765584261673383,-4.31,8.82385162360749,0.42777777777777776,0.3244444444444444,-0.62,0.005034006953118274,-0.0004201469593640057,0.0005036592472868206
1590514592.3542132,0.009182086350227943,-4.342453740949316,8.723456690801823,0.42777777777777776,0.3244444444444444,-0.62,0.006544984694978735,-0.0006792461992375359,0.0005900256605779972
1590514592.3642132,0.019444820852098362,-4.357036786098601,8.6629632139014,0.42777777777777776,0.3244444444444444,-0.62,-0.0019394189632604081,-0.002181661564992912,0.003211931697056242
1590514592.3742132,0.024350422246865136,-4.35,8.726495777531348,0.42777777777777776,0.3244444444444444,-0.62,-0.00777753135922407,-0.0015653882328702448,0.0031307764657404896
1590514592.3842132,0.032352013221153844,-4.331471980168269,8.776176006610577,0.4161119875133547,0.3278755592280983,-0.637841796875,-0.005358157198112192,-0.00041713297012456495,0.0008342659402491299
1590514592.3942132,0.04,-4.372318806475904,8.78,0.4088888888888889,0.33,-0.6488888888888888,0.004880502596423575,0.0,0.0008152994943912941
1590514592.4042132,0.016747876620473848,-4.351246461034123,8.69474221427507,0.4088888888888889,0.33,-0.6488888888888888,0.005099402283395927,0.0,0.002781772911882633
1590514592.4142132,0.002901485063028838,-4.3329014850630285,8.698394059747885,0.4088888888888889,0.33,-0.6488888888888888,-0.00028264403196959654,0.0015486557206518068,0.003272492347489368
1590514592.4242132,0.004027612910519474,-4.346110451642078,8.72208283873156,0.4088888888888889,0.33,-0.6488888888888888,-0.003939039222102826,-1.5060506394481369e-05,0.0028331479332118895
1590514592.4342132,0.009954779266293597,-4.369819117065174,8.739864337798881,0.4088888888888889,0.33,-0.6488888888888888,-0.006525253427645126,-0.0032478282633223586,0.002186594381826314
1590514592.4442132,0.024388276879783108,-4.378776553759566,8.77683516936065,0.4355555555555555,0.3244444444444444,-0.6488888888888888,-0.003139035065509895,-0.0003452294682790183,0.001224288064475929
1590514592.4542131,0.02762108895104164,-4.331894555244792,8.74427346629375,0.4355555555555555,0.3244444444444444,-0.6488888888888888,0.00363766133176498,-0.0005718329022915134,-0.0003123339621890421
1590514592.4642131,0.03,-4.343393820674918,8.73584845516873,0.4355555555555555,0.3244444444444444,-0.6488888888888888,0.004178218926862171,0.001461039188743762,-0.001090830782496456
1590514592.4742131,0.01604842735896156,-4.3506989515726415,8.749301048427359,0.4355555555555555,0.3244444444444444,-0.6488888888888888,0.0007360248639760162,0.00022873136727334566,0.00043104970761155526
1590514592.484213,0.012088514349696504,-4.352088514349696,8.747911485650304,0.4324214962797083,0.3266830582129068,-0.6515752254110436,-0.0030607631361461835,-0.0010747384196061888,0.0008630092082630041
1590514592.494213,0.03470600220039933,-4.3558819933988016,8.744118006601198,0.42777777777777776,0.33,-0.6555555555555556,-0.0012832518923708357,0.0006416259461854178,-0.001090830782496456
1590514592.504213,0.03301897711653927,-4.34698102288346,8.704151816932313,0.42777777777777776,0.33,-0.6555555555555556,0.003704684495911139,-0.00032931931703734235,0.00043219214842177126
1590514592.514213,0.012051120419699864,-4.3559829598601,8.7099147993005,0.42777777777777776,0.33,-0.6555555555555556,0.0037106834514020423,0.0,0.001090830782496456
1590514592.524213,0.012430252100840335,-4.368286834733894,8.750717086834733,0.42777777777777776,0.33,-0.6555555555555556,0.0005606320223317919,0.000903953441719192,0.001090830782496456
1590514592.534213,0.03,-4.38,8.76855778242376,0.42777777777777776,0.3329665008530988,-0.6475036246685731,-0.004104593890968209,0.002181661564992912,0.00025872923901761524
1590514592.544213,0.025320707690564756,-4.38,8.745320707690565,0.42777777777777776,0.3377777777777778,-0.6344444444444445,-0.00494372230333919,0.00013993512842055316,-0.001090830782496456
1590514592.554213,0.014514804925676483,-4.369029609851353,8.701603634479735,0.42777777777777776,0.3377777777777778,-0.6344444444444445,0.0010217545415772012,-0.0009849776379789064,-0.0016891727460034587
1590514592.564213,0.01,-4.33459250406666,8.725896491053348,0.42777777777777776,0.3377777777777778,-0.6344444444444445,0.006562765059291911,-0.001662916720214446,3.556072862634938e-05
1590514592.574213,0.01347827315364186,-4.330869638921851,8.776521726846358,0.42777777777777776,0.3377777777777778,-0.6344444444444445,0.0061181325071057654,-0.0013753886345275852,0.0014228200798081987
1590514592.584213,0.02,-4.3660601629413,8.77,0.4172715456212427,0.3298981036603765,-0.6401353201959009,0.00026410546833369403,0.0013221224566627192,0.0008595391083301927
1590514592.594213,0.018132122069931686,-4.36,8.751321220699316,0.4011111111111111,0.31777777777777777,-0.6488888888888888,-0.003548307632360112,-0.0004075077488128559,0.001774153816180056
1590514592.604213,0.012074408931382603,-4.36,8.690744089313826,0.4011111111111111,0.31777777777777777,-0.6488888888888888,-0.0009051316471350886,-0.0017290957414253677,0.0004525658235675443
1590514592.614213,0.0028264884126199706,-4.36717351158738,8.73456160428642,0.4011111111111111,0.31777777777777777,-0.6488888888888888,0.003912543629054576,-0.002181661564992912,-0.0007825087258109152
1590514592.624213,0.005655528863652909,-4.353033413409041,8.765655528863652,0.4011111111111111,0.31777777777777777,-0.6488888888888888,0.0029864639221743616,-0.0015647390674159325,-0.00047390828491947646
1590514592.634213,0.01528592739930383,-4.355857782197911,8.780571854798607,0.41520691750925465,0.32130172937731366,-0.6447776120227636,-0.001215590145984365,-0.0016674360146166612,0.0005766052321202052
1590514592.644213,0.025380849202050085,-4.3807616984041005,8.763095753989749,0.42777777777777776,0.3244444444444444,-0.6411111111111111,-0.002098573158375823,-0.0015947019704361395,0.002264749971610001
1590514592.654213,0.02464173441734417,-4.39,8.702492140921409,0.42777777777777776,0.3244444444444444,-0.6411111111111111,7.816142517400081e-05,-0.0005063346786612276,0.002103500139818911
1590514592.664213,0.014140634223513023,-4.378281268447026,8.68757809732946,0.42777777777777776,0.3244444444444444,-0.6411111111111111,0.003647461404455754,-0.0006391576554898244,0.0017299884379862805
1590514592.674213,0.014992942331689954,-4.36500705766831,8.739943538653518,0.42777777777777776,0.3244444444444444,-0.6411111111111111,0.004364862874354874,-0.0021801218206238624,0.0016370160459292088
1590514592.684213,0.008937234783710179,-4.37106276521629,8.78,0.4388405429940676,0.3275174347823027,-0.6411111111111111,0.0014623516218703679,-0.002669112105616368,0.001090830782496456
1590514592.694213,0.009274550968042921,-4.370725449031958,8.789274550968043,0.4477777777777778,0.33,-0.6411111111111111,-0.002023393137954704,-0.002687509849481588,0.0005849824980077799
1590514592.704213,0.023571637748004977,-4.363571637748005,8.746425433779926,0.4477777777777778,0.33,-0.6411111111111111,-0.004752928369930839,-0.003272492347489368,-0.00038960523994501504
1590514592.714213,0.025690094039454145,-4.37,8.688789153644914,0.4477777777777778,0.33,-0.6411111111111111,-0.0035736026759109305,-0.002802354538346531,0.0007897204540748932
1590514592.724213,0.02,-4.367264005386148,8.748207983841558,0.4477777777777778,0.33,-0.6411111111111111,-0.000493929353389494,-0.0012863094213324692,0.0023771402038289253
1590514592.7342129,0.023348285070516565,-4.356651714929484,8.78004485521155,0.4347566691702134,0.3281398416274908,-0.6411111111111111,0.0014560720248457345,0.0003603482977978988,0.0
1590514592.7442129,0.02271885064958564,-4.357281149350414,8.77451597727355,0.4088888888888889,0.3244444444444444,-0.6411111111111111,0.00019603610414639736,-0.000693705690327153,0.0
1590514592.7542129,0.01,-4.37,8.68422399624325,0.4088888888888889,0.3244444444444444,-0.6411111111111111,-0.003272492347489368,0.0,0.0006241734249692095
1590514592.7642128,0.01,-4.37,8.678074556213017,0.4088888888888889,0.3244444444444444,-0.6411111111111111,-0.00021003333528067832,-0.0006124918024417379,-0.00013415282238701982
1590514592.7742128,0.019343228792594362,-4.365328385603703,8.728029686377782,0.4088888888888889,0.3244444444444444,-0.6411111111111111,0.0032008497224798246,-0.002110018939983369,-0.0005812367037529995
1590514592.7842128,0.019988171124400343,-4.3549940855622005,8.7800236577512,0.4088888888888889,0.3272255080209999,-0.6411111111111111,0.0038172625736562745,-0.0021803712348302693,0.0005460605563295494
1590514592.7942128,0.016202514031263045,-4.3562025140312635,8.787594971937473,0.4088888888888889,0.33,-0.6411111111111111,0.0025959030240725765,-0.001090830782496456,0.00041424145907966445
1590514592.8042128,0.02,-4.377760361194721,8.720798796017597,0.4088888888888889,0.33,-0.6411111111111111,-0.00040147826160138143,-0.001090830782496456,0.0006457849566485733
1590514592.8142128,0.014356975476207049,-4.373070926428621,8.713858147142759,0.4088888888888889,0.33,-0.6411111111111111,0.0008961308634749662,0.00014028618889069529,0.001090830782496456
1590514592.8242128,0.01,-4.352980074248049,8.7540398515039,0.4088888888888889,0.33,-0.6411111111111111,0.0028896147924359866,0.0014737083375498373,0.00032507567238969316
1590514592.8342128,0.01,-4.34026911129631,8.779461777407379,0.4088888888888889,0.33,-0.6411111111111111,0.0021963393092895534,0.0021669838206962704,-0.0010614752939031734
1590514592.8442128,0.016760848855828285,-4.363521697711657,8.806760848855829,0.44,0.3244444444444444,-0.6411111111111111,0.0007374942047743435,0.001090830782496456,0.000706673155444225
1590514592.8542128,0.01,-4.366963650730936,8.752501777953379,0.44,0.3244444444444444,-0.6411111111111111,-0.0007401788960329568,0.0003506518864634992,0.0018115721169764335
1590514592.8642128,0.017874359935056823,-4.388188460097415,8.675748719870114,0.44,0.3244444444444444,-0.6411111111111111,-0.001322702144031234,-0.001090830782496456,0.0015203104929772948
1590514592.8742127,0.02900115733299042,-4.367003471998971,8.703995370668038,0.44,0.3244444444444444,-0.6411111111111111,0.00010895683280449074,-0.0009818739496919651,0.0022906183977974026
1590514592.8842127,0.02,-4.348050575907162,8.764151727721487,0.4292658987904506,0.32981149504921914,-0.6411111111111111,0.0019690123841321237,-0.0008781816016356676,0.0023943107458537
1590514592.8942127,0.02,-4.349684655159857,8.774211637899644,0.4133333333333333,0.3377777777777778,-0.6411111111111111,0.003272492347489368,-0.0004938172124388585,0.0005282159983117715
1590514592.9042127,0.025100285204164442,-4.350200570408329,8.70409743316252,0.4133333333333333,0.3377777777777778,-0.6411111111111111,0.002716137537467988,0.0005344759724750762,0.0005563548100213797
1590514592.9142127,0.019046315789473682,-4.36,8.670953684210525,0.4133333333333333,0.3377777777777778,-0.6411111111111111,0.0009867999731341625,0.0,-0.00010403080936229351
1590514592.9242127,0.005775164692630645,-4.368449670614739,8.713798682458954,0.4133333333333333,0.3377777777777778,-0.6411111111111111,0.0004608580404256369,-0.0009217160808512738,-0.0006299727420708191
1590514592.9342127,0.0,-4.371132832445839,8.765911445036107,0.4133333333333333,0.3318663327416701,-0.6411111111111111,0.0014132500932175617,-0.002181661564992912,-0.0003224193107211058
1590514592.9442127,0.004688199221015994,-4.35,8.789376398442032,0.4133333333333333,0.31777777777777777,-0.6411111111111111,0.002181661564992912,-0.002181661564992912,-0.001090830782496456
1590514592.9542127,0.014538217446974335,-4.354538217446974,8.741003173189334,0.4133333333333333,0.31777777777777777,-0.6411111111111111,0.0011915761072284951,-0.002181661564992912,-0.001090830782496456
1590514592.9642127,0.008971837944664031,-4.365514081027668,8.69757040513834,0.4133333333333333,0.31777777777777777,-0.6411111111111111,-0.0006014929322159929,-0.0003771827683449328,-0.0004893378502804631
1590514592.9742126,0.008945388897246878,-4.37,8.733418083345871,0.4133333333333333,0.31777777777777777,-0.6411111111111111,-0.001090830782496456,0.001090830782496456,-0.0004878952785259461
1590514592.9842126,0.014461287261975684,-4.367230643630988,8.758308069107036,0.4173335147552397,0.32116254667323707,-0.6392648735317696,-0.00018456102999013307,-0.00011752888751197449,-0.00018456102999013307
1590514592.9942126,0.0021973889088513594,-4.355605222182297,8.773407833273446,0.42777777777777776,0.33,-0.6344444444444445,0.0017022656724146395,-0.002074002616043687,0.0019419636187037758
1590514593.0042126,0.006745615558256642,-4.346508768883487,8.73047369334954,0.42777777777777776,0.33,-0.6344444444444445,-0.00035499827271311997,0.0007616684741404321,0.001800827327922696
1590514593.0142126,0.006988811818195925,-4.3634944059090985,8.683011188181803,0.42777777777777776,0.33,-0.6344444444444445,-0.001090830782496456,-0.0010381199053384408,0.0017477701346167401
1590514593.0242126,0.02,-4.37001231407369,8.670055413331605,0.42777777777777776,0.33,-0.6344444444444445,-0.001088815896900607,0.001090830782496456,-0.0010915024110284056
1590514593.0342126,0.0234263230982873,-4.379721030705138,8.766852646196574,0.4213058341476795,0.32581227176876,-0.6416777932074954,0.0010603999530757863,0.00034332304121837223,-0.0010603999530757863
1590514593.0442126,0.02193600687594007,-4.35193600687594,8.78403199656203,0.4088888888888889,0.31777777777777777,-0.6555555555555556,0.00022863700693819423,-0.0006510081860182392,0.0015306533789746727
1590514593.0542126,0.013330604368293326,-4.34999181310488,8.760024560685359,0.4088888888888889,0.31777777777777777,-0.6555555555555556,0.0014550364111426076,0.0,0.0010917238342174553
1590514593.0642126,0.010902261001878225,-4.374548869499061,8.713646608497182,0.4088888888888889,0.31777777777777777,-0.6555555555555556,-0.0019848187500539397,-0.0004962046875134849,-0.001090830782496456
1590514593.0742126,0.009159735380070009,-4.37694675487331,8.73610649025338,0.4088888888888889,0.31777777777777777,-0.6555555555555556,-0.002698036244635451,-0.0007577734054263813,-0.0004247160283563067
1590514593.0842125,0.02936414143036064,-4.370211952856547,8.749576094286907,0.4088888888888889,0.31777777777777777,-0.6555555555555556,0.000975228432316992,-2.3120470035892758e-05,0.0010445898424246705
1590514593.0942125,0.0029447284815586274,-4.362944728481559,8.79,0.4355555555555555,0.3244444444444444,-0.6555555555555556,0.0012180014228594526,-0.0014120508298742758,0.0008967813754816327
