time,acc_x,acc_y,acc_z,mag_x,mag_y,mag_z,gyr_x,gyr_y,gyr_z
1590514650.0458837,0.0,-4.28,8.83,0.44222222222222224,0.2766666666666667,-0.5866666666666667,-0.001090830782496456,-0.025089107997418484,0.022907446432425576
1590514650.0558836,-0.13195894217122753,-4.27,8.815360705219181,0.44222222222222224,0.2766666666666667,-0.5866666666666667,-0.012505207163060196,-0.014979249841501743,0.05590235744902415
1590514650.0658836,-0.2104433747149734,-4.268508089326432,8.772983821347134,0.44222222222222224,0.2766666666666667,-0.5866666666666667,-0.017290550311197035,-0.018755230189913367,0.10079171409822014
1590514650.0758836,0.19536792312750562,-3.900219756909827,8.809553274080987,0.44222222222222224,0.2766666666666667,-0.5866666666666667,-0.012096599084220557,-0.03215214649443174,0.19509454053158334
1590514650.0858836,0.7417210028469098,-4.049064193222518,8.694135365965654,0.44222222222222224,0.28477025744635265,-0.5808140733257824,-0.001476313090426143,-0.04233553436198891,0.27696803647433066
1590514650.0958836,0.3928075526506899,-4.839321713870733,8.752476397966594,0.44222222222222224,0.2966666666666667,-0.5722222222222222,-0.010497958990299951,-0.011532861920040959,0.22846020855900684
1590514650.1058836,0.32,-4.63,8.98,0.44222222222222224,0.2966666666666667,-0.5722222222222222,-0.022907446432425576,0.015271630954950384,0.15598880189699318
1590514650.1158836,0.19277881582384024,-4.295079661663954,8.639522030016273,0.44222222222222224,0.2966666666666667,-0.5722222222222222,-0.0008398474356789158,-0.0032377333893988496,0.04268143634972386
1590514650.1258836,0.13758108700416394,-4.283628369493754,8.737256738987508,0.44222222222222224,0.2966666666666667,-0.5722222222222222,0.0028766986340835617,-0.008630095902250686,0.016230530499644902
1590514650.1358836,0.10997211650011193,-4.31,8.792005576699976,0.4397709618111385,0.29421540625558296,-0.5704394873777977,-0.0002187744800993238,0.0004375489601986476,0.015490405435049707
1590514650.1458836,0.0710893032384691,-4.311633954857704,8.798366045142297,0.43,0.28444444444444444,-0.5633333333333334,-0.0012690676080957296,0.002300486115392428,0.016184224911847563
1590514650.1558836,0.08823969578017664,-4.3373595436702646,8.772640456329734,0.43,0.28444444444444444,-0.5633333333333334,-0.0040752940255545655,0.004171303727031651,0.01337799849438873
1590514650.1658835,0.10205750194823499,-4.32200958365804,8.732057501948235,0.43,0.28444444444444444,-0.5633333333333334,-0.004577307626805899,0.0037109154903275585,0.01221312310428109
1590514650.1758835,0.14378421846760955,-4.328964036411269,8.77378421846761,0.43,0.28444444444444444,-0.5633333333333334,-0.0015428551713500887,0.0052281417180554636,0.00917867064882528
1590514650.1858835,0.14689525589533542,-4.30793017059689,8.786895255895335,0.43195483888071473,0.28444444444444444,-0.5642532575124932,0.0019558782022500777,0.0016552891893535416,0.007071357070618106
1590514650.1958835,0.12187656579313635,-4.291251043862091,8.761876565793136,0.4477073474635808,0.28444444444444444,-0.5716662027279595,0.00013646771550220082,0.006203815406223233,0.002522830853748414
1590514650.2058835,0.08250982822737737,-4.2950196564547545,8.717411545953604,0.4488888888888889,0.28444444444444444,-0.5722222222222222,0.0016383903603368055,0.007362035688555017,0.0016383903603368055
1590514650.2158835,0.08993731184699841,-4.309874623693997,8.650564193377015,0.4488888888888889,0.28444444444444444,-0.5722222222222222,0.0032588159140909713,0.006551822911677934,0.0032588159140909713
1590514650.2258835,0.061825254338719327,-4.29704368641532,8.708868940754039,0.4488888888888889,0.28444444444444444,-0.5722222222222222,0.004685806916073944,0.0019825572031368865,0.001536693992816671
1590514650.2358835,0.09131001395079791,-4.290655006975399,8.730655006975399,0.4498350100755763,0.2839349945746897,-0.5722222222222222,0.005668504443936804,-0.0014480816682539974,-0.00014290035430301664
1590514650.2458835,0.11616928353820917,-4.296915358230895,8.752338567076418,0.4633333333333333,0.2766666666666667,-0.5722222222222222,0.008726646259971648,-0.006544984694978735,-0.002181661564992912
1590514650.2558835,0.12745450153003704,-4.292545498469963,8.767272507650185,0.4633333333333333,0.2766666666666667,-0.5722222222222222,0.008448975451188325,-0.006544984694978735,-0.0007933075210762998
1590514650.2658834,0.11335786094251635,-4.293357860942517,8.759889625758676,0.4633333333333333,0.2766666666666667,-0.5722222222222222,0.006548998015646417,-0.006544984694978735,0.002185674885660593
1590514650.2758834,0.09500557330757227,-4.284994426692428,8.829988853384856,0.4633333333333333,0.2766666666666667,-0.5722222222222222,0.004363323129985824,-0.005182966100723203,0.0
1590514650.2858834,0.08,-4.299672044822647,8.858032268935883,0.46264098351447747,0.27644802988176487,-0.5715298724033664,0.004434871850532921,-0.001090830782496456,-3.577436027354836e-05
1590514650.2958834,0.08,-4.290837475777235,8.80502485466341,0.44399022664082904,0.2705583171848232,-0.5528791155297179,0.006362275823498159,-0.001090830782496456,-0.000999476346756168
1590514650.3058834,0.11739752969868618,-4.302602470301314,8.746577767288175,0.44222222222222224,0.27,-0.5511111111111111,0.002704721404448179,-0.0002838854715205945,0.0
1590514650.3158834,0.11123263888888889,-4.31,8.682465277777778,0.44222222222222224,0.27,-0.5511111111111111,0.0012252908268666788,-0.0005529906050155645,0.00013446004437022287
1590514650.3258834,0.11336747454296432,-4.312210841819011,8.715475892733082,0.44222222222222224,0.27,-0.5511111111111111,0.0024228269961337747,0.0027901614852076425,0.0013319962136373188
1590514650.3358834,0.08909831141960889,-4.318196622839218,8.77,0.44172128412200495,0.27,-0.5536158016121975,0.0034692102794325985,0.0009924718165248408,0.0016898667351348353
1590514650.3458834,0.07705086993209306,-4.297050869932093,8.77,0.43666666666666665,0.27,-0.5788888888888889,0.005132453726516405,-0.000965100557897626,-0.0029507921615234928
1590514650.3558834,0.07265128344109335,-4.29,8.760720507956172,0.43666666666666665,0.27,-0.5788888888888889,0.004218718050452436,-0.003272492347489368,-0.002181661564992912
1590514650.3658834,0.08889000735607264,-4.29,8.703884974253745,0.43666666666666665,0.27,-0.5788888888888889,0.0033330330547063983,-0.003272492347489368,-0.002181661564992912
1590514650.3758833,0.10216933204182893,-4.3,8.786507996125486,0.43666666666666665,0.27,-0.5788888888888889,0.0025625800968845027,-0.004980879078745703,-0.0036534108793809584
1590514650.3858833,0.11069271019146153,-4.298614579617077,8.81,0.4385138938438974,0.2696151610047436,-0.5784270820945812,-7.556296001952498e-05,-0.0037258701076065184,-0.001166393742515981
1590514650.3958833,0.11736570989870972,-4.287902870303871,8.794194259392258,0.4633333333333333,0.2644444444444444,-0.5722222222222222,-0.0005161178359938283,-0.009242764095965477,-0.0016069486184902841
1590514650.4058833,0.10716809024231734,-4.307168090242317,8.741504270726953,0.4633333333333333,0.2644444444444444,-0.5722222222222222,0.0007819173488032228,-0.006400161742702259,0.0
1590514650.4158833,0.10255032628496323,-4.3,8.730201305139854,0.4633333333333333,0.2644444444444444,-0.5722222222222222,0.000834592325114313,-0.004107084672603681,-0.000556394883409542
1590514650.4258833,0.11,-4.301899392888118,8.763798785776236,0.4633333333333333,0.2644444444444444,-0.5722222222222222,0.002650917478365195,-0.0063377930719373445,-0.0013528950728273477
1590514650.4358833,0.10981284663146033,-4.30981284663146,8.780374306737079,0.46306300068988715,0.2645484185380776,-0.571951889578776,4.083053109019592e-05,-0.005311247053666594,0.002161246299447814
1590514650.4458833,0.10054510904390482,-4.300545109043904,8.79890978191219,0.44967626861897364,0.26969716164227514,-0.5585651575078625,0.002062737220011196,0.0017654263575569065,0.0011502929549873139
1590514650.4558833,0.09,-4.301921299268199,8.748865708049813,0.4488888888888889,0.27,-0.5577777777777778,0.003272492347489368,-0.0006287437152417305,0.0008812495440825458
1590514650.4658833,0.08883653739304367,-4.307673074786087,8.670471163462608,0.4488888888888889,0.27,-0.5577777777777778,0.003145578264894214,-0.0030186641822990603,-0.00012691408259515383
1590514650.4758832,0.08,-4.287992115064585,8.75401576987083,0.4488888888888889,0.27,-0.5577777777777778,0.002181661564992912,-0.001747909591074884,-0.001090830782496456
1590514650.4858832,0.08044623955431755,-4.28178495821727,8.77178495821727,0.4485913958526772,0.27064456824512534,-0.5587198390591148,0.0022790159334363284,-0.00446067749842924,-0.0008961220456096233
1590514650.4958832,0.10229272606676984,-4.32,8.816146363033385,0.44222222222222224,0.28444444444444444,-0.5788888888888889,0.004363323129985824,-0.004868824195675094,0.0034401083974197324
1590514650.5058832,0.16973468936546543,-4.32,8.849867344682732,0.44222222222222224,0.28444444444444444,-0.5788888888888889,0.004363323129985824,0.004327147004101572,0.0043597055173973985
1590514650.5158832,0.09295613286922846,-4.291108549825961,8.667020815564417,0.44222222222222224,0.28444444444444444,-0.5788888888888889,0.0075148914500662925,0.0075148914500662925,0.0033128003566256677
1590514650.5258832,0.14865669655482175,-4.308925357243857,8.81,0.44222222222222224,0.28444444444444444,-0.5788888888888889,0.0010615244475317765,-0.003008735332807253,0.0020937425600988735
1590514650.5358832,0.11376990002162593,-4.281015920017301,8.81,0.44222222222222224,0.28444444444444444,-0.5788888888888889,0.00030041261630976376,0.0038412711481908626,-0.0001895929335671647
1590514650.5458832,0.11957810443583516,-4.309578104435835,8.838945261089588,0.44222222222222224,0.2766666666666667,-0.5722222222222222,0.006625522611946933,0.007704847977733647,2.3010833419485176e-05
1590514650.5558832,0.08847869204960424,-4.278478692049604,8.761196730124011,0.44222222222222224,0.2766666666666667,-0.5722222222222222,0.012562256972926077,0.012793477430001485,0.0017192206508420981
1590514650.5658832,0.09090593030690537,-4.281358895460358,8.651358895460358,0.44222222222222224,0.2766666666666667,-0.5722222222222222,0.006693217194814061,0.014131389339175482,0.002082839898436028
1590514650.5758832,0.10766703964194374,-4.306500559462915,8.676500559462916,0.44222222222222224,0.2766666666666667,-0.5722222222222222,0.009435747296531346,0.013217212638603057,0.00025448649729117303
1590514650.5858831,0.09062360801781737,-4.2712472160356345,8.738129175946549,0.44222222222222224,0.2766666666666667,-0.5722222222222222,0.01087429528386222,0.016260424114139818,0.00317045472418235
1590514650.5958831,0.0986716424257889,-4.27,8.774686569703155,0.43740464309678395,0.26606799259070246,-0.5654776114466086,0.007124590027823455,0.011632814491020459,0.0013806334489188151
1590514650.6058831,0.08818287494478413,-4.3,8.763645874503057,0.43666666666666665,0.2644444444444444,-0.5644444444444444,0.0015870087812304007,-0.0016854835662589674,0.0008926131879089522
1590514650.615883,0.08,-4.295312999374696,8.691562333541768,0.43666666666666665,0.2644444444444444,-0.5644444444444444,-0.000749982478519009,-0.0038520506740196536,-0.0005112724559661705
1590514650.625883,0.0767621248922667,-4.268920708297422,8.704317166810311,0.43666666666666665,0.2644444444444444,-0.5644444444444444,0.00026670355377107194,-0.0020326904724683238,-0.0033902248087358516
1590514650.635883,0.05211490245240148,-4.260704967484133,8.737180130063464,0.43666666666666665,0.2644444444444444,-0.5644444444444444,-0.006006684532332156,-0.009202276856586299,-0.004286423106750598
1590514650.645883,0.12866230406330847,-4.307324608126617,8.814649216253233,0.43666666666666665,0.27,-0.5511111111111111,-0.011922609465666636,-0.01083177868317018,-0.0023275815555292663
1590514650.655883,0.11705683470902668,-4.29,8.769698921481593,0.43666666666666665,0.27,-0.5511111111111111,-0.0037212240705120584,-0.003111967582620927,-0.0027909180528840442
1590514650.665883,0.10121224713370984,-4.29,8.714242864967986,0.43666666666666665,0.27,-0.5511111111111111,-0.00026447129788875843,-0.0022477793894651013,-0.0001983534734165686
1590514650.675883,0.10218475978757564,-4.286722860318637,8.77,0.43666666666666665,0.27,-0.5511111111111111,0.0020625014035605153,-0.008250005614242061,-0.001090830782496456
1590514650.685883,0.11945164875879954,-4.2608225268618005,8.77,0.43666666666666665,0.27,-0.5511111111111111,0.0011207387031725352,-0.004482954812690141,-0.001090830782496456
1590514650.695883,0.10109557369286053,-4.300365191230953,8.799634808769047,0.43666666666666665,0.2644444444444444,-0.5722222222222222,-0.00335216471473374,-0.005493990096104465,-0.0021418253813707258
1590514650.705883,0.13154601252785136,-4.306907974944297,8.771447849665783,0.43666666666666665,0.2644444444444444,-0.5722222222222222,-0.004442291079179034,-0.005870409472776571,-0.0007535431713953742
1590514650.715883,0.14,-4.290606508355321,8.672122779243624,0.43666666666666665,0.2644444444444444,-0.5722222222222222,0.0012231503792615494,-0.001983182169845272,0.0011239106816877294
1590514650.725883,0.14,-4.305362181178539,8.72376763412489,0.43666666666666665,0.2644444444444444,-0.5722222222222222,0.004442338805664283,0.0028456004697588297,0.0019287077882884128
1590514650.735883,0.11232308975428242,-4.291548726502855,8.767676910245717,0.43666666666666665,0.2644444444444444,-0.5722222222222222,0.0064605147678296225,0.005369683985333167,0.0011753007096455689
1590514650.745883,0.10196744630265592,-4.273934892605311,8.810162768486721,0.4411291964985245,0.2742620100745317,-0.5722222222222222,0.004792553327955005,0.002825506861946684,-0.002414031951551006
1590514650.755883,0.08209566368752069,-4.29104783184376,8.837426017874876,0.44222222222222224,0.2766666666666667,-0.5722222222222222,0.0005193271674695558,-0.0008622293364856958,-0.0002286014460107601
1590514650.765883,0.09597947699437273,-4.297989738497186,8.754123138033764,0.44222222222222224,0.2766666666666667,-0.5722222222222222,-0.003266895565917473,0.0006522597568691156,-0.0017430905393655716
1590514650.775883,0.08533205554309484,-4.282132822217238,8.771066411108619,0.44222222222222224,0.2766666666666667,-0.5722222222222222,-0.007635815477475192,0.004479650536393598,0.002297988971400686
1590514650.785883,0.12809350977713435,-4.299237403910854,8.779618701955426,0.44222222222222224,0.2766666666666667,-0.5722222222222222,-0.007635815477475192,0.005412560748049672,0.0032308991830567605
1590514650.795883,0.08779384008236102,-4.271281314344544,8.75384394303363,0.4488888888888889,0.2766666666666667,-0.5644444444444444,-0.00545415391248228,0.00545415391248228,0.000570636641752929
1590514650.805883,0.041711069320378207,-4.240810217834196,8.638107663375648,0.4488888888888889,0.2766666666666667,-0.5644444444444444,-0.006633365750385516,0.005552421565640882,0.0034690276538065744
1590514650.815883,0.14976983569976066,-4.34232737677482,8.71872122946247,0.4488888888888889,0.2766666666666667,-0.5644444444444444,-0.017288693262961292,0.008079399187674627,0.005314661685873562
1590514650.825883,0.08938652846011265,-4.297039896345084,8.711173316057515,0.4488888888888889,0.2766666666666667,-0.5644444444444444,-0.009878546605792016,0.017136245101992634,0.004491312057299198
1590514650.835883,0.09790426929945749,-4.307904269299458,8.769680897664859,0.4488888888888889,0.2766666666666667,-0.5644444444444444,-0.010028681465968614,0.00942987686046099,0.003712305526987341
1590514650.845883,0.09554820074617884,-4.305548200746179,8.80277410037309,0.45932629946109305,0.2766666666666667,-0.5491897674542999,-0.008543637701685446,-0.003821518022347976,0.003272492347489368
1590514650.855883,0.05,-4.28,8.78774608365633,0.4633333333333333,0.2766666666666667,-0.5433333333333333,-0.007537469824321341,-0.009915822695621957,-0.0009433123027656791
1590514650.8658829,0.05,-4.28,8.745410206718347,0.4633333333333333,0.2766666666666667,-0.5433333333333333,-0.005690218713603929,-0.011763073806339366,0.0018275643633104386
1590514650.8758829,-0.10902398486243221,-4.167747775391224,8.796126112304389,0.4633333333333333,0.2766666666666667,-0.5433333333333333,-0.003413350879032968,-0.01608074467435964,0.01238567673223947
1590514650.8858829,-0.16221065707187526,-4.109347211513749,8.825326394243126,0.4633333333333333,0.2766666666666667,-0.5433333333333333,-0.004193386029157433,-0.014520674374110707,0.035191417749991044
1590514650.8958828,-0.23301035965992853,-4.064994244633373,8.851003453219976,0.44466359713779896,0.2766666666666667,-0.5682263149273792,-0.00359961601961668,-0.008071143289500775,0.0721093139157456
1590514650.9058828,-0.2163053829392301,-3.957783229763538,8.76630538293923,0.43666666666666665,0.2766666666666667,-0.5788888888888889,-0.011150119946130023,-0.0020204534842159358,0.1525443965197194
1590514650.9158828,-0.18245581470422081,-3.9374734888225325,8.73245581470422,0.43666666666666665,0.2766666666666667,-0.5788888888888889,-0.013365569006427762,-0.0005434874440174418,0.19094551356488024
1590514650.9258828,-0.11010393522877049,-3.93,8.739965354923743,0.43666666666666665,0.2766666666666667,-0.5788888888888889,-0.01526974135916824,-0.0021778823734286234,0.24645595220447758
1590514650.9358828,-0.0401163421041658,-3.9387354572369793,8.731264542763022,0.43666666666666665,0.2766666666666667,-0.5788888888888889,-0.014318740389622537,-0.005993223826304284,0.2655855681507559
1590514650.9458828,-0.4100946856606671,-3.7284005800562996,8.756113622792801,0.4488888888888889,0.2577777777777778,-0.5633333333333334,-0.023023759533007383,-0.0035529464956122305,0.2869466523468588
1590514650.9558828,-0.5694572184231218,-3.507828873692487,8.933894064666779,0.4488888888888889,0.2577777777777778,-0.5633333333333334,-0.03550454193621753,-0.017781875110720304,0.2943644644987482
1590514650.9658828,-0.3673366852545937,-2.726360362007496,8.456740835542554,0.4488888888888889,0.2577777777777778,-0.5633333333333334,-0.027466538736211292,-0.02246265791224574,0.3108570167352767
1590514650.9758828,-0.31365700703903465,-3.0561069567602157,8.79415595575464,0.4488888888888889,0.2577777777777778,-0.5633333333333334,-0.0533982359812559,0.008488077509259104,0.2882713449412056
1590514650.9858828,-0.2912555226217773,-3.3236340249426766,8.993678205916895,0.4488888888888889,0.2577777777777778,-0.5633333333333334,-0.06381119107770876,0.031624453899061586,0.2691709295251692
1590514650.9958827,-0.16907520583012384,-3.324087544106455,8.923625147021518,0.4488888888888889,0.2740930277848246,-0.5642930539219831,-0.04268833602090788,0.007434056687880358,0.2795021870117612
1590514651.0058827,0.16912204938996267,-2.6110877950610036,8.60898935055134,0.4488888888888889,0.2766666666666667,-0.5644444444444444,-0.07722008077059814,0.03064323910542872,0.35749492043619224
1590514651.0158827,0.08119491845205652,-2.6198805081547945,9.409126242086286,0.4488888888888889,0.2766666666666667,-0.5644444444444444,-0.1635423397098962,0.08435486688988086,0.4697138570572798
1590514651.0258827,0.06325287768351456,-2.654939658262636,9.269877922491736,0.4488888888888889,0.2766666666666667,-0.5644444444444444,-0.085570823998375,-0.0018926502786916254,0.578955298744234
1590514651.0358827,-0.0035699207392360655,-2.604822559445573,8.476357191221572,0.4488888888888889,0.2766666666666667,-0.5644444444444444,0.03925735190683255,-0.06385116094696984,0.651847664236326
1590514651.0458827,-0.023866300868770004,-2.68319780521262,8.642660265203475,0.4589034395163339,0.2720445663770767,-0.5698368947822994,-0.013771840878816749,-0.05241851407870976,0.728440416632113
1590514651.0558827,-0.06997459410106785,-2.7999491882021355,8.809961891151602,0.4633333333333333,0.27,-0.5722222222222222,-0.029460745188387972,-0.0556254415231662,0.843158846311782
1590514651.0658827,-0.10116264377427207,-2.831162643774272,8.56848951074939,0.4633333333333333,0.27,-0.5722222222222222,-0.007356869916988428,-0.07602827256308776,0.8933521222318579
1590514651.0758827,-0.18100488351613161,-2.9516748058602196,8.894640621247298,0.4633333333333333,0.27,-0.5722222222222222,-0.041555858432364104,-0.07370681855485368,0.9693572952656485
1590514651.0858827,-0.20115202946121208,-2.9852533824353533,8.78718917620687,0.4633333333333333,0.27,-0.5722222222222222,-0.02177644415365593,-0.08616052384144772,1.0052532693270078
1590514651.0958827,-0.21919549665767563,-3.0183909933153514,8.942300926468864,0.4684419425875976,0.25978278149147155,-0.5640484474153995,-0.023120700204493312,-0.08962363956679513,1.064149754919187
1590514651.1058826,-0.26980146838477675,-3.0698014683847767,8.880317650584358,0.4688888888888889,0.2588888888888889,-0.5633333333333334,-0.025084776709474798,-0.09379412214292047,1.1048643188788247
1590514651.1158826,-0.2792393419423315,-3.1346753935963205,8.824563948346011,0.4688888888888889,0.2588888888888889,-0.5633333333333334,-0.02307339627727733,-0.09381144729469522,1.1423022494915214
1590514651.1258826,-0.32197045945896846,-3.2239409189179367,8.833990153152989,0.4688888888888889,0.2588888888888889,-0.5633333333333334,-0.026722668860205766,-0.09457449178025125,1.165211478245736
1590514651.1358826,-0.3611544760582929,-3.2741029840388616,8.861154476058292,0.4688888888888889,0.2588888888888889,-0.5633333333333334,-0.026823203433443178,-0.095671476532924,1.1975790740938894
1590514651.1458826,-0.4061486525477523,-3.289037163136938,8.888074326273877,0.4688888888888889,0.23478978719038737,-0.5773911426574593,-0.029137343500779234,-0.09599310885968812,1.2331805171377337
1590514651.1558826,-0.4473428771794066,-3.271328561410297,8.77797136846178,0.4688888888888889,0.23222222222222225,-0.5788888888888889,-0.026397324132333227,-0.10006658485311623,1.2562786565356254
1590514651.1658826,-0.43160071351452844,-3.2332014270290568,8.705602497300848,0.4688888888888889,0.23222222222222225,-0.5788888888888889,-0.030194040394779617,-0.09734585577852543,1.2798054511001693
1590514651.1758826,-0.4481088892544117,-3.175673332236765,8.76338111239044,0.4688888888888889,0.23222222222222225,-0.5788888888888889,-0.026592515142794444,-0.09807162633396116,1.2965414698099842
1590514651.1858826,-0.4426145725804881,-3.0961457258048806,8.77,0.4688888888888889,0.23222222222222225,-0.5788888888888889,-0.02215181299436646,-0.1038141465244489,1.3069505078989891
1590514651.1958826,-0.505087105363256,-3.156782807151008,8.842319005959173,0.49299522420861336,0.2081158869024978,-0.5845137004634913,-0.028614564653413756,-0.1034439519663619,1.3163987936070285
1590514651.2058825,-0.5379470826289637,-3.1820529173710366,8.822317504226218,0.5022222222222222,0.1988888888888889,-0.5866666666666667,-0.028166523747310646,-0.10947323144484,1.3153468470931287
1590514651.2158825,-0.5870381089371437,-3.215278581702858,8.804120236382857,0.5022222222222222,0.1988888888888889,-0.5866666666666667,-0.026629386847673173,-0.1138302706735914,1.3112441793345384
1590514651.2258825,-0.6263644643732922,-3.265457857493169,8.793635535626708,0.5022222222222222,0.1988888888888889,-0.5866666666666667,-0.02687419414516386,-0.11215678611837973,1.3083026836304983
1590514651.2358825,-0.6593246005202528,-3.28,8.855980351170569,0.5022222222222222,0.1988888888888889,-0.5866666666666667,-0.024871656292518658,-0.1077747957622493,1.3031078816734654
1590514651.2458825,-0.6628926854315456,-3.2515707417261823,8.94396583111609,0.49748401250991925,0.18467425975197996,-0.5914048763789697,-0.020897126210059774,-0.10535084118222154,1.2897318072500386
1590514651.2558825,-0.66,-3.1515617143541244,8.766591943014486,0.4955555555555556,0.17888888888888888,-0.5933333333333334,-0.016740817954924134,-0.09507263468628621,1.2705279811307646
1590514651.2658825,-0.7233445022694327,-3.212393716879352,8.857639789928946,0.4955555555555556,0.17888888888888888,-0.5933333333333334,-0.03215632070371287,-0.10368260914861148,1.2429711792231959
1590514651.2758825,-0.73,-3.1104025283333048,8.818424719215672,0.4955555555555556,0.17888888888888888,-0.5933333333333334,-0.019047529484836633,-0.09768726713272953,1.2248031261272239
1590514651.2858825,-0.7425781950840261,-3.0311327073739607,8.739687219663896,0.4955555555555556,0.17888888888888888,-0.5933333333333334,-0.0040479666320139395,-0.09998575436835078,1.1984394353818768
1590514651.2958825,-0.75,-2.969029404785019,8.81194119042996,0.5125457539605491,0.16331454035097812,-0.5975808829345818,-0.01668008827880025,-0.0779137882406796,1.1754046559295404
1590514651.3058825,-0.8555951243743074,-3.141590691987314,8.898798670283902,0.5222222222222223,0.15444444444444444,-0.6,-0.0366514307934637,-0.09363551222408585,1.1316295460062837
1590514651.3158824,-0.868016112592128,-3.125951662223616,8.843887211855105,0.5222222222222223,0.15444444444444444,-0.6,-0.03359055765629925,-0.09577670031433673,1.098621490129106
1590514651.3258824,-0.8442658435992129,-3.034219478664043,8.572658435992128,0.5222222222222223,0.15444444444444444,-0.6,-0.012139076168285357,-0.08850734620273965,1.071180655521966
1590514651.3358824,-0.9293451643688196,-3.2061357591017074,8.984171252208167,0.5222222222222223,0.15444444444444444,-0.6,-0.03715261246517991,-0.08645429213671053,1.042746051710846
1590514651.3458824,-0.8946577650611985,-3.0926425051661104,8.617262120489588,0.540891432204737,0.12229191614122467,-0.5937769300058284,-6.634109956814294e-05,-0.08108439458376573,1.0157791277662047
1590514651.3558824,-0.9480275420203028,-3.262372274920952,8.870137710101513,0.5422222222222223,0.12,-0.5933333333333334,-0.014812715957754338,-0.08162573831999993,0.9855362944333143
1590514651.3658824,-0.9977294886754152,-3.337729488675415,8.99467912344357,0.5422222222222223,0.12,-0.5933333333333334,-0.03147901942258082,-0.0841641079818053,0.9560480497361065
1590514651.3758824,-1.053672798236421,-3.3794691192945683,8.960043366701601,0.5422222222222223,0.12,-0.5933333333333334,-0.02446628860048084,-0.07636288534805609,0.9178566994650782
1590514651.3858824,-1.0493623383060713,-3.3418551030523975,8.908144896947602,0.5422222222222223,0.12,-0.5933333333333334,-0.016299217586932264,-0.06401753961495378,0.8691075872979117
1590514651.3958824,-1.0246486486486486,-3.28,8.861600000000001,0.539618018018018,0.11218738738738739,-0.6017969969969971,-0.022685742446361432,-0.0608990188528643,0.8112113471791401
1590514651.4058824,-1.1072856124792145,-3.354305962467337,8.998550162324808,0.5333333333333333,0.09333333333333334,-0.6222222222222222,-0.018775608495019566,-0.05265597130615959,0.7028335278343297
1590514651.4158823,-1.0553737729675308,-3.2258223005285678,8.592990183740246,0.5333333333333333,0.09333333333333334,-0.6222222222222222,0.010989385683024263,-0.0330832530128338,0.6255674571318685
1590514651.4258823,-1.0924099861106165,-3.2437572563125467,8.849564443178176,0.5333333333333333,0.09333333333333334,-0.6222222222222222,-0.007565499450682273,-0.042124311522695766,0.5573150773537056
1590514651.4358823,-1.1022812213740458,-3.2515044274809157,8.882084580152672,0.5333333333333333,0.09333333333333334,-0.6222222222222222,-0.01400060491952856,-0.03993170104979369,0.4805265144370301
1590514651.4458823,-1.0436492456720228,-3.0870298131361062,9.022828484471644,0.5391890565173283,0.10602073356532236,-0.6671160999661834,-0.015197557129847132,-0.04177556686095551,0.38605232135296497
1590514651.4558823,-1.0882428168777083,-3.118242816877708,8.822704976652224,0.54,0.10777777777777778,-0.6733333333333333,-0.012190817551488936,-0.038370756331403875,0.3239256218978211
1590514651.4658823,-1.1613765372586826,-3.268097208832036,8.829048604416018,0.54,0.10777777777777778,-0.6733333333333333,-0.012582093229084853,-0.024534856073977297,0.2623469962920014
1590514651.4758823,-1.210794291480467,-3.31,8.803808562779299,0.54,0.10777777777777778,-0.6733333333333333,-0.0021727770415373767,-0.01988600084063112,0.19555197796499965
1590514651.4858823,-1.2267189835575485,-3.3368759342301946,8.944536621823616,0.54,0.10777777777777778,-0.6733333333333333,-0.006238443309165084,-0.015237389629939285,0.1345455797436137
1590514651.4958823,-1.205023251369601,-3.333348834246401,8.836837176710409,0.5566511657535992,0.09575193584462281,-0.6779586571537776,-0.005276576000348907,-0.003099987097295238,0.0533238570495854
1590514651.5058823,-1.2077583217019836,-3.353274965105951,8.815516643403967,0.56,0.09333333333333334,-0.6788888888888889,0.002407089776441446,0.0022943756707171793,-0.015250638356463057
1590514651.5158823,-1.2020110621160758,-3.36,8.716143807508985,0.56,0.09333333333333334,-0.6788888888888889,-0.005222714169574511,0.006758324092784035,-0.08479302680814091
1590514651.5258822,-1.161021702303008,-3.297634723684813,8.666613021381805,0.56,0.09333333333333334,-0.6788888888888889,0.0034190535365940713,0.015289186333369297,-0.14919724279730842
1590514651.5358822,-1.1736303273174014,-3.3556170474156843,8.768699505660047,0.56,0.09333333333333334,-0.6788888888888889,0.0008741132385553111,0.0143600899073487,-0.20177411626313504
1590514651.5458822,-1.2023338755107709,-3.4306644979569167,8.887666124489229,0.56,0.09851972335726848,-0.6908175859439397,-0.004435808612616901,0.013199584749661661,-0.26267631067678293
1590514651.5558822,-1.1945642728782329,-3.3588380610086213,8.838838061008621,0.56,0.11555555555555555,-0.73,0.002837981352919284,0.02409333812636044,-0.36554158623203614
1590514651.5658822,-1.15310223266745,-3.31462044653349,8.859175088131611,0.56,0.11555555555555555,-0.73,-0.0016704708293177216,0.03255213382803055,-0.44627951045842845
1590514651.5758822,-1.1123119426664478,-3.33211007166694,8.772917555664971,0.56,0.11555555555555555,-0.73,-0.0010087752911712945,0.03950008128262961,-0.5133749597627886
1590514651.5858822,-1.1146007428040854,-3.3881151346332405,8.694888579387186,0.56,0.11555555555555555,-0.73,-0.0008573707125192655,0.044459203911859965,-0.5809772850311742
1590514651.5958822,-1.1678333893181054,-3.494833725226738,8.854333221363788,0.5182219236367709,0.11555555555555555,-0.7465371552271115,-0.005726770003237187,0.05312349574952509,-0.6817696054797618
1590514651.6058822,-1.1414216800774994,-3.4885662600581244,8.978602439651253,0.5066666666666667,0.11555555555555555,-0.7511111111111111,-0.001402308787905529,0.057658950233172336,-0.7318002669787586
1590514651.6158822,-1.1104474569844054,-3.4734824856614686,8.645466654026638,0.5066666666666667,0.11555555555555555,-0.7511111111111111,0.012417229222584796,0.07667862541938922,-0.7809648310301538
1590514651.6258821,-1.1214452110496078,-3.5200388257824184,8.740232954694509,0.5066666666666667,0.11555555555555555,-0.7511111111111111,-0.005317682021778809,0.0682409246155186,-0.8409067671216489
1590514651.6358821,-1.1151111643507428,-3.5052593834850665,8.721037533940265,0.5066666666666667,0.11555555555555555,-0.7511111111111111,-0.0006545507373839545,0.06433476386814964,-0.8709273285769981
1590514651.6458821,-1.1043508801271062,-3.5439649621608065,8.7192281640674,0.4747602124012209,0.09525144829572642,-0.7511111111111111,0.006587081814694595,0.07142836769365994,-0.8941559125518249
1590514651.6558821,-1.1204295513737574,-3.5826374674443344,8.9,0.43333333333333335,0.06888888888888889,-0.7511111111111111,-0.008392086406244607,0.08090890504920102,-0.919563787293596
1590514651.665882,-1.069570786002897,-3.5420858427994206,8.791227414805215,0.43333333333333335,0.06888888888888889,-0.7511111111111111,-0.001883901435639511,0.07849299635571301,-0.9454122780778954
1590514651.675882,-1.0755933550018058,-3.6183900325027087,8.697203322499098,0.43333333333333335,0.06888888888888889,-0.7511111111111111,-0.010295147206716222,0.0774921355506429,-0.9602793087809459
1590514651.685882,-1.0962769967800206,-3.671384983900102,8.790431948480327,0.43333333333333335,0.06888888888888889,-0.7511111111111111,-0.022803486395155535,0.08333281525623902,-0.962797464292802
1590514651.695882,-1.0371919017785813,-3.5788779800697976,8.81618025480385,0.4472906884936486,0.05922610454713217,-0.730711899722958,-0.02094649199964361,0.08512158555675872,-0.9574063265118334
1590514651.705882,-0.97,-3.4920613224972294,8.65709826376062,0.4622222222222222,0.048888888888888885,-0.7088888888888889,-0.00893477854632533,0.09623468737986049,-0.9366321600421079
1590514651.715882,-1.0099521133954794,-3.582781892478611,8.789712680372878,0.4622222222222222,0.048888888888888885,-0.7088888888888889,-0.023663478110627533,0.07639472010234805,-0.9189529876182035
1590514651.725882,-1.04,-3.6675997237092037,8.894800552581593,0.4622222222222222,0.048888888888888885,-0.7088888888888889,-0.03202683698207173,0.08489549263610348,-0.8940159762295898
1590514651.735882,-1.0458847067904369,-3.7253082407426215,8.908847067904368,0.4622222222222222,0.048888888888888885,-0.7088888888888889,-0.010387786268579217,0.08565511026083468,-0.8679109116998899
1590514651.745882,-1.0709781346749228,-3.7989489809081527,8.86608746130031,0.4808694530443756,0.06675915176011925,-0.7088888888888889,-0.01841357399149276,0.08300188695445936,-0.8371258037661331
1590514651.755882,-1.0614237712853807,-3.8323841524764126,8.730926780188698,0.4888888888888889,0.07444444444444444,-0.7088888888888889,-0.009033599668270241,0.08996826554699665,-0.8042997881261086
1590514651.765882,-1.0624461127225162,-3.869040929685871,8.649256478795806,0.4888888888888889,0.07444444444444444,-0.7088888888888889,-0.0037015330164016495,0.08936701858301209,-0.7725644562125885
1590514651.775882,-1.0838897471910114,-3.925558988764045,8.658897471910112,0.4888888888888889,0.07444444444444444,-0.7088888888888889,-0.006907471440960001,0.08193257584513586,-0.7309133873070236
1590514651.785882,-1.044904446894524,-3.904904446894524,8.805180489199232,0.4888888888888889,0.07444444444444444,-0.7088888888888889,-0.002188610382913996,0.07472075046468706,-0.6735243106939516
1590514651.795882,-0.9395009676527509,-3.87209980646945,8.750852225601328,0.4915777347709889,0.034783967683470036,-0.6873781218320892,0.005764861242774502,0.0669171304622399,-0.6092731741391824
1590514651.805882,-0.8901005742465042,-3.924547415890731,8.66,0.4933333333333334,0.008888888888888889,-0.6733333333333333,0.007690670219481793,0.05731798534886988,-0.5625701147159528
1590514651.815882,-0.8721921271217046,-3.9543842542434096,8.702943300830624,0.4933333333333334,0.008888888888888889,-0.6733333333333333,0.006866049009798024,0.057044265004635,-0.5203195862037518
1590514651.825882,-0.8400207262146757,-3.850082904858703,8.695077723305033,0.4933333333333334,0.008888888888888889,-0.6733333333333333,0.01363595000103002,0.05836566428162795,-0.4837930607741917
1590514651.835882,-0.7857654358661377,-3.77,8.72698301291832,0.4933333333333334,0.008888888888888889,-0.6733333333333333,0.009822359206482938,0.053293480469394035,-0.4740445889311762
1590514651.845882,-0.7922004831638283,-3.822200483163828,8.724998657878254,0.4965555853804833,0.03660025649437799,-0.6436886144995543,0.008617592462276277,0.06023572851445198,-0.46076680540428583
1590514651.855882,-0.8431951976130148,-3.8665975988065076,8.804732766582207,0.4988888888888889,0.05666666666666665,-0.6222222222222222,0.009468935051224535,0.04780622926928062,-0.4213771157049922
1590514651.865882,-0.8763635929059707,-3.850227305320522,8.787954730149625,0.4988888888888889,0.05666666666666665,-0.6222222222222222,-0.002057685744667595,0.039988863636848365,-0.3727170996077879
1590514651.875882,-0.8250359512684291,-3.798659241716273,8.765434935671765,0.4988888888888889,0.05666666666666665,-0.6222222222222222,0.0013833388640517568,0.03907228833215074,-0.320822668347955
1590514651.885882,-0.7657665922975876,-3.75102212306345,8.742555307658625,0.4988888888888889,0.05666666666666665,-0.6222222222222222,0.009705980712357017,0.036108912152494135,-0.2697938247855723
1590514651.895882,-0.7674572382144347,-3.7474572382144347,8.8412960645251,0.5034148395370757,0.0877017568256617,-0.6015321621162255,0.01009484932529313,0.03254622806927821,-0.21141843291670204
1590514651.905882,-0.7727663329948257,-3.7455326659896513,8.696821654818898,0.5066666666666667,0.11,-0.5866666666666667,0.015039211571630136,0.019008962069080246,-0.15380906573088618
1590514651.9158819,-0.7287736529104343,-3.5476103802486936,8.620613173544783,0.5066666666666667,0.11,-0.5866666666666667,0.018952324801782678,0.029171122990847728,-0.10814666224091937
1590514651.9258819,-0.7029807836661162,-3.6986533553520493,8.377308211980184,0.5066666666666667,0.11,-0.5866666666666667,0.05791884031494807,0.06739020253099277,-0.009586897588669124
1590514651.9358819,-0.6697589172423516,-3.878626815169886,8.511928662061187,0.5066666666666667,0.11,-0.5866666666666667,0.03657028268616414,0.01606518612732903,0.10073260174774336
1590514651.9458818,-0.8064832820262733,-3.9844289676613123,8.751643451491969,0.49683921417226307,0.13192277864136195,-0.5715475089829688,-0.03475693618280418,-0.03879665737411349,0.2192068494287594
1590514651.9558818,-0.8772472387425658,-4.0223874256584535,8.776236193712828,0.4922222222222222,0.14222222222222222,-0.5644444444444444,-0.050717607256870044,-0.043222663724118274,0.2662451951599273
1590514651.9658818,-0.86,-4.08291811571293,8.687864764464116,0.4922222222222222,0.14222222222222222,-0.5644444444444444,-0.013555805520041913,-0.03311700006226347,0.3730796899720112
1590514651.9758818,-0.8362170910660337,-3.953407854984894,8.703782908933967,0.4922222222222222,0.14222222222222222,-0.5644444444444444,-0.005932104456457421,-0.03002439932665116,0.47063034910905377
1590514651.9858818,-0.81,-3.9424101016293713,8.680071918696504,0.4922222222222222,0.14222222222222222,-0.5644444444444444,0.01207892726287152,-0.024913840461000963,0.5399141666589561
1590514651.9958818,-0.7845194304360724,-4.004519430436073,8.754389894195588,0.4870317358295703,0.15637809420218202,-0.5677474812397684,0.011326200750811182,-0.026419370365937535,0.6056958727729737
1590514652.0058818,-0.75,-3.959672244502835,8.80541142303969,0.48,0.17555555555555555,-0.5722222222222222,-0.002110156407904913,-0.03483507988279859,0.6501438959440715
1590514652.0158818,-0.7026684244901908,-3.985498681632357,8.717331575509808,0.48,0.17555555555555555,-0.5722222222222222,0.01161691639878492,-0.030788770741762863,0.6768237560153656
1590514652.0258818,-0.7102297743533297,-4.044482663731426,8.543104017611448,0.48,0.17555555555555555,-0.5722222222222222,0.015246566461186363,-0.033840818751154154,0.6820701630722422
1590514652.0358818,-0.7657723517532586,-4.121544703506518,8.677791261244723,0.48,0.17555555555555555,-0.5722222222222222,0.00871925656731989,-0.041773792376509675,0.6675588801172241
1590514652.0458817,-0.7915028336916162,-4.177254250537424,8.958034004299394,0.48,0.17791587953010662,-0.5722222222222222,-0.002124956271237966,-0.051240694130455955,0.6362316905081224
1590514652.0558817,-0.8029380173121881,-4.108389461047577,8.791327478359765,0.48,0.1811111111111111,-0.5722222222222222,0.004730126783517518,-0.046874846526569286,0.5911376527507441
1590514652.0658817,-0.8045233564836838,-4.018411188278946,8.666822376557892,0.48,0.1811111111111111,-0.5722222222222222,0.01523696846029204,-0.03754700575948188,0.5417697581835408
1590514652.0758817,-0.7941265745360018,-3.9865062981440067,8.706176959688056,0.48,0.1811111111111111,-0.5722222222222222,0.014630939625467593,-0.03265588777481826,0.4822715368448741
1590514652.0858817,-0.794228790009949,-3.984991423376445,8.842287900099489,0.48,0.1811111111111111,-0.5722222222222222,0.01401254825307062,-0.026514571489684863,0.41979598595476214
1590514652.0958817,-0.7726450307043123,-3.8914617997186864,8.626450307043124,0.48,0.1811111111111111,-0.5722222222222222,0.00930370244255408,-0.015527264598479603,0.3538721446075306
1590514652.1058817,-0.6364376756521395,-3.8805240866088746,8.733888097217273,0.4866666666666667,0.17555555555555555,-0.5722222222222222,0.005621796334722017,-0.017709775710697713,0.19227437269807984
1590514652.1158817,-0.6056180761215312,-4.0980903806076565,8.645581148769697,0.4866666666666667,0.17555555555555555,-0.5722222222222222,0.01847871573111533,0.008661238688647228,0.07087081848462212
1590514652.1258817,-0.5949845796127949,-4.248648980316804,8.771351019683197,0.4866666666666667,0.17555555555555555,-0.5722222222222222,0.00386535009737308,0.008631761542700681,-0.09506983670266017
1590514652.1358817,-0.5204866706495939,-4.3096018149230595,8.710398185076942,0.4866666666666667,0.17555555555555555,-0.5722222222222222,-0.0064774187444587,0.029317299226364245,-0.18593844867018225
1590514652.1458817,-0.8083903802432054,-4.076096197567946,8.576729866716727,0.4902140504812428,0.17136319286560198,-0.5741571588483546,0.043388526440634796,0.05355716803886808,-0.28642531989520004
1590514652.1558816,-0.7596275187527578,-4.3891035446389175,8.933806809824974,0.4988888888888889,0.16111111111111112,-0.5788888888888889,0.016118673331210136,0.03629078015328388,-0.36232592617757786
1590514652.1658816,-0.6711092996516277,-4.444443719860651,8.862221859930324,0.4988888888888889,0.16111111111111112,-0.5788888888888889,-0.0019385828858778029,0.024119994394098503,-0.45705952058296634
1590514652.1758816,-0.6427869418179308,-4.387213058182069,8.780054524121747,0.4988888888888889,0.16111111111111112,-0.5788888888888889,0.018818317912823634,0.043597470058800485,-0.5257983554272323
1590514652.1858816,-0.821587542940812,-4.27,8.598833136227967,0.4988888888888889,0.16111111111111112,-0.5788888888888889,0.024645084519585275,0.06233424945044216,-0.6264343796265609
1590514652.1958816,-0.8584861132782026,-4.310420892494929,8.738655796536122,0.501307232884312,0.1566199008338968,-0.5854529654478945,0.033678017510513046,0.07367218183379755,-0.6961062855517172
1590514652.2058816,-0.7347197025414726,-4.335520552422979,8.755200212470376,0.5066666666666667,0.14666666666666667,-0.6,0.016807414082860836,0.06104284423465621,-0.7796819319740941
1590514652.2158816,-0.760857702384418,-4.297426892846746,8.748284595231164,0.5066666666666667,0.14666666666666667,-0.6,0.023468811330311784,0.06654067773228381,-0.8465761118100508
1590514652.2258816,-0.7960838709677419,-4.343825161290323,8.705482580645162,0.5066666666666667,0.14666666666666667,-0.6,0.02490831159224214,0.07760001283848948,-0.914996460985415
1590514652.2358816,-0.7883626201000986,-4.316853834070069,8.673146165929932,0.5066666666666667,0.14666666666666667,-0.6,0.03188096722926076,0.08684097762310759,-0.9627238592858132
1590514652.2458816,-0.6488294352866719,-4.234046776559937,8.74424757630678,0.5103084235525766,0.1421144705592794,-0.5975288078274184,0.02598292961296023,0.07739061711976258,-1.001546811716955
1590514652.2558815,-0.635954842073094,-4.38045157926906,8.61674510579395,0.5377777777777778,0.10777777777777778,-0.5788888888888889,0.03272492347489368,0.06872233929727672,-1.0439250588491082
1590514652.2658815,-0.6208747550649865,-4.531252449350136,8.865566541427725,0.5377777777777778,0.10777777777777778,-0.5788888888888889,0.03272492347489368,0.06872233929727672,-1.0439250588491082
1590514652.2758815,-0.5509835579426011,-4.250409568684306,8.519180862631387,0.5377777777777778,0.10777777777777778,-0.5788888888888889,0.00041578735681304085,0.08832598712462439,-1.0985024689786078
1590514652.2858815,-0.5233431085043988,-4.098387096774194,8.823225806451612,0.5377777777777778,0.10777777777777778,-0.5788888888888889,0.011722432265273496,0.08154200017954813,-1.158804575157064
1590514652.2958815,-0.485729538656757,-4.27,8.729513640895496,0.5441202050414413,0.08364131846883592,-0.5651469631509511,0.026126885231660832,0.1077662310465213,-1.1974138778915837
1590514652.3058815,-0.41730082479833225,-4.27,8.775132783467779,0.5745329667562967,-0.03209613583491949,-0.49925264610209774,0.031103161730554937,0.11191312812893306,-1.2272715368849485
1590514652.3158815,-0.37967110901611245,-4.198084933150497,8.699013327048338,0.5777777777777777,-0.04444444444444445,-0.4922222222222222,0.0325941322283465,0.10461848305545517,-1.2964428491091553
1590514652.3258815,-0.42567098925527974,-4.2219985179696184,8.863369396072619,0.5777777777777777,-0.04444444444444445,-0.4922222222222222,0.0200056506368835,0.09792370555543804,-1.343550933900528
1590514652.3358815,-0.3259113201881694,-3.8812321088980086,8.716798118306475,0.5777777777777777,-0.04444444444444445,-0.4922222222222222,0.04651878497322415,0.1186856864121264,-1.3710238417095173
1590514652.3458815,-0.2946016914472787,-4.077610148683672,8.545648274450961,0.6807820291304809,-0.2090631109898604,-0.23447642431682808,0.05443384729849189,0.1542222095541765,-1.3843109480457039
1590514652.3558815,-0.26,-3.87,8.24,0.8211111111111111,-0.43333333333333335,0.11666666666666667,0.10035643198967394,0.14289883250703572,-1.3962634015954636
1590514652.3658814,-0.28460602295994664,-4.027478546943659,8.658302390319093,0.8211111111111111,-0.43333333333333335,0.11666666666666667,0.021443870587872393,0.1155210050819209,-1.4177362074190831
1590514652.3758814,-0.2580935345780493,-4.174028779870169,8.84244608798762,0.8211111111111111,-0.43333333333333335,0.11666666666666667,-0.01644094665818839,0.10381726622378082,-1.4372833481125749
1590514652.3858814,-0.1715049923646188,-4.124514977093857,8.498316692117937,0.8211111111111111,-0.43333333333333335,0.11666666666666667,0.04877849801813331,0.12995358111141062,-1.4345871969771717
1590514652.3958814,-0.15,-4.077286396336063,8.653962496489447,0.8666593935204189,-0.13233052729110106,0.0916974275145763,0.03695201353106905,0.1274243954920243,-1.438253729422952
1590514652.4058814,-0.12608842389470132,-4.103697266284171,8.917173472831589,1.0055555555555555,0.7855555555555556,0.015555555555555557,0.011619206995062657,0.11512977085413868,-1.4346799362405884
1590514652.4158814,-0.023352303948504592,-4.0047727451134305,8.757272941361174,1.0055555555555555,0.7855555555555556,0.015555555555555557,0.054374176791485075,0.1387896141220894,-1.4110206149410376
1590514652.4258814,0.05293375194240954,-3.9536529984460724,8.581854882186915,1.0055555555555555,0.7855555555555556,0.015555555555555557,0.06922542977613526,0.14767371222280026,-1.399176642438934
1590514652.4358814,0.15341635866945202,-3.812282058492688,8.704688654989555,1.0055555555555555,0.7855555555555556,0.015555555555555557,0.036701994695956,0.12276747854709033,-1.3998119978857908
1590514652.4458814,0.17495480690221857,-3.787050123253903,8.724100246507806,0.8994613347941203,0.7163334246325208,-0.15558659727928423,0.013070250181070928,0.09892410036236964,-1.3959120411462125
1590514652.4558814,0.1231816898093669,-4.0636337961873386,8.911373264297483,0.6666666666666666,0.5644444444444444,-0.5311111111111111,0.009915803281511678,0.10581027783038899,-1.3731084451707092
1590514652.4658813,0.13688876301069178,-4.154074913262055,8.549256531898322,0.6666666666666666,0.5644444444444444,-0.5311111111111111,0.043019344515231615,0.11541002036875607,-1.3477821021404162
1590514652.4758813,0.15916253628832402,-4.005583091411173,9.031854952913688,0.6666666666666666,0.5644444444444444,-0.5311111111111111,0.0057640709637296825,0.09354279458852668,-1.335633643373622
1590514652.4858813,0.22674051650742597,-3.884836628511967,8.80580172169142,0.6666666666666666,0.5644444444444444,-0.5311111111111111,0.043102768266985156,0.11496815727306392,-1.2793183960141563
1590514652.4958813,0.27624186197916667,-4.397555338541667,8.948751627604166,0.6466927083333333,0.5496026837384259,-0.5408206741898148,0.01745187216736192,0.11753879225471983,-1.2496878088874646
1590514652.5058813,0.36137226496153463,-4.069911080027975,8.842211010090917,0.5066666666666667,0.4455555555555555,-0.6088888888888889,0.03534595803415519,0.10758197346567969,-1.212014191918409
1590514652.5158813,0.43441038839494617,-4.0376415535797845,8.671179223210107,0.5066666666666667,0.4455555555555555,-0.6088888888888889,0.04562449516626847,0.10978800913903614,-1.179769477966298
1590514652.5258813,0.4854074946133855,-3.969185010773229,8.44204402585575,0.5066666666666667,0.4455555555555555,-0.6088888888888889,0.05442440911299251,0.12038086638287661,-1.150047514917228
1590514652.5358813,0.5600280634310428,-3.8633380105718405,8.32353445458914,0.5066666666666667,0.4455555555555555,-0.6088888888888889,0.05269185495107,0.11342497266152067,-1.128639616924537
1590514652.5458813,0.590078096621867,-3.889843806756266,8.699297130403195,0.49692850223998064,0.4435344270896395,-0.6136661016265085,0.0060123478336017435,0.08055813065080235,-1.1143219799097435
1590514652.5558813,0.5450849288168876,-3.9933899525445917,9.082200949108167,0.4477777777777778,0.43333333333333335,-0.6377777777777778,0.0035500285446134878,0.071680630966751,-1.0816046496229053
1590514652.5658813,0.5798423668732796,-3.8787684416896053,8.812334990197437,0.4477777777777778,0.43333333333333335,-0.6377777777777778,0.03664439251279573,0.09333320298921789,-1.0227758336783213
1590514652.5758812,0.609331819372871,-3.5890034064110403,8.807021573936588,0.4477777777777778,0.43333333333333335,-0.6377777777777778,0.04843263902164127,0.11028262052858967,-0.9691691838602978
1590514652.5858812,0.6198861732743439,-3.53676152227138,8.500739873716764,0.4477777777777778,0.43333333333333335,-0.6377777777777778,0.04028623953463898,0.10647365414744203,-0.9063996725520141
1590514652.5958812,0.5835217586361596,-3.5488694481830416,8.805782862270076,0.43721250186929866,0.43215941378794676,-0.6428647624744529,0.011491650262261899,0.05863912824184515,-0.8646730303586868
1590514652.6058812,0.59,-3.51,8.89,0.4177777777777778,0.43,-0.6522222222222223,0.006544984694978735,0.011999138607461015,-0.839939702522271
1590514652.6158812,0.5817994632407937,-3.7724171762946015,8.717788728056668,0.4177777777777778,0.43,-0.6522222222222223,0.007439524487972332,0.06567152618707676,-0.7683765190827834
1590514652.6258812,0.5412153937580688,-3.8144861575032274,8.827381503719337,0.4177777777777778,0.43,-0.6522222222222223,0.0025589223923908645,0.04867992474177052,-0.7035966067667394
1590514652.6358812,0.54,-3.9234634527510237,8.823921928349387,0.4177777777777778,0.43,-0.6522222222222223,0.01389558949443688,0.05724361011627807,-0.6094104636182909
1590514652.6458812,0.54,-3.852215427474562,8.866670743515263,0.4177777777777778,0.43,-0.6522222222222223,0.0107868079278909,0.05102604698318611,-0.5697734986448297
1590514652.6558812,0.4359907995789638,-3.5139401972632647,8.855967798526372,0.38333333333333336,0.44,-0.6355555555555555,0.029994082980223203,0.04330272033180387,-0.49293363457948863
1590514652.6658812,0.4032879809754006,-3.3013718763401037,8.741507933413903,0.38333333333333336,0.44,-0.6355555555555555,0.016616617527536508,0.031708916939475404,-0.44745025204035394
1590514652.6758811,0.7745966800828789,-3.825403319917121,8.890563480911666,0.38333333333333336,0.44,-0.6355555555555555,-0.013714321867885912,0.04348798290373217,-0.34904774305991043
1590514652.6858811,0.7270028163137582,-3.795218107854386,8.699359758005633,0.38333333333333336,0.44,-0.6355555555555555,0.01982221697237051,0.025533473339857376,-0.2488670068762575
1590514652.6958811,0.6331644713099964,-3.660770931071815,8.614361241429087,0.3818706142988893,0.4378724086771723,-0.6330290408596977,0.007989813882801768,0.01662355647454203,-0.17263878277293365
1590514652.705881,0.7391425522566066,-3.742742765676982,8.725485531353964,0.3711111111111111,0.4222222222222222,-0.6144444444444445,-0.003459558426064493,0.01844439352811886,-0.09316349476850326
1590514652.715881,0.8537874010943188,-3.8043595793584606,8.75092650977361,0.3711111111111111,0.4222222222222222,-0.6144444444444445,0.012902724490877114,0.01255199808730285,0.029984389470270944
1590514652.725881,0.957819781042388,-3.9396207229967874,8.697014129315992,0.3711111111111111,0.4222222222222222,-0.6144444444444445,0.0052370152688375905,-0.0020730922431705674,0.13662777185154043
1590514652.735881,-2.8394899699982354,-5.4093934937349255,4.20274329862541,0.3711111111111111,0.4222222222222222,-0.6144444444444445,-0.587269715121643,-0.2540237880370376,2.166404222622833
1590514652.745881,-8.70285069796332,-7.594813821962143,-3.9386851482559084,0.36103908086058534,0.4258193758831243,-0.6175619776172263,-1.9922733496599232,-1.1017808492166543,8.067468440589252
1590514652.755881,2.1933962600972907,-5.216434150042398,3.7890502967822552,0.3244444444444444,0.4388888888888889,-0.6288888888888889,-1.8919122368255044,-1.9293022668025757,13.629767832713993
1590514652.765881,2.5960551253066524,-8.767349319351581,0.05838784934340291,0.3244444444444444,0.4388888888888889,-0.6288888888888889,-1.3868663527431324,-1.2951028433014096,11.394314653438638
1590514652.775881,2.13738350046347,-9.95226131288447,-1.130484958287688,0.3244444444444444,0.4388888888888889,-0.6288888888888889,-1.028786208299089,-0.44979773518462196,5.738321995621227
1590514652.785881,-1.8469290066808606,-0.8683415314587769,7.4604603186256515,0.3244444444444444,0.4388888888888889,-0.6288888888888889,-0.5183455536609494,0.11378483841706112,1.6451210563880636
1590514652.795881,-0.27033286836502457,-0.819072902136407,9.70218295279348,0.3244444444444444,0.4388888888888889,-0.6288888888888889,0.006327683450927268,-0.2812316320333659,1.710285338078015
1590514652.805881,-1.2839614243323443,-0.24041543026706227,7.01573846776369,0.4811111111111111,0.36777777777777776,-0.6,1.814922681613669,-0.20574887099624684,1.8994114541212956
1590514652.815881,-4.482756989928172,1.7698145912895502,15.957548924550329,0.4811111111111111,0.36777777777777776,-0.6,2.889572429822072,-0.24903301765511446,2.008458716443225
1590514652.825881,0.09899141183384838,1.5590395662312548,0.17924128386448518,0.4811111111111111,0.36777777777777776,-0.6,2.4704438300511544,-0.3179232281890748,1.9079364334418774
1590514652.835881,-0.25883652150833214,0.42989364324037393,-0.8783390524579597,0.4811111111111111,0.36777777777777776,-0.6,0.7772802249929378,-0.19128291756484347,1.6329708274974848
1590514652.845881,0.26693652388728384,0.5793413725243897,2.3485318008625384,0.4824988252918161,0.3600919761615654,-0.6022416921380619,-0.6917554584854492,-0.11758430076356308,1.4925181764750373
1590514652.855881,-1.954639283172131,-0.6148653854205921,7.8190524640958,0.49518239379940177,0.2898445198118606,-0.6227305335733925,-1.3612933754486436,0.3929503340595881,1.3852388535853692
1590514652.865881,-1.733475011275531,-1.753700736668027,14.256429844719829,0.4955555555555556,0.2877777777777778,-0.6233333333333333,-0.007434381593582978,-0.21086320594648922,1.473106937529378
1590514652.875881,-1.7713167121153097,-0.434608492403584,5.157199065056486,0.4955555555555556,0.2877777777777778,-0.6233333333333333,0.6349053723790752,0.04468050534094224,1.5180605864274632
1590514652.885881,-2.120656374944469,-1.6967258996001777,10.55458685028876,0.4955555555555556,0.2877777777777778,-0.6233333333333333,-0.1358392044131182,-0.29634203951266774,1.3087636049123301
1590514652.895881,-2.159475233229676,-1.976221679253665,10.352728787205686,0.4955555555555556,0.2877777777777778,-0.6233333333333333,-0.376357699987505,0.08645500273952528,1.2562560460193302
1590514652.905881,-2.05,-2.01,10.3,0.5222222222222223,0.2466666666666667,-0.6433333333333333,0.11235557059713497,-0.20180369476184434,1.263182046130896
1590514652.915881,-2.7497076676011867,-3.2874479436021664,9.797686926699148,0.5222222222222223,0.2466666666666667,-0.6433333333333333,0.05476075041710543,-0.15541273017914578,1.1926327679164526
1590514652.925881,-4.498327122570249,-6.5742652835129425,8.567421694027596,0.5222222222222223,0.2466666666666667,-0.6433333333333333,-0.19805340776503713,-0.04565690971798543,0.4635256290710492
1590514652.935881,0.43,2.18,12.17,0.5222222222222223,0.2466666666666667,-0.6433333333333333,-0.07308566242726255,-0.3883357585687383,-0.4646939133434903
1590514652.945881,-0.7408792256807761,1.4727176250963843,8.817838155918997,0.5222222222222223,0.2466666666666667,-0.6433333333333333,0.28090833842003693,-0.014891537894664075,-0.47052897929152265
1590514652.9558809,-1.6348921287381617,-1.9775356623570561,10.998556607851613,0.5222222222222223,0.21024342533282686,-0.6126611301048366,-0.044921935108330424,-0.004680194318896658,-0.43028385413979875
1590514652.9658809,-1.2206264048855204,-3.3712370949453963,9.795184102166258,0.5222222222222223,0.20444444444444448,-0.6077777777777778,-0.21009599199806012,0.023232258868684838,-0.3452137775735567
1590514652.9758809,-2.454638438466586,-6.865375386634174,8.295534961102259,0.5222222222222223,0.20444444444444448,-0.6077777777777778,0.14992936930493656,0.06749437506393921,-0.27943860925132347
1590514652.9858809,-3.5062601930827633,-8.084077233105258,7.283226169275471,0.5222222222222223,0.20444444444444448,-0.6077777777777778,0.012701241427163223,0.036403627341631176,-0.5689041914935016
1590514652.9958808,-0.7574576667686383,-2.680321210703424,9.058055280631985,0.5221201306036922,0.20444444444444448,-0.6090539230094033,0.018883242494075837,0.0001970605212337712,-0.7967341390753981
1590514653.0058808,-1.0442680534811324,-3.178465566572493,8.861816594986594,0.5204428768802273,0.20444444444444448,-0.6300195945527143,0.006533442550692905,0.07511918017775687,-0.7679179392075047
1590514653.0158808,-1.6381408666472133,-4.568666289757806,8.857650094835133,0.52,0.20444444444444448,-0.6355555555555555,0.006893269902688931,0.05479031427318722,-0.7445512137592716
1590514653.0258808,-1.4392573679603151,-4.714004231105924,8.48283119346367,0.52,0.20444444444444448,-0.6355555555555555,0.012734184123795983,0.05896239585969226,-0.791278527528128
1590514653.0358808,-1.032026675192984,-3.5851290366783903,8.412968985520486,0.52,0.20444444444444448,-0.6355555555555555,0.014107108182899626,0.07700683361992258,-0.8722370231206571
1590514653.0458808,-1.0640800372575763,-4.082240111772729,8.736676424603306,0.5187636250734617,0.20535111939057255,-0.6364210180041323,0.013858714612245067,0.07094446113712688,-0.8825241599531392
1590514653.0558808,-1.1097020860603448,-4.303092638311269,8.95522343545474,0.4866666666666667,0.2288888888888889,-0.6588888888888889,0.03193647366751305,0.07246465179223535,-0.9229753076325651
1590514653.0658808,-0.9151129189932563,-3.990360048382019,9.101165310755057,0.4866666666666667,0.2288888888888889,-0.6588888888888889,0.02587179214245231,0.07398082217350055,-0.9586053115922969
1590514653.0758808,-0.8695466301536589,-3.8961420457426845,8.420692986459759,0.4866666666666667,0.2288888888888889,-0.6588888888888889,0.015271630954950384,0.08049846029230129,-1.0034906076386292
1590514653.0858808,-0.9211609763837834,-4.141160976383783,8.887229259778383,0.4866666666666667,0.2288888888888889,-0.6588888888888889,0.015018345199513923,0.08508480103472357,-1.0376248497389677
1590514653.0958807,-0.9267070848649935,-4.146707084864993,8.826222066485071,0.4866666666666667,0.2288888888888889,-0.6588888888888889,0.01380837202864018,0.08508480103472357,-1.064849246083627
1590514653.1058807,-0.8081018996900088,-4.0687345997933395,8.87126540020666,0.5002109000344435,0.238670835210061,-0.6445921981117911,0.024170819402122408,0.09025586437373387,-1.1179494721612044
1590514653.1158807,-0.7479883399327457,-3.9980466402690173,8.780058300336272,0.5066666666666667,0.2433333333333333,-0.6377777777777778,0.03417512479812663,0.09534115422224763,-1.1909868551540324
1590514653.1258807,-0.7229512306743339,-4.098195077302664,8.90524384662833,0.5066666666666667,0.2433333333333333,-0.6377777777777778,0.025071374970192434,0.10080340411900815,-1.229222604431356
1590514653.1358807,-0.610585531091217,-4.030425840793613,8.810585531091217,0.5066666666666667,0.2433333333333333,-0.6377777777777778,0.020743204376661977,0.10470233561043045,-1.2825557075773921
1590514653.1458807,-0.5729419205930002,-4.03,8.735883841186,0.5066666666666667,0.2433333333333333,-0.6377777777777778,0.02476819424316799,0.10977276683932892,-1.3272835033489208
1590514653.1558807,-0.522252107488072,-4.049099157004771,8.73,0.5066666666666667,0.2741041973965758,-0.6292892635534351,0.02821420025449907,0.1112156064511689,-1.3818567281779925
1590514653.1658807,-0.4358411507191995,-4.106435272045029,8.935841150719199,0.5066666666666667,0.27555555555555555,-0.6288888888888889,0.03484177645681144,0.11409448721038289,-1.4457723836955982
1590514653.1758807,-0.38876028286910086,-4.066080242459229,8.8887602828691,0.5066666666666667,0.27555555555555555,-0.6288888888888889,0.034108101315132366,0.12143123862717364,-1.4875918667713057
1590514653.1858807,-0.3589351569580621,-4.0402366317870975,8.71,0.5066666666666667,0.27555555555555555,-0.6288888888888889,0.026167032518040798,0.12227629773459622,-1.5594425012811428
1590514653.1958807,-0.29673082310290844,-4.054059817088242,8.71,0.5066666666666667,0.27555555555555555,-0.6288888888888889,0.025413094716108708,0.12830780015005294,-1.5971393913777472
1590514653.2058806,-0.19236611489776045,-4.042748025532836,8.692748025532836,0.4664120595766166,0.3023919602822556,-0.6413486482262853,0.0316757526800875,0.13560444010148115,-1.6735594786966608
1590514653.2158806,-0.14753394917202334,-4.096815588948959,8.836097228725894,0.46,0.30666666666666664,-0.6433333333333333,0.038037168619281414,0.13900997038425086,-1.743357342361759
1590514653.2258806,-0.03703072645612034,-4.01925768161403,8.73,0.46,0.30666666666666664,-0.6433333333333333,0.04625792865068436,0.1490817557907642,-1.8367682181594382
1590514653.2358806,-0.007129108148570609,-4.011782277037143,8.73,0.46,0.30666666666666664,-0.6433333333333333,0.039734407511417394,0.1564207170724395,-1.8897718274159823
1590514653.2458806,0.11028137407215605,-4.074330801542091,8.73,0.46,0.30666666666666664,-0.6433333333333333,0.02915670356933238,0.16017543542155133,-1.9625580434607763
1590514653.2558806,0.1218690900724721,-4.224589899919476,8.706317036696193,0.4533333333333333,0.33555555555555555,-0.6377777777777778,0.03681941008487254,0.17028702982123137,-2.0497174944182466
1590514653.2658806,-1.1919549098196391,-6.3163567134268535,8.457805110220441,0.4533333333333333,0.33555555555555555,-0.6377777777777778,0.030434479411275556,0.17557375046259152,-2.0690265099958927
1590514653.2758806,-9.241118409528815,-21.872229812576634,8.101786652653704,0.4533333333333333,0.33555555555555555,-0.6377777777777778,-0.11188171171806838,0.17915983233089955,-1.0976238743504945
1590514653.2858806,3.502950270993932,-1.8119060266459373,9.935900541987865,0.4533333333333333,0.33555555555555555,-0.6377777777777778,-0.008587062506283022,-0.18253614320644496,0.8019770671046295
1590514653.2958806,1.5647925978709165,-2.1560648657986223,6.059585195741832,0.4533333333333333,0.33555555555555555,-0.6377777777777778,0.40536184377503826,-0.09856082808970916,0.5559787910567797
1590514653.3058805,-0.06540022050716648,-3.0458787210584344,8.438912899669239,0.44,0.3744444444444445,-0.6433333333333333,-0.0975727088042646,0.0737372744647009,-0.16162937121331997
1590514653.3158805,-0.00654465270121278,-4.912441014332966,8.808862183020947,0.44,0.3744444444444445,-0.6433333333333333,-0.24340175092373068,0.012287300741403842,-0.3175472149888498
1590514653.3258805,-1.5953895963738398,-7.016853011007987,8.387586876753724,0.44,0.3744444444444445,-0.6433333333333333,0.060957027396237304,0.03976081733920224,-0.40111375930192744
1590514653.3358805,0.5362033239801425,-3.9552600906540043,9.021303690913015,0.44,0.3744444444444445,-0.6433333333333333,0.020557674964842017,0.0038502818446286557,-0.11472723873270302
1590514653.3458805,0.20027963002796295,-3.8796328959632898,8.716031404603141,0.44,0.3744444444444445,-0.6433333333333333,0.018967487970515562,-0.003451755569220341,0.03598599678644382
1590514653.3558805,0.039774119908686775,-4.23890824622532,8.729360006407946,0.4211822215102282,0.3744444444444445,-0.6289432674293902,-0.009706598411927198,-0.00545415391248228,-0.008344730976997394
1590514653.3658805,0.04,-4.401903612682154,8.81480665426208,0.4211111111111111,0.3744444444444445,-0.6288888888888889,0.0002744912153077334,0.0012738249260349456,-0.0036806621310837284
1590514653.3758805,0.03,-4.35,8.650774207011686,0.4211111111111111,0.3744444444444445,-0.6288888888888889,0.005468229393155144,0.00213943512297432,0.001118981743842184
1590514653.3858805,0.03,-4.35,8.694537771285477,0.4211111111111111,0.3744444444444445,-0.6288888888888889,0.0062638734441820085,-0.0002474970301062753,0.0027102698458959145
1590514653.3958805,0.05187125386372799,-4.328128746136272,8.739161671818303,0.4211111111111111,0.3744444444444445,-0.6288888888888889,0.0009781560694972925,0.0004996916819268134,0.0024772311152777334
1590514653.4058805,0.05175392737907296,-4.40246072620927,8.725261782137219,0.4146974990726123,0.3744444444444445,-0.6407998826746724,-0.001990337767457301,0.0001913237975356112,0.0012821545800320673
1590514653.4158804,0.020089167767503302,-4.36026750330251,8.749286657859974,0.4133333333333333,0.3744444444444445,-0.6433333333333333,1.9453389119817905e-05,0.003233585569249732,0.001100557477056365
1590514653.4258804,0.029983251556897527,-4.389949754670693,8.67013398754482,0.4133333333333333,0.3744444444444445,-0.6433333333333333,0.0021780076215338986,-0.001083522895578429,0.0021798345932634053
1590514653.4358804,0.020299548245105988,-4.312396385960848,8.776704969303834,0.4133333333333333,0.3744444444444445,-0.6433333333333333,0.0032398167028289274,-0.0032071410581684875,-0.0009928038485151345
1590514653.4458804,0.027729312442957104,-4.348646562214785,8.764541375114085,0.4133333333333333,0.3744444444444445,-0.6433333333333333,0.003272492347489368,0.0017863308166969271,0.0005954436055656423
1590514653.4558804,0.03879975361511161,-4.36,8.76,0.42017758614508677,0.3793331964528398,-0.6433333333333333,0.0013526839231397256,0.0013526839231397256,0.001090830782496456
1590514653.4658804,0.030881254667662436,-4.350881254667662,8.72352501867065,0.4211111111111111,0.38,-0.6433333333333333,-0.0018932716493814518,-0.0008985708387554824,0.001090830782496456
1590514653.4758804,0.03,-4.358937993182986,8.675310034085072,0.4211111111111111,0.38,-0.6433333333333333,0.0017182736741047037,-0.001090830782496456,0.00206581459227086
1590514653.4858804,0.03,-4.344608038856531,8.708479902858672,0.4211111111111111,0.38,-0.6433333333333333,0.0030211628159071617,-0.0019303320334107055,0.002181661564992912
1590514653.4958804,0.03708707878117365,-4.354174157562348,8.74126123634352,0.4211111111111111,0.38,-0.6433333333333333,0.0017263316089930314,-0.0006355008264965754,0.0014085811957447437
1590514653.5058804,0.033375904159132004,-4.346751808318264,8.78312047920434,0.41595903656821376,0.384416063893912,-0.6300851416515973,0.00036825401755390076,0.0007225767649425552,0.00036825401755390076
1590514653.5158803,0.04181995229654916,-4.351819952296549,8.752720190813804,0.4133333333333333,0.38666666666666666,-0.6233333333333333,-0.000644678390635775,0.001090830782496456,0.0
1590514653.5258803,0.03172730844793713,-4.350863654223969,8.656045579567781,0.4133333333333333,0.38666666666666666,-0.6233333333333333,-0.001090830782496456,0.001090830782496456,0.0
1590514653.5358803,0.023594888158318828,-4.362810223683362,8.70764600657513,0.4133333333333333,0.38666666666666666,-0.6233333333333333,0.0010052371661750604,-0.0003065478499512215,0.0006986893162238387
1590514653.5458803,0.026306526207605343,-4.332160842754368,8.75261305241521,0.4133333333333333,0.38666666666666666,-0.6233333333333333,0.0014937262732052574,0.00028503980107885294,0.001090830782496456
1590514653.5558803,0.03,-4.372195662960044,8.777770189417154,0.420243962551116,0.3807432701942815,-0.6361673590235012,-0.0008475961802061451,-0.0018168096615574457,0.00012161730114515544
1590514653.5658803,0.04901870790720879,-4.3609812920927915,8.71343452232477,0.4211111111111111,0.38,-0.6377777777777778,-0.0021281403839210605,-0.002181661564992912,0.0
1590514653.5758803,0.031690940734634056,-4.3691545296326835,8.627609233305852,0.4211111111111111,0.38,-0.6377777777777778,-0.0001844530204715999,-0.002181661564992912,-0.000998604272260656
1590514653.5858803,0.03,-4.360469415721939,8.686714089946431,0.4211111111111111,0.38,-0.6377777777777778,0.0,0.0009372148467129762,0.0009884201586408024
1590514653.5958803,0.02250645366455909,-4.330025814658237,8.727467731677205,0.4211111111111111,0.38,-0.6377777777777778,0.0024522573038287367,-0.0005440074200560351,0.001090830782496456
1590514653.6058803,0.038147371097971894,-4.338147371097972,8.776294742195944,0.4140538001285664,0.38,-0.642818714193881,0.005252063448994793,0.0038580969712671076,-0.002868311420514395
1590514653.6158803,0.03244531764159343,-4.347554682358406,8.787554682358406,0.4133333333333333,0.38,-0.6433333333333333,0.0005096258713625972,0.0010669711025727015,0.0008479476867770354
1590514653.6258802,0.03867724554443721,-4.376031736633312,8.685873053466754,0.4133333333333333,0.38,-0.6433333333333333,-0.001090830782496456,0.0,0.0002885802555624467
1590514653.6358802,0.04718159518607949,-4.372818404813921,8.705907975930398,0.4133333333333333,0.38,-0.6433333333333333,0.00047595023678431844,-0.0007833905096403872,0.0007833905096403872
1590514653.6458802,0.04133990461049285,-4.361339904610492,8.732990143084262,0.4133333333333333,0.38,-0.6433333333333333,0.002507835577030962,-0.0006184958509849539,0.001090830782496456
1590514653.6558802,0.03499324055666004,-4.34750337972167,8.75499324055666,0.4116689198144466,0.37861298873426114,-0.6433333333333333,0.003818645079624373,-0.00027233902518072553,0.001090830782496456
1590514653.6658802,0.03736196319018405,-4.358957055214724,8.782638036809816,0.4066666666666667,0.3744444444444445,-0.6433333333333333,0.0008030656067458573,-0.001090830782496456,0.0017801287616199834
1590514653.6758802,0.03,-4.357497587507676,8.689980700061408,0.4066666666666667,0.3744444444444445,-0.6433333333333333,-0.0013638016402095134,-0.001090830782496456,0.0014997607448881552
1590514653.6858802,0.03,-4.36448416553332,8.678280551777735,0.4066666666666667,0.3744444444444445,-0.6433333333333333,-0.0006016842027409049,-3.751254099511802e-05,0.0016174899032471248
1590514653.6958802,0.03,-4.365921105019754,8.725307035006585,0.4066666666666667,0.3744444444444445,-0.6433333333333333,0.0016027538500960148,0.001090830782496456,0.0006458923621942354
1590514653.7058802,0.03,-4.35,8.757948630981746,0.3973903346489064,0.3693846269802116,-0.6500797566189772,0.002181661564992912,-0.0005649906106430522,-0.001090830782496456
1590514653.7158802,0.037182153004314426,-4.35,8.762817846995686,0.3944444444444444,0.36777777777777776,-0.6522222222222223,-0.00016869250951876162,-0.0026577334988375717,0.0004760719338446596
1590514653.7258801,0.04,-4.361511156799903,8.690933059200582,0.3944444444444444,0.36777777777777776,-0.6522222222222223,-0.001090830782496456,-0.003272492347489368,0.001090830782496456
1590514653.7358801,0.031433493293958406,-4.37,8.682832533530208,0.3944444444444444,0.36777777777777776,-0.6522222222222223,-0.001090830782496456,-0.0004691095834656223,-0.0026470129028685384
1590514653.7458801,0.03,-4.37,8.713637034304684,0.3944444444444444,0.36777777777777776,-0.6522222222222223,-0.001090830782496456,0.0,-0.001338692000503766
1590514653.75588,0.03,-4.351516661976927,8.779288901394864,0.4060821017182314,0.3753080266019929,-0.6344234522740774,0.0015974617613509821,0.0020162194078855787,0.0
1590514653.76588,0.03,-4.34,8.78641486766901,0.4133333333333333,0.38,-0.6233333333333333,0.0026293076385919254,0.0006997535118995982,0.0006431847088974425
1590514653.77588,0.03,-4.355845450089855,8.698695474595654,0.4133333333333333,0.38,-0.6233333333333333,0.0013174263289666803,0.0006376396895560071,0.001090830782496456
1590514653.78588,0.04756098723079855,-4.368780493615399,8.723902468076997,0.4133333333333333,0.38,-0.6233333333333333,-0.0008247757617417695,0.00013302751037734322,0.00013302751037734322
1590514653.79588,0.03648982811439473,-4.37,8.73,0.4133333333333333,0.38,-0.6233333333333333,-0.00035396521401463525,-0.002947462273927283,0.0007368655684818207
1590514653.80588,0.03,-4.35983423098686,8.73508288450657,0.4172866879495544,0.38338858967104666,-0.6380172219078688,0.001663370065092255,-0.001591039688165399,0.001090830782496456
1590514653.81588,0.04048718894532247,-4.3604871889453225,8.734756405527339,0.4211111111111111,0.38666666666666666,-0.6522222222222223,0.002128517495147938,-5.3144069844973966e-05,0.001662818208667171
1590514653.82588,0.05,-4.3368570826861825,8.683599915760656,0.4211111111111111,0.38666666666666666,-0.6522222222222223,-0.0003553017946094361,0.0010783680831623823,0.002181661564992912
1590514653.83588,0.03294893928310168,-4.354102121433797,8.694102121433795,0.4211111111111111,0.38666666666666666,-0.6522222222222223,-0.001090830782496456,0.0003216793745720347,0.0003216793745720347
1590514653.84588,0.043375618419383484,-4.346624381580616,8.720063427629075,0.4211111111111111,0.38666666666666666,-0.6522222222222223,0.0010977496635220586,-0.0007295268153395047,0.0
1590514653.85588,0.03642420765810985,-4.3467878961709445,8.77072737702567,0.4158316363114871,0.38666666666666666,-0.6567474863361856,0.002181661564992912,-0.0018312753916621273,0.0007404446091656713
1590514653.86588,0.022976010966415352,-4.35,8.77595202193283,0.4133333333333333,0.38666666666666666,-0.6588888888888889,0.002947859910368079,-0.0006492648742425788,0.001090830782496456
1590514653.87588,0.026818117513911156,-4.343181882486089,8.722273177402622,0.4133333333333333,0.38666666666666666,-0.6588888888888889,0.00029752736234836845,-0.0022312237388557496,0.00034708953621120605
1590514653.88588,0.03652611777660526,-4.359578353329816,8.693473882223394,0.4133333333333333,0.38666666666666666,-0.6588888888888889,-0.000378941766404621,0.00028695273296980685,0.0
1590514653.89588,0.04,-4.357911319605765,8.732310381379824,0.4133333333333333,0.38666666666666666,-0.6588888888888889,-0.0006593352346896641,0.001522326330303248,0.0
1590514653.90588,0.032260315245314135,-4.365479369509372,8.775479369509371,0.4038737186331617,0.3772070519664951,-0.6356698346248313,0.0014419751306725059,0.0002465621447734688,-0.0008442686377229872
1590514653.91588,0.03,-4.3584608246055945,8.791539175394405,0.4011111111111111,0.3744444444444445,-0.6288888888888889,0.0015522971787507566,0.0,0.00016789798998785447
1590514653.92588,0.03686217131390828,-4.356862171313908,8.710791772919192,0.4011111111111111,0.3744444444444445,-0.6288888888888889,0.002587924323291517,0.0014970935407950608,0.0003422840120989256
1590514653.93588,0.0244134154068978,-4.3522067077034485,8.701173169186205,0.4011111111111111,0.3744444444444445,-0.6288888888888889,0.002422376034082324,0.001331545251585868,0.0008501163134070439
1590514653.94588,0.03830963485382778,-4.362206423235885,8.73441284647177,0.4011111111111111,0.3744444444444445,-0.6288888888888889,0.0008501473440045558,0.0017565878929906341,0.001090830782496456
1590514653.95588,0.05,-4.364560413010859,8.74456041301086,0.4041331038828559,0.3774664372161893,-0.6415812585302172,0.0,0.001588294671810727,0.001090830782496456
1590514653.96588,0.035384989956783734,-4.345384989956783,8.754615010043215,0.4066666666666667,0.38,-0.6522222222222223,0.0015942502841635158,0.001090830782496456,0.001090830782496456
1590514653.97588,0.03,-4.34,8.693915204224258,0.4066666666666667,0.38,-0.6522222222222223,0.002982631892628142,0.00028986045486122634,0.001090830782496456
1590514653.98588,0.022627746205131992,-4.347372253794868,8.692116761384604,0.4066666666666667,0.38,-0.6522222222222223,0.0008599279347438669,0.0,0.00028664264491462207
1590514653.99588,0.02603315514213482,-4.36206631028427,8.748265241137078,0.4066666666666667,0.38,-0.6522222222222223,-0.0006581151344617444,-0.0006581151344617444,0.0
1590514654.0058799,0.03,-4.3634754888502485,8.773475488850249,0.4110163407665009,0.3763752715834715,-0.6464226567557766,-0.001090830782496456,-0.001090830782496456,0.0
1590514654.0158799,0.016156425593619725,-4.36,8.797687148812761,0.4133333333333333,0.3744444444444445,-0.6433333333333333,0.00041926892772951516,-0.001090830782496456,0.0007550498551129856
1590514654.0258799,0.023530394121576485,-4.366765197060788,8.728817635270541,0.4133333333333333,0.3744444444444445,-0.6433333333333333,0.0003528622621402196,-0.0003528622621402196,0.003304736343565165
1590514654.0358799,0.04396747287355757,-4.356032527126442,8.717934945747116,0.4133333333333333,0.3744444444444445,-0.6433333333333333,0.0,-0.0007618074682080409,0.0005542857889456192
1590514654.0458798,0.03367336462305662,-4.35,8.746326635376944,0.4133333333333333,0.3744444444444445,-0.6433333333333333,0.0005936532147921824,9.647564708790881e-05,0.0006901288618800915
1590514654.0558798,0.02,-4.355641118779514,8.765641118779513,0.4177208701618436,0.3813391451749607,-0.640199378455826,-0.00013987041998592413,0.001090830782496456,0.0015663109637517219
1590514654.0658798,0.02,-4.345296946135353,8.75039592818047,0.4211111111111111,0.38666666666666666,-0.6377777777777778,-0.000556212657421079,2.1594532345702022e-05,2.1594532345702022e-05
1590514654.0758798,0.02419886997767857,-4.342596609933036,8.704806780133929,0.4211111111111111,0.38666666666666666,-0.6377777777777778,0.0013740769870055978,0.00119929752917954,-0.00017477945782605735
1590514654.0858798,0.02503968642822146,-4.3550396864282215,8.684880940715335,0.4211111111111111,0.38666666666666666,-0.6377777777777778,0.002190319800503173,0.002740064309506531,0.001090830782496456
1590514654.0958798,0.03201925688186644,-4.354006418960622,8.708012837921244,0.4211111111111111,0.38666666666666666,-0.6377777777777778,0.001090830782496456,0.0006537982695140466,0.0006537982695140466
1590514654.1058798,0.05,-4.351967626798827,8.748113306204106,0.41530995268804166,0.3839892089329423,-0.6462563939345716,0.00021463478806253722,0.0004380979972169594,-0.0004380979972169594
1590514654.1158798,0.03970781038969595,-4.345146094805152,8.774561715584543,0.4066666666666667,0.38,-0.6588888888888889,-0.001090830782496456,0.001090830782496456,-0.001090830782496456
1590514654.1258798,0.0498342769664423,-4.356611425655481,8.687274317789711,0.4066666666666667,0.38,-0.6588888888888889,0.00035155854174058997,0.001812025444614979,-0.000369636120377933
1590514654.1358798,0.03243341702358096,-4.346216708511791,8.69134987446463,0.4066666666666667,0.38,-0.6588888888888889,0.001090830782496456,0.0014298996330198953,0.0007517619319730167
1590514654.1458797,0.02,-4.34,8.73606472837201,0.4066666666666667,0.38,-0.6588888888888889,-4.645753932744747e-05,0.0016594749434084076,0.0005221866215845042
1590514654.1558797,0.025447458118790338,-4.34,8.77089491623758,0.41816685602855735,0.3733419956325896,-0.6504150651485483,-0.0016850562827301298,0.0003989850642918901,-0.0005942255002336738
1590514654.1658797,0.03,-4.352547713590368,8.767452286409632,0.42777777777777776,0.36777777777777776,-0.6433333333333333,-0.0008129183415606994,-0.0004064591707803497,-0.001090830782496456
1590514654.1758797,0.03,-4.36,8.715717237994369,0.42777777777777776,0.36777777777777776,-0.6433333333333333,-0.0013801428551344947,0.0013801428551344947,0.0009793835002052862
1590514654.1858797,0.03,-4.352986819136286,8.711039542591141,0.42777777777777776,0.36777777777777776,-0.6433333333333333,-0.002181661564992912,-0.00011339650581318949,0.0014166422080575448
1590514654.1958797,0.03,-4.341408452711852,8.732887320932221,0.42777777777777776,0.36777777777777776,-0.6433333333333333,-0.002181661564992912,-0.00015363835737791307,0.001090830782496456
1590514654.2058797,0.030763495022409073,-4.331526990044818,8.75076349502241,0.4272687810961717,0.3682867744593838,-0.6429091694319949,-0.002264945952265576,0.0008409776206784638,0.0010075463952237919
1590514654.2158797,0.04334955291413797,-4.356699105828276,8.746601788343447,0.4211111111111111,0.3744444444444445,-0.6377777777777778,-0.0014455946343181658,-0.0025470411076271523,-0.0007307590852684808
1590514654.2258797,0.0480819774718398,-4.364245932415519,8.706573842302879,0.4211111111111111,0.3744444444444445,-0.6377777777777778,0.002181661564992912,-0.003063268545965486,-0.002181661564992912
1590514654.2358797,0.04,-4.3482571156943015,8.666514231388604,0.4211111111111111,0.3744444444444445,-0.6377777777777778,0.0008305941688960905,-0.00038023837019715025,-0.0017313057662939715
1590514654.2458797,0.03380022291810413,-4.356900111459052,8.71789899686853,0.4211111111111111,0.3744444444444445,-0.6377777777777778,-0.001428976166773859,0.0018435161807155089,-0.001090830782496456
1590514654.2558796,0.027067899182017692,-4.346466050408991,8.78,0.4140432119290934,0.37640774977278274,-0.6346364892524367,-0.0014106733654602702,0.0022473130817954184,-0.0007053366827301351
1590514654.2658796,0.04,-4.344895378247873,8.78,0.4011111111111111,0.38,-0.6288888888888889,0.0,0.0032953172730371206,0.0005340029284743515
1590514654.2758796,0.03514987714987715,-4.354850122850123,8.73149877149877,0.4011111111111111,0.38,-0.6288888888888889,0.0,6.539624347153212e-05,0.000561764452116111
1590514654.2858796,0.03,-4.36,8.706531659137891,0.4011111111111111,0.38,-0.6288888888888889,0.0009647183499438452,-0.0012169432150490667,-0.001447077524915768
1590514654.2958796,0.025282966843592748,-4.355282966843593,8.754151099469222,0.4011111111111111,0.38,-0.6288888888888889,0.0011525645711798218,0.0,-0.002243395353676278
1590514654.3058796,0.02,-4.35,8.77,0.40639947353625183,0.38,-0.6389848535187032,-0.0014159557282110136,0.0,-0.001090830782496456
1590514654.3158796,0.026401282897839825,-4.35640128289784,8.782802565795679,0.4133333333333333,0.38,-0.6522222222222223,-0.003272492347489368,0.0,-0.001090830782496456
1590514654.3258796,0.03,-4.36,8.707220551737304,0.4133333333333333,0.38,-0.6522222222222223,-0.002577889498850743,-0.0013892056972772497,-0.001090830782496456
1590514654.3358796,0.03620302235427935,-4.341390932937162,8.691015111771398,0.4133333333333333,0.38,-0.6522222222222223,-0.0001517272464244472,-0.002181661564992912,-0.0017674755553526108
1590514654.3458796,0.04,-4.346824039978959,8.72682403997896,0.4133333333333333,0.38,-0.6522222222222223,0.001090830782496456,-0.0008052480128679946,-0.0017228570476179395
1590514654.3558795,0.04,-4.362377646255406,8.755081569163062,0.4133333333333333,0.37858845301026045,-0.6516576034263264,0.0008136741791737925,0.00025936097252846524,-0.0005365175758511289
