time,acc_x,acc_y,acc_z,mag_x,mag_y,mag_z,gyr_x,gyr_y,gyr_z
1590514729.642239,-0.02,-4.25,8.75,0.4188888888888889,0.2822222222222222,-0.5577777777777778,0.007635815477475192,0.004363323129985824,-0.01308996938995747
1590514729.652239,-0.05599080752690619,-4.254009192473093,8.767972422580717,0.4188888888888889,0.2888888888888889,-0.5788888888888889,-5.013716309001156e-06,0.006107649638718353,-0.01330613005993316
1590514729.662239,-0.02367302893370203,-4.27053078842652,8.718407634720442,0.4188888888888889,0.2888888888888889,-0.5788888888888889,-0.0026981269385091405,0.0008592306406404607,-0.008552946153579651
1590514729.672239,0.01356523007365274,-4.2867826150368264,8.730695690220958,0.4188888888888889,0.2888888888888889,-0.5788888888888889,-0.002181661564992912,-0.003272492347489368,-0.006194022439281633
1590514729.682239,0.02,-4.29,8.782689694439172,0.4188888888888889,0.2888888888888889,-0.5788888888888889,-0.002181661564992912,-0.0026781769314118244,-0.007139300111056279
1590514729.692239,0.011953765512297836,-4.281953765512298,8.822069351731553,0.41620681072632154,0.2812896674282813,-0.5703956413740922,1.260850059961894e-05,-0.002181661564992912,-0.008074669490593697
1590514729.702239,-0.030632276194299476,-4.27,8.84,0.4122222222222222,0.27,-0.5577777777777778,0.0038294028443339556,-0.0005109300744591486,-0.010954288247349998
1590514729.712239,-0.07956213441566193,-4.250437865584338,8.76827217380924,0.4122222222222222,0.27,-0.5577777777777778,0.005785921689448314,-0.0010430670566972799,-0.010956071550763736
1590514729.722239,-0.09627076316814444,-4.246270763168145,8.748812289504434,0.4122222222222222,0.27,-0.5577777777777778,0.006544984694978735,-0.0001295591169258284,-0.008449408743756714
1590514729.732239,-0.07329907203195872,-4.260680371187216,8.786700927968042,0.4122222222222222,0.27,-0.5577777777777778,0.007710032460929135,-7.421698345394306e-05,-0.006470767711524793
1590514729.742239,-0.043796375638706406,-4.27,8.816203624361293,0.421183012966313,0.2741357495741958,-0.5577777777777778,0.00804993581833725,-0.001090830782496456,-0.004100733029213485
1590514729.752239,-0.010653471936727943,-4.264130694387346,8.784784166324073,0.4266666666666667,0.2766666666666667,-0.5577777777777778,0.006355331630642661,-0.001090830782496456,-0.003272492347489368
1590514729.762239,0.0061067319187089065,-4.267786536162582,8.728853855349671,0.4266666666666667,0.2766666666666667,-0.5577777777777778,0.00545415391248228,-0.0015155204492547799,-0.002847802680731044
1590514729.772239,0.0,-4.272578328719862,8.68,0.4266666666666667,0.2766666666666667,-0.5577777777777778,0.0034302070399961767,-0.00096729344150125,-0.0017768721904956914
1590514729.782239,0.004921583690906706,-4.255078416309093,8.72429425321816,0.4266666666666667,0.2766666666666667,-0.5577777777777778,-0.002684307494336779,0.0032382767779658792,-0.0016276922813638118
1590514729.792239,0.004702270455519063,-4.2552977295444805,8.812381836355847,0.4331416694432545,0.27960984974693387,-0.5689618734827931,-0.008343617144712646,0.0060320465589283525,-0.0010258762721007653
1590514729.802239,-0.02095331731119365,-4.270476658655597,8.829046682688807,0.4388888888888889,0.2822222222222222,-0.5788888888888889,-0.00805124238515632,0.004830745431093793,0.0005714130879616476
1590514729.812239,-0.04,-4.270043822314701,8.760219111573505,0.4388888888888889,0.2822222222222222,-0.5788888888888889,-0.0027390276387001555,0.003272492347489368,4.780272983606225e-06
1590514729.822239,-0.04,-4.26,8.749293104750397,0.4388888888888889,0.2822222222222222,-0.5788888888888889,0.0014287376067196739,0.0011293859374098569,-0.001090830782496456
1590514729.832239,-0.024310667382888472,-4.265229777539036,8.785689332617112,0.4388888888888889,0.2822222222222222,-0.5788888888888889,0.0016111813324738806,0.0005704802325190312,5.012968254160645e-05
1590514729.842239,-0.013653885215193302,-4.273653885215193,8.792692229569614,0.4388888888888889,0.28019228599155926,-0.5764529654120933,0.001090830782496456,0.0002936766888081479,0.001090830782496456
1590514729.852239,-0.009973163124682672,-4.274986581562342,8.785013418437657,0.4388888888888889,0.2766666666666667,-0.5722222222222222,0.002184589013963128,-0.001090830782496456,-0.0005498065647035521
1590514729.862239,-0.011268410639701033,-4.27,8.739292152121344,0.4388888888888889,0.2766666666666667,-0.5722222222222222,0.0014287029681498977,0.001982151516402661,0.00027672427412638164
1590514729.8722389,-0.009208795339221951,-4.280791204660778,8.74316481864311,0.4388888888888889,0.2766666666666667,-0.5722222222222222,0.0005885689112097961,0.002597616396356435,-0.00017261407984627258
1590514729.8822389,0.0,-4.27149776119403,8.79850223880597,0.4388888888888889,0.2766666666666667,-0.5722222222222222,0.0020999713642290917,0.0005862604916301382,-0.0016770912741265942
1590514729.8922389,0.0,-4.25,8.824634163550414,0.4332249112161622,0.27100268899394,-0.5686178727941233,0.0042835099978720285,-0.0005055088251913302,-0.001090830782496456
1590514729.9022388,0.005243923968692991,-4.2604878479373856,8.840487847937386,0.4266666666666667,0.2644444444444444,-0.5644444444444444,0.003166060438033761,-0.0016628541511085858,-0.002806900888332845
1590514729.9122388,-0.027179687265524166,-4.248754464419701,8.759706473783726,0.4266666666666667,0.2644444444444444,-0.5644444444444444,-6.793342758426579e-05,-0.0016022794599525512,-0.0020457947098243803
1590514729.9222388,-0.06,-4.236250831195973,8.686250831195972,0.4266666666666667,0.2644444444444444,-0.5644444444444444,-0.004500130324874296,0.0002728890344546801,-0.000681859908475568
1590514729.9322388,-0.050391418547839024,-4.24,8.69480429072608,0.4266666666666667,0.2644444444444444,-0.5644444444444444,-0.010737519264635412,0.0031870980673247944,0.0020535701447460504
1590514729.9422388,-0.007664713194814418,-4.272335286805186,8.780838217012963,0.42352295822727365,0.27163006373448567,-0.5644444444444444,-0.019239767653344522,0.010304098766075118,0.008099578378078374
1590514729.9522388,0.036176578850502183,-4.308529736551507,8.877059473103014,0.4188888888888889,0.2822222222222222,-0.5644444444444444,-0.021335473061530302,0.016202080874647234,0.012416209155893036
1590514729.9622388,0.024594921402660216,-4.29,8.810272067714632,0.4188888888888889,0.2822222222222222,-0.5644444444444444,-0.012618419202844433,0.011527588420347975,0.011026360249430621
1590514729.9722388,-0.011936641590171855,-4.29,8.71354751880737,0.4188888888888889,0.2822222222222222,-0.5644444444444444,-0.004855924814703493,0.0037650940322070375,0.003061237521367133
1590514729.9822388,-0.03889181111775254,-4.281108188882247,8.726675433353257,0.4188888888888889,0.2822222222222222,-0.5644444444444444,-0.004363323129985824,0.002302546219550499,-0.0003640884094118478
1590514729.9922388,-0.05409758228954267,-4.28639032915817,8.780487911447713,0.422075897336311,0.27493763148525746,-0.5617127229180826,-0.0021284386823630964,0.00019687700344736504,-0.002181661564992912
1590514730.0022388,-0.03303750870560143,-4.2938225052233605,8.81539249825888,0.4266666666666667,0.2644444444444444,-0.5577777777777778,0.002267291401565363,-0.002267291401565363,-0.0015934312554584584
1590514730.0122387,0.007694080314306224,-4.2755764799214235,8.753647198821351,0.4266666666666667,0.2644444444444444,-0.5577777777777778,0.005202617094970347,-0.004720085908100103,-0.0015733619693667007
1590514730.0222387,0.02140573642874442,-4.2742971317856275,8.678594263571256,0.4266666666666667,0.2644444444444444,-0.5577777777777778,0.009979537291578569,-0.008419962146261437,-0.0026504059278135875
1590514730.0322387,0.00027483336198170366,-4.294587749957027,8.753213583147119,0.4266666666666667,0.2644444444444444,-0.5577777777777778,0.010968267163225886,-0.00931703115491587,-0.0038029179041722642
1590514730.0422387,-0.018868191464277293,-4.292263617071445,8.828868191464277,0.42962273048809246,0.26690783096229925,-0.5671386465456261,0.009210331071686948,-0.010537924347766988,-0.005814377565131723
1590514730.0522387,-0.03,-4.275745788896641,8.828508422206719,0.43333333333333335,0.27,-0.5788888888888889,0.01232455040174108,-0.01731464187154515,-0.007635815477475192
1590514730.0622387,-0.012360451095822397,-4.28,8.761201503652742,0.43333333333333335,0.27,-0.5788888888888889,0.01546358436805583,-0.01963495408493621,-0.009559991770878047
1590514730.0722387,0.0053422239654834286,-4.274657776034516,8.725342223965484,0.43333333333333335,0.27,-0.5788888888888889,0.019858939146570602,-0.019052207850082246,-0.01207380029467248
1590514730.0822387,0.012969422227355414,-4.267030577772644,8.741877688909423,0.43333333333333335,0.27,-0.5788888888888889,0.023231360149608422,-0.018220209585256903,-0.013737796824323165
1590514730.0922387,0.019024774059423093,-4.260975225940577,8.766099096237692,0.43333333333333335,0.27,-0.5788888888888889,0.023891896567334994,-0.01755967316753033,-0.015058869659776314
1590514730.1022387,0.012515626148981544,-4.26,8.826257813074491,0.4266666666666667,0.2766666666666667,-0.6,0.019092947790552164,-0.011323335287913058,-0.014997218710894173
1590514730.1122386,0.005024190622102165,-4.249951618755795,8.754685521912672,0.4266666666666667,0.2766666666666667,-0.6,0.014170245022359213,-0.005448876337434924,-0.01800662427376256
1590514730.1222386,-0.002303086463753653,-4.24,8.711530401311569,0.4266666666666667,0.2766666666666667,-0.6,0.011328109335742118,-0.0030212645865480285,-0.020641497992514555
1590514730.1322386,-0.027109640772759902,-4.243853812302987,8.757109640772759,0.4266666666666667,0.2766666666666667,-0.6,0.009712380615216567,-0.00010509642725153896,-0.02227686786891634
1590514730.1422386,0.0,-4.270825465589905,8.745290890683494,0.42428808367145665,0.27836565452038814,-0.5915050607313928,0.007392264320024249,-0.0004236398125227566,-0.01469448431251259
1590514730.1522386,0.011386747905559786,-4.242408834729627,8.783795582635186,0.4188888888888889,0.2822222222222222,-0.5722222222222222,0.0018791201044034908,0.001090830782496456,-0.008838138636979282
1590514730.1622386,0.02258063406918369,-4.248548414827041,8.764032219242143,0.4188888888888889,0.2822222222222222,-0.5722222222222222,-0.005418970662568873,0.0027094853312844367,-0.0038354993636942987
1590514730.1722386,0.008045968624589566,-4.27804596862459,8.733678219627873,0.4188888888888889,0.2822222222222222,-0.5722222222222222,-0.012187218369521514,0.006093609184760757,-0.001090830782496456
1590514730.1822386,-0.0039201734502808715,-4.27,8.801760520350841,0.4188888888888889,0.2822222222222222,-0.5722222222222222,-0.017025667932714122,0.010864769196117504,-0.0006632061952672845
1590514730.1922386,-0.0034629318724043474,-4.266731465936202,8.82,0.4188888888888889,0.28040636996455676,-0.5645956427400273,-0.014936294709275277,0.013111174901325254,0.0003565417570428904
1590514730.2022386,0.006003224388099077,-4.252006448776198,8.82,0.4188888888888889,0.2766666666666667,-0.5488888888888889,-0.011999138607461015,0.011344288411783823,0.0015268113693157196
1590514730.2122386,-0.011027309993352536,-4.2620546199867055,8.797945380013296,0.4188888888888889,0.2766666666666667,-0.5488888888888889,-0.01360299583264498,0.013202031526348988,0.002983590177584894
1590514730.2222385,-0.034597396973560755,-4.304597396973561,8.773792190920682,0.4188888888888889,0.2766666666666667,-0.5488888888888889,-0.018368454592693286,0.015271630954950384,0.00586781777142066
1590514730.2322385,-0.048345182012847966,-4.297482226980728,8.781654817987151,0.4188888888888889,0.2766666666666667,-0.5488888888888889,-0.01799483043988757,0.012540676527405295,0.009456451762505251
1590514730.2422385,-0.06993010921839184,-4.283310036406131,8.779930109218391,0.4188888888888889,0.2766666666666667,-0.5588189981072808,-0.011653317450360075,0.007643439379074283,0.01813731093254608
1590514730.2522385,-0.08795171195423572,-4.285903423908471,8.802048288045764,0.4188888888888889,0.2766666666666667,-0.5788888888888889,-0.006544984694978735,0.00545415391248228,0.030543261909900768
1590514730.2622385,-0.08089475898039876,-4.271789517960797,8.809105241019601,0.4188888888888889,0.2766666666666667,-0.5788888888888889,-0.006544984694978735,0.00545415391248228,0.030543261909900768
1590514730.2722385,0.13714067323239748,-4.250985447596649,8.66305335881229,0.4188888888888889,0.2766666666666667,-0.5788888888888889,-0.006222497723090323,0.005239162597890005,0.04756128039748116
1590514730.2822385,0.2320522181430359,-4.237444674610825,8.758611686527063,0.4188888888888889,0.2766666666666667,-0.5788888888888889,-0.012683925378399578,0.012253741111815462,0.03771815288871952
1590514730.2922385,0.05986445619302483,-4.240135543806975,8.797398342144769,0.4188888888888889,0.2736525272743536,-0.573682648120348,-0.012537161230857978,0.014748393867255946,0.022041270354520016
1590514730.3022385,0.07205222572730459,-4.220255871012969,8.817436032246759,0.4188888888888889,0.2644444444444444,-0.5577777777777778,-0.01362142918234095,0.00841904956718567,0.035521778425458554
1590514730.3122385,0.037552119498026997,-4.239468728301183,8.76436448930513,0.4188888888888889,0.2644444444444444,-0.5577777777777778,-0.011616210762530933,0.0032145395951955784,0.04669665405929889
1590514730.3222384,0.06592976676275693,-4.226783722062072,8.686783722062072,0.4188888888888889,0.2644444444444444,-0.5577777777777778,-0.01150029925258122,0.0013868264963047864,0.052507875416734046
1590514730.3322384,-0.0024636865217880846,-4.277077281086965,8.76184776489134,0.4188888888888889,0.2644444444444444,-0.5577777777777778,-0.013727607741742174,0.004430509757395526,0.05345070834232633
1590514730.3422384,-0.08557592400178121,-4.295575924001781,8.81442407599822,0.4210573037784705,0.2734278775584253,-0.5596364191117049,-0.00908359096236343,0.004720267832377606,0.05436306677362689
1590514730.3522384,-0.10535751689993336,-4.288569932400266,8.762497381700467,0.4266666666666667,0.2966666666666667,-0.5644444444444444,-0.004363323129985824,0.001753243305657686,0.055554371819377245
1590514730.3622384,-0.11,-4.27,8.73,0.4266666666666667,0.2966666666666667,-0.5644444444444444,-0.004363323129985824,0.003272492347489368,0.0545415391248228
1590514730.3722384,-0.45055014394447296,-4.212896438853177,8.57546279133967,0.4266666666666667,0.2966666666666667,-0.5644444444444444,-0.02040383126187193,0.008565669457191281,0.05265782660741321
1590514730.3822384,0.12838466695587025,-4.171543952360295,8.840118704894111,0.4266666666666667,0.2966666666666667,-0.5644444444444444,-0.031229886909680947,0.013978697281095784,0.06709256747115858
1590514730.3922384,-0.04006108005769925,-4.2171254056978,8.85,0.4245905707817446,0.2937920723644669,-0.5625280482429779,-0.02243709203962131,0.009817477042468105,0.067174479723403
1590514730.4022384,-0.1,-4.202694025017895,8.85,0.4122222222222222,0.2766666666666667,-0.5511111111111111,-0.019047209001269282,0.008495050604217519,0.07979996589191608
1590514730.4122384,-0.12414877841254407,-4.211950407195818,8.781578461164457,0.4122222222222222,0.2766666666666667,-0.5511111111111111,-0.013515482231477785,-0.003512297446945195,0.1014878357902139
1590514730.4222383,-0.18328550355370793,-4.188357248223146,8.703285503553708,0.4122222222222222,0.2766666666666667,-0.5511111111111111,-0.01090830782496456,-0.008726646259971648,0.11803821823125589
1590514730.4322383,-0.22848331294775467,-4.167172229017415,8.762622167860679,0.4122222222222222,0.2766666666666667,-0.5511111111111111,-0.01152523175169533,-0.008726646259971648,0.13550419552862025
1590514730.4422383,-0.23064760647378846,-4.134955726024903,8.82,0.414625460633974,0.27527531811249467,-0.5535143495228628,-0.013338324526114845,-0.009471711668443766,0.1542064403664481
1590514730.4522383,-0.07493068174170536,-3.9288474998317517,8.811889090786728,0.43333333333333335,0.2644444444444444,-0.5722222222222222,-0.015935203163240676,-0.015161035586902,0.16558508820336454
1590514730.4622383,-0.019871213254233345,-3.794549246389817,8.727339016567791,0.43333333333333335,0.2644444444444444,-0.5722222222222222,-0.02457881374283521,-0.013352140744582098,0.15920510042581865
1590514730.4722383,0.008008541469332137,-3.6969701048573373,8.692489323163334,0.43333333333333335,0.2644444444444444,-0.5722222222222222,-0.03218183740806427,-0.011071233645013384,0.14704026256145217
1590514730.4822383,-0.014412457191780824,-3.676176767367906,8.728530302103719,0.43333333333333335,0.2644444444444444,-0.5722222222222222,-0.04193289414798956,-0.016362461737446838,0.12955213230332838
1590514730.4922383,-0.05930008561643836,-3.695414322407045,8.786242967221137,0.43333333333333335,0.2644444444444444,-0.5722222222222222,-0.0468293748318775,-0.016362461737446838,0.12535514885999585
1590514730.5022383,-0.14188974280931366,-3.5082940191751635,8.796010500684828,0.4266666666666667,0.27,-0.5788888888888889,-0.06412996826405708,-0.010470257341428946,0.13242857516560677
1590514730.5122383,-0.30944471922081873,-3.0614807487444833,8.78005288388373,0.4266666666666667,0.27,-0.5788888888888889,-0.08066667490487903,-0.013081316284716621,0.1298175162223191
1590514730.5222383,-0.23966226138032304,-3.293259911894273,8.698428781204111,0.4266666666666667,0.27,-0.5788888888888889,-0.031731802938700135,0.007525290772640749,0.11222101878255392
1590514730.5322382,-0.21060320781032077,-3.360904811715481,8.782111227336122,0.4266666666666667,0.27,-0.5788888888888889,-0.016592760914155905,-0.0019184625058968354,0.12606550308872044
1590514730.5422382,-0.23349071791005238,-3.407453589550262,8.85,0.42996345580393835,0.26903035613609655,-0.5777253162522048,-0.02418866634238687,0.004069926037935802,0.19440514881695056
1590514730.5522382,-0.25051492751542986,-3.485365652361131,8.838156667145112,0.4455555555555555,0.2644444444444444,-0.5722222222222222,-0.02469591884820875,-0.008197514262060527,0.2617611453104707
1590514730.5622382,-0.24107567290563459,-3.1009956319090266,8.616215134581127,0.4455555555555555,0.2644444444444444,-0.5722222222222222,-0.034380748116647,-0.02143417669699892,0.37322062226154157
1590514730.5722382,-0.2177049717038492,-2.5984425424442263,8.767951919928908,0.4455555555555555,0.2644444444444444,-0.5722222222222222,-0.07184289796204431,-0.01525367237324519,0.4594635274405505
1590514730.5822382,-0.23624625942624586,-2.6081081674181066,8.966906794876909,0.4455555555555555,0.2644444444444444,-0.5722222222222222,-0.06273745919232898,-0.01587441038766732,0.5379696213603379
1590514730.5922382,-0.25,-2.6820236869207004,8.80911946446962,0.43914292253118203,0.2644444444444444,-0.5738253804783155,-0.004267271603823674,-0.056157002219807246,0.610903995831379
1590514730.6022382,-0.2462051844342843,-2.7275896311314316,8.809023729234333,0.4188888888888889,0.2644444444444444,-0.5788888888888889,-0.007154479652747405,-0.05657218098241835,0.7011912039045731
1590514730.6122382,-0.24627903310562269,-2.7462790331056226,8.982325801366263,0.4188888888888889,0.2644444444444444,-0.5788888888888889,-0.028399690573755406,-0.0576237522929902,0.7691370463170405
1590514730.6222382,-0.273920689351974,-2.7982818957179285,8.875638793634046,0.4188888888888889,0.2644444444444444,-0.5788888888888889,-0.013041916438051136,-0.06777566737049927,0.8394303028664337
1590514730.6322381,-0.3,-2.8624320327782997,8.854595893470526,0.4188888888888889,0.2644444444444444,-0.5788888888888889,-0.01421045646750647,-0.07231903459832918,0.8925360239257154
1590514730.6422381,-0.3,-2.8365895472959446,8.938583971288182,0.4188888888888889,0.2644444444444444,-0.5788888888888889,-0.025486367931654923,-0.06597633439974568,0.9305922251172163
1590514730.6522381,-0.3049734002127983,-2.866578000709328,8.868289000354663,0.43333333333333335,0.25,-0.5644444444444444,-0.023805832933387214,-0.07562899986197512,1.0026137048357404
1590514730.6622381,-0.34789758482885297,-2.95671159431082,8.874204830342293,0.43333333333333335,0.25,-0.5644444444444444,-0.032351511522616054,-0.07818110692463541,1.0532132987065126
1590514730.672238,-0.4123917234576757,-2.9871751703730274,8.75478344691535,0.43333333333333335,0.25,-0.5644444444444444,-0.0254444936628153,-0.08359134003267447,1.1060572719157067
1590514730.682238,-0.4232989860687495,-3.0149484791031242,8.786494930343746,0.43333333333333335,0.25,-0.5644444444444444,-0.020894476529122828,-0.09398013895638538,1.1549311860736504
1590514730.692238,-0.4417683975062654,-3.040294732917711,8.871178931670842,0.43392279916875515,0.24980351138819273,-0.5646736811582196,-0.02720646881456059,-0.10035643198967394,1.1936926617213441
1590514730.702238,-0.4938920072078043,-3.0489820012013005,8.905928004805203,0.4512973357359348,0.24401199919913283,-0.5714304453787894,-0.025311200882651604,-0.10035643198967394,1.2353885562233418
1590514730.712238,-0.525875049134084,-3.105291683044695,8.86089574325418,0.4533333333333333,0.2433333333333333,-0.5722222222222222,-0.026532190686510367,-0.1050720070262552,1.297120556369197
1590514730.722238,-0.5723876483889202,-3.1176123516110796,8.78477529677784,0.4533333333333333,0.2433333333333333,-0.5722222222222222,-0.031064165981983236,-0.11012488639381052,1.3425338962675317
1590514730.732238,-0.5952671029149316,-3.119541939321832,8.811450327186199,0.4533333333333333,0.2433333333333333,-0.5722222222222222,-0.03251675065215432,-0.11407091984784948,1.3890605440585486
1590514730.742238,-0.659663669171153,-3.158991007513459,8.861345323315387,0.4539686248989331,0.24243645112307477,-0.5729322539720102,-0.031744156698759865,-0.11668220572499989,1.4295851423854213
1590514730.752238,-0.6588336429013668,-3.136625232176025,8.895583178549318,0.4722222222222222,0.21666666666666667,-0.5933333333333334,-0.03394298408004736,-0.11635076366450374,1.4869890191612107
1590514730.762238,-0.6985566508175809,-3.1578608372956047,8.860747535660444,0.4722222222222222,0.21666666666666667,-0.5933333333333334,-0.031476647720589834,-0.11983394110280275,1.5270702679839405
1590514730.772238,-0.7381591908709487,-3.15,8.798159190870948,0.4722222222222222,0.21666666666666667,-0.5933333333333334,-0.034550573177394794,-0.12379789621583723,1.5655614135747797
1590514730.782238,-0.7802127590673575,-3.1496808613989637,8.840212759067358,0.4722222222222222,0.21666666666666667,-0.5933333333333334,-0.03272492347489368,-0.126513162355596,1.6006897177881658
1590514730.792238,-0.7937953367875648,-3.129306994818653,8.853795336787565,0.4722222222222222,0.21666666666666667,-0.5933333333333334,-0.03272492347489368,-0.12503153296731073,1.6288406761655856
1590514730.802238,-0.8161329839966011,-3.12,8.811601048010198,0.4623631764465216,0.19067463689436498,-0.5933333333333334,-0.03360484125274443,-0.12699446253814825,1.668097860992689
1590514730.812238,-0.9294612568356659,-3.2067580405969043,8.827022661970526,0.46,0.18444444444444444,-0.5933333333333334,-0.04201141798311618,-0.14732092339977307,1.7080946041499414
1590514730.822238,-0.9932895439495888,-3.2442432980882194,8.692335789810958,0.46,0.18444444444444444,-0.5933333333333334,-0.03253117664254383,-0.14080687933705746,1.7452862618673677
1590514730.832238,-1.0231539036633557,-3.1919806685891277,8.804327138737584,0.46,0.18444444444444444,-0.5933333333333334,-0.04067541736137484,-0.14162130340894058,1.7746055284551598
1590514730.842238,-1.0982477833403705,-3.1897496833343384,8.83,0.46,0.18444444444444444,-0.5933333333333334,-0.03722477316701715,-0.14606210360481497,1.832375890380021
1590514730.852238,-1.0920664968546179,-3.150332484273089,8.909335031453823,0.48556351013512067,0.15359193221240228,-0.6047928378766633,-0.03968447943808413,-0.15222920146533592,1.8657067503193998
1590514730.862238,-1.1371020686003857,-3.1423673562001286,8.882244828499037,0.4922222222222222,0.14555555555555555,-0.6077777777777778,-0.03721736585569121,-0.15489797111449674,1.9075602890074812
1590514730.872238,-1.184687062738721,-3.1582290209129074,8.763282343153197,0.4922222222222222,0.14555555555555555,-0.6077777777777778,-0.038082485462208035,-0.15489797111449674,1.9274580399573682
1590514730.882238,-1.2422170900692842,-3.1184728637413395,8.817635681293304,0.4922222222222222,0.14555555555555555,-0.6077777777777778,-0.04052732367637021,-0.15715489496500254,1.9629635340156657
1590514730.892238,-1.2991971199565278,-3.1113503600054337,8.85324819997283,0.4922222222222222,0.14555555555555555,-0.6077777777777778,-0.041304268308727375,-0.16259350739150272,1.9808332605598804
1590514730.902238,-1.336318045991945,-3.134079511497986,8.862039755748993,0.5311111111111111,0.1111111111111111,-0.6,-0.04122906689888775,-0.15926129424448254,2.0039428810355555
1590514730.912238,-1.4134827074713092,-3.148651729252869,8.852472480287297,0.5311111111111111,0.1111111111111111,-0.6,-0.04065488599919085,-0.1601437353849485,2.0254274986214407
1590514730.9222379,-1.5127385909480864,-3.1418197987068694,8.754558389654957,0.5311111111111111,0.1111111111111111,-0.6,-0.04254240051736178,-0.16580627893946132,2.0586020161969953
1590514730.9322379,-1.5712353833923538,-3.149176411071764,8.821235383392354,0.5311111111111111,0.1111111111111111,-0.6,-0.04276699955612252,-0.1660757977859742,2.0903334625210297
1590514730.9422379,-1.589422707234227,-3.1370515285105154,8.839422707234228,0.5311111111111111,0.1111111111111111,-0.6,-0.046073548339113694,-0.17004365632556362,2.1108340649755757
1590514730.9522378,-1.6827475353621946,-3.0848649807115303,8.89513501928847,0.5361261132542744,0.0776777634900224,-0.626746678096871,-0.04799655442984406,-0.17317184144124725,2.1596827040444295
1590514730.9622378,-1.7411100906899322,-3.138889909310068,8.872784410515441,0.5377777777777778,0.06666666666666668,-0.6355555555555555,-0.04678463153775352,-0.179198978603404,2.222565214846155
1590514730.9722378,-1.7571599127539892,-3.122840087246011,8.768460567099071,0.5377777777777778,0.06666666666666668,-0.6355555555555555,-0.04503386754164711,-0.18357588859367002,2.261957404758549
1590514730.9822378,-1.8211408546922045,-3.0937967765604837,8.82860967031855,0.5377777777777778,0.06666666666666668,-0.6355555555555555,-0.047582390355200385,-0.19387816315138676,2.30132241468488
1590514730.9922378,-1.9038063484927947,-3.0254194450688043,8.886128967807997,0.5377777777777778,0.06666666666666668,-0.6355555555555555,-0.046990176468849044,-0.19022682026189047,2.3442586367153186
1590514731.0022378,-1.91,-2.9958833999047996,8.873922266603198,0.520806836970044,0.023792710941865518,-0.654312911185156,-0.04690572364734761,-0.18717384317908317,2.379913303961075
1590514731.0122378,-2.058282460054047,-2.9965649201080944,8.923435079891906,0.5166666666666667,0.013333333333333334,-0.6588888888888889,-0.05320297300927556,-0.19591445097199006,2.4253581315451265
1590514731.0222378,-2.0430683570016503,-2.966136714003301,8.9538632859967,0.5166666666666667,0.013333333333333334,-0.6588888888888889,-0.060671178381208016,-0.2017230551501597,2.448592548257805
1590514731.0322378,-2.010995825518785,-2.856058442737008,8.75,0.5166666666666667,0.013333333333333334,-0.6588888888888889,-0.04799655442984406,-0.18914823622384141,2.4632090882425963
1590514731.0422378,-2.0194542924556838,-2.7376399056204246,8.75,0.5166666666666667,0.013333333333333334,-0.6588888888888889,-0.04799655442984406,-0.1928389386668405,2.4549050077458485
1590514731.0522377,-2.077768556134814,-2.8553388663191113,9.035818353006817,0.51,-0.048888888888888885,-0.6877777777777778,-0.06516318362696577,-0.2008607223041631,2.454708227823722
1590514731.0622377,-2.114334210939271,-2.8333994734364376,8.874929471867208,0.51,-0.048888888888888885,-0.6877777777777778,-0.04841066805297268,-0.1912878562618813,2.4563037054974357
1590514731.0722377,-2.1451613581414906,-2.80344090542766,8.804301131784577,0.51,-0.048888888888888885,-0.6877777777777778,-0.056160183855793036,-0.1901799007103984,2.4281189160660133
1590514731.0822377,-2.189251550509829,-2.8328343670065523,8.841042958758191,0.51,-0.048888888888888885,-0.6877777777777778,-0.05135068995163569,-0.19338622997983665,2.408880940449384
1590514731.0922377,-2.231911597021933,-2.7814954054597893,8.839362800992689,0.51,-0.048888888888888885,-0.6877777777777778,-0.05597990805319478,-0.191847202461026,2.3908471528879662
1590514731.1022377,-2.2761752268183915,-2.756958711363986,8.883917422727972,0.5243779793941258,-0.06326686828301467,-0.7183309839902952,-0.059910228131310625,-0.19098085184287422,2.3679271275841067
1590514731.1122377,-2.3644310125213295,-2.581445841044005,8.894230334783341,0.5366666666666666,-0.07555555555555556,-0.7444444444444445,-0.04923340956905434,-0.1744204838231411,2.334614449730025
1590514731.1222377,-2.496661863246632,-2.423330931623316,8.697480185892354,0.5366666666666666,-0.07555555555555556,-0.7444444444444445,-0.06099490079330861,-0.17471381337912278,2.3051094754257626
1590514731.1322377,-2.5571028172058505,-2.4535514086029253,8.946799120974134,0.5366666666666666,-0.07555555555555556,-0.7444444444444445,-0.07006039309485657,-0.18625171267200205,2.277088862857341
1590514731.1422377,-2.5233179580055465,-2.338626690814421,8.73858056483106,0.5366666666666666,-0.07555555555555556,-0.7444444444444445,-0.03634928576662655,-0.15408662366169418,2.216113704088492
1590514731.1522377,-2.6,-2.255718676024752,8.905734042111384,0.4511111111111111,-0.12777777777777774,-0.8011111111111111,-0.047842277913801384,-0.15115845876880332,2.104980609655816
1590514731.1622376,-2.602732184728311,-2.2874385768172085,9.05726781527169,0.4511111111111111,-0.12777777777777774,-0.8011111111111111,-0.0598653026720816,-0.15463719038404977,2.016490890430794
1590514731.1722376,-2.7348975958999233,-2.1611388666105906,8.908587664560553,0.4511111111111111,-0.12777777777777774,-0.8011111111111111,-0.0520716409797559,-0.1389057487093614,1.921733261069758
1590514731.1822376,-2.42312083096966,-2.423687721288707,9.015248136773536,0.4511111111111111,-0.12777777777777774,-0.8011111111111111,-0.04849168632235492,-0.12995586206585893,1.8501341679217382
1590514731.1922376,-2.6111226267392884,-1.989785000771792,8.615573221019206,0.4511111111111111,-0.12777777777777774,-0.8011111111111111,-0.031478630844346,-0.10785328675290004,1.7706823781325818
1590514731.2022376,-2.647681020455602,-2.061736837517434,9.17840030799628,0.3322222222222222,-0.1811111111111111,-0.7733333333333333,-0.07719550115513844,-0.1330808324895586,1.6529400590083159
1590514731.2122376,-2.6354939562993955,-1.8606502789400279,8.697011273826128,0.3322222222222222,-0.1811111111111111,-0.7733333333333333,-0.03000171336417394,-0.087216447171579,1.6030874662713812
1590514731.2222376,-2.7918284340913293,-1.7955518580144205,8.650345720096135,0.3322222222222222,-0.1811111111111111,-0.7733333333333333,-0.04031576663502801,-0.09441343100439235,1.457973689440087
1590514731.2322376,-3.041391141219385,-1.9186023970818133,9.170223241271495,0.3322222222222222,-0.1811111111111111,-0.7733333333333333,-0.08290243460773467,-0.09754059926564802,1.3434740357052415
1590514731.2422376,-2.9279390808186903,-1.7507715672637465,8.756649728901126,0.3322222222222222,-0.1811111111111111,-0.7733333333333333,-0.022584071014092738,-0.058558231551675645,1.2546049025540338
1590514731.2522376,-3.023792174443813,-1.8031521121424512,8.97635242364926,0.32228798477077825,-0.2371040858374318,-0.7372088335099006,-0.04009723229305394,-0.0536549105056048,1.166340582207891
1590514731.2622375,-3.13,-1.802402171613904,9.032141295917649,0.32,-0.25,-0.7288888888888889,-0.04660100168723684,-0.059875147634609396,1.0532109516880686
1590514731.2722375,-3.135887481926127,-1.7219624939753757,8.747008281119923,0.32,-0.25,-0.7288888888888889,-0.019349520906429055,-0.03540609310227411,0.9827981002555264
1590514731.2822375,-3.2185862945274506,-1.7495287648424835,8.98591596196819,0.32,-0.25,-0.7288888888888889,-0.01534016933036553,-0.04242245836038527,0.9056180824163036
1590514731.2922375,-3.261103511535624,-1.7417792976928752,9.031103511535623,0.32,-0.25,-0.7288888888888889,-0.02065206803316118,-0.044335879543432044,0.8262823810555053
1590514731.3022375,-3.2791198951736185,-1.7191198951736186,8.95,0.3211111111111111,-0.3,-0.75,0.005262144825194194,-0.024238288574032138,0.7309609666798614
1590514731.3122375,-3.263853461454466,-1.703853461454466,8.95,0.3211111111111111,-0.3,-0.75,0.00193152565723548,-0.02840156253398053,0.6760057504085426
1590514731.3222375,-3.359995028205373,-1.7199801128214933,8.959965197437615,0.3211111111111111,-0.3,-0.75,-0.007629849752189907,-0.03707956918628272,0.6043083220524661
1590514731.3322375,-3.351974567358256,-1.6878982694330242,8.903821971507792,0.3211111111111111,-0.3,-0.75,0.001994012387837578,-0.023081224255333654,0.585060597772411
1590514731.3422375,-3.252948926825813,-1.7023964015017354,8.942258270170717,0.3211111111111111,-0.3,-0.75,0.009249459965034412,-0.022078022502460503,0.5811363324272892
1590514731.3522375,-2.436474813129672,-2.3134780630484237,9.431292492687682,0.2588888888888889,-0.3533333333333333,-0.7211111111111111,0.009968746946560154,-0.022877951105450045,0.5766841602092757
1590514731.3622375,-2.6341262593435166,-1.8091260968475789,9.165485375365616,0.2588888888888889,-0.3533333333333333,-0.7211111111111111,0.047885362010302294,0.011321348755964439,0.5655322146022926
1590514731.3722374,-2.693495232419547,-1.2631078665077473,8.307866507747319,0.2588888888888889,-0.3533333333333333,-0.7211111111111111,0.07110519998454772,0.09075055531651609,0.5327385463888287
1590514731.3822374,-2.6761777326709755,-1.3651338069547567,8.313667004967684,0.2588888888888889,-0.3533333333333333,-0.7211111111111111,0.022992128913982543,0.007291297620168391,0.4634646966249632
1590514731.3922374,-3.0680404912258434,-1.50024243962809,9.015596103195506,0.2588888888888889,-0.3533333333333333,-0.7211111111111111,-0.03722047690948828,-0.0848974978467031,0.30985174203292787
1590514731.4022374,-3.0807790368271957,-1.678753541076487,9.547273371104817,0.2621962543279824,-0.3797922568460812,-0.6417343405728675,-0.09345453240693788,-0.1447235791842713,0.13851542325782545
1590514731.4122374,-3.2078383590462836,-1.543030329593268,9.148222300140253,0.26222222222222225,-0.38,-0.6411111111111111,-0.0001807214392459816,0.005326310227682346,0.01692002084445393
1590514731.4222374,-3.0506732231838445,-1.4303960136375558,8.860990034093888,0.26222222222222225,-0.38,-0.6411111111111111,0.045668018350365526,0.03919215107396827,-0.14991691105593907
1590514731.4322374,-3.14463125240586,-1.458389375721758,9.00194687860879,0.26222222222222225,-0.38,-0.6411111111111111,-0.0027016481970857376,0.016560037885561533,-0.3415040117389434
1590514731.4422374,-3.217884651673443,-1.487153860669377,9.064307721338754,0.26222222222222225,-0.38,-0.6411111111111111,0.002691419535006223,0.03008176449583857,-0.47526245113572724
1590514731.4522374,-3.122815133131109,-1.490216548702393,8.96281513313111,0.2904855259708647,-0.3452143953862862,-0.6139348575066471,0.03215800029774184,0.0627012622076426,-0.6860271372738971
1590514731.4622374,-3.3413498884965622,-1.5766151737595244,9.027367357368519,0.2911111111111111,-0.34444444444444444,-0.6133333333333333,0.02432647922883427,0.06641760197706673,-0.852124911805161
1590514731.4722373,-3.340919245147052,-1.625403774264739,8.893788677205784,0.2911111111111111,-0.34444444444444444,-0.6133333333333333,0.020036050446162218,0.084370698191703,-1.0090484430375837
1590514731.4822373,-3.3474032576601944,-1.7114358342621379,8.961435834262138,0.2911111111111111,-0.34444444444444444,-0.6133333333333333,0.023672804758182557,0.08859834222116783,-1.1325045028071743
1590514731.4922373,-3.2426421959441383,-1.8243525603296058,8.805958050189952,0.2911111111111111,-0.34444444444444444,-0.6133333333333333,0.03680002773795417,0.11203346937859962,-1.2574568334055338
1590514731.5022373,-3.2496145210324476,-2.0348677648180895,9.02069922705506,0.3160535873167264,-0.3400428309963947,-0.5986612885065008,0.04540222516624106,0.12178140455718352,-1.3343226931370507
1590514731.5122373,-3.1836142562207974,-2.0706098011517984,9.014224057372596,0.3288888888888889,-0.3377777777777778,-0.5911111111111111,0.05565292299410453,0.1326871012704201,-1.3802903343257618
1590514731.5222373,-3.1918504216250296,-1.856299156749941,8.660818819449917,0.3288888888888889,-0.3377777777777778,-0.5911111111111111,0.0728915497385655,0.16482410999864472,-1.3911042852151374
1590514731.5322373,-3.2837909680819526,-1.949134194143417,8.683790968081952,0.3288888888888889,-0.3377777777777778,-0.5911111111111111,0.06520564156050454,0.14132611243176116,-1.3776443979823838
1590514731.5422373,-3.4026703918567818,-2.0564255970388294,9.01407516816742,0.3288888888888889,-0.3377777777777778,-0.5911111111111111,0.014945433843709499,0.07137733996965465,-1.3679215237133633
1590514731.5522373,-3.619005219696761,-2.123701565909028,9.16,0.37662361414135836,-0.2900430525253083,-0.6060282127525078,-0.012517425574294371,0.04081877400489935,-1.3658346484486956
1590514731.5622373,-3.612646299483649,-2.0205851979345955,8.804401893287435,0.38222222222222224,-0.28444444444444444,-0.6077777777777778,0.02768898394589004,0.09904264741127136,-1.3388657070009802
1590514731.5722373,-3.506816162851337,-1.9962421550468448,8.79751568990631,0.38222222222222224,-0.28444444444444444,-0.6077777777777778,0.038387459041469,0.0994671368481595,-1.3235113498988007
1590514731.5822372,-3.6627321287732126,-2.157474367247437,9.083247651824765,0.38222222222222224,-0.28444444444444444,-0.6077777777777778,0.02799048167688278,0.07689230755521077,-1.2994549657484564
1590514731.5922372,-3.578085740296284,-2.164012248613755,8.984104113216915,0.38222222222222224,-0.28444444444444444,-0.6077777777777778,0.04100388043167903,0.09336041770027724,-1.2455500028909872
1590514731.6022372,-3.5770271553891715,-2.2500905179639044,9.004054310778342,0.43027049846963794,-0.25541527754496407,-0.6007707374916963,0.054551413102962396,0.09031288960819488,-1.160899121770559
1590514731.6122372,-3.5097869616896773,-2.2775532595775805,8.852020663801774,0.4355555555555555,-0.25222222222222224,-0.6,0.049888079143206525,0.08753336057667181,-1.071630684607157
1590514731.6222372,-3.441167972069734,-2.3304274525116564,8.872022877093048,0.4355555555555555,-0.25222222222222224,-0.6,0.041753009547994734,0.07809849301928423,-0.9924445456913568
1590514731.6322372,-3.4464583333333336,-2.3811458333333335,8.822395833333333,0.4355555555555555,-0.25222222222222224,-0.6,0.034077099132363245,0.06917685212331692,-0.9301945869532019
1590514731.6422372,-3.4918628981569717,-2.4458171975426293,9.01233734109203,0.4355555555555555,-0.25222222222222224,-0.6,0.022830766918163596,0.0584984409239525,-0.8952155027356383
1590514731.6522372,-3.419903559749214,-2.424951779874607,8.970486367139493,0.4355555555555555,-0.2253184240917791,-0.6131390642032396,0.0154728742268488,0.0545415391248228,-0.8680790195964346
1590514731.6622372,-3.390279698785923,-2.4141678192715537,8.857916090364222,0.4355555555555555,-0.20444444444444448,-0.6233333333333333,0.018362569631401843,0.06113228942662827,-0.84554489970124
1590514731.6722372,-3.3644666241416834,-2.498876214776181,8.835926982101984,0.4355555555555555,-0.20444444444444448,-0.6233333333333333,0.02395845212950801,0.06335094625088607,-0.8303244616021367
1590514731.6822371,-3.2447826961770625,-2.6130442655935613,8.839565392354125,0.4355555555555555,-0.20444444444444448,-0.6233333333333333,0.029073164408661076,0.06540265809299928,-0.823292571262712
1590514731.6922371,-3.1966019417475726,-2.681359223300971,8.892718446601942,0.4355555555555555,-0.20444444444444448,-0.6233333333333333,0.03876155984404883,0.07730071729554983,-0.8251870104832656
1590514731.7022371,-3.000026044896441,-2.7093733721939723,8.901879883418083,0.45326081414417013,-0.20444444444444448,-0.6368726487246269,0.03518000299987981,0.0701549425297647,-0.8629781758197405
1590514731.7122371,-3.02867211717297,-2.7641409640421575,8.845859035957842,0.4544444444444444,-0.20444444444444448,-0.6377777777777778,0.03237550088969149,0.07150055951323657,-0.9097446305064697
1590514731.722237,-3.004743385523913,-2.7682477951746374,8.841752204825362,0.4544444444444444,-0.20444444444444448,-0.6377777777777778,0.02394229262097208,0.07135384830548065,-0.9670706924026963
1590514731.732237,-2.9729407354394577,-2.8305926456054253,8.82176294175783,0.4544444444444444,-0.20444444444444448,-0.6377777777777778,0.027784679003751107,0.07937451025513838,-1.062024009584994
1590514731.742237,-2.9365533282018674,-2.910170007697199,8.865744452996887,0.4544444444444444,-0.20444444444444448,-0.6377777777777778,0.034674480956518816,0.09263238191491975,-1.1452003426441246
1590514731.752237,-2.863036559954537,-2.9969634400454632,8.921740860011365,0.4590103344488644,-0.19661720443686728,-0.6325596177727264,0.038368975756217456,0.10547934859502574,-1.2528521121191927
1590514731.762237,-2.776933026895609,-3.0417926606898646,8.912311008965203,0.4622222222222222,-0.19111111111111112,-0.6288888888888889,0.03926990816987242,0.11101264784285166,-1.3677486854725083
1590514731.772237,-2.6576508263702285,-3.012568557441013,8.795191960834837,0.4622222222222222,-0.19111111111111112,-0.6288888888888889,0.04253641775199969,0.1180719623658577,-1.522334120486501
1590514731.782237,-2.4912481985960673,-3.0897805773790155,8.792647482683279,0.4622222222222222,-0.19111111111111112,-0.6288888888888889,0.039181621414615744,0.12800428386804666,-1.6885836880310685
1590514731.792237,-2.467265760092223,-3.139063040368892,8.87265760092223,0.4622222222222222,-0.19111111111111112,-0.6288888888888889,0.03897164886405907,0.14486772117405736,-1.8409070613178
1590514731.802237,-2.4302078723811085,-3.19775055314267,8.85224944685733,0.4719491867512846,-0.19730099762960535,-0.6244675413756787,0.04534681504895242,0.16616097995928808,-2.027774241491863
1590514731.812237,-2.4360690892986177,-3.346587259038251,8.928379991142396,0.4744444444444445,-0.1988888888888889,-0.6233333333333333,0.04427642505930511,0.16666387061872381,-2.2128454271390354
1590514731.822237,-2.393575768370639,-3.3534718676403648,8.804095272022007,0.4744444444444445,-0.1988888888888889,-0.6233333333333333,0.03712224803935143,0.1759344751224719,-2.3635970018588117
1590514731.832237,-2.307599098723191,-3.34,8.674532532198393,0.4744444444444445,-0.1988888888888889,-0.6233333333333333,0.05650536224681195,0.2037675178838335,-2.5275291744261006
1590514731.842237,-2.286414331058233,-3.391314648465863,8.78470095222289,0.4744444444444445,-0.1988888888888889,-0.6233333333333333,0.06094311791832901,0.21520222332279407,-2.6667203836218905
1590514731.852237,-2.1715344457611376,-3.4831816289273934,8.757329852992987,0.4858522385563349,-0.24539758796044225,-0.5996402224855609,0.05953704311536889,0.22632256479263865,-2.8139774561708166
1590514731.862237,-2.0799745503902276,-3.567528630810994,8.842547718018324,0.4888888888888889,-0.2577777777777778,-0.5933333333333334,0.07145427446662281,0.24298845605985586,-2.9155502463330283
1590514731.872237,-2.0293383922219586,-3.666654019445103,8.839117856295946,0.4888888888888889,-0.2577777777777778,-0.5933333333333334,0.0680205551111461,0.24817603138678082,-2.986590177937443
1590514731.882237,-1.9392213829169087,-3.7349351152430756,8.8,0.4888888888888889,-0.2577777777777778,-0.5933333333333334,0.06716394924271661,0.254234350611842,-3.0684499459734402
1590514731.892237,-1.845603062426384,-3.715258455325593,8.795086151775198,0.4888888888888889,-0.2577777777777778,-0.5933333333333334,0.07254964473684955,0.2617617969958085,-3.1431164760963193
1590514731.902237,-1.737907084070456,-3.6864825782632105,8.839563879701561,0.5024063106256783,-0.3824384449059474,-0.5027165431718928,0.07150332432041685,0.26643858598588843,-3.2089862953813695
1590514731.912237,-1.6549699899367452,-3.7147299094307074,8.800600201265095,0.5188888888888888,-0.5344444444444445,-0.3922222222222223,0.07524113527162911,0.27594090489066386,-3.2690561756379637
1590514731.922237,-1.5919462058393143,-3.837775764755069,8.7,0.5188888888888888,-0.5344444444444445,-0.3922222222222223,0.07061637604999407,0.27563190655251074,-3.317700674286048
1590514731.932237,-1.4980147549267306,-3.985955735219808,8.689007377463366,0.5188888888888888,-0.5344444444444445,-0.3922222222222223,0.07067939665446182,0.27613858167228966,-3.3503162833909745
1590514731.942237,-1.4117308154598147,-4.018994097064558,8.753520660274045,0.5188888888888888,-0.5344444444444445,-0.3922222222222223,0.0768212749245364,0.2802337841129709,-3.3712706163514494
1590514731.952237,-1.273402434385698,-4.0510650437428675,8.814893495625714,0.8139313638476819,-0.4964293563247538,0.02197202146992938,0.07693842364098291,0.28261811526653613,-3.388236588683935
1590514731.962237,-1.1192867883995703,-4.059643394199785,8.850356605800215,1.096666666666667,-0.46,0.4188888888888889,0.07633870494554737,0.28395368060430465,-3.405313825115528
1590514731.9722369,-1.0346622894168467,-4.062668855291577,8.70565079913607,1.096666666666667,-0.46,0.4188888888888889,0.07774011250785641,0.2831433697954823,-3.419064419542121
1590514731.9822369,-0.9563241223689565,-4.086239411090149,8.704788221802982,1.096666666666667,-0.46,0.4188888888888889,0.07690819044952754,0.28633846012179226,-3.4299729562161207
1590514731.9922369,-0.8296674209335368,-4.145740321703591,8.785574032170357,1.096666666666667,-0.46,0.4188888888888889,0.07405125881744483,0.287371293991659,-3.4340605376911575
1590514732.0022368,-0.7139991382715163,-4.177999712757172,8.79,1.0573323918151751,0.0066778372210852255,-0.0937900494297032,0.07177663415493493,0.2855794675242403,-3.4350261340813395
1590514732.0122368,-0.6139676153333498,-4.192809715399995,8.79,1.0311111111111109,0.31777777777777777,-0.4355555555555555,0.07505092414531932,0.2855362188881849,-3.4259029028586307
1590514732.0222368,-0.5682073255243987,-4.1945518313811,8.746414651048797,1.0311111111111109,0.31777777777777777,-0.4355555555555555,0.07398094275966083,0.28223184699143483,-3.4153010564248327
1590514732.0322368,-0.4443779558334962,-4.236943130740668,8.71,1.0311111111111109,0.31777777777777777,-0.4355555555555555,0.07263491929524954,0.2747720667657085,-3.3966845299422395
1590514732.0422368,-0.36544780450996894,-4.288208781960124,8.746417563920248,1.0311111111111109,0.31777777777777777,-0.4355555555555555,0.07109939243987559,0.2750928373195447,-3.3722302505348964
1590514732.0522368,-0.33246673063284804,-4.289808935797422,8.780822243544282,0.96176806233458,0.31900147863854006,-0.46839152865267747,0.06972347722289193,0.27845176997860055,-3.3466063150850456
1590514732.0622368,-0.18591603121916211,-4.2040139947968065,8.74,0.6533333333333333,0.3244444444444444,-0.6144444444444445,0.0746143521182727,0.27445149828059323,-3.3023292066822574
1590514732.0722368,-0.13654064865288834,-4.206635162163222,8.709716459468998,0.6533333333333333,0.3244444444444444,-0.6144444444444445,0.07233094903988256,0.2730644326685172,-3.2650792413359317
1590514732.0822368,-0.08140550011426831,-4.180937000076179,8.683360249866688,0.6533333333333333,0.3244444444444444,-0.6144444444444445,0.06810026576655619,0.26953741412925436,-3.215649319117038
1590514732.0922368,-0.01100008990919172,-4.147000029969731,8.737333293373693,0.6533333333333333,0.3244444444444444,-0.6144444444444445,0.06744970883301496,0.2653627727142251,-3.1717359954300957
1590514732.1022367,0.09845305485067343,-4.179460277181339,8.764496388834667,0.5878858958509554,0.3269424382414818,-0.6249360183920012,0.06239709642691956,0.26092829884127455,-3.1220833270983905
1590514732.1122367,0.1942443480407717,-4.210906782351074,8.755453391175537,0.5077777777777778,0.33,-0.6377777777777778,0.06264034115174821,0.25588224733721693,-3.0714799696087844
1590514732.1222367,0.2541237517831669,-4.209248930099857,8.72050071326676,0.5077777777777778,0.33,-0.6377777777777778,0.06225928361898621,0.24988217820837666,-3.0152618834152647
1590514732.1322367,0.34380915501569315,-4.127000774467045,8.69461908449843,0.5077777777777778,0.33,-0.6377777777777778,0.05890486225480863,0.2453538231907742,-2.9463601771739962
1590514732.1422367,0.40616920503565457,-4.008441059952461,8.733117880095078,0.5077777777777778,0.33,-0.6377777777777778,0.06596000888736409,0.24023059307688208,-2.873629855796886
1590514732.1522367,0.46809155063894714,-4.020057219149342,8.80606866297921,0.4503350922923687,0.3654007247758917,-0.6391136541844152,0.062158629679462826,0.23277579901560963,-2.793530251000193
1590514732.1622367,0.563348459784504,-4.061116153261501,8.766651540215497,0.4122222222222222,0.3888888888888889,-0.64,0.05486456490780063,0.22786188010819633,-2.703185582101071
1590514732.1722367,0.6426713318802341,-4.023912584604795,8.667576918664679,0.4122222222222222,0.3888888888888889,-0.64,0.049514181984943756,0.2189926701108815,-2.62915238738426
1590514732.1822367,0.7033761010634361,-4.020025660638062,8.67672654148881,0.4122222222222222,0.3888888888888889,-0.64,0.052730952197701006,0.21489366415180186,-2.550657867297066
1590514732.1922367,0.7359219228456774,-4.0140780771543225,8.751746249248452,0.4122222222222222,0.3888888888888889,-0.64,0.0517245421070846,0.2122884456183121,-2.494222417561667
1590514732.2022367,0.7593803045344594,-3.990619695465541,8.827985989736993,0.4122222222222222,0.3888888888888889,-0.64,0.04596698901500782,0.20845007689026088,-2.4500811771890785
1590514732.2122366,0.9121701063164478,-3.95,8.787923702313947,0.3688888888888889,0.4477777777777778,-0.6444444444444445,0.05017821599483697,0.19525871006686565,-2.2929263048075503
1590514732.2222366,0.9563027482548268,-3.939131501163449,8.715434249418276,0.3688888888888889,0.4477777777777778,-0.6444444444444445,0.047807077376749586,0.18933086352164716,-2.208158099210926
1590514732.2322366,0.9888976156556947,-3.9035433380820277,8.72,0.3688888888888889,0.4477777777777778,-0.6444444444444445,0.0466394568997719,0.18063986408475768,-2.1068409156359498
1590514732.2422366,1.0389455792824254,-3.8410544207175747,8.75518464723879,0.3688888888888889,0.4477777777777778,-0.6444444444444445,0.046520381496022875,0.17158057933179058,-2.0342785580207052
1590514732.2522366,1.110746130789677,-3.793457688464946,8.811965426885592,0.3562106978507529,0.451235466242724,-0.6463653824805257,0.04027934870905405,0.1621159161689299,-1.9420480306428225
1590514732.2622366,1.15,-3.777460490463215,8.793531335149863,0.3322222222222222,0.4577777777777778,-0.65,0.035997415822383035,0.15710995004728653,-1.8603688013287787
1590514732.2722366,1.1817488849844573,-3.725291480830743,8.792421498400685,0.3322222222222222,0.4577777777777778,-0.65,0.03657462683989947,0.14931663469694167,-1.7492034040827793
1590514732.2822366,1.2424282668447686,-3.681357599732847,8.751070667111922,0.3322222222222222,0.4577777777777778,-0.65,0.036498684076591445,0.14313521793900522,-1.6529987162785327
1590514732.2922366,1.2747287096013211,-3.5974416135881104,8.777441613588111,0.3322222222222222,0.4577777777777778,-0.65,0.03754488242076531,0.13292065156655655,-1.5583656422515435
1590514732.3022366,1.2936158276834464,-3.540922781544369,8.811694966100678,0.2933918988286901,0.45374345846416403,-0.6273069538609228,0.03332888258336415,0.1224750271938383,-1.4521710153292537
1590514732.3122365,1.353153134728566,-3.5192117163178582,8.796723021337515,0.2466666666666667,0.4488888888888889,-0.6,0.030298805955689387,0.11713532650249607,-1.330203059239443
1590514732.3222365,1.39,-3.5158374855234453,8.740862398664117,0.2466666666666667,0.4488888888888889,-0.6,0.026811274465903423,0.10862358315313762,-1.2109559627315198
1590514732.3322365,14.372550172119055,-10.994425684378147,1.376211273212654,0.2466666666666667,0.4488888888888889,-0.6,-0.6426293273274808,-0.6941121823536373,0.09502062617955698
1590514732.3422365,3.8771550122835414,-9.388126909940679,-2.6720995865540176,0.2466666666666667,0.4488888888888889,-0.6,-1.4787580269306986,-0.15666000696053528,3.1969033104459146
1590514732.3522365,-8.079152795960352,-2.5742547222741727,-1.2944941088460822,0.21740165825073252,0.48221848180703614,-0.6,-1.8793690370486051,0.2411378654520996,5.392908874445534
1590514732.3622365,0.8220609819121447,-2.4861746770025834,6.603531782945736,0.16666666666666666,0.54,-0.6,-1.678626781789396,-0.8520484315711364,5.319370297260179
1590514732.3722365,-0.03819536111634925,-2.5940819661826637,8.170189201081149,0.16666666666666666,0.54,-0.6,-0.23094695774553897,-0.946194464790573,5.147037084664279
1590514732.3822365,-0.11345860246623608,-1.6626221107137136,5.194412000213527,0.16666666666666666,0.54,-0.6,1.314687333792476,-0.6372276711685214,5.047437075835625
1590514732.3922365,-3.1709949502419237,-3.1557438357032686,15.074600773310234,0.16666666666666666,0.54,-0.6,2.2984094528911414,-0.36745629076573366,4.951246534387907
1590514732.4022365,-3.99360848565205,-2.216833033431196,13.697712851595796,0.19155292483505382,0.5388856899327588,-0.5970285064873567,2.303311191546939,-0.4960132467567786,4.689695795060598
1590514732.4122365,0.46667059054345694,0.12135412988032175,0.7820341377280754,0.2411111111111111,0.5366666666666666,-0.5911111111111111,0.7849759132240393,-0.6128038223443777,4.258228635862799
1590514732.4222364,-0.2384525972278293,-0.9217268873637467,5.40614671645808,0.2411111111111111,0.5366666666666666,-0.5911111111111111,-0.6138534260753122,-0.009006950576911088,3.9760065297289113
1590514732.4322364,-1.1911228125122342,-2.8978761304466976,11.114756684806013,0.2411111111111111,0.5366666666666666,-0.5911111111111111,-0.9056284876636596,0.03157558593234472,3.8263176370856633
1590514732.4422364,-1.2799867062709014,-3.226227904368236,12.441977649917952,0.2411111111111111,0.5366666666666666,-0.5911111111111111,0.04284520388601942,-0.39024330196895873,3.750982393780702
1590514732.4522364,-1.4458918089647814,-2.6830616328708645,8.701640875133403,0.29785248428791655,0.47815212557808606,-0.6029322305229455,0.24236081526984013,-0.2438165417549926,3.763317304316226
1590514732.4622364,-0.58,-0.97,2.28,0.3477777777777778,0.4266666666666667,-0.6133333333333333,0.07744898555724837,-0.2999784651865254,3.730641276137879
1590514732.4722364,-0.6218599690174468,-1.890919318383828,5.100315412550474,0.3477777777777778,0.4266666666666667,-0.6133333333333333,0.03920694099693861,-0.2982661348330787,3.776303418896458
1590514732.4822364,-1.1273298189319276,-2.963664909465964,8.41878982351593,0.3477777777777778,0.4266666666666667,-0.6133333333333333,-0.008960413571829126,-0.3111882953410088,3.8532446056424097
1590514732.4922364,-1.3600304228332918,-3.201573610029247,9.383106656280772,0.3477777777777778,0.4266666666666667,-0.6133333333333333,-0.06997708086768406,-0.3274208889748916,3.8658500249732812
1590514732.5022364,-1.0086612483649564,-3.263217324848253,9.97488631854323,0.3477777777777778,0.4266666666666667,-0.6133333333333333,-0.16613437305865106,-0.3341451751420921,3.8295388796703986
1590514732.5122364,-1.1278344776396363,-2.9858879198367045,8.188515494525886,0.4088888888888889,0.36,-0.6266666666666667,-0.026384380993743375,-0.28904627203360855,3.8761464432441772
1590514732.5222363,-1.0696258747716871,-3.060161717323045,8.657027110226363,0.4088888888888889,0.36,-0.6266666666666667,-0.14496578524674672,-0.31561186324072554,3.869347751810534
1590514732.5322363,-0.7813776794357626,-2.1394534642511407,8.661636288203567,0.4088888888888889,0.36,-0.6266666666666667,-0.31842447255189754,-0.21061656960365463,2.4424332698128497
1590514732.5422363,-0.811299652245286,-0.09720694645441386,9.301016480549496,0.4088888888888889,0.36,-0.6266666666666667,-0.2147542502429085,0.04351836856437494,-0.5384909471983859
1590514732.5522363,-1.6739206326145162,0.05680849297440904,12.06683485191258,0.4290272790795819,0.339861609809307,-0.6311039390815651,0.5537970224546627,0.06117909987819858,-1.3412850637681086
1590514732.5622363,-1.2686483283657126,0.39209501921212353,8.4626221855137,0.4744444444444445,0.29444444444444445,-0.6411111111111111,0.7061393004873905,-0.01799908004795432,-1.0963065595134716
1590514732.5722363,-1.2044522923629943,-2.1444251750015764,9.967146213028947,0.4744444444444445,0.29444444444444445,-0.6411111111111111,-0.2710575535168343,0.03277964731215649,-0.9791660014566228
1590514732.5822363,-2.2476662242065886,-3.049694300309722,14.502859498813402,0.4744444444444445,0.29444444444444445,-0.6411111111111111,-0.6617461912433517,0.3787151145937365,-0.9049622734107597
1590514732.5922363,-0.7993185257817662,-2.480450195041886,8.966592628908831,0.4744444444444445,0.29444444444444445,-0.6411111111111111,0.1111375967472864,0.06407815276009514,-0.7637339194593622
1590514732.6022363,-0.6269194639777099,-3.0302977311927823,8.481830171155632,0.47679480488847614,0.2913106305190689,-0.6442449250364867,0.10724086666704188,0.08441444014599234,-0.6776161508771817
1590514732.6122363,-1.475887662988967,-8.924335864737069,9.652887233127954,0.4811111111111111,0.2855555555555556,-0.65,-0.09283284125812691,0.04885449541925846,-0.7347885542288485
1590514732.6222363,-1.0833016091832137,-9.573593223933617,8.53657511730866,0.4811111111111111,0.2855555555555556,-0.65,0.04338314501882039,0.08639636592720638,-1.266248465994727
1590514732.6322362,-0.0242201834862385,-2.920486748216106,8.658575433231396,0.4811111111111111,0.2855555555555556,-0.65,0.07852897474939893,0.1280491896070878,-1.775242033727191
1590514732.6422362,-0.43596741976146614,-2.623951129642199,9.223846407446912,0.4811111111111111,0.2855555555555556,-0.65,0.012010562026884039,0.15795559740443127,-1.7634664900205057
1590514732.6522362,-0.44568560365491383,-2.7274804859560344,9.329498268832845,0.4811111111111111,0.2915607593006131,-0.6497497831772893,0.006129087441034766,0.14330257242050976,-1.6654067393086005
1590514732.6622362,-0.19309249746916127,-2.8030786247234825,8.373294964568258,0.4811111111111111,0.31222222222222223,-0.6488888888888888,0.0746162447216409,0.12301639549814145,-1.5842803629461062
1590514732.6722362,-0.03185720500797601,-4.2963155604969305,8.506864697636196,0.4811111111111111,0.31222222222222223,-0.6488888888888888,0.016193092158804278,0.13120684763419269,-1.689062431660414
1590514732.6822362,0.09296229884013892,-4.011320108041855,8.480632589599837,0.4811111111111111,0.31222222222222223,-0.6488888888888888,0.03973105448768788,0.16442813852625715,-2.012154131896547
1590514732.6922362,-0.0519730201863354,-2.797718944099379,8.638508152173912,0.4811111111111111,0.31222222222222223,-0.6488888888888888,0.04626949744037485,0.19433061463751877,-2.2239551409109746
1590514732.7022362,-0.12937943925233644,-2.955680373831776,8.758353271028037,0.4742375908618899,0.3211005192107996,-0.6468841121495327,0.03638012411747573,0.1823822172805107,-2.2108197776494487
1590514732.7122362,0.16750415973377702,-4.210016638935108,8.744084858569051,0.4544444444444444,0.3466666666666667,-0.6411111111111111,0.048898622481259604,0.17721281147290385,-2.204402029009381
1590514732.7222362,0.45,-5.34,8.63,0.4544444444444444,0.3466666666666667,-0.6411111111111111,0.05126904677733343,0.1778054175469223,-2.261292212115153
1590514732.7322361,-5.394252421675516,-9.796650589713451,7.495431443278077,0.4544444444444444,0.3466666666666667,-0.6411111111111111,0.03079040429526757,0.24636435107383842,-2.4269021034918596
1590514732.7422361,-4.475923278181082,-15.425994583041604,7.881995062092345,0.4544444444444444,0.3466666666666667,-0.6411111111111111,-0.1752800902202405,0.0693715036014344,-0.1667680365877647
1590514732.7522361,2.695669749788112,-4.645421011902567,6.614601466632274,0.4544444444444444,0.3466666666666667,-0.6411111111111111,0.28246624360562683,-0.2754134881753239,0.8667439436525917
1590514732.762236,0.6097794211398699,-2.0488410047175827,7.49132347316078,0.3888888888888889,0.3911111111111111,-0.6411111111111111,0.14329167345376034,0.0006695472889121428,0.14141995915369074
1590514732.772236,0.2920633099352052,-3.321887823974082,9.608077753779698,0.3888888888888889,0.3911111111111111,-0.6411111111111111,-0.24635635740699252,0.02657515878804406,-0.3051871527228709
1590514732.782236,-0.3217626341223688,-5.309561798673109,9.793511344090424,0.3888888888888889,0.3911111111111111,-0.6411111111111111,-0.09938264505393567,0.11767373921590282,-0.4655117907276309
1590514732.792236,-1.737154230485707,-8.154086657383896,8.481182242607913,0.3888888888888889,0.3911111111111111,-0.6411111111111111,0.061758051722270446,0.025486270827654672,-0.526970102986463
1590514732.802236,0.842935704514364,-3.473121751025992,8.807015047879618,0.3929436084511324,0.3884079647362821,-0.6444900440796474,-0.004494939101280198,-0.00785696612311948,0.07175875855339682
1590514732.812236,-0.04765765397810816,-3.8135856069269725,8.519063061591243,0.4088888888888889,0.37777777777777777,-0.6577777777777778,0.019703743609857563,-0.008420033882699119,0.0622481044504684
1590514732.822236,0.02651702207257763,-4.189438832772166,8.629270482603816,0.4088888888888889,0.37777777777777777,-0.6577777777777778,0.0014401578119827882,-0.0014585219665702708,-0.017496142213980753
1590514732.832236,0.07210300429184549,-4.383682403433476,8.841038626609443,0.4088888888888889,0.37777777777777777,-0.6577777777777778,0.004132984612823481,-0.0003445714403078934,-0.002009375844838965
1590514732.842236,0.03,-4.31744756138316,8.64510487723368,0.4088888888888889,0.37777777777777777,-0.6577777777777778,-0.007937552880225542,-0.0009980214953737552,-0.0006962840926234037
1590514732.852236,0.02759097729064415,-4.2792721816748465,8.738318795615797,0.4070152045593899,0.3809898080569189,-0.6521567247892808,-0.006019417469559061,0.001090830782496456,-0.0005255672254196744
1590514732.862236,0.02580584761630419,-4.3516116952326085,8.704835085697825,0.4011111111111111,0.3911111111111111,-0.6344444444444445,-0.00183004421064651,0.0004575110526616275,-0.000915022105323255
1590514732.872236,0.030590649942987456,-4.383136450019004,8.746089699733941,0.4011111111111111,0.3911111111111111,-0.6344444444444445,0.005731857621382366,-0.000406563536798185,0.0011552606964455054
1590514732.882236,0.026970915488130867,-4.36284653521899,8.683941830976263,0.4011111111111111,0.3911111111111111,-0.6344444444444445,0.0072456544982437265,0.001090830782496456,-0.0014610787229284363
1590514732.892236,0.05455813564984965,-4.3281395478338345,8.748186045216617,0.4011111111111111,0.3911111111111111,-0.6344444444444445,0.002978220728945873,0.001090830782496456,-0.0015880462502615043
1590514732.902236,0.03704101236217841,-4.386529958792739,8.742347004120726,0.4011111111111111,0.3911111111111111,-0.6344444444444445,-0.0014803633084154973,0.001090830782496456,0.000322775480036226
1590514732.912236,0.030262717136431066,-4.360262717136432,8.74,0.4088888888888889,0.3977777777777778,-0.65,-0.005406390589230891,0.0,-0.003253387018188813
1590514732.922236,0.05927739581871755,-4.388193489546794,8.739458046864039,0.4088888888888889,0.3977777777777778,-0.65,9.852986056294282e-05,1.9705972112588565e-05,-0.001130242726721633
1590514732.932236,0.022377462676392394,-4.309019701411139,8.71950985070557,0.4088888888888889,0.3977777777777778,-0.65,0.004935472018153233,0.0016095126768255023,-0.0022351285588312754
1590514732.942236,0.02952570045674552,-4.366205603653964,8.748102801826983,0.4088888888888889,0.3977777777777778,-0.65,0.003375968455870568,0.0031690162391081684,0.0008838785657340562
1590514732.952236,0.03933321213590272,-4.366666060679513,8.740666787864097,0.4075553131606944,0.39644420204958325,-0.649407299676358,-0.002181661564992912,-0.0008726249642307427,-0.0012363013280069315
1590514732.962236,0.030860905748798125,-4.3243045287439905,8.749139094251202,0.39061070038648515,0.379499589275374,-0.6418763606655983,-0.002181661564992912,0.001899930817507765,-0.003084671849165937
1590514732.972236,0.01562806833802448,-4.341557897492963,8.693115794985927,0.3888888888888889,0.37777777777777777,-0.6411111111111111,0.0015348175472776932,-0.0003069635094555386,0.001090830782496456
1590514732.982236,0.03,-4.33388064300755,8.666194083508808,0.3888888888888889,0.37777777777777777,-0.6411111111111111,0.004949439490032967,-0.0013431879937211124,0.0013431879937211124
1590514732.992236,0.03223562480221887,-4.375528750395563,8.728942499208875,0.3888888888888889,0.37777777777777777,-0.6411111111111111,0.00205314817130292,-0.0019377927297556223,0.0016939238945183326
1590514733.002236,0.040144247209873474,-4.360360618024684,8.759855752790127,0.3888888888888889,0.37792202498765126,-0.6410710424417018,-0.0022209988891977147,-0.0010829633176554954,0.0
1590514733.0122359,0.0581454302868579,-4.40072715143429,8.734436290860573,0.3888888888888889,0.3977777777777778,-0.6355555555555555,-0.006624304611784682,-0.0004046043462762038,-0.0006069065194143058
1590514733.0222359,0.050373026462085836,-4.361865132310429,8.711119079386258,0.3888888888888889,0.3977777777777778,-0.6355555555555555,-0.0023851159387573992,-0.0021002798154871167,-0.0031504197232306757
1590514733.0322359,0.04796770716267976,-4.369838535813399,8.662355221210523,0.3888888888888889,0.3977777777777778,-0.6355555555555555,0.00502838940578462,-0.0008691420238968574,0.0
1590514733.0422359,0.0420431144518508,-4.333064671677776,8.756129343355552,0.3888888888888889,0.3977777777777778,-0.6355555555555555,0.007190077050226747,0.0,-0.00011143460681211136
1590514733.0522358,0.05394015033328606,-4.35091022549993,8.79182045099986,0.3888888888888889,0.3977777777777778,-0.6355555555555555,0.004594546458239859,0.0,-0.0007603172548088332
1590514733.0622358,0.06,-4.36,8.78613660082718,0.3933080368838553,0.38805565218885146,-0.6346717259565623,-0.002801391410809962,0.0017353953595140943,-0.001090830782496456
1590514733.0722358,0.03,-4.4130093716762655,8.65580562300576,0.3944444444444444,0.3855555555555555,-0.6344444444444445,-0.005149130209901444,0.0,-0.0007858070799156205
1590514733.0822358,0.03,-4.370924123537557,8.630554474122535,0.3944444444444444,0.3855555555555555,-0.6344444444444445,-0.0033128148435532336,0.0,0.0010505082864325904
1590514733.0922358,0.03,-4.338660376637764,8.716183964246152,0.3944444444444444,0.3855555555555555,-0.6344444444444445,0.001855441533816597,-0.0008546556468843274,-0.0014731361581565266
1590514733.1022358,0.020268972752996536,-4.3883861634820205,8.778924108988013,0.3944444444444444,0.3855555555555555,-0.6344444444444445,0.0053954731607579924,-0.001090830782496456,-0.0011201711583585996
1590514733.1122358,0.0446134036054381,-4.357182128526082,8.788204467868479,0.39991408969009734,0.3901135932602663,-0.6535882028042297,0.001874279470506128,-0.0019857993929904938,-0.00019586217200241805
1590514733.1222358,0.041650970817346825,-4.383396116730612,8.698443204278574,0.4011111111111111,0.3911111111111111,-0.6577777777777778,-0.0040031371722727745,0.0005402789365695737,-0.0014612896495668137
1590514733.1322358,0.04840260324347205,-4.3531947935130555,8.65597396756528,0.4011111111111111,0.3911111111111111,-0.6577777777777778,-0.0013104167880525694,0.0025754965259370943,0.0020074126096048433
1590514733.1422358,0.04381384024721416,-4.360465399381964,8.747627680494428,0.4011111111111111,0.3911111111111111,-0.6577777777777778,0.003480505064548623,-0.0008828180654372011,0.0008828180654372011
1590514733.1522357,0.05952430002809252,-4.321189249929769,8.779048600056184,0.4011111111111111,0.3911111111111111,-0.6577777777777778,0.004337377721356355,-2.5945408629469112e-05,2.5945408629469112e-05
1590514733.1622357,0.01696022660767376,-4.376519886696163,8.78825994334808,0.3888888888888889,0.3977777777777778,-0.6355555555555555,0.00014177710289627846,0.0016122293572328054,-0.0009010200465764204
1590514733.1722357,0.04657326643509585,-4.3668534671298085,8.754299498263219,0.3888888888888889,0.3977777777777778,-0.6355555555555555,-0.004176423807185261,-0.001090830782496456,-0.0001868993228005635
1590514733.1822357,0.0322972749793559,-4.386216350123865,8.650675474814204,0.3888888888888889,0.3977777777777778,-0.6355555555555555,-0.002520710868487269,-0.001341424608830489,-0.001090830782496456
1590514733.1922357,0.041614079566568846,-4.34,8.728070397832845,0.3888888888888889,0.3977777777777778,-0.6355555555555555,0.000704275070644733,-0.0013013177266869957,-0.001090830782496456
1590514733.2022357,0.04889749422612743,-4.34,8.764487471130638,0.3888888888888889,0.3977777777777778,-0.6355555555555555,0.0038822642355777113,0.0026711687294792273,-0.001090830782496456
1590514733.2122357,0.03471573342493988,-4.35528426657506,8.78528426657506,0.40417315546394905,0.3977777777777778,-0.6398011851597389,0.003529695706587961,0.0024388649240915054,-0.0002572033590985933
1590514733.2222357,0.056881312765895864,-4.351039562411367,8.736237374468208,0.4088888888888889,0.3977777777777778,-0.6411111111111111,-0.0006372361110378536,0.0012042294503611065,-0.0029322963438954165
1590514733.2322357,0.04444904000162196,-4.388877399995946,8.636694240009732,0.4088888888888889,0.3977777777777778,-0.6411111111111111,-0.004483523955216816,-0.0006055158038637241,-0.0007279724679490978
1590514733.2422357,0.04,-4.361767973533478,8.66352483705313,0.4088888888888889,0.3977777777777778,-0.6411111111111111,-0.002117780204730182,-0.001090830782496456,0.0
1590514733.2522357,0.04,-4.359138072010602,8.762242648095413,0.4088888888888889,0.3977777777777778,-0.6411111111111111,0.0018995962900535321,0.0009027872658702023,0.0
1590514733.2622356,0.03409286607101523,-4.31818573214203,8.805907133928985,0.4011111111111111,0.3911111111111111,-0.6355555555555555,0.001090830782496456,0.00029764161992658263,0.0009420099725331646
1590514733.2722356,0.056624508423556826,-4.371125163858815,8.764247705976597,0.4011111111111111,0.3911111111111111,-0.6355555555555555,0.0009680944452417327,0.0019361888904834653,0.0
1590514733.2822356,0.03210456366656894,-4.381052281833284,8.647365972832992,0.4011111111111111,0.3911111111111111,-0.6355555555555555,-0.00011478614156085056,0.0,0.0
1590514733.2922356,0.048499755692367835,-4.389249877846184,8.704749144923289,0.4011111111111111,0.3911111111111111,-0.6355555555555555,-0.0010090051488949434,0.0,0.0
1590514733.3022356,0.05,-4.353110508737112,8.765334236894331,0.4011111111111111,0.3911111111111111,-0.6355555555555555,0.003939193295027559,0.0030180144465144095,-0.001006004815504803
1590514733.3122356,0.047534714089738014,-4.348767357044869,8.771371499314082,0.4088888888888889,0.3977777777777778,-0.65,0.005050772448696994,0.001090830782496456,-0.001090830782496456
1590514733.3222356,0.03350085321377187,-4.341750426606886,8.722252986248202,0.4088888888888889,0.3977777777777778,-0.65,0.002754487332580513,0.001090830782496456,-0.001090830782496456
1590514733.3322356,0.05,-4.363892660411367,8.633892660411368,0.4088888888888889,0.3977777777777778,-0.65,-0.0031663365024262474,0.002075505719929791,-0.001090830782496456
1590514733.3422356,0.05,-4.3921547091622735,8.662154709162273,0.4088888888888889,0.3977777777777778,-0.65,-0.002395608683578668,0.0013047779010822121,-0.001090830782496456
1590514733.3522356,0.032624154146117676,-4.391312077073058,8.722127537561647,0.4088888888888889,0.3977777777777778,-0.65,0.002556865317339153,0.0029862415354292822,-0.00014312540603004305
1590514733.3622355,0.03775892857142857,-4.351205357142857,8.7843125,0.3933710317460318,0.3926051587301587,-0.6560347222222223,0.004965227972470475,0.003272492347489368,-0.0008463678124905537
1590514733.3722355,0.04,-4.321592129184045,8.794029515559833,0.3888888888888889,0.3911111111111111,-0.6577777777777778,0.00410281160143582,0.0021382429769012446,-0.00410281160143582
1590514733.3822355,0.04,-4.357475350229922,8.659467436637794,0.3888888888888889,0.3911111111111111,-0.6577777777777778,-0.0017685667123593495,0.00115967992460205,0.0017685667123593495
1590514733.3922355,0.04,-4.370669333019645,8.693346665098224,0.3888888888888889,0.3911111111111111,-0.6577777777777778,-0.001236856594810415,0.0021086486588359323,-0.001090830782496456
1590514733.4022355,0.04,-4.378892483237266,8.73446241618633,0.3888888888888889,0.3911111111111111,-0.6577777777777778,-0.0030308696721051986,0.0012116421201885407,-0.001090830782496456
1590514733.4122355,0.04971038527656993,-4.34,8.750724036808576,0.4011111111111111,0.3855555555555555,-0.6355555555555555,0.0022290496633001703,0.00107503474972737,-0.0021658655322238257
1590514733.4222355,0.03274486803519062,-4.34,8.793137829912023,0.4011111111111111,0.3855555555555555,-0.6355555555555555,0.005005025930480807,0.00014970932733382437,-0.0012405401098302803
1590514733.4322355,0.02958419243986254,-4.332910652920963,8.681663230240549,0.4011111111111111,0.3855555555555555,-0.6355555555555555,0.0009547580766386506,-0.0010454732138771876,-4.5357568619268444e-05
1590514733.4422355,0.021576746849942728,-4.388962772050402,8.71369301260023,0.4011111111111111,0.3855555555555555,-0.6355555555555555,-0.0016656723649563583,-0.00017199640001218462,-0.0009188343824842714
1590514733.4522355,0.05160516994675236,-4.3762961225399355,8.727901292486688,0.4011111111111111,0.3855555555555555,-0.6355555555555555,0.0004040303548032897,-0.0008618973065987338,0.0006329638307010117
1590514733.4622355,0.058961455030869345,-4.331038544969131,8.739480727515435,0.3888888888888889,0.3855555555555555,-0.6577777777777778,0.00344242387068955,-0.0021250177239261845,-5.6643841066727365e-05
1590514733.4722354,0.044964124812280994,-4.345035875187719,8.732482062406142,0.3888888888888889,0.3855555555555555,-0.6577777777777778,0.005732731671970153,-0.0013615817901659834,-0.0008200797748269286
1590514733.4822354,0.05963144255686726,-4.350368557443132,8.670552836164699,0.3888888888888889,0.3855555555555555,-0.6577777777777778,0.0010305257118833492,0.001090830782496456,-0.001090830782496456
1590514733.4922354,0.045423349875510236,-4.36457665012449,8.691864975186734,0.3888888888888889,0.3855555555555555,-0.6577777777777778,-0.0012942680167246786,0.001090830782496456,-0.001090830782496456
1590514733.5022354,0.04,-4.37,8.71544550327576,0.3888888888888889,0.3855555555555555,-0.6577777777777778,-0.0038665046074277294,0.0002484092612790471,-0.0002484092612790471
1590514733.5122354,0.04,-4.385753789618741,8.751507579237483,0.3932649415607614,0.3899316082274281,-0.64464961976216,0.0007920924671430398,0.0034369437314192425,-0.0017184718657096212
1590514733.5222354,0.04003817065364281,-4.359923658692715,8.759656464117214,0.3944444444444444,0.3911111111111111,-0.6411111111111111,0.00545415391248228,-0.0010866670100982973,0.0
1590514733.5322354,0.04998221863960739,-4.340035562720785,8.670160032243533,0.3944444444444444,0.3911111111111111,-0.6411111111111111,0.00545415391248228,-1.9396455270925643e-06,0.0
1590514733.5422354,0.04996852842623619,-4.36,8.749968528426237,0.3944444444444444,0.3911111111111111,-0.6411111111111111,0.0010839647502094204,0.002181661564992912,-0.0021747955327058766
1590514733.5522354,0.04220375067108503,-4.36,8.742203750671084,0.3944444444444444,0.3911111111111111,-0.6411111111111111,-0.0006100469687031016,0.002181661564992912,-0.00048078381379335435
1590514733.5622354,0.039601198661768026,-4.369601198661768,8.729202397323537,0.38222222222222224,0.3977777777777778,-0.6355555555555555,-0.0041893132196481365,-0.004145810742063715,-0.0010038258273276123
1590514733.5722353,0.030992385213768188,-4.360992385213769,8.711984770427538,0.38222222222222224,0.3977777777777778,-0.6355555555555555,-0.0004330097357090673,0.0005495686128601214,0.0008743259146419223
1590514733.5822353,0.04036077284495158,-4.369278454310097,8.671803864224758,0.38222222222222224,0.3977777777777778,-0.6355555555555555,0.0020635989275643116,0.002181661564992912,-7.870842495240033e-05
1590514733.5922353,0.049394649004770814,-4.350605350995229,8.720302675497615,0.38222222222222224,0.3977777777777778,-0.6355555555555555,-0.001090830782496456,0.0020495944650307384,-0.002115628015011825
1590514733.6022353,0.03473515893958723,-4.365264841060413,8.727632420530206,0.38222222222222224,0.3977777777777778,-0.6355555555555555,-0.001090830782496456,-0.001148610138729907,-0.0005165257131315025
1590514733.6122353,0.04973931178310741,-4.37,8.75960896767466,0.38880199281659134,0.39119800718340864,-0.6410386977175297,-1.4218336581027892e-05,-2.8436673162055785e-05,0.0
1590514733.6222353,0.043537011987499416,-4.3506110359624985,8.753537011987499,0.3888888888888889,0.3911111111111111,-0.6411111111111111,0.0014100052541882453,0.0014100052541882453,0.0014100052541882453
1590514733.6322353,0.032220015402699524,-4.34,8.687760123221596,0.3888888888888889,0.3911111111111111,-0.6411111111111111,0.0004843322277761817,0.0004843322277761817,0.0013329968963845468
1590514733.6422353,0.042729430655915106,-4.359094145983873,8.695458861311831,0.3888888888888889,0.3911111111111111,-0.6411111111111111,0.0,-0.0013885654803126248,-0.0002977346978161688
1590514733.6522353,0.037055938697318005,-4.3635279693486595,8.729416091954024,0.3888888888888889,0.3911111111111111,-0.6411111111111111,-0.0014119780519486693,-0.0014756725390185773,-0.001090830782496456
1590514733.6622353,0.03696789999084165,-4.366967899990842,8.760903699972525,0.3842436222283278,0.38724005556064345,-0.6411111111111111,-0.0014215815850562273,0.0004293291773769135,-0.0018509107624331408
1590514733.6722353,0.03116787198030466,-4.3435036159409135,8.761167871980305,0.38222222222222224,0.3855555555555555,-0.6411111111111111,-0.00012739507061314205,-0.0017994763531534858,-0.0002547901412262841
1590514733.6822352,0.039130028959146065,-4.34,8.686959768326831,0.38222222222222224,0.3855555555555555,-0.6411111111111111,0.0,-0.00018979823824879106,0.0009959316633720604
1590514733.6922352,0.06993022903079024,-4.35006977096921,8.73006977096921,0.38222222222222224,0.3855555555555555,-0.6411111111111111,-1.522166418772546e-05,-0.0010832199504025933,0.0010832199504025933
1590514733.7022352,0.0628616209110673,-4.357138379088933,8.737138379088933,0.38222222222222224,0.3855555555555555,-0.6411111111111111,-0.0015573527294673606,-0.0003121544177627757,0.0003121544177627757
1590514733.7122352,0.03170369530718658,-4.369432101564271,8.74,0.40003841406584545,0.40337174739917886,-0.6568312803848964,-0.002181661564992912,0.0,0.0030866480189819805
1590514733.7222352,0.03,-4.379651090640065,8.72069781871987,0.4011111111111111,0.4044444444444445,-0.6577777777777778,-0.003234432240477535,0.0,0.0011669509965201216
1590514733.7322352,0.039346370520871816,-4.370653629479128,8.67326814739564,0.4011111111111111,0.4044444444444445,-0.6577777777777778,-0.001233430613732486,0.002039061733756882,0.001090830782496456
1590514733.7422352,0.04954509957048028,-4.36045490042952,8.69863529871144,0.4011111111111111,0.4044444444444445,-0.6577777777777778,0.0020327957475456213,-0.003024382651743884,0.0021320396258438148
1590514733.7522352,0.04274719507781397,-4.352747195077813,8.758022439377488,0.4011111111111111,0.4044444444444445,-0.6577777777777778,-0.000982971582432022,-0.0024813340606331348,0.0013905032781366786
1590514733.7622352,0.045814160637858745,-4.355814160637859,8.785814160637859,0.39723500401920525,0.3934621410173779,-0.653255652837221,-0.0015474350251773574,-0.0015474350251773574,0.0004566042426809015
1590514733.7722352,0.05,-4.369813476435712,8.770373047128576,0.3944444444444444,0.3855555555555555,-0.65,-0.001090830782496456,-2.0346564558617383e-05,0.0005352421089689193
1590514733.7822351,0.043510683308652424,-4.373510683308653,8.711064099851914,0.3944444444444444,0.3855555555555555,-0.65,-0.0003829561420674569,-0.0010327931387905415,0.001798705422925455
1590514733.7922351,0.028523760830956355,-4.37,8.730166837091652,0.3944444444444444,0.3855555555555555,-0.65,-0.000625931747644218,-0.000929798069704476,0.002181661564992912
1590514733.8022351,0.03552722201667757,-4.37,8.76,0.3944444444444444,0.3855555555555555,-0.65,-0.0005262450577481693,-0.00169375717424486,0.0016170758402446251
1590514733.812235,0.04460157684415164,-4.359203153688303,8.765398423155847,0.39804339321501,0.3777578332193301,-0.6422022776637746,-0.0017666298466023176,-0.0020947391164211565,0.001090830782496456
1590514733.822235,0.03183285849952516,-4.36633428300095,8.761832858499526,0.4011111111111111,0.3711111111111111,-0.6355555555555555,-0.003272492347489368,0.0006909630882479926,0.00019993384712423167
1590514733.832235,0.0431980898478953,-4.356801910152105,8.694009550760523,0.4011111111111111,0.3711111111111111,-0.6355555555555555,-0.00255264821367746,-0.00034885748512735967,-0.0007198441338119078
1590514733.842235,0.05,-4.368290453758505,8.705726134396265,0.4011111111111111,0.3711111111111111,-0.6355555555555555,-0.0011840720657126244,-0.001090830782496456,0.0028995272146246946
1590514733.852235,0.04271403216657823,-4.362714032166578,8.739143871333688,0.4011111111111111,0.3711111111111111,-0.6355555555555555,0.0004987208160986394,-0.0018856065817940038,0.0016829407488942723
1590514733.862235,0.04904873164218959,-4.35095126835781,8.795243658210948,0.3840190624536419,0.39524106215695004,-0.6275122385402759,-0.0018703597228585764,-0.00020753456142289049,0.001090830782496456
1590514733.872235,0.0332985858931089,-4.375052121160336,8.741545050625882,0.38222222222222224,0.3977777777777778,-0.6266666666666667,-0.002181661564992912,-0.0009109208309508684,0.00017990995154558756
1590514733.882235,0.038560422242789605,-4.371439577757211,8.670077044300474,0.38222222222222224,0.3977777777777778,-0.6266666666666667,-0.002181661564992912,-0.0029584252012169066,0.00186759441872045
1590514733.892235,0.047677847792417204,-4.37,8.667677847792417,0.38222222222222224,0.3977777777777778,-0.6266666666666667,-0.0013441382934637975,-0.003272492347489368,0.0013441382934637975
1590514733.902235,0.03729486023444545,-4.357294860234445,8.720820559062219,0.38222222222222224,0.3977777777777778,-0.6266666666666667,0.0002950849727222154,-0.0005006608370520253,0.001090830782496456
1590514733.912235,0.03505717995978552,-4.334828460120644,8.770228719839142,0.3884032199508489,0.3977777777777778,-0.6384667532394996,0.0005391780252206322,0.001090830782496456,-0.0005641274893310154
1590514733.922235,0.035342034431974,-4.338631862272105,8.780684068863946,0.3944444444444444,0.3977777777777778,-0.65,-0.0010162104450822705,-0.00043348488512694986,-0.0011654511199106414
1590514733.932235,0.03,-4.36542987012987,8.704841558441558,0.3944444444444444,0.3977777777777778,-0.65,-0.003958582409779022,-0.00040474072020680175,-0.0005923069482620366
1590514733.942235,0.037173624819539786,-4.37,8.707388998556318,0.3944444444444444,0.3977777777777778,-0.65,-0.003106590679911904,0.0003083097049729974,-0.0003083097049729974
1590514733.952235,0.04,-4.3565317762651175,8.750202335602323,0.3944444444444444,0.3977777777777778,-0.65,-0.0014470839132149742,0.0007345776517779378,0.0007345776517779378
1590514733.962235,0.04,-4.35,8.795758648869517,0.3944444444444444,0.3977777777777778,-0.6436429068676413,0.0004694346145976305,0.001090830782496456,0.00031069808394941273
1590514733.972235,0.026900339067667922,-4.35,8.744501695338341,0.3944444444444444,0.3977777777777778,-0.6411111111111111,0.0003763551132337532,0.0003763551132337532,0.0
1590514733.982235,0.025023077989738712,-4.365069233969216,8.67483845407183,0.3944444444444444,0.3977777777777778,-0.6411111111111111,-0.0016437984282262218,-0.0005479328094087406,0.0
1590514733.992235,0.03,-4.365689611163107,8.668620777673786,0.3944444444444444,0.3977777777777778,-0.6411111111111111,-0.0011911306604525385,-0.0005704903607372486,0.0005203404217592074
1590514734.002235,0.04623733419307295,-4.35,8.727062223655121,0.3944444444444444,0.3977777777777778,-0.6411111111111111,0.0016812369146126638,-0.0011808122642324155,0.0005004246503802482
1590514734.012235,0.05281664872622892,-4.357183351273771,8.771550053821313,0.3944444444444444,0.3977777777777778,-0.646698162101822,0.002181661564992912,0.00016908464228147443,0.000783582069091462
1590514734.022235,0.044357540953058563,-4.348715081906117,8.78,0.3944444444444444,0.3977777777777778,-0.6488888888888888,0.00033517115977911116,-0.00014016282097941107,-0.00014016282097941107
1590514734.032235,0.04,-4.35271807739052,8.703691535656878,0.3944444444444444,0.3977777777777778,-0.6488888888888888,-0.003865484844846794,-0.0017844942980840403,-0.00039716726690887155
1590514734.042235,0.04,-4.366637803118077,8.693189015590383,0.3944444444444444,0.3977777777777778,-0.6488888888888888,-0.0032819379216777024,-0.0014575895680580529,0.0007240719969348592
1590514734.052235,0.04,-4.37,8.721112472111642,0.3944444444444444,0.3977777777777778,-0.6488888888888888,-0.001575570232542346,-0.00048473945004588997,-0.00012135188240467603
1590514734.0622349,0.04,-4.3637914106907045,8.754834357237183,0.38685616862197214,0.39018950195530544,-0.6440599860927702,0.00026367328439513577,0.0,0.00026367328439513577
1590514734.0722349,0.04697238802348717,-4.380917164070461,8.776972388023486,0.38222222222222224,0.3855555555555555,-0.6411111111111111,0.0026119698792023407,0.0022817086450588266,-0.0011908778625623706
