time,acc_x,acc_y,acc_z,mag_x,mag_y,mag_z,gyr_x,gyr_y,gyr_z
1590514935.0998516,0.06,-4.31,8.65,0.4133333333333333,0.26666666666666666,-0.5933333333333334,0.002181661564992912,0.001090830782496456,-0.001090830782496456
1590514935.1098516,0.07876644295302014,-4.31938322147651,8.715682550335572,0.4133333333333333,0.26666666666666666,-0.5933333333333334,-0.0019125411652306987,-0.0009562705826153494,-0.002114381465052359
1590514935.1198516,0.06687827606290041,-4.31,8.763121723937099,0.41749563191613276,0.26423865916003364,-0.5954144826247331,-0.0010215817695132798,-0.004773099399473427,-0.0007503035259920294
1590514935.1298516,0.05148022366299612,-4.305740111831498,8.752960447325993,0.4266666666666667,0.2588888888888889,-0.6,-0.0037371740619088043,-0.0018784472042310588,-0.0013940451432583093
1590514935.1398516,0.04,-4.3044369741983175,8.725563025801684,0.4266666666666667,0.2588888888888889,-0.6,-0.0038793243263191045,0.0,-0.0023044947401559294
1590514935.1498516,0.0546232755571277,-4.3136558188892815,8.741934913335692,0.4266666666666667,0.2588888888888889,-0.6,-0.0008797644796929324,0.0,-0.0006920428045303834
1590514935.1598516,0.07517067970148654,-4.32,8.818634562388107,0.4266666666666667,0.2588888888888889,-0.6,0.0037992894715047146,0.0005267971240153465,0.0
1590514935.1698515,0.07517232592215073,-4.309655348155698,8.839310696311397,0.4301148839481005,0.26291180905056166,-0.5890806452754596,0.0026706834300899087,-0.0006018089173994593,0.0
1590514935.1798515,0.07476335698785995,-4.305236643012139,8.793816784939299,0.43333333333333335,0.26666666666666666,-0.5788888888888889,0.0016620599219551889,-0.0010392032860754461,-0.0005712291394587329
1590514935.1898515,0.05945843828715366,-4.315270780856423,8.706750629722922,0.43333333333333335,0.26666666666666666,-0.5788888888888889,0.0033315675661887982,0.0,5.907521869943032e-05
1590514935.1998515,0.06786037624257865,-4.32,8.66786037624258,0.43333333333333335,0.26666666666666666,-0.5788888888888889,0.004363323129985824,0.0006494216064124393,-0.0008574340367408621
1590514935.2098515,0.08,-4.316093166194905,8.699534169025474,0.43333333333333335,0.26666666666666666,-0.5788888888888889,0.005215662045324906,-0.00018767759051216827,-0.0017554921073233704
1590514935.2198515,0.08,-4.311403877752218,8.735615511008874,0.43239741483185457,0.2655747617482747,-0.5768610654690182,0.006391845388280581,-0.002641079485087377,-0.0015502487025909214
1590514935.2298515,0.08524523160762942,-4.314754768392371,8.733283378746593,0.4266666666666667,0.2588888888888889,-0.5644444444444444,0.004881987902589724,-0.004881987902589724,-0.0037911571200932685
1590514935.2398515,0.08459893675240403,-4.31,8.683796810257212,0.4266666666666667,0.2588888888888889,-0.5644444444444444,0.004363323129985824,-0.005541652339723415,-0.003272492347489368
1590514935.2498515,0.06880124072497262,-4.304400620362486,8.725993796375137,0.4266666666666667,0.2588888888888889,-0.5644444444444444,0.003141727995689069,-0.00532338956068198,-0.002050897213192613
1590514935.2598515,0.08061611196577989,-4.3,8.79061611196578,0.4266666666666667,0.2588888888888889,-0.5644444444444444,0.0016194443263012562,-0.0026766714139108564,-0.001090830782496456
1590514935.2698514,0.09438854933918404,-4.3028057253304075,8.821222901321633,0.43258986458641685,0.2588888888888889,-0.5644444444444444,0.0013968879382603625,-0.0004787164709686427,-0.0004787164709686427
1590514935.2798514,0.07976610586787033,-4.309064423471481,8.84929831760361,0.4477777777777778,0.2588888888888889,-0.5644444444444444,0.002130633781158445,0.0012439141339998568,0.001090830782496456
1590514935.2898514,0.07982506077164406,-4.283100081028858,8.77087469614178,0.4477777777777778,0.2588888888888889,-0.5644444444444444,-0.0003572492909869239,0.00835031405944904,0.001090830782496456
1590514935.2998514,0.09657276827260362,-4.313427231727396,8.680281695182188,0.4477777777777778,0.2588888888888889,-0.5644444444444444,-0.0007169777957972089,0.009443624055768858,-3.0728177601285506e-05
1590514935.3098514,0.09,-4.316075690249138,8.719621548754306,0.4477777777777778,0.2588888888888889,-0.5644444444444444,0.0004280757876290451,0.007870494684713557,-0.0017535857773638668
1590514935.3198514,0.08428270929743374,-4.3138115271350435,8.75,0.44375449913523113,0.2616416584864208,-0.5631739353994297,0.0008829442261351205,0.0063370981386174,-0.0006750576697737849
1590514935.3298514,0.06417229094288686,-4.321655418114227,8.75,0.4266666666666667,0.2733333333333333,-0.5577777777777778,0.00045512633940321477,0.0027233958760629912,0.0006357044430932412
1590514935.3398514,0.06498505832074805,-4.31,8.674775874811221,0.4266666666666667,0.2733333333333333,-0.5577777777777778,0.0027319666093422053,-0.0016378760581117057,-0.0005470452756152497
1590514935.3498514,0.06613956837874882,-4.31,8.642976978651241,0.4266666666666667,0.2733333333333333,-0.5577777777777778,0.0030238770942296114,-0.004190830618627231,-0.001090830782496456
1590514935.3598514,0.08314946865588979,-4.31,8.696298937311779,0.4266666666666667,0.2733333333333333,-0.5577777777777778,0.005528558774433517,-0.0068885384308139674,-0.0020470871280509144
1590514935.3698514,0.1,-4.31,8.742753662142185,0.4283671549522914,0.2733333333333333,-0.5594782660634025,0.008148026571957468,-0.009004888005056754,-0.003272492347489368
1590514935.3798513,0.09547037661965553,-4.31,8.793588870141033,0.43333333333333335,0.2733333333333333,-0.5644444444444444,0.004754808132407987,-0.010311582304107643,-0.0012960713009312103
1590514935.3898513,0.08416821725510516,-4.31,8.763345738040842,0.43333333333333335,0.2733333333333333,-0.5644444444444444,0.007817282321971328,-0.009636010197971967,-0.0020899132849850257
1590514935.3998513,0.08,-4.297487549993549,8.767537350019351,0.43333333333333335,0.2733333333333333,-0.5644444444444444,0.006679301415248974,-0.006679301415248974,-0.0016335300036889257
1590514935.4098513,0.08505537435273738,-4.300110748705475,8.795055374352737,0.43333333333333335,0.2733333333333333,-0.5644444444444444,0.0032483307280786623,-0.0032483307280786623,-0.001654367388302713
1590514935.4198513,0.08732779202405164,-4.31,8.805344415951897,0.4351148053172989,0.27155186134936776,-0.5644444444444444,-7.513990446235213e-05,0.0009496179196814582,-0.002689507004009964
1590514935.4298513,0.07978849196436007,-4.31,8.81936547589308,0.44,0.26666666666666666,-0.5644444444444444,-0.003203276504682948,0.006544984694978735,-0.001090830782496456
1590514935.4398513,0.08008452553546516,-4.31,8.724450584019475,0.44,0.26666666666666666,-0.5644444444444444,0.0,0.006544984694978735,-0.0005408052384486081
1590514935.4498513,0.08008491861965616,-4.3149575406901715,8.679830162760688,0.44,0.26666666666666666,-0.5644444444444444,0.0005407837990318254,0.005463417096915084,-0.0005407837990318254
1590514935.4598513,0.07317935465345825,-4.316820645346541,8.703179354653457,0.44,0.26666666666666666,-0.5644444444444444,0.001090830782496456,0.003322881752646144,-0.001784458367389576
1590514935.4698513,0.07727863413285409,-4.311360682933572,8.712721365867147,0.4381857560885694,0.26666666666666666,-0.5674681842968288,0.0013876857483282488,0.00034869336791697387,-0.0031240648645734716
1590514935.4798512,0.06,-4.316627057582453,8.726627057582453,0.4266666666666667,0.26666666666666666,-0.5866666666666667,0.003272492347489368,-0.004731254071650698,-0.0029175234483226602
1590514935.4898512,0.07468500594328409,-4.31,8.71118899643403,0.4266666666666667,0.26666666666666666,-0.5866666666666667,0.003272492347489368,-0.006735662434408495,-0.0034021917385411624
1590514935.4998512,0.10614553143398772,-4.306145531433987,8.716981279962086,0.4266666666666667,0.26666666666666666,-0.5866666666666667,0.0028520350512922506,-0.010237934338665221,-0.00024991619010222117
1590514935.5098512,0.1,-4.302073222969738,8.766219668909214,0.4266666666666667,0.26666666666666666,-0.5866666666666667,0.001955508021555997,-0.010003693651216899,0.001090830782496456
1590514935.5198512,0.0886852116666217,-4.3128286970833445,8.798486091250034,0.42855246472222974,0.2610092724999775,-0.5844665689351765,0.001090830782496456,-0.004693606783256612,0.00016514182663539408
1590514935.5298512,0.06431657910263254,-4.315683420897368,8.82,0.43333333333333335,0.2466666666666667,-0.5788888888888889,0.0015616965185197063,0.0004708657360232504,-0.0012399300929464112
1590514935.5398512,0.07509144625773777,-4.304908553742262,8.763994091164886,0.43333333333333335,0.2466666666666667,-0.5788888888888889,0.0010708803039195653,0.0016462214130331292,0.0005553906305366733
1590514935.5498512,0.07490925391940682,-4.3,8.720181492161187,0.43333333333333335,0.2466666666666667,-0.5788888888888889,0.0005553142530584226,0.0038476043241681794,-0.0011304262297372346
1590514935.5598512,0.07421119073976966,-4.304211190739769,8.73,0.43333333333333335,0.2466666666666667,-0.5788888888888889,0.001090830782496456,0.00545415391248228,-0.003272492347489368
1590514935.5698512,0.08,-4.306230511211877,8.741308466364371,0.4308203408079177,0.24876082710451308,-0.5788888888888889,0.002324393103804564,0.004220591591174171,-0.002861304907053332
1590514935.5798512,0.08505381310915054,-4.3,8.75494618689085,0.4266666666666667,0.25222222222222224,-0.5788888888888889,0.006017179602519482,-0.000574765889229853,-0.0027329470558374648
1590514935.5898511,0.09,-4.294732749993585,8.702594749942264,0.4266666666666667,0.25222222222222224,-0.5788888888888889,0.009359519011305842,-0.005570763725930235,-0.004996195881320017
1590514935.5998511,0.08064269501851631,-4.304035957472226,8.68339326245371,0.4266666666666667,0.25222222222222224,-0.5788888888888889,0.009887584193463575,-0.007635815477475192,-0.006034622879228243
1590514935.6098511,0.07,-4.317539416872847,8.722302915635764,0.4266666666666667,0.25222222222222224,-0.5788888888888889,0.007384606350976833,-0.00844103942287208,-0.0046489299670853905
1590514935.619851,0.07,-4.310756803958666,8.756215980206665,0.4266666666666667,0.25222222222222224,-0.5788888888888889,0.003685264874703862,-0.010660644308635864,-0.0024293250813216083
1590514935.629851,0.09,-4.31,8.787591168031934,0.43333333333333335,0.2588888888888889,-0.5788888888888889,0.0068077475010414395,-0.010948087383210198,-0.00270718717711832
1590514935.639851,0.09,-4.31,8.76732851143257,0.43333333333333335,0.2588888888888889,-0.5788888888888889,0.00740544131431847,-0.007175067151161748,-0.0034418264773589374
1590514935.649851,0.09,-4.306559437004559,8.72,0.43333333333333335,0.2588888888888889,-0.5788888888888889,0.005794370290069738,-0.005078846710027781,-0.0007506144049089975
1590514935.659851,0.09039595542465004,-4.29960404457535,8.72118786627395,0.43333333333333335,0.2588888888888889,-0.5788888888888889,0.0043849191482710605,-0.004428111184841533,-0.002203257583278148
1590514935.669851,0.10578216741241951,-4.28210891629379,8.78421783258758,0.43637954575769705,0.2605291571173924,-0.5774829446930287,0.004303918506994912,-0.00625553299089035,-0.0028123981852944207
1590514935.679851,0.09216181906433185,-4.294323638128664,8.802161819064333,0.4477777777777778,0.26666666666666666,-0.5722222222222222,0.0,-0.0006191950261842819,-0.0015624665388086303
1590514935.689851,0.09089783416244868,-4.3054489170812245,8.759938087893469,0.4477777777777778,0.26666666666666666,-0.5722222222222222,0.0014893384024482928,0.001090830782496456,-0.002776046213339937
1590514935.699851,0.09347829562714846,-4.308985530418099,8.717971060836197,0.4477777777777778,0.26666666666666666,-0.5722222222222222,0.003272492347489368,-0.0003794231940716349,0.0002687617292872393
1590514935.709851,0.10276695563488017,-4.31638347781744,8.75084956654768,0.4477777777777778,0.26666666666666666,-0.5722222222222222,0.0024834896030258426,-0.002181661564992912,0.00208898823079408
1590514935.719851,0.08824706446201773,-4.308247064462018,8.77701174215193,0.44310328300982504,0.26783529035865483,-0.5722222222222222,0.0012820463869527602,-0.002181661564992912,0.00019121560445630421
1590514935.729851,0.07062516509641631,-4.304687417451792,8.819374834903584,0.4211111111111111,0.2733333333333333,-0.5722222222222222,0.002181661564992912,-0.0016703436403103476,0.0016021487071790205
1590514935.739851,0.07348860107551314,-4.3010075992829915,8.762556994622434,0.4211111111111111,0.2733333333333333,-0.5722222222222222,0.001691202189460094,-0.0015812901580292739,-0.0007610946882039954
1590514935.749851,0.09,-4.294177485586295,8.700887427931479,0.4211111111111111,0.2733333333333333,-0.5722222222222222,0.001090830782496456,-0.0008145826037029716,-0.00208485819450259
1590514935.759851,0.08803393963451805,-4.301966060365482,8.735898181096447,0.4211111111111111,0.2733333333333333,-0.5722222222222222,0.001090830782496456,0.001090830782496456,0.000876366865805062
1590514935.769851,0.0820876986546068,-4.307912301345393,8.75373690403618,0.4211111111111111,0.2733333333333333,-0.5722222222222222,0.001090830782496456,0.001090830782496456,0.00022773259570215353
1590514935.779851,0.11983024183221747,-4.290084879083891,8.82970292320638,0.4332814627820665,0.2733333333333333,-0.5788605958609251,4.629435874934588e-06,0.003263233475739499,0.0010862013466215214
1590514935.789851,0.10003071672354949,-4.303353811149033,8.773415244596134,0.43333333333333335,0.2733333333333333,-0.5788888888888889,0.00036249336924597817,0.0025475056089974118,-0.0014533241517424341
1590514935.799851,0.07759639784023048,-4.292403602159769,8.715192795680462,0.43333333333333335,0.2733333333333333,-0.5788888888888889,0.001090830782496456,0.0005664461375461439,-0.001919469242517756
1590514935.809851,0.07,-4.3,8.702284058282126,0.43333333333333335,0.2733333333333333,-0.5788888888888889,0.0013399828908123878,-0.00096625472833849,-0.0011531188095754389
1590514935.819851,0.07391672263263936,-4.3,8.743916722632639,0.4317376315200358,0.27144750391761807,-0.5788888888888889,0.00545415391248228,0.0006635826210780992,-0.002039245511186793
1590514935.829851,0.09806121078384343,-4.3,8.768061210783843,0.4219009881991749,0.25982237999296426,-0.5788888888888889,0.00545415391248228,-0.001970172469217335,-0.0011613271477549816
1590514935.839851,0.10218226851544705,-4.292182268515447,8.78163050929919,0.4211111111111111,0.2588888888888889,-0.5788888888888889,0.006544984694978735,-0.0028958072666896563,-0.003510540914721616
1590514935.849851,0.10385380407757334,-4.302048731974142,8.692292391844854,0.4211111111111111,0.2588888888888889,-0.5788888888888889,0.007438912655970361,-0.0059011178929780925,-0.004363323129985824
1590514935.859851,0.08573708113415981,-4.31,8.74286854056708,0.4211111111111111,0.2588888888888889,-0.5788888888888889,0.01090830782496456,-0.008574543182898372,-0.005302050835409005
1590514935.8698509,0.09860294117647059,-4.30953431372549,8.75139705882353,0.4216802832244009,0.2598202614379085,-0.5782162309368192,0.010959106317286698,-0.01090830782496456,-0.007635815477475192
1590514935.8798509,0.08130705147983766,-4.292461965680109,8.772461965680108,0.43333333333333335,0.2788888888888889,-0.5644444444444444,0.009943458638547845,-0.01008603583739929,-0.00640240749612729
1590514935.8898509,0.1,-4.287354802418788,8.734258191534243,0.43333333333333335,0.2788888888888889,-0.5644444444444444,0.004539273475580457,-0.0055175083089344015,-0.0031598963983468565
1590514935.8998508,0.10326448263828303,-4.293471034723434,8.703057930553133,0.43333333333333335,0.2788888888888889,-0.5644444444444444,0.0003786311523435831,0.0007121996301528729,-0.001090830782496456
1590514935.9098508,0.10671891915941212,-4.283281080840588,8.741483782942058,0.43333333333333335,0.2788888888888889,-0.5644444444444444,-0.0005539651853805653,0.0018237511669156516,-0.0007329203844191957
1590514935.9198508,0.09427827789230153,-4.295721722107698,8.785026027376945,0.43333333333333335,0.2788888888888889,-0.5644444444444444,0.001481629981843427,0.0004666877220996569,0.0006241430603967991
1590514935.9298508,0.10882014687543301,-4.281179853124567,8.83823022031315,0.4266666666666667,0.26666666666666666,-0.5722222222222222,0.0035298963689098287,-6.435100535511516e-05,-0.003272492347489368
1590514935.9398508,0.09,-4.3,8.765087754843611,0.4266666666666667,0.26666666666666666,-0.5722222222222222,0.006819287818681593,-0.001090830782496456,-0.003272492347489368
1590514935.9498508,0.09871546798361677,-4.3,8.698715467983616,0.4266666666666667,0.26666666666666666,-0.5722222222222222,0.00640486398852143,-0.00267534757589504,-0.003589395706169085
1590514935.9598508,0.11992415176389286,-4.3,8.719924151763893,0.4266666666666667,0.26666666666666666,-0.5722222222222222,0.008718372500897275,-0.006531195096521449,-0.004360565210294366
1590514935.9698508,0.08334997163925127,-4.29,8.742233314426167,0.4274111048087225,0.26579815550093483,-0.5706092729144345,0.006301367882673042,-0.00545415391248228,-0.005088728694023739
1590514935.9798508,0.10714066931366989,-4.29,8.758093779542447,0.4326979265141489,0.2596301968446041,-0.5591544925526775,0.004571259525318198,-0.00545415391248228,-0.002493566157991473
1590514935.9898508,0.0984690392243279,-4.298469039224328,8.777752313794622,0.43333333333333335,0.2588888888888889,-0.5577777777777778,0.004196321215896046,-0.003606496175668924,-0.0015918365247657902
1590514935.9998507,0.09076685764654033,-4.29076685764654,8.716134861172323,0.43333333333333335,0.2588888888888889,-0.5577777777777778,0.0033561435401532657,-0.0052868515271544845,-0.004112369551994132
1590514936.0098507,0.11,-4.3156721717588775,8.786491742361685,0.43333333333333335,0.2588888888888889,-0.5577777777777778,0.004746014672466104,-0.004363323129985824,-0.0004720928266774505
1590514936.0198507,0.11237216500982201,-4.298813917495089,8.81118608250491,0.43096116832351133,0.25809816721894824,-0.5585684994477185,0.00166413544221794,-0.004104560068598338,-0.002440424626380398
1590514936.0298507,0.1321681026903464,-4.294336205380692,8.824336205380693,0.4133333333333333,0.25222222222222224,-0.5644444444444444,-0.0028911715112658835,-0.00147215161871994,-0.0041268198145615
1590514936.0398507,0.1395433444698435,-4.309086688939686,8.839086688939688,0.4133333333333333,0.25222222222222224,-0.5644444444444444,-0.005304713739694696,0.0009413906097088726,-0.0033223057384185626
1590514936.0498507,0.13467689774798614,-4.297661551126007,8.702338448873993,0.4133333333333333,0.25222222222222224,-0.5644444444444444,-0.0071256450744660305,0.00545415391248228,-0.008656156283493515
1590514936.0598507,0.15142821385662794,-4.290714106928314,8.71357053464157,0.4133333333333333,0.25222222222222224,-0.5644444444444444,-0.005376256930542392,0.005609947876362055,-0.012700211444920003
1590514936.0698507,0.16506771204561654,-4.297533856022808,8.764932287954384,0.41662152530292224,0.2530442702146195,-0.5654035004355745,-0.003959801265327477,0.007366800901036294,-0.02316168853212361
1590514936.0798507,0.13,-4.2854648085653935,8.8,0.44,0.2588888888888889,-0.5722222222222222,-0.0008921247357103989,0.005255447865696222,-0.03471198394275425
1590514936.0898507,0.12785515754474375,-4.301420630178975,8.778551575447437,0.44,0.2588888888888889,-0.5722222222222222,0.0009358640695195197,0.003895391095226064,-0.0452709934215174
1590514936.0998507,0.12583681069308905,-4.2661087928712735,8.703891207128725,0.44,0.2588888888888889,-0.5722222222222222,0.005212252833402627,0.0017571967132845106,-0.05296690618416704
1590514936.1098506,0.14675566490997655,-4.252162890060015,8.717837109939985,0.44,0.2588888888888889,-0.5722222222222222,0.008254776848647517,0.00023593470566206517,-0.05905195421465682
1590514936.1198506,0.1526873947915635,-4.2708957982638545,8.763583193055418,0.44,0.2588888888888889,-0.5735161530477898,0.003679308105202259,0.0031747759153774304,-0.06890182213223547
1590514936.1298506,0.18,-4.277009641615127,8.779067491305888,0.44,0.2588888888888889,-0.5866666666666667,-0.003272492347489368,0.0028340565603761445,-0.08703146865030005
1590514936.1398506,0.18,-4.272144096098583,8.717135423408497,0.44,0.2588888888888889,-0.5866666666666667,-0.002804723142496195,0.0067021691549516895,-0.10300775484712286
1590514936.1498506,0.17740065891212264,-4.282599341087877,8.685596046527264,0.44,0.2588888888888889,-0.5866666666666667,-0.001090830782496456,0.01612226333680972,-0.12040496738184456
1590514936.1598506,0.15749269035126368,-4.293573517042496,8.737147034084993,0.44,0.2588888888888889,-0.5866666666666667,-0.0008959256629099341,0.018933933541612793,-0.1324589348562669
1590514936.1698506,0.0985771487956963,-4.309715429759139,8.770853710722582,0.43981028650609283,0.25911022129844724,-0.5860342883536428,0.0001241671914053308,0.020912035654540657,-0.13959529836169504
1590514936.1798506,0.05345257719694781,-4.303452577196948,8.803452577196948,0.43333333333333335,0.26666666666666666,-0.5644444444444444,0.003986705381448224,0.0265175340653362,-0.1370290383828995
1590514936.1898506,0.06770847849361862,-4.317708478493619,8.81770847849362,0.43333333333333335,0.26666666666666666,-0.5644444444444444,0.002431627784784259,0.02340737887200827,-0.13080872799624366
1590514936.1998506,0.04765510381698371,-4.288236443402426,8.688817782987869,0.43333333333333335,0.26666666666666666,-0.5644444444444444,0.008470857766152388,0.00782818965980601,-0.11107449688017317
1590514936.2098505,-0.004493348253139379,-4.280786664535266,8.726066677323672,0.43333333333333335,0.26666666666666666,-0.5644444444444444,0.002782344088389257,0.008640834470915027,-0.09644689028021083
1590514936.2198505,-0.32125110486139014,-4.037191643230213,8.574216954600242,0.4326042587384492,0.2658160796393018,-0.5660241060666934,-0.014725733476976262,0.009834656860336268,-0.06362703321312232
1590514936.2298505,-0.2538457211731619,-3.7844214543993573,8.683750703093612,0.42698714343109684,0.25926277844739076,-0.5781945225659569,-0.0441368804502178,0.001562771774112088,-0.0075620342953806735
1590514936.2398505,-0.2084236153377967,-2.9300121728545343,8.749519172245892,0.4266666666666667,0.2588888888888889,-0.5788888888888889,-0.12717307601634123,-0.0010304134963082783,0.09823917126820031
1590514936.2498505,-0.24650092206816474,-3.064831181840949,9.29699815586367,0.4266666666666667,0.2588888888888889,-0.5788888888888889,-0.18829520477113942,0.03505189503484109,0.20727928133979334
1590514936.2598505,-0.2526527751626603,-2.8649141195422496,9.153801753174752,0.4266666666666667,0.2588888888888889,-0.5788888888888889,-0.1530923117247044,0.01718388819375717,0.3046111926426973
1590514936.2698505,-0.16223774363067917,-2.1095802567684427,8.659020820860773,0.4270396239384466,0.2600077607042285,-0.5793240057059654,-0.016125980827438463,-0.05767674338340887,0.3907004225439924
1590514936.2798505,-0.2,-2.469905820595955,8.932150687046473,0.43333333333333335,0.2788888888888889,-0.5866666666666667,-0.02858593052898772,-0.03257166486564993,0.5867231336728799
1590514936.2898505,-0.19764319836742267,-2.558854413060619,8.808215991837113,0.43333333333333335,0.2788888888888889,-0.5866666666666667,-0.022455754153490073,-0.06442149824216604,0.7253901004271011
1590514936.2998505,-0.19,-2.6330898494414767,8.77,0.43333333333333335,0.2788888888888889,-0.5866666666666667,-0.018405213233877064,-0.06560814721098694,0.8500727205137703
1590514936.3098505,-0.18457082381774634,-2.7071458809112685,8.797145880911268,0.43333333333333335,0.2788888888888889,-0.5866666666666667,-0.022606257317022302,-0.08319418160464727,0.9459703016959373
1590514936.3198504,-0.1612081546259678,-2.823959226870161,8.91395922687016,0.43333333333333335,0.2788888888888889,-0.5866666666666667,-0.026004219812445453,-0.08914061597163778,1.0173275140998235
1590514936.3298504,-0.1778100398015184,-2.8721899601984817,8.954525099503797,0.4211111111111111,0.2466666666666667,-0.5644444444444444,-0.02084522866727995,-0.10158254315588856,1.1002107452200278
1590514936.3398504,-0.1631017130433258,-2.8868982869566744,8.917754282608314,0.4211111111111111,0.2466666666666667,-0.5644444444444444,-0.021647443446622592,-0.09516482492114743,1.1339037659524187
1590514936.3498504,-0.17327835509041828,-2.9589072149698605,8.824206205391812,0.4211111111111111,0.2466666666666667,-0.5644444444444444,-0.026161947191993138,-0.09452667342441165,1.1756232000575089
1590514936.3598504,-0.19654469139454903,-2.9511517695351506,8.925026996043046,0.4211111111111111,0.2466666666666667,-0.5644444444444444,-0.03377583794293134,-0.09960260059170377,1.1967728965878925
1590514936.3698504,-0.19150879695672848,-2.9245263908701853,8.872070375653827,0.4211111111111111,0.2466666666666667,-0.5644444444444444,-0.03120159877587533,-0.09665144572566269,1.2101025729721329
1590514936.3798504,-0.16600579684094638,-2.935996135439369,8.852001932280315,0.43621857235940414,0.2413346215202103,-0.5759972089284332,-0.026180992675339198,-0.09773801655351275,1.2171477224350364
1590514936.3898504,-0.19409499953613507,-2.975118749420169,8.807715001391594,0.44,0.24,-0.5788888888888889,-0.03107572374885662,-0.09479060428848354,1.2054278742381228
1590514936.3998504,-0.23,-3.0239668551565444,8.701586742062617,0.44,0.24,-0.5788888888888889,-0.02592030871704713,-0.0935518172318274,1.1845737641446232
1590514936.4098504,-0.23414982665159845,-3.0766397226425575,8.729959583963836,0.44,0.24,-0.5788888888888889,-0.02299798160549733,-0.09072002529334934,1.1555651654729402
1590514936.4198503,-0.2743197272396422,-3.1409115635834275,8.826367345375141,0.44,0.24,-0.5788888888888889,-0.023874352887322543,-0.09247276785699979,1.1275212844545333
1590514936.4298503,-0.31226258291065156,-3.1577374170893484,8.88773741708935,0.46,0.21333333333333332,-0.5866666666666667,-0.024842298488729566,-0.09154751589347267,1.0826617239883956
1590514936.4398503,-0.3368097932110808,-3.1331902067889192,8.86319020678892,0.46,0.21333333333333332,-0.5866666666666667,-0.022164613226717346,-0.09065495413946857,1.053207186106261
1590514936.4498503,-0.34131330037756413,-3.151313300377564,8.821641625471955,0.46,0.21333333333333332,-0.5866666666666667,-0.01963495408493621,-0.09032406667542915,1.0121282820205104
1590514936.4598503,-0.3739652018216496,-3.1839652018216498,8.86245650227706,0.46,0.21333333333333332,-0.5866666666666667,-0.01963495408493621,-0.08498141179509182,0.9809627952185425
1590514936.4698503,-0.4047199595122186,-3.198239986504073,8.886479973008147,0.46,0.21333333333333332,-0.5866666666666667,-0.023230326455335428,-0.07949975478922808,0.945540897496038
1590514936.4798503,-0.41,-3.2079047053991148,8.87419058920177,0.4652698035994097,0.18786261593618628,-0.5805185624673553,-0.01968692922696196,-0.07077938996141671,0.91419948539928
1590514936.4898503,-0.4363537456008044,-3.216588436400201,8.896353745600804,0.4666666666666667,0.1811111111111111,-0.5788888888888889,-0.01854412330243975,-0.06728496545050482,0.8896040379524025
1590514936.4998503,-0.48978022853047737,-3.2597802285304773,8.721043914480234,0.4666666666666667,0.1811111111111111,-0.5788888888888889,-0.01854412330243975,-0.06328616539609969,0.8586036925667456
1590514936.5098503,-0.4832207375214867,-3.2261036876074334,8.753896312392566,0.4666666666666667,0.1811111111111111,-0.5788888888888889,-0.015586112024765546,-0.06400768820421299,0.8533073060887809
1590514936.5198503,-0.5254908154506438,-3.2782362231759654,8.807909012875536,0.4666666666666667,0.1811111111111111,-0.5788888888888889,-0.018316031990322897,-0.0627049234401433,0.8475398248929404
1590514936.5298502,-0.5997722147689322,-3.280075928410356,8.760227785231068,0.4954458811850414,0.17336286104847176,-0.5932784961480763,-0.014201506434274497,-0.0676108022529597,0.8606116511089703
1590514936.5398502,-0.6005165637282426,-3.3002582818641213,8.846900617630544,0.4955555555555556,0.17333333333333334,-0.5933333333333334,-0.013315362836312718,-0.07093217504306404,0.8751280293701017
1590514936.5498502,-0.6186321427028895,-3.3093160713514447,8.738207143782663,0.4955555555555556,0.17333333333333334,-0.5933333333333334,-0.021219775311628893,-0.07192022660247854,0.885008544964247
1590514936.5598502,-0.6584072900158479,-3.2811945324881138,8.768407290015848,0.4955555555555556,0.17333333333333334,-0.5933333333333334,-0.016579633872234663,-0.07723181342246055,0.8930863698758944
1590514936.5698502,-0.6983041157812767,-3.2953216463125106,8.88491234734383,0.4955555555555556,0.17333333333333334,-0.5933333333333334,-0.018033794081067835,-0.07661331938543788,0.8917190785209764
1590514936.5798502,-0.6814114717992914,-3.2910586038494687,8.890352867949824,0.4933333333333334,0.15444444444444444,-0.6311111111111111,-0.021547172194652894,-0.07507486438134388,0.8844328130715319
1590514936.5898502,-0.7215368086696562,-3.321152606502242,8.896542180493274,0.4933333333333334,0.15444444444444444,-0.6311111111111111,-0.014432259903004186,-0.06977126012468148,0.8773644007179962
1590514936.5998502,-0.759629371804412,-3.3472202885330904,8.812779711466911,0.4933333333333334,0.15444444444444444,-0.6311111111111111,-0.020604497074050113,-0.06866169540058545,0.8580795331801022
1590514936.6098502,-0.7406207383023747,-3.1995861744650838,8.95048201269692,0.4933333333333334,0.15444444444444444,-0.6311111111111111,-0.013593962450762909,-0.06495329195451034,0.8361029431346942
1590514936.6198502,-0.7652756877498237,-3.183149541500118,8.572439454502703,0.4933333333333334,0.15444444444444444,-0.6311111111111111,0.00971449830765213,-0.045230748235851465,0.8136909616362181
1590514936.6298501,-0.7777004837500852,-3.2108019350003407,8.823420317503578,0.49932259847228844,0.1433215234720992,-0.6182769715276358,-0.004299034199900695,-0.04985149444957197,0.7724367718676611
1590514936.6398501,-0.7854309903389889,-3.241723961355955,8.702760386440445,0.5011111111111111,0.14,-0.6144444444444445,-0.027590351366097762,-0.06598574787461262,0.7305935706882348
1590514936.6498501,-0.8253372661647131,-3.295337266164713,8.673128153380423,0.5011111111111111,0.14,-0.6144444444444445,-0.012347267984332413,-0.05624814782129158,0.6834758477567537
1590514936.6598501,-0.8562025441668151,-3.30759491166637,8.86683561833541,0.5011111111111111,0.14,-0.6144444444444445,-0.019013650778546637,-0.052953644116689985,0.6341730465248534
1590514936.66985,-0.8671850915982312,-3.3,8.98466582438408,0.5011111111111111,0.14,-0.6144444444444445,-0.013268030460201995,-0.05137420203785709,0.5887499705827458
1590514936.67985,-0.8632474503488996,-3.309188137412775,8.770554213633924,0.5066666666666667,0.13666666666666666,-0.6288888888888889,-0.009108993281426392,-0.04554921145446051,0.5433180451060367
1590514936.68985,-0.9007762491209723,-3.3018629978903333,8.889844750175806,0.5066666666666667,0.13666666666666666,-0.6288888888888889,-0.001429533356913394,-0.04259320590352432,0.5067113248705057
1590514936.69985,-0.9385906705854775,-3.392617609405146,8.882281865882906,0.5066666666666667,0.13666666666666666,-0.6288888888888889,-0.017929187339224238,-0.04506815400087095,0.48113686119792387
1590514936.70985,-0.9780733593200843,-3.401284427119944,8.861284427119942,0.5066666666666667,0.13666666666666666,-0.6288888888888889,-0.0024919234228043853,-0.03866945981148374,0.4479011558414354
1590514936.71985,-0.972018189086548,-3.392018189086548,8.796145512692384,0.5066666666666667,0.13666666666666666,-0.6288888888888889,-0.007185594313618119,-0.033825674865146205,0.42960686045657737
1590514936.72985,-1.0107550222461912,-3.39,8.88924497775381,0.5333333333333333,0.1288888888888889,-0.65,-0.008747236297662022,-0.032642563324132186,0.4021871181381462
1590514936.73985,-1.0484549009033302,-3.39,8.85154509909667,0.5333333333333333,0.1288888888888889,-0.65,-0.009775341001051733,-0.02853014451057334,0.3857374428839109
1590514936.74985,-1.040435609663306,-3.399564390336694,8.744791706296366,0.5333333333333333,0.1288888888888889,-0.65,-0.010860790181975841,-0.026274974065892378,0.3735868216866638
1590514936.75985,-1.04,-3.390501775988634,8.730501775988634,0.5333333333333333,0.1288888888888889,-0.65,-0.008836116798835489,-0.02617993877991494,0.3585587904308845
1590514936.76985,-1.055032462630228,-3.4125486939453418,8.790129850520913,0.5333333333333333,0.1288888888888889,-0.65,-0.009546539908660666,-0.022900364185158874,0.3430344109824352
1590514936.77985,-1.0777315290155653,-3.425910509671855,8.84546305803113,0.5333333333333333,0.1288888888888889,-0.6703584222030564,-0.009817477042468105,-0.02375082541701989,0.3162364985468726
1590514936.78985,-1.095106876246117,-3.4351068762461168,8.844465618769416,0.5333333333333333,0.1288888888888889,-0.6844444444444444,-0.008703329480135285,-0.023974960435085665,0.2854712300963624
1590514936.79985,-1.114397650716877,-3.4328011746415616,8.762409397132492,0.5333333333333333,0.1288888888888889,-0.6844444444444444,-0.010776895596995476,-0.022907446432425576,0.25403536343163957
1590514936.80985,-1.0939369896780158,-3.4473753402146565,8.78343835053664,0.5333333333333333,0.1288888888888889,-0.6844444444444444,-0.011999138607461015,-0.022907446432425576,0.22771735386607517
1590514936.81985,-1.1278836501275404,-3.442423269974492,8.843037110178557,0.5333333333333333,0.1288888888888889,-0.6844444444444444,-0.008693166470465256,-0.018774981261180875,0.21479322478328264
1590514936.82985,-1.14,-3.457936017125528,8.824127965748945,0.5263582155622948,0.13586400665992746,-0.7302809326541264,-0.012527105376452505,-0.017453292519943295,0.1940125281679941
1590514936.83985,-1.1898395768109684,-3.443386807729677,8.87814617294613,0.5255555555555556,0.13666666666666666,-0.7355555555555555,-0.01308996938995747,-0.017453292519943295,0.19198621771937624
1590514936.84985,-1.1709505392465882,-3.4748593529040943,8.7912318334384,0.5255555555555556,0.13666666666666666,-0.7355555555555555,-0.014357491230147243,-0.013650726999373978,0.1894511740389967
1590514936.85985,-1.1944090975574082,-3.4936558432060845,8.764409097557408,0.5255555555555556,0.13666666666666666,-0.7355555555555555,-0.02149999232275869,-0.01090830782496456,0.19177513550126263
1590514936.86985,-1.2254550887978142,-3.4681796448087434,8.828185621584698,0.5255555555555556,0.13666666666666666,-0.7355555555555555,-0.019733587093701894,-0.013288539337727489,0.20666409472637454
1590514936.87985,-1.2118280972139892,-3.44394269907133,8.805484291641967,0.49661511778524225,0.12455206480932622,-0.7443049902303014,-0.018575376110869308,-0.016593129017317954,0.22566506312218393
1590514936.88985,-1.2496925887062298,-3.4524231471765576,8.77,0.4777777777777778,0.11666666666666667,-0.75,-0.01869305216408174,-0.01880844765551058,0.23735432399930145
1590514936.89985,-1.263848755216578,-3.476151244783422,8.737697510433156,0.4777777777777778,0.11666666666666667,-0.75,-0.022738775015560927,-0.021396781583475417,0.25164456792295203
1590514936.90985,-1.2671412680756395,-3.465717463848721,8.772847608453837,0.4777777777777778,0.11666666666666667,-0.75,-0.02399827721492203,-0.021037624145632428,0.2744173514333882
1590514936.9198499,-1.283077162638047,-3.499231487914141,8.835770069233163,0.4777777777777778,0.11666666666666667,-0.75,-0.025424774370251462,-0.02143903344509738,0.29607689564221173
1590514936.9298499,-1.2720476656872348,-3.5559046686255305,8.79716682990532,0.43588899771465883,0.05582820038451772,-0.7430185366561468,-0.02715908672421653,-0.019858319761325953,0.3140215849213322
1590514936.9398499,-1.305574195026928,-3.551106451243268,8.896722585080784,0.4311111111111111,0.048888888888888885,-0.7422222222222222,-0.036001990636940095,-0.02060508975988384,0.3307722669406379
1590514936.9498498,-1.2933598601179135,-3.5583200699410433,8.693678181532874,0.4311111111111111,0.048888888888888885,-0.7422222222222222,-0.02619730051982331,-0.016187890665325916,0.3399640193847899
1590514936.9598498,-1.3410986402966627,-3.5770328800988875,8.811812360939431,0.4311111111111111,0.048888888888888885,-0.7422222222222222,-0.0435072666376817,-0.017129629947594163,0.33771403693610313
1590514936.9698498,-1.3639226433731675,-3.559116034940249,8.777348104820748,0.4311111111111111,0.048888888888888885,-0.7422222222222222,-0.03855273726650347,-0.014415842926909062,0.3423822485792148
1590514936.9798498,-1.3359801094949626,-3.575514917878778,8.775514917878777,0.4500110502805763,-0.0011959499101939775,-0.7006423560493987,-0.042328573795897335,-0.012162220795456128,0.3604742533754029
1590514936.9898498,-1.42868388006433,-3.48131611993567,8.78,0.4533333333333333,-0.01,-0.6933333333333334,-0.04722147843687022,-0.01289620039171401,0.37759963911936784
1590514936.9998498,-1.45,-3.4854631543346737,8.716342114163316,0.4533333333333333,-0.01,-0.6933333333333334,-0.045218955173072055,-0.01378436920415047,0.3911159403041582
1590514937.0098498,-1.2824667273156103,-3.629457528892483,8.702845446275145,0.4533333333333333,-0.01,-0.6933333333333334,-0.0378184442246058,-0.010858064700881112,0.4003851403002827
1590514937.0198498,-1.3090962078774235,-3.651747028951364,8.76475891314591,0.4533333333333333,-0.01,-0.6933333333333334,-0.03533371906598741,-0.013135960824446267,0.4067353020098608
1590514937.0298498,-1.4373189746300212,-3.5433512817124737,8.690464785940804,0.47051532769556026,-0.01,-0.69762883192389,-0.022255297400263153,-0.010351685761763492,0.4024210317722309
1590514937.0398498,-1.4855410209014646,-3.528787146310252,8.818394710649795,0.48,-0.01,-0.7,-0.030382421369384793,-0.010053541943784697,0.3884823297459684
1590514937.0498497,-1.4837493046541814,-3.56,8.807481921008716,0.48,-0.01,-0.7,-0.024814428189773356,-0.013362828786506277,0.3820636332703084
1590514937.0598497,-1.465299251870324,-3.552649625935162,8.71,0.48,-0.01,-0.7,-0.019793410177406077,-0.01177539588461729,0.37887259750986163
1590514937.0698497,-1.52492360800358,-3.55,8.781415968803937,0.48,-0.01,-0.7,-0.014026341936614919,-0.013032927928595704,0.3632633167195661
1590514937.0798497,-1.5292895450436879,-3.573032841217234,8.827677613739079,0.4714693180676911,-0.06630250075323892,-0.6880570452947674,-0.004792490600845684,-0.010830809211372314,0.3371858848078958
1590514937.0898497,-1.4776268039705918,-3.5630507215882368,8.77915216476471,0.4688888888888889,-0.08333333333333333,-0.6844444444444444,-0.003272492347489368,-0.0033463989210392063,0.2955594083452473
1590514937.0998497,-1.476367065857608,-3.547265868284784,8.744531736569568,0.4688888888888889,-0.08333333333333333,-0.6844444444444444,-0.006745188063319901,-0.005654357280823445,0.25434320020325546
1590514937.1098497,-1.4867343427391604,-3.553468685478321,8.73673434273916,0.4688888888888889,-0.08333333333333333,-0.6844444444444444,-0.0050536320800928375,-0.0024935956256448583,0.1941254622580711
1590514937.1198497,-1.477537728198738,-3.56,8.771155679503154,0.4688888888888889,-0.08333333333333333,-0.6844444444444444,-0.004631915317554771,0.0020391344550981043,0.12831254421720925
1590514937.1298497,-1.48387445821841,-3.580811687327615,8.824686145546025,0.4735137082950256,-0.0817917268646211,-0.645904282726639,-0.002427216689461774,0.005542695264754747,0.04662829628105998
1590514937.1398497,-1.4820155485893416,-3.669844514106583,8.79209329153605,0.4755555555555556,-0.0811111111111111,-0.6288888888888889,-0.001090830782496456,0.014383701537062737,-0.038060351228227735
1590514937.1498497,-1.4869811398451656,-3.676037720309669,8.710188601548344,0.4755555555555556,-0.0811111111111111,-0.6288888888888889,-0.00032930655849454447,0.02093160708145831,-0.10218825867844866
1590514937.1598496,-1.5189630278419195,-3.7351668126443185,8.752407569604799,0.4755555555555556,-0.0811111111111111,-0.6288888888888889,0.003949220290533457,0.023697290490532267,-0.16275608132743408
1590514937.1698496,-1.4800738065778494,-3.646531378586021,8.739151296290967,0.4755555555555556,-0.0811111111111111,-0.6288888888888889,0.010900256776257675,0.02399827721492203,-0.19463882639859173
1590514937.1798496,-1.4182965623396613,-3.5406618778860954,8.737696254489482,0.4759340972578531,-0.06994413089333561,-0.6213180548429394,0.01429441671880938,0.026971336792459832,-0.2187958048473202
1590514937.1898496,-1.0895185862279098,-4.017021850787847,8.930757377905458,0.4777777777777778,-0.015555555555555557,-0.5844444444444444,0.015318542281367484,0.03859776572375855,-0.2556373856536447
1590514937.1998496,-1.1292764101338433,-3.9388683078393885,8.760516849904398,0.4777777777777778,-0.015555555555555557,-0.5844444444444444,0.037043142942027714,0.060569004913669726,-0.2526792577058884
1590514937.2098496,-1.2904757535116822,-3.8467840756688076,8.931303734029788,0.4777777777777778,-0.015555555555555557,-0.5844444444444444,0.007844403081751536,0.0355957172134832,-0.23038635638836066
1590514937.2198496,-1.4611112329668523,-3.7456408850382474,8.928461327557372,0.4777777777777778,-0.015555555555555557,-0.5844444444444444,-0.011877921894784288,0.004969346877572413,-0.1809380306530623
1590514937.2298496,-1.5293870286116769,-3.579387028611677,8.760306485694162,0.4879310206248586,-0.0054023127084747834,-0.5810600301620842,0.0027688674599394155,0.012015854808940326,-0.13385457841895718
1590514937.2398496,-1.5146380142495979,-3.589276028499196,8.853914042748793,0.4977777777777778,0.004444444444444445,-0.5777777777777777,0.008813641957863229,0.01174617417180509,-0.08992998506196477
1590514937.2498496,-1.5533328459682725,-3.614166788507932,8.847501096571387,0.4977777777777778,0.004444444444444445,-0.5777777777777777,0.008999393828056559,0.005181565834240558,-0.059996012016991465
1590514937.2598495,-1.5437726478747817,-3.6165568380313045,8.770658971812173,0.4977777777777778,0.004444444444444445,-0.5777777777777777,0.009781535705592342,0.001090830782496456,-0.029060663083247108
1590514937.2698495,-1.5068942344267937,-3.591117793033492,8.773105765573206,0.4977777777777778,0.004444444444444445,-0.5777777777777777,0.01279864385049458,0.003611278816536486,-0.007202107149259616
1590514937.2798495,-1.4549920120289446,-3.5641653353381573,8.81333865864737,0.5087988110279249,0.026486510944738556,-0.5816675542190061,0.01609018971805857,0.0029083011850094243,0.01191070487425609
1590514937.2898495,-1.4119685270667226,-3.5660104909777592,8.860052454888796,0.5166666666666667,0.042222222222222223,-0.5844444444444444,0.016797649662297607,0.0004351879248507683,0.03143652552255859
1590514937.2998495,-1.3713279979992496,-3.58720320120045,8.7997183943979,0.5166666666666667,0.042222222222222223,-0.5844444444444444,0.021366670117961777,-0.0018765781426931028,0.05741016354923908
1590514937.3098495,-1.3306547649893767,-3.670932528372286,8.733551588329792,0.5166666666666667,0.042222222222222223,-0.5844444444444444,0.02438569540261128,-0.0025690797526821624,0.08848931573244978
1590514937.3198495,-1.2634593434885217,-3.718077236644497,8.762308946577988,0.5166666666666667,0.042222222222222223,-0.5844444444444444,0.02355773229645575,-0.0017411166465266324,0.10522348912014151
1590514937.3298495,-1.1798971562134788,-3.729588624853915,8.810617062719128,0.5163924165692768,0.042370774358308445,-0.5845130069687919,0.02289622791561299,-0.0011357048497467972,0.11567293701187467
1590514937.3398495,-0.9148931168735767,-3.6110383456989643,8.87,0.49,0.05666666666666665,-0.5911111111111111,0.041031079429190584,-0.02466861769174375,0.1239667923737677
1590514937.3498495,-1.063458506320847,-3.589158930820544,8.97934599057704,0.49,0.05666666666666665,-0.5911111111111111,0.01448657067075225,0.010622942380721423,0.097114470895135
1590514937.3598495,-1.3370248810198997,-3.308382363820186,8.862975118980101,0.49,0.05666666666666665,-0.5911111111111111,-0.00407827556748453,-0.004264604194968383,-0.0002838102134520293
1590514937.3698494,-1.3026398016606981,-3.228720042501279,8.82872004250128,0.49,0.05666666666666665,-0.5911111111111111,0.004075365438868348,0.00038400797941135975,-0.09207498686485129
1590514937.3798494,-1.36191027332705,-3.295955136663525,8.908867860508954,0.5048257199706776,0.0533189234474814,-0.5944588543302964,0.01216507648521307,0.01732979525925199,-0.16924853375519366
1590514937.3898494,-1.5318860811466537,-3.356868351312008,8.986868351312008,0.5244444444444445,0.048888888888888885,-0.5988888888888889,0.012406749632192158,0.024405888239653173,-0.24244777854700753
1590514937.3998494,-1.4898723322839302,-3.274547510131668,8.787668063938218,0.5244444444444445,0.048888888888888885,-0.5988888888888889,0.018416319288892084,0.023785681613407536,-0.2679052549036372
1590514937.4098494,-1.4500629464601456,-3.256088125044204,8.692176250088409,0.5244444444444445,0.048888888888888885,-0.5988888888888889,0.02289714684196916,0.0272707695624114,-0.2565482939771637
1590514937.4198494,-1.437546122787038,-3.381402215550264,8.84447416916865,0.5244444444444445,0.048888888888888885,-0.5988888888888889,0.015348109949246541,0.0272707695624114,-0.2257929146593675
1590514937.4298494,-1.4136566190492121,-3.43870997959252,8.773870061222441,0.5244444444444445,0.053739624338801334,-0.5988888888888889,0.024936747135723573,0.025229827394471323,-0.16767055549507442
1590514937.4398494,-1.4732430793224451,-3.463297231728978,8.87962093315427,0.5244444444444445,0.05666666666666665,-0.5988888888888889,0.008420138074065484,0.010943750492159999,-0.07145860771854387
1590514937.4498494,-1.4537524248579319,-3.3733397996211516,8.91979368738161,0.5244444444444445,0.05666666666666665,-0.5988888888888889,0.00836233063655943,-0.0002496734581933259,0.03253853348770718
1590514937.4598494,-1.4242665672128854,-3.3616008950840306,8.957334327871145,0.5244444444444445,0.05666666666666665,-0.5988888888888889,0.005890323494611931,-0.008901276823692439,0.12560636385365243
1590514937.4698493,-1.42,-3.3775134363852555,8.861332857709076,0.5244444444444445,0.05666666666666665,-0.5988888888888889,0.0009532555327975368,-0.01390760391607507,0.1831102707515918
1590514937.4798493,-1.4105096703145432,-3.3494903296854566,8.663647532521166,0.5257865112686505,0.05599563325456365,-0.5988888888888889,0.004175098698041532,-0.015742192034811114,0.22273913927275707
1590514937.4898493,-1.3006650089456289,-3.45,8.865972647602874,0.54,0.048888888888888885,-0.5988888888888889,0.00930968848249894,-0.020216640087610805,0.265218318812197
1590514937.4998493,-1.2555473833097595,-3.4746090119216,8.7146090119216,0.54,0.048888888888888885,-0.5988888888888889,0.009936897555290205,-0.01695052731184582,0.24906767994765824
1590514937.5098493,-1.22,-3.4314635993011064,8.730209085614444,0.54,0.048888888888888885,-0.5988888888888889,0.004317707725103328,-0.010976730932288303,0.18254703723453045
1590514937.5198493,-1.2745198749441715,-3.345130943197044,8.84886515895895,0.54,0.048888888888888885,-0.5988888888888889,0.0038417138837533024,-0.003310582179514499,0.08608253318127022
1590514937.5298493,-1.33,-3.2906294218612637,8.98,0.54,0.018665010721777994,-0.5913329193471112,0.0034333747038645937,0.0034333747038645937,0.0014105633451308996
1590514937.5398493,-1.3564196951934349,-3.2275484843409816,8.885643945737733,0.54,-0.03555555555555556,-0.5777777777777777,0.007635815477475192,0.012576286925676188,-0.08760114724107194
1590514937.5498493,-1.3669967970859762,-3.2363329774539973,8.759336180368022,0.54,-0.03555555555555556,-0.5777777777777777,0.008435835692132833,0.023525855618734402,-0.16093607538746385
1590514937.5598493,-1.312250621476839,-3.232813276846049,8.802685480200273,0.54,-0.03555555555555556,-0.5777777777777777,0.00963334850346683,0.028238847985573665,-0.20177019948519967
1590514937.5698493,-1.305129866699537,-3.311673035270915,8.709033615665005,0.54,-0.03555555555555556,-0.5777777777777777,0.011727472972270267,0.029634930964775964,-0.24557484300016466
1590514937.5798492,-1.179416379466715,-3.400129693451841,8.78889760565935,0.5402665920954511,-0.037385674264868905,-0.5769780014914243,0.02619408614087059,0.03928405553082807,-0.26747282580644427
1590514937.5898492,-1.101039435740132,-3.445758683393641,8.7819117241886,0.5811111111111111,-0.31777777777777777,-0.4544444444444444,0.019932090916198672,0.03984594889130167,-0.3175269096155493
1590514937.5998492,-1.1381221937139192,-3.4024093970493907,8.945226106478511,0.5811111111111111,-0.31777777777777777,-0.4544444444444444,0.007760449366591407,0.03544089270908727,-0.3596311307760313
1590514937.6098492,-1.241050143088217,-3.2203500476960727,8.78683775040438,0.5811111111111111,-0.31777777777777777,-0.4544444444444444,0.010315162083439123,0.03551882292152291,-0.4132517479070708
1590514937.6198492,-1.2922604990354243,-3.216781497106273,8.859041996141698,0.5811111111111111,-0.31777777777777777,-0.4544444444444444,0.005103069709479139,0.04011415675920444,-0.44597013168423777
1590514937.6298492,-1.2503658203658203,-3.1592560742560742,8.830743925743926,0.7049161282494616,-0.3451070767737434,-0.14855385688719014,0.0062629708399352885,0.042744604749225035,-0.47115908841528886
1590514937.6398492,-1.18,-3.094152816749406,8.883961795812649,0.9988888888888888,-0.41,0.5777777777777777,0.012061650062836108,0.048407882160692604,-0.4938573319983035
1590514937.6498492,-1.1280790662477929,-3.1161519411130727,8.832310073608658,0.9988888888888888,-0.41,0.5777777777777777,0.012879752648089961,0.051730578084353586,-0.5107183475751458
1590514937.6598492,-1.0679143065316004,-3.1886499635696994,8.773435729898699,0.9988888888888888,-0.41,0.5777777777777777,0.020123491010229883,0.05307592834894177,-0.5233042433391661
1590514937.6698492,-1.0279039233858511,-3.22441921532283,8.839545875810936,0.9988888888888888,-0.41,0.5777777777777777,0.017706707641487116,0.056469785568271896,-0.5421953005648344
1590514937.6798491,-0.9837205818091017,-3.254419127286347,8.945426472730299,0.9789918222111242,-0.2116322746368317,0.2931894301442962,0.01823131270224449,0.059496798604267445,-0.571029065893242
1590514937.6898491,-0.9101197367947934,-3.3125299341986985,8.92513969292726,0.9255555555555556,0.3211111111111111,-0.4711111111111111,0.024278603977803702,0.061358143077246,-0.6255196168418605
1590514937.6998491,-0.7997407095610343,-3.32545375826819,8.809870354780518,0.9255555555555556,0.3211111111111111,-0.4711111111111111,0.01854412330243975,0.06328232748441598,-0.722129033456835
1590514937.709849,-0.78,-3.3557540626238604,8.79575406262386,0.9255555555555556,0.3211111111111111,-0.4711111111111111,0.02363888241192949,0.06806429551964707,-0.8048027805424817
1590514937.719849,-0.7867841625788368,-3.354522775052558,8.826182200420462,0.9255555555555556,0.3211111111111111,-0.4711111111111111,0.027829791672600367,0.07678584911449036,-0.8863201150878167
1590514937.729849,-0.8088284863349685,-3.369218990889979,8.94375192711983,0.9255555555555556,0.3211111111111111,-0.4711111111111111,0.01901269513068135,0.08880916258074356,-0.9696817551205055
1590514937.739849,-0.7869500953041068,-3.2908502859123203,8.81404799861376,0.6488888888888888,0.1955555555555556,-0.6444444444444445,0.029877875924708593,0.09538216045296745,-1.1156516909102174
1590514937.749849,-0.7902585001398378,-3.28831875024971,8.943146749770268,0.6488888888888888,0.1955555555555556,-0.6444444444444445,0.029240837238354793,0.10224656903894035,-1.1907169574186027
1590514937.759849,-0.9232905082841899,-3.536452541420949,8.808972198820557,0.6488888888888888,0.1955555555555556,-0.6444444444444445,0.03389984104475191,0.11379132568771651,-1.289081695619605
1590514937.769849,-0.922268240470952,-3.5567455550930607,8.943491110186121,0.6488888888888888,0.1955555555555556,-0.6444444444444445,0.023978915082046057,0.11695986633561065,-1.3375736957719768
1590514937.779849,-0.8521064379185085,-3.465787124162983,8.761574248325966,0.6278393900049114,0.191754951590393,-0.6479526942584407,0.0452989097103489,0.12062266339252124,-1.3836313624810415
1590514937.789849,-0.799675077013349,-3.51606498459733,8.846967507701335,0.5688888888888889,0.1811111111111111,-0.6577777777777778,0.031634092692397225,0.12643792077121266,-1.4159692428795558
1590514937.799849,-0.7196075189672744,-3.5455887215490884,8.756860151738195,0.5688888888888889,0.1811111111111111,-0.6577777777777778,0.03616866797920029,0.13098531997798332,-1.4385386714764052
1590514937.809849,-0.675227267281658,-3.56,8.759480531927638,0.5688888888888889,0.1811111111111111,-0.6577777777777778,0.03602574841057584,0.1309138601936711,-1.4540207678913903
1590514937.819849,-0.6038951683972567,-3.6161630713820454,8.819941760220697,0.5688888888888889,0.1811111111111111,-0.6577777777777778,0.03644772467906786,0.1287180323345818,-1.4715561374853305
1590514937.829849,-0.5412310217480509,-3.6970770072493506,8.819229927506496,0.561094241553823,0.1811111111111111,-0.6639485402513716,0.04012589178349328,0.1328630699448313,-1.4925919211512333
1590514937.839849,-0.5057754767910084,-3.686443869197752,8.833101907164034,0.5422222222222223,0.1811111111111111,-0.6788888888888889,0.03706488441634336,0.14057135033963022,-1.5227530479879805
1590514937.849849,-0.4292928001947538,-3.660497230844136,8.718298338506482,0.5422222222222223,0.1811111111111111,-0.6788888888888889,0.04222539504073708,0.13635384781205698,-1.5539228057571237
1590514937.859849,-0.31413894745460874,-3.6568957894090435,8.713447894704522,0.5422222222222223,0.1811111111111111,-0.6788888888888889,0.03832943979069471,0.13782078556240332,-1.59046836908178
1590514937.869849,-0.2531576700076408,-3.693368465998472,8.76705312598319,0.5422222222222223,0.1811111111111111,-0.6788888888888889,0.04180751523717663,0.13999378279963892,-1.6258317770754058
1590514937.879849,-0.20164723247232472,-3.68426905640485,8.832134528202426,0.5285304750190359,0.18985052421952792,-0.6765583787266444,0.04150472545312256,0.14157516081760807,-1.6632968220506168
1590514937.889849,-0.14720055570096843,-3.64,8.81,0.49,0.21444444444444444,-0.67,0.04411331807930112,0.14536383729640268,-1.7074540311691746
1590514937.899849,-0.13031087039684297,-3.64,8.81,0.49,0.21444444444444444,-0.67,0.040428560352017515,0.15365454218279084,-1.7553558816238615
1590514937.909849,-0.1217518502731817,-3.543813887704886,8.730930561475567,0.49,0.21444444444444444,-0.67,0.042126369906414315,0.1531661763305365,-1.8063600232740409
1590514937.919849,-0.08867862969004894,-3.521982055464927,8.847687601957585,0.49,0.21444444444444444,-0.67,0.04508440993464756,0.1550421102554139,-1.8278622563861497
1590514937.929849,-3.4098649457924624,-8.382991017036655,6.860475167785234,0.48257077955601446,0.2348748006654047,-0.6641185338151782,-0.37894582862491316,0.5412646477794589,-3.752896927243686
1590514937.939849,-7.804546132802785,-15.2171826482396,2.0244676164422497,0.4633333333333333,0.2877777777777778,-0.6488888888888888,-2.067620936577077,1.6113819984882898,-8.926667157360544
1590514937.949849,2.3457418366636498,0.704667548562278,1.0297702429854487,0.4633333333333333,0.2877777777777778,-0.6488888888888888,-3.3505501264430158,0.5208595850508992,-5.849800963801095
1590514937.9598489,-0.4419692849840116,-0.23309020904483263,-0.3459846424920058,0.4633333333333333,0.2877777777777778,-0.6488888888888888,-2.9561953897946913,-0.7178709186676258,-1.6248688687167863
1590514937.9698489,0.2370938578056228,-0.27284408580831915,0.9325597763590945,0.4633333333333333,0.2877777777777778,-0.6488888888888888,-3.048875605559277,-0.4395245685761153,-1.3779874334711075
1590514937.9798489,1.4511617870057156,-0.6467047707920215,4.38666005676737,0.4383619114273494,0.3287802359690847,-0.6291583826915682,-2.9561369151753105,-0.2699948483707201,-1.233811345666343
1590514937.9898489,2.6,-0.56,6.93,0.37333333333333335,0.4355555555555555,-0.5777777777777777,-2.5754514774741324,0.03817907738737596,-1.1857330605736476
1590514937.9998488,1.8218688379849906,-0.6307391965468191,6.165132437337519,0.37333333333333335,0.4355555555555555,-0.5777777777777777,-0.6690062192703883,-0.08046133078821752,-1.2117760770024364
1590514938.0098488,0.9439698575297304,-1.1358794301189215,6.7685887201224535,0.37333333333333335,0.4355555555555555,-0.5777777777777777,2.2504151662956593,0.11993731333712854,-1.2278724458043833
1590514938.0198488,0.9234615679069056,-1.6650187566988208,7.980197136732507,0.37333333333333335,0.4355555555555555,-0.5777777777777777,3.375017037404424,0.4445166338029169,-1.2079395509371036
1590514938.0298488,2.236244657672002,-0.8421011061761502,8.556451018184866,0.366709638071827,0.45230960827583633,-0.5727125990483906,4.483706951872825,0.25799530626973494,-1.195061135512555
1590514938.0398488,8.62058056099152,2.90247010219613,15.287062404870625,0.33555555555555555,0.5311111111111111,-0.5488888888888889,5.3669204191103885,0.15239942546048113,-1.1073255955225814
1590514938.0498488,-0.7599410939691444,-0.024642356241234176,-1.4093380084151472,0.33555555555555555,0.5311111111111111,-0.5488888888888889,2.8110767401777608,-0.5552806016994112,-0.6301229147640685
1590514938.0598488,0.11239113898505053,0.4055878106710961,-0.15540276635049755,0.33555555555555555,0.5311111111111111,-0.5488888888888889,0.36140619007803965,-0.49738559558041817,-0.21431857210770844
1590514938.0698488,0.2881927131036838,0.3534984553766862,0.04644348541534066,0.33555555555555555,0.5311111111111111,-0.5488888888888889,-0.0917386706813681,-0.3553339150915756,-0.017576994630661535
1590514938.0798488,1.5063431350873313,-2.7426177315940747,12.06037143488835,0.33225784263148844,0.5133859041442503,-0.5647591323359619,-0.8380602321954979,0.802892455526727,0.4677324667435948
1590514938.0898488,-0.21693953128454568,-0.045641720097280736,0.10558091974353268,0.3185196649224949,0.43954319895841004,-0.6308741125604933,-0.48485830503074245,1.7073928561180935,0.689432005751544
1590514938.0998487,0.9191566796559076,-3.632583633556356,13.62801999852952,0.31777777777777777,0.4355555555555555,-0.6344444444444445,-0.011083148726798418,-0.5487257390570319,0.47118540313868773
1590514938.1098487,0.580889750576399,-1.9547118004611193,7.812952211276462,0.31777777777777777,0.4355555555555555,-0.6344444444444445,0.08326713079350645,-0.7653781833142468,0.5311882919281203
1590514938.1198487,0.46479831724820586,-2.463273942093541,8.167938629052216,0.31777777777777777,0.4355555555555555,-0.6344444444444445,0.05059392483053221,0.1100195028931695,0.8092539118687033
1590514938.1298487,0.7964257300863491,-3.504097215484622,12.147628795963907,0.3210707933119886,0.4358549206041201,-0.6329476192016213,-0.28726156055918556,0.12229803756432683,0.9324963822068685
1590514938.1398487,0.3506143033773671,-1.9972017960564847,6.528054922886706,0.33,0.43666666666666665,-0.6288888888888889,-0.09605621477272513,-0.10938455272958719,0.9921757966592942
1590514938.1498487,0.3274307892321811,-2.5077076323034566,7.073636050780055,0.33,0.43666666666666665,-0.6288888888888889,0.14317908992626155,-0.04299500853284316,1.0608544798023352
1590514938.1598487,0.3905647954946012,-2.526891396390009,7.859280432712761,0.33,0.43666666666666665,-0.6288888888888889,0.10755700238293527,-0.14434515616472252,1.0841049465743646
1590514938.1698487,0.5689986427081012,-3.801418876486437,11.844303020480927,0.33,0.43666666666666665,-0.6288888888888889,-0.1612331339129172,-0.043317139419040016,1.1582539496904618
1590514938.1798487,-0.19611445510499637,-6.371353412382331,6.436438721940623,0.336133312213372,0.43488602763697803,-0.6247340644862821,-0.01779671958087906,-0.10664808584828497,1.2064278424662698
1590514938.1898487,-2.073997168475696,-22.096784646845997,6.285622148812333,0.3644444444444445,0.4266666666666667,-0.6055555555555555,-0.07786355959697018,-0.09339738804061877,1.4292584159389508
1590514938.1998487,-0.06363106796116508,-4.734763754045307,8.643449838187703,0.3644444444444445,0.4266666666666667,-0.6055555555555555,-0.23482021248474522,-0.2820429477963911,3.105422611148432
1590514938.2098486,2.188931403379425,-6.025552429244218,13.00882051127729,0.3644444444444445,0.4266666666666667,-0.6055555555555555,0.013727568935670592,-0.41352227829174204,4.652655092643897
1590514938.2198486,7.174557560072824,-15.555040399632867,10.598049382344533,0.3644444444444445,0.4266666666666667,-0.6055555555555555,0.38891346672664007,-0.2682668206148713,4.732511173641608
1590514938.2298486,-1.6433982779209353,1.9242040098045377,7.899256174973289,0.3709234003030748,0.42111327593069786,-0.6055555555555555,-0.19451694376360246,-0.4733085353750288,1.2314067919413483
1590514938.2398486,-1.2190113242431246,0.9678012479778139,8.62056990986827,0.3955555555555556,0.4,-0.6055555555555555,0.13138987448045897,0.3634773208199873,-0.9233369553115517
1590514938.2498486,-1.1539918880648954,-0.9877778577771379,6.593814289485684,0.3955555555555556,0.4,-0.6055555555555555,0.030483310329707414,0.35046738220919416,-0.8934759138606286
1590514938.2598486,-0.4935473709193691,-2.743707899108896,9.755971044512052,0.3955555555555556,0.4,-0.6055555555555555,-0.16661865331727752,-0.08015941067456539,-0.8392567770689533
1590514938.2698486,-0.4792062788368389,-2.745497758731097,9.37702691164639,0.3955555555555556,0.4,-0.6055555555555555,-0.05106041999450633,-0.030146552207562387,-0.7245146423211704
1590514938.2798486,-0.3276955158202387,-2.5802132899857146,8.288904159072624,0.3955555555555556,0.4,-0.6055555555555555,0.08341138067762059,0.06450957563985654,-0.6118287758361477
1590514938.2898486,0.6618705757863245,-6.8652833321170545,8.548040939940158,0.4177777777777778,0.3655555555555556,-0.6055555555555555,-0.10331247355499013,0.016812191614533154,-0.15988744926363319
1590514938.2998486,6.163771072028024,-8.005454644968255,8.226650368532438,0.4177777777777778,0.3655555555555556,-0.6055555555555555,-0.14087490875095446,-0.08836262693416704,0.8409427685132839
1590514938.3098485,-1.0360982132907397,-1.0745559228854797,8.711799338806136,0.4177777777777778,0.3655555555555556,-0.6055555555555555,0.14894684310939835,-0.07948542452558933,0.6051959652103027
1590514938.3198485,-0.7400776345603803,-1.6198569889677206,7.730257419858104,0.4177777777777778,0.3655555555555556,-0.6055555555555555,0.08946372424833411,0.10576200278458209,-0.2692058820473412
1590514938.3298485,-0.1298864660299153,-7.7116945996275605,8.893371177990028,0.4177777777777778,0.36761571988279507,-0.6079902952150203,-0.0792505240148188,0.008873361591383288,-0.262322425662181
1590514938.3398485,-0.05941492048981163,-3.5770209541222604,8.700718358313086,0.4177777777777778,0.37777777777777777,-0.62,-0.030453380623542574,-0.002054017017008627,-0.04369421936102508
1590514938.3498485,0.006695239832208644,-4.199493343060368,8.382755243479847,0.4177777777777778,0.37777777777777777,-0.62,0.03394499074768918,0.0018857863981629405,0.03620062110438958
1590514938.3598485,0.07626808834729627,-4.605734958111196,8.622261995430312,0.4177777777777778,0.37777777777777777,-0.62,-0.0060074618341446106,-0.010326752952346495,-0.002181661564992912
1590514938.3698485,0.0016117703810902065,-4.471282392667631,8.816932368547999,0.4177777777777778,0.37777777777777777,-0.62,0.019704897754791215,0.0004575069539477659,-0.001724154611045146
1590514938.3798485,-0.028162961122841883,-4.25,8.734898770339088,0.4177777777777778,0.377403566154653,-0.6197958845692046,0.007301832384834059,0.002081466637200572,-3.339830926411332e-05
1590514938.3898485,0.02778678883179595,-4.245573577663592,8.8346697207949,0.4177777777777778,0.3655555555555556,-0.6133333333333333,-0.0064110028790638615,-0.00036655912136388056,-0.0008494068954522642
1590514938.3998485,0.021154194202978035,-4.256546466668495,8.638845805797022,0.4177777777777778,0.3655555555555556,-0.6133333333333333,-0.01518703750188597,0.0023075646215516524,-0.000377709169676221
1590514938.4098485,0.02762924703808871,-4.445775482228532,8.634741505923824,0.4177777777777778,0.3655555555555556,-0.6133333333333333,0.004767751873540395,0.0030138833166346198,-0.0030138833166346198
1590514938.4198484,0.016112624231164663,-4.347520427120723,8.694704821341606,0.4177777777777778,0.3655555555555556,-0.6133333333333333,0.01330199284754629,0.0019696381074040914,-0.0015455911922264498
1590514938.4298484,0.0009819447701159799,-4.143256254396565,8.868707635143666,0.4177777777777778,0.3655555555555556,-0.6133333333333333,0.014127243393356229,0.0011443875615941518,0.0009301604452033687
1590514938.4398484,0.01289385701259667,-4.368553071493702,8.77118992941812,0.4033333333333333,0.3655555555555556,-0.6055555555555555,-0.0062433309898532,-0.0029568215165409997,-0.002023826149518728
1590514938.4498484,0.027058525547938264,-4.361470737226031,8.679119583938402,0.4033333333333333,0.3655555555555556,-0.6055555555555555,-0.010106145105405601,-0.0014116958703200393,-0.0012512633264082475
1590514938.4598484,0.03,-4.450729741778403,8.594361475943899,0.4033333333333333,0.3655555555555556,-0.6055555555555555,-0.010789521324164945,-0.0018246848441203878,-0.0016461964836841257
1590514938.4698484,0.03,-4.2781307225403795,8.745385617777167,0.4033333333333333,0.3655555555555556,-0.6055555555555555,0.004115687596906488,-0.00025571548400760515,0.0007072575564850483
1590514938.4798484,0.0019413363171355523,-4.399646206308611,8.835470215260017,0.4033333333333333,0.3655555555555556,-0.6055555555555555,0.012666435507175519,0.0020404836040655945,7.058898046365873e-05
1590514938.4898484,0.007537099912257278,-4.32709190096517,8.817388700263228,0.4083580666081715,0.3714177443762001,-0.6114177443762001,0.008979119092436684,0.0013594915054887546,-0.0008221700595041575
1590514938.4998484,0.03,-4.31,8.790216388875546,0.41,0.37333333333333335,-0.6133333333333333,-0.010994630112978533,0.0010045084944824826,-0.001090830782496456
1590514938.5098484,0.029195602627698082,-4.318043973723019,8.570457165839926,0.41,0.37333333333333335,-0.6133333333333333,-0.011033931050888202,8.774614150661933e-05,-0.0009153384994832173
1590514938.5198483,0.02,-4.409336598490741,8.691160952641203,0.41,0.37333333333333335,-0.6133333333333333,0.00023518910592281643,0.0010365563734373445,0.0011089222521828265
1590514938.5298483,0.02,-4.374070376053644,8.752876841906122,0.41,0.37333333333333335,-0.6133333333333333,0.01273777043636729,-0.001848654702819073,0.0020706592776016325
1590514938.5398483,0.0031769252001104054,-4.364235900266814,8.806233324132855,0.41,0.3655555555555556,-0.6433333333333333,0.006596169136884449,0.0007442820022995416,-0.0004620650402625525
1590514938.5498483,0.02918281000532198,-4.3926452900478985,8.684279670037254,0.41,0.3655555555555556,-0.6433333333333333,-0.003251360766604391,-0.002092519964858622,-0.0039176151293143745
1590514938.5598483,0.018300450378363548,-4.3371927939461825,8.621699549621637,0.41,0.3655555555555556,-0.6433333333333333,-0.013417709911289138,-0.0009054386781303315,0.001461614991228705
1590514938.5698483,0.01,-4.4503983159436205,8.650633351638294,0.41,0.3655555555555556,-0.6433333333333333,-0.0034630233254608336,0.0002250749511312475,0.0030474173963581206
1590514938.5798483,0.01,-4.304522972725609,8.80418634449936,0.41,0.3655555555555556,-0.6433333333333333,0.0032369899288315117,0.001900078264704334,0.0013724140827850338
1590514938.5898483,0.03,-4.3732010173201985,8.817086150280085,0.3955555555555556,0.3588888888888889,-0.6133333333333333,0.00984880216828057,0.0018638098679877152,-0.00021190113133679787
1590514938.5998483,0.03,-4.325940538278282,8.79683165926212,0.3955555555555556,0.3588888888888889,-0.6133333333333333,0.0024840614062161745,-0.0003456123606316039,-0.0016848492837496772
1590514938.6098483,0.030386210966655672,-4.349227578066689,8.66,0.3955555555555556,0.3588888888888889,-0.6133333333333333,-0.007635815477475192,-4.212908109657209e-05,-0.001090830782496456
1590514938.6198483,0.037666591449549564,-4.334666817100901,8.66,0.3955555555555556,0.3588888888888889,-0.6133333333333333,-0.007635815477475192,-0.000836295394999279,-0.001090830782496456
1590514938.6298482,0.02396308696508455,-4.362073826069831,8.740184565174577,0.3955555555555556,0.3588888888888889,-0.6133333333333333,0.003734997479082694,0.0006585250569739881,0.0006585250569739881
1590514938.6398482,0.0049354685544092895,-4.362467734277205,8.797661328613977,0.40643549493292663,0.3639103993707525,-0.6133333333333333,0.01147484108239959,0.001090830782496456,0.0002691880512596469
1590514938.6498482,0.00954908632158422,-4.380450913678415,8.753236294823763,0.41,0.3655555555555556,-0.6133333333333333,0.01031806320016699,0.0020832874608599835,-0.001984913356727055
1590514938.6598482,0.0015318449422738745,-4.388468155057726,8.632977674134107,0.41,0.3655555555555556,-0.6133333333333333,-0.0001764812245402935,0.00033419672340876967,0.0015132681181753726
1590514938.6698482,0.01955644609520086,-4.372217769523996,8.6404435539048,0.41,0.3655555555555556,-0.6133333333333333,-0.011612064805019891,0.002084893114382631,-0.002181661564992912
1590514938.6798482,0.011357247580881635,-4.413213762095592,8.64864275241912,0.41,0.3655555555555556,-0.6133333333333333,-0.004456914300044997,0.00029610548813890697,-0.002181661564992912
1590514938.6898482,0.02,-4.316983012510897,8.81,0.4222222222222222,0.3855555555555555,-0.62,0.0064361663378152455,-0.00010881835716348973,0.0009820124253329663
1590514938.6998482,0.019111713769150253,-4.374670282614901,8.797563992768104,0.4222222222222222,0.3855555555555555,-0.62,0.00496966893034295,-0.0012846247753521877,9.689699642786578e-05
1590514938.7098482,0.011693606530688188,-4.327621229388097,8.669153196734657,0.4222222222222222,0.3855555555555555,-0.62,-0.0006466033479890962,-0.0029953766269226125,0.0007213431550741152
1590514938.7198482,0.029646864506265524,-4.407881187037593,8.661412541974938,0.4222222222222222,0.3855555555555555,-0.62,-0.0072120833038217804,-3.852110669576472e-05,-0.003118407920706309
1590514938.7298481,0.023921482977968277,-4.37352889786781,8.684314068088126,0.4222222222222222,0.3855555555555555,-0.62,-0.00034211864995821115,-0.0006630633479560893,-0.0006202389556650111
1590514938.7398481,0.014555903435774904,-4.366332289692675,8.7435527725138,0.4222222222222222,0.38132125822782487,-0.6163706022905165,0.009114193622097765,-0.000496971970982463,0.000496971970982463
1590514938.7498481,0.010521507153312244,-4.332607535766561,8.812177392700317,0.4222222222222222,0.37777777777777777,-0.6133333333333333,0.004771502645132168,-0.0010339431768839466,-0.0009201679656589279
1590514938.759848,0.02,-4.379425175026834,8.669712587513418,0.4222222222222222,0.37777777777777777,-0.6133333333333333,-0.007635815477475192,0.00012540735505526472,0.0020876060487014635
1590514938.769848,0.02,-4.365985997853218,8.662992998926608,0.4222222222222222,0.37777777777777777,-0.6133333333333333,-0.007635815477475192,0.0030573809855362947,-0.00011137417415930939
1590514938.779848,0.027029828643960228,-4.36702982864396,8.67405965728792,0.4222222222222222,0.37777777777777777,-0.6133333333333333,-0.0015011326930694834,0.0028296524338843965,-0.0003239954344457424
1590514938.789848,0.03,-4.323164649263527,8.783037771620242,0.4222222222222222,0.3663291364866398,-0.5998031208983521,0.007221563857580082,-0.0019054938183961719,0.0
1590514938.799848,0.020314623158407402,-4.310314623158407,8.780314623158407,0.4222222222222222,0.3655555555555556,-0.5988888888888889,0.005522794037697691,-6.864012521541054e-05,0.0010565107198887507
1590514938.809848,0.012496769906604158,-4.325006460186792,8.70496769906604,0.4222222222222222,0.3655555555555556,-0.5988888888888889,-0.0019121250061446696,0.0,-0.0013645955237125277
1590514938.819848,0.01,-4.339548387096774,8.699096774193547,0.4222222222222222,0.3655555555555556,-0.5988888888888889,-0.007488025500491801,-0.0010415674568353258,-0.002181661564992912
1590514938.829848,0.017036099894282595,-4.39628879915426,8.7,0.4222222222222222,0.3655555555555556,-0.5988888888888889,-0.006100776606794489,0.00044420808818424677,0.00012089674102814217
1590514938.839848,0.02,-4.3479710039869515,8.754021747009785,0.4052153759413636,0.3655555555555556,-0.6178965406145543,0.0063315630000198445,-0.0008734553695872312,0.0020729738585382996
1590514938.849848,0.0008916949028593725,-4.378216610194281,8.78866245764571,0.4033333333333333,0.3655555555555556,-0.62,0.009720208217604685,-0.001090830782496456,-0.0009449275452013276
1590514938.859848,0.029859315683696,-4.3202813686326085,8.730281368632609,0.4033333333333333,0.3655555555555556,-0.62,0.002217469547655314,0.001080599930307198,-0.004347976851701937
1590514938.869848,0.01,-4.389852996607614,8.710147003392386,0.4033333333333333,0.3655555555555556,-0.62,-0.004363323129985824,0.0010801403941267207,-1.0690388369735339e-05
1590514938.879848,0.01,-4.366138522427441,8.73386147757256,0.4033333333333333,0.3655555555555556,-0.62,-0.004363323129985824,-0.0006444248343033152,-0.0017352556167997712
1590514938.889848,0.01655131717597471,-4.379653951527924,8.707243414120127,0.4077008781173165,0.3655555555555556,-0.6156324552160168,0.0006391417790298521,0.00033844490579373714,-0.0014670237208478155
1590514938.899848,0.02,-4.355658089057955,8.712894607294697,0.41,0.3655555555555556,-0.6133333333333333,0.005769906586511686,-0.00015787633701470297,-0.001090830782496456
1590514938.909848,0.011227908406331644,-4.338772091593668,8.712455816812664,0.41,0.3655555555555556,-0.6133333333333333,0.003808268462574457,-0.0020477175362216397,0.0008229427249539115
1590514938.919848,0.0008354029187066861,-4.34,8.728329194162587,0.41,0.3655555555555556,-0.6133333333333333,-0.004725127336872169,0.0018171482771878566,-0.0009085741385939283
1590514938.929848,0.022529767141767847,-4.347509922380589,8.722490077619412,0.41,0.3655555555555556,-0.6133333333333333,-0.006273359363172865,0.002181661564992912,-0.0019100362331870412
1590514938.939848,0.009977815913942489,-4.3999112636557705,8.700155288602401,0.41,0.3655555555555556,-0.6055555555555555,-0.002162302297830445,-2.4199083953083657e-06,-0.002174401839806987
1590514938.949848,0.0011998242015821853,-4.364799296806329,8.761601230588925,0.41,0.3655555555555556,-0.6055555555555555,0.005497940556842671,-0.0009599502652294478,0.0006981892306954316
1590514938.959848,0.012964322156782011,-4.366482161078391,8.718142711372872,0.41,0.3655555555555556,-0.6055555555555555,0.006544984694978735,-0.0017979248666373892,0.0003837366983555228
1590514938.969848,0.011295587661069894,-4.3351823506442795,8.75963529871144,0.41,0.3655555555555556,-0.6055555555555555,0.000847960141270576,-0.00028265338042352526,-0.0009495040922846933
1590514938.979848,0.022038148073117138,-4.354076296146235,8.751942777890324,0.41,0.3655555555555556,-0.6055555555555555,-0.003282895620601643,0.0006565791241203287,-0.002403989030737114
1590514938.989848,0.024271189993711133,-4.375728810006289,8.74572881000629,0.41700187889657525,0.3655555555555556,-0.618922778903563,-0.0023295727615154733,0.001090830782496456,-0.001397743656909284
1590514938.999848,0.02,-4.373983357965703,8.75,0.4222222222222222,0.3655555555555556,-0.6288888888888889,0.0026252553353090257,0.0017471446163237125,-0.0006563138338272564
1590514939.0098479,0.002377334599556819,-4.352377334599557,8.705943336498892,0.4222222222222222,0.3655555555555556,-0.6288888888888889,0.007246825013251622,-0.0007018403182728864,-0.0030131653713403213
1590514939.0198479,0.017825947628639444,-4.332174052371361,8.735651895257279,0.4222222222222222,0.3655555555555556,-0.6288888888888889,0.0027745423773527893,0.0018259330775769855,-0.003272492347489368
1590514939.0298479,0.004728392527201806,-4.337635803736399,8.755271607472798,0.4222222222222222,0.3655555555555556,-0.6288888888888889,0.0005157876120397943,0.0013487245885163532,-0.002439555371012809
1590514939.0398479,0.02602897145627192,-4.383381619093786,8.742647352362486,0.4058336105645695,0.359771339676384,-0.615392385170822,-0.004732200550203836,0.00014439067245568878,-0.0012352214549521449
1590514939.0498478,0.0032026628990157804,-4.39,8.704270217198687,0.4033333333333333,0.3588888888888889,-0.6133333333333333,-0.0005822605460342927,0.0,-0.00011645210920685836
1590514939.0598478,0.024400060753341436,-4.365599939246659,8.667466585662211,0.4033333333333333,0.3588888888888889,-0.6133333333333333,0.004436056227421417,0.0,0.0
1590514939.0698478,0.013049037801560873,-4.343049037801561,8.719328367694537,0.4033333333333333,0.3588888888888889,-0.6133333333333333,0.00360509077658316,0.00092453156794956,0.00184906313589912
1590514939.0798478,0.017159844636988348,-4.361479533910965,8.758639378547953,0.4033333333333333,0.3588888888888889,-0.6133333333333333,-0.0014136150092620633,0.001090830782496456,-0.0001613921133828038
1590514939.0898478,0.02,-4.37901817707994,8.74294546876018,0.3923111169022955,0.37191514467102454,-0.606319195604491,-0.002288761831409106,-0.0028440912818245923,-0.00010710026641619396
1590514939.0998478,0.028037867525602906,-4.371962132474398,8.748037867525603,0.3911111111111111,0.37333333333333335,-0.6055555555555555,-0.0004280709004816578,-0.005026083012000622,0.0
1590514939.1098478,0.016510873632999294,-4.3632554368165,8.675809804981496,0.3911111111111111,0.37333333333333335,-0.6055555555555555,0.0022071531405163437,-0.003982718485471384,-0.0014714354270108957
1590514939.1198478,0.01863643831115492,-4.334090685066536,8.72636438311155,0.3911111111111111,0.37333333333333335,-0.6055555555555555,0.004214581623583317,-0.00044622451920752013,-0.002181661564992912
1590514939.1298478,0.012925176435350717,-4.337074823564649,8.775374117823246,0.3911111111111111,0.37333333333333335,-0.6055555555555555,0.002048092532470601,-0.0007717435325050743,-0.002181661564992912
1590514939.1398478,0.026528702424318547,-4.364793053636478,8.78173564878784,0.41314938101020254,0.37333333333333335,-0.6174929517508967,-0.0025151726973376386,0.0007121709574205914,-0.0012801606950343884
1590514939.1498477,0.01852641860172028,-4.38721037209742,8.728368883707741,0.4177777777777778,0.37333333333333335,-0.62,-0.003272492347489368,0.0017166175712325683,-0.001090830782496456
1590514939.1598477,0.020746344105434193,-4.383880483841849,8.657760967683698,0.4177777777777778,0.37333333333333335,-0.62,-0.00268637020001402,0.001009417270042216,-0.0016769529299718038
1590514939.1698477,0.03,-4.353996813536973,8.702014339083618,0.4177777777777778,0.37333333333333335,-0.62,0.003928207379171874,0.0,-0.002181661564992912
1590514939.1798477,0.03673086630683804,-4.3567308663068385,8.733461732613677,0.4177777777777778,0.37333333333333335,-0.62,0.00545415391248228,-0.0007342236160367169,-0.0007132143329194782
1590514939.1898477,0.03440719123150954,-4.371185617536981,8.767964043842452,0.40969927622329155,0.36525483177884716,-0.6081929592665202,0.0017936691333109833,-0.001090830782496456,-0.0018302423895856484
1590514939.1998477,0.03,-4.38785342169614,8.742879469823157,0.4033333333333333,0.3588888888888889,-0.5988888888888889,-0.0028041816093116005,-0.0002341553690888838,0.00015420930614092054
1590514939.2098477,0.017984330007366236,-4.377984330007366,8.669921650036832,0.4033333333333333,0.3588888888888889,-0.5988888888888889,-0.0006510798074325932,0.0,-0.0002198754875319315
1590514939.2198477,0.016677366983986423,-4.363322633016014,8.716805770791824,0.4033333333333333,0.3588888888888889,-0.5988888888888889,0.002547606272928038,0.0,-0.0018192185277122468
1590514939.2298477,0.007291457674203257,-4.347291457674204,8.772708542325796,0.4033333333333333,0.3588888888888889,-0.5988888888888889,0.0025793488890074583,0.002079430375445729,-0.0014885181065110024
1590514939.2398477,0.02280102898980904,-4.355200685993206,8.772399657003396,0.4176895367713612,0.37915647021316357,-0.6200009527683418,-0.00030554486447486586,0.0007852859180215903,-0.0019198995923190485
1590514939.2498477,0.013307894166646607,-4.36,8.786692105833353,0.4222222222222222,0.3855555555555555,-0.6266666666666667,-0.003822070212653038,0.0027312394301565817,-0.00036083527822185777
1590514939.2598476,0.015636842866556307,-4.3712736857331125,8.699810514135098,0.4222222222222222,0.3855555555555555,-0.6266666666666667,-0.0012889022725182326,0.0014278398330088134,0.0006148841714935183
1590514939.2698476,0.026065015987537916,-4.373934984012462,8.678520127900304,0.4222222222222222,0.3855555555555555,-0.6266666666666667,0.001090830782496456,0.0013231812271079007,-0.00023235044461144476
1590514939.2798476,0.03,-4.360490974304698,8.738527077085907,0.4222222222222222,0.3855555555555555,-0.6266666666666667,0.0021281045764949677,0.0006257508739951445,-0.0005721938854972001
1590514939.2898476,0.027601364298306123,-4.345202728596612,8.777195907105082,0.4192905563645964,0.38262388969792965,-0.621602880185313,0.0019642395177880347,-0.00030587908467565603,-0.0005233011318805333
1590514939.2998476,0.0268074886069713,-4.3640374430348565,8.73873260253726,0.41,0.37333333333333335,-0.6055555555555555,-0.0029242433773907332,0.003666825189788555,-0.0014390797525950906
1590514939.3098476,0.03,-4.392849730389663,8.665025943636179,0.41,0.37333333333333335,-0.6055555555555555,-0.0025716482746981255,0.0015599468388208552,-0.0017916748552876981
1590514939.3198476,0.024540343174588954,-4.383621029523767,8.661838627301645,0.41,0.37333333333333335,-0.6055555555555555,0.00020056312581718822,0.00119111234540505,-0.0015861053922903868
1590514939.3298476,0.025107576293154237,-4.354677271120537,8.731075762931543,0.41,0.37333333333333335,-0.6055555555555555,0.0038531119983494467,0.0016245114205407337,0.0011377697953122575
1590514939.3398476,0.025355435688286628,-4.349289128623427,8.784644564311712,0.41,0.37333333333333335,-0.6055555555555555,0.003934223795731857,0.001090830782496456,0.002259205602989086
1590514939.3498476,0.02,-4.366249866219543,8.777500267560914,0.41,0.37333333333333335,-0.6055555555555555,0.00013639762736434918,0.001090830782496456,0.00040907613662026845
1590514939.3598475,0.009119327032921384,-4.359119327032921,8.726477308131685,0.41,0.37333333333333335,-0.6055555555555555,-0.0022777280831730966,0.0004973821321581359,0.0005934486503383201
1590514939.3698475,0.005890793746695869,-4.373563174986783,8.684109206253304,0.41,0.37333333333333335,-0.6055555555555555,-0.001987320517042671,0.0,-0.00019434104795024078
1590514939.3798475,0.015764205916193444,-4.37270738225142,8.726113647329548,0.41,0.37333333333333335,-0.6055555555555555,0.001424278517516343,0.0006287773250031998,-0.001090830782496456
1590514939.3898475,0.02,-4.353843032430517,8.772313935138964,0.4147887525540419,0.37333333333333335,-0.6103443081095974,0.0046157342978141395,0.00041920980733407007,0.0002524111678283158
1590514939.3998475,0.02,-4.357194572305332,8.74402713847334,0.4177777777777778,0.37333333333333335,-0.6133333333333333,0.0023149295374613127,0.0,0.00030602468874121424
1590514939.4098475,0.012783783138855084,-4.36,8.665054048249697,0.4177777777777778,0.37333333333333335,-0.6133333333333333,-0.0004835035145649097,0.0007871671485306828,0.0
1590514939.4198475,0.02398637256034184,-4.373986372560342,8.653986372560341,0.4177777777777778,0.37333333333333335,-0.6133333333333333,-0.0018536690687106887,0.0018536690687106887,-0.0007628382862142326
1590514939.4298475,0.03,-4.375808335507057,8.689341651450599,0.4177777777777778,0.37333333333333335,-0.6133333333333333,-0.0008099425673531418,0.0026389012308728355,-0.0015480704483763793
1590514939.4398475,0.02926911603077406,-4.368538232061548,8.734385303815356,0.4186710804068317,0.3722776120444514,-0.6127648680239354,0.0013300120021159097,0.0029535840546634296,-0.0020222074185799427
1590514939.4498475,0.014106809851456499,-4.35,8.778213619702912,0.43,0.3588888888888889,-0.6055555555555555,0.0037204758078722127,-0.0004479834603828446,0.0006428473221136114
1590514939.4598475,0.015867916557703525,-4.35,8.711320834422965,0.43,0.3588888888888889,-0.6055555555555555,0.0007121307433839087,-0.0006400904010263648,0.001090830782496456
1590514939.4698474,0.024129268763264516,-4.3541292687632644,8.682387806289793,0.43,0.3588888888888889,-0.6055555555555555,-0.001090830782496456,-0.0006403974348794552,0.0006403974348794552
1590514939.4798474,0.0267325917938823,-4.369802224618353,8.716337041030588,0.43,0.3588888888888889,-0.6055555555555555,-0.0003779928924535134,0.0,-0.0003564189450214713
1590514939.4898474,0.02380030459182609,-4.374798781632696,8.753800304591826,0.425355183276657,0.36437821774374884,-0.6144229329364831,0.001919928628821762,0.0012436467694879588,-0.001090830782496456
1590514939.4998474,0.02562857551487414,-4.354371424485126,8.777485697940504,0.4177777777777778,0.37333333333333335,-0.6288888888888889,0.002795643908315967,0.0023187954691425666,0.0003397145350237461
1590514939.5098474,0.02,-4.369056219000052,8.741134576499663,0.4177777777777778,0.37333333333333335,-0.6288888888888889,0.0016877214420786206,-0.0008849297091607095,-0.0002880390495785452
1590514939.5198474,0.02421680817029654,-4.375783191829703,8.686867232681186,0.4177777777777778,0.37333333333333335,-0.6288888888888889,-0.0016690637111287595,-0.0023525275162809625,-0.0018925451006767601
1590514939.5298474,0.015561106309420914,-4.365187035436474,8.719625929127053,0.4177777777777778,0.37333333333333335,-0.6288888888888889,-0.0038791149421945276,-0.001090830782496456,0.0005250129900959174
1590514939.5398474,0.0,-4.345944418276025,8.748740775631967,0.41101027546623403,0.37541564173688524,-0.6288888888888889,-0.0011595108176324393,-0.001090830782496456,6.868003513598332e-05
1590514939.5498474,0.01123736424600898,-4.341237364246009,8.753143953630987,0.4033333333333333,0.37777777777777777,-0.6288888888888889,0.0012258062833671673,-0.0017037339241800396,-0.001090830782496456
1590514939.5598474,0.014512212026281501,-4.366463363921155,8.70707327215769,0.4033333333333333,0.37777777777777777,-0.6288888888888889,0.0009844119550837136,0.00021283765482548464,-0.0016894555874510551
1590514939.5698473,0.01,-4.368609909250261,8.67430495462513,0.4033333333333333,0.37777777777777777,-0.6288888888888889,-0.0006212330802621876,0.0003179623242063488,-0.0009391954044685367
1590514939.5798473,0.01,-4.356124845275753,8.689375773621235,0.4033333333333333,0.37777777777777777,-0.6288888888888889,-0.0015135445885109762,-0.001090830782496456,0.0
1590514939.5898473,0.014131885385319901,-4.356197828077979,8.72413188538532,0.4072356695305799,0.37685958102548445,-0.6270524953843023,-0.001730942788187494,-0.0004147526172883293,0.0
1590514939.5998473,0.01892901852779169,-4.385535490736104,8.76767745368052,0.4222222222222222,0.37333333333333335,-0.62,0.0,-0.0008374802805902783,-0.000603828369116638
1590514939.6098473,0.020844973845581177,-4.368310052308837,8.730352643849303,0.4222222222222222,0.37333333333333335,-0.62,0.0,-0.002680990782182922,-0.001090830782496456
1590514939.6198473,0.02408645276292335,-4.35,8.703654188948306,0.4222222222222222,0.37333333333333335,-0.62,-0.001935203807985023,-0.002181661564992912,0.00019930508949355936
1590514939.6298473,0.025315593381305474,-4.36063118676261,8.725315593381305,0.4222222222222222,0.37333333333333335,-0.62,-0.004432174925001855,-0.0010219789874804251,0.002250513360008943
1590514939.6398473,0.02666339026088381,-4.373336609739116,8.736673219478233,0.42073928456039283,0.37333333333333335,-0.6129560461063103,-0.003998283267440116,-0.0003639676612605409,0.0018166217024472046
1590514939.6498473,0.02,-4.369133667180277,8.742755778120186,0.4177777777777778,0.37333333333333335,-0.5988888888888889,-0.0003006087603227907,-0.001090830782496456,-0.001090830782496456
1590514939.6598473,0.02,-4.35,8.713615593132825,0.4177777777777778,0.37333333333333335,-0.5988888888888889,0.0006440153984049523,-0.0028780923188624708,-0.00019720001431344867
1590514939.6698472,0.02,-4.353822752267371,8.691911376133685,0.4177777777777778,0.37333333333333335,-0.5988888888888889,-0.00041699758471067116,-0.004411659950705602,0.0012993295748517915
1590514939.6798472,0.01620111071723975,-4.36620111071724,8.70759777856552,0.4177777777777778,0.37333333333333335,-0.5988888888888889,-0.000524083417420606,0.0004143945368930765,0.000524083417420606
1590514939.6898472,0.01,-4.368370361474721,8.728370361474722,0.4177777777777778,0.3751934136610491,-0.6077242704455387,0.0008120643714057318,0.00017776598677166934,-0.0012685967692681252
1590514939.6998472,0.016009073773725506,-4.367981852452549,8.74,0.4177777777777778,0.37777777777777777,-0.62,0.002186610540839507,0.0008756340115051223,-0.0013109765293343855
