time,acc_x,acc_y,acc_z,mag_x,mag_y,mag_z,gyr_x,gyr_y,gyr_z
1590515724.6486824,0.06,-4.38,8.64,0.4544444444444444,0.2733333333333333,-0.6022222222222222,0.003272492347489368,-0.001090830782496456,0.002181661564992912
1590515724.6586823,0.07604814418361505,-4.363951855816385,8.651855567449156,0.4544444444444444,0.2733333333333333,-0.6022222222222222,0.0013195003704928377,-0.0017243223890001482,-0.0017505809677428748
1590515724.6686823,0.07550368013972056,-4.358992639720559,8.697518400698604,0.44649468424262584,0.2812830935351519,-0.6138411025171878,0.0018010751140264745,-0.00556403987267014,-0.001090830782496456
1590515724.6786823,0.07402608676780173,-4.367921739696595,8.743895652928794,0.44,0.2877777777777778,-0.6233333333333333,0.0039241451920538455,-0.006544984694978735,-0.001742483627060934
1590515724.6886823,0.07586427335857003,-4.37413572664143,8.707221539772869,0.44,0.2877777777777778,-0.6233333333333333,0.0024442441610352033,-0.005265598715678322,-0.002181661564992912
1590515724.6986823,0.08596358011671236,-4.37,8.729635801167124,0.44,0.2877777777777778,-0.6233333333333333,0.0017413564590158218,-0.0050138488065051895,-0.002832187241512278
1590515724.7086823,0.08022519227347319,-4.365112596136737,8.774887403863262,0.44,0.2877777777777778,-0.6233333333333333,0.0032479276811008774,-0.00545415391248228,-0.002739359289435385
1590515724.7186823,0.07336365727670076,-4.370090971830102,8.7833636572767,0.44261617788187835,0.2877777777777778,-0.6162322790825207,0.004363323129985824,-0.00545415391248228,-0.002181661564992912
1590515724.7286823,0.08740445282471536,-4.382595547175285,8.760382188701138,0.4477777777777778,0.2877777777777778,-0.6022222222222222,0.005171023636860058,-0.005050303659045163,-0.002585511818430029
1590515724.7386823,0.08752443079422291,-4.37,8.672573292382669,0.4477777777777778,0.2877777777777778,-0.6022222222222222,0.004503674457154759,-0.0030024496381031726,-0.003272492347489368
1590515724.7486823,0.08,-4.363363594097928,8.643363594097927,0.4477777777777778,0.2877777777777778,-0.6022222222222222,0.003272492347489368,-0.005801259486553877,-0.002548572763177175
1590515724.7586823,0.06911795920730178,-4.354558979603651,8.661764081585396,0.4477777777777778,0.2877777777777778,-0.6022222222222222,0.003272492347489368,-0.004668199209210853,-0.001588138311340044
1590515724.7686822,0.06518073311460573,-4.355180733114605,8.700722932458422,0.44374831868864,0.2877777777777778,-0.5947389410566806,0.0021422317160272354,-0.002181661564992912,-0.0016559610982275223
1590515724.7786822,0.07,-4.36,8.731707133623223,0.44,0.2877777777777778,-0.5877777777777777,0.00236788095559749,-0.004097236824644463,-0.002181661564992912
1590515724.7886822,0.07,-4.36,8.701900879891827,0.44,0.2877777777777778,-0.5877777777777777,0.00431148467249001,-0.00545415391248228,-0.001662165402492591
1590515724.7986822,0.08548544677386527,-4.36,8.706456340321596,0.44,0.2877777777777778,-0.5877777777777777,0.006017220646537035,-0.006017220646537035,3.530268561305447e-05
1590515724.8086822,0.09899380897998437,-4.3610061910200155,8.753018573060046,0.44,0.2877777777777778,-0.5877777777777777,0.0066547431087491905,-0.0067645015225196465,0.001090830782496456
1590515724.8186822,0.09059025064615014,-4.36940974935385,8.77822924806155,0.44,0.2877777777777778,-0.5877777777777777,0.007571429120054291,-0.008597873545129846,0.001090830782496456
1590515724.8286822,0.07,-4.364462104628661,8.76553789537134,0.46,0.28,-0.6088888888888889,0.007518464911711241,-0.005084764369879978,-0.001090830782496456
1590515724.8386822,0.07988355431777361,-4.374941777158887,8.705640451252245,0.46,0.28,-0.6088888888888889,0.008726646259971648,-0.002194363818459047,-0.0005517665179812955
1590515724.8486822,0.0800161675111891,-4.370016167511189,8.656655888325874,0.46,0.28,-0.6088888888888889,0.008726646259971648,-0.001090830782496456,-0.0014520895741444177
1590515724.8586822,0.06685301082543978,-4.35,8.681421684709067,0.46,0.28,-0.6088888888888889,0.007729916238482159,0.00015508174436540444,-0.0036157756138687075
1590515724.8686821,0.09,-4.35,8.713968214551775,0.44827152829511907,0.2823456943409762,-0.6025220042490964,0.003376374543935206,0.0037053574059520786,-0.00043286505846271085
1590515724.8786821,0.09,-4.35,8.703306295399516,0.4211111111111111,0.2877777777777778,-0.5877777777777777,0.001090830782496456,0.002181661564992912,0.001090830782496456
1590515724.8886821,0.07786242550441588,-4.362137574495584,8.64931212752208,0.4211111111111111,0.2877777777777778,-0.5877777777777777,0.001090830782496456,-0.00046634641193249796,0.0004288287882651035
1590515724.898682,0.07572229447907791,-4.364277705520922,8.650056061353546,0.4211111111111111,0.2877777777777778,-0.5877777777777777,0.00046662528606768606,-0.002805867061421682,0.0006242054964287699
1590515724.908682,0.08448971177255948,-4.36448971177256,8.69346913531768,0.4211111111111111,0.2877777777777778,-0.5877777777777777,0.0,-0.002782740766884906,0.001090830782496456
1590515724.918682,0.09430525825965566,-4.365694741740344,8.731526291298279,0.4325917998035262,0.2844292435758234,-0.5911263119797321,0.0,-0.0026512923886158626,0.0006211999588735052
1590515724.928682,0.10533644056292141,-4.354663559437078,8.776009321688763,0.4477777777777778,0.28,-0.5955555555555555,-0.0005821153634997377,-0.00269037698398963,-0.0005821153634997377
1590515724.938682,0.11,-4.355125549655189,8.73361895379292,0.4477777777777778,0.28,-0.5955555555555555,-0.00164994151660588,-0.0010634400967740637,2.7390685722392246e-05
1590515724.948682,0.08410998206814106,-4.354821996413628,8.695534010759115,0.4477777777777778,0.28,-0.5955555555555555,-0.0016168289946037729,-0.0005648325703891392,0.0005259982121073168
1590515724.958682,0.06302170353306874,-4.35,8.71302170353307,0.4477777777777778,0.28,-0.5955555555555555,-0.0007612140595514873,-0.00043159733660651874,0.0
1590515724.968682,0.0688421081846188,-4.35,8.718842108184619,0.4477777777777778,0.28,-0.5955555555555555,-0.0001263064035018517,0.0008382179754927526,0.0
1590515724.978682,0.0931180603589501,-4.363440969820525,8.719677090538426,0.4477777777777778,0.28,-0.5955555555555555,0.0,0.003987971549798831,-0.0004105755382515146
1590515724.988682,0.09503141229686715,-4.37,8.654905763109397,0.4477777777777778,0.28,-0.5955555555555555,-0.0010931151491878962,0.0005397044745196278,-0.0010862620491135758
1590515724.998682,0.1051128914785142,-4.365112891478514,8.634435542607429,0.4477777777777778,0.28,-0.5955555555555555,-0.0016485607237291667,-0.0016485607237291667,2.46290999689658e-05
1590515725.008682,0.0915280720826961,-4.355764036041348,8.689651747710563,0.4477777777777778,0.28,-0.5955555555555555,-0.0020149747584250746,0.00029538518139647163,-0.00016668680656783757
1590515725.018682,0.07792324924515438,-4.35,8.73,0.4461625271906756,0.2786154994967696,-0.596940056058786,-0.003272492347489368,0.0003693546442262278,0.0004112156872089494
1590515725.028682,0.07,-4.350436067489089,8.73,0.44,0.2733333333333333,-0.6022222222222222,-0.0033200599315238687,-0.0067352550311167375,-0.00203895881288941
1590515725.038682,0.07,-4.3549696094682995,8.709878437873197,0.44,0.2733333333333333,-0.6022222222222222,-0.004912053613981599,-0.011182673066962447,0.0005421002985006807
1590515725.048682,0.07,-4.3400174678715935,8.650069871486373,0.44,0.2733333333333333,-0.6022222222222222,-0.006543079245774866,-0.01199818588285908,-0.0010889253332925875
1590515725.058682,0.10612575086596221,-4.363874249134038,8.722251501731925,0.44,0.2733333333333333,-0.6022222222222222,-0.006210876814453941,-0.011999138607461015,-0.0011793379234185278
1590515725.068682,0.129993531694696,-4.359993531694696,8.769987063389392,0.44259091562455083,0.27555411815437686,-0.5951897369555843,-0.005090778845868001,-0.009455513141161064,0.001090830782496456
1590515725.078682,0.13186858272570737,-4.3664014370442805,8.769204311132842,0.4477777777777778,0.28,-0.5811111111111111,-0.0018910346183500242,-0.0009021192136957042,0.0005963730801692961
1590515725.088682,0.09818453247888144,-4.346061510826294,8.70030755413147,0.4477777777777778,0.28,-0.5811111111111111,0.0006612082597756821,0.003702114870210142,-0.0008592450454415477
1590515725.098682,0.08,-4.347901671399972,8.697655849899903,0.4477777777777778,0.28,-0.5811111111111111,0.00043096931981306976,0.003070415170546614,-0.0017506922451798422
1590515725.108682,0.08316519220851351,-4.3631651922085135,8.73050442337446,0.4477777777777778,0.28,-0.5811111111111111,0.0021266375105657986,0.0028171753292786936,-0.0004002929637835608
1590515725.118682,0.09,-4.368363036014957,8.71,0.44886908710113976,0.28,-0.5822024204344731,0.0040061929890412365,0.006009289483561854,0.001090830782496456
1590515725.128682,0.09139589309980371,-4.3572082138003925,8.707208213800394,0.4544444444444444,0.28,-0.5877777777777777,0.001724856616290825,0.003424760663723397,0.00048175751756034037
1590515725.138682,0.09088923779617471,-4.3536661433057375,8.644446188980874,0.4544444444444444,0.28,-0.5877777777777777,-9.700079610266803e-05,0.003369493143592036,-0.001781747367898686
1590515725.1486819,0.07635626601399671,-4.373643733986003,8.63372480783204,0.4544444444444444,0.28,-0.5877777777777777,0.0002958913434642764,0.002181661564992912,0.0011924091585482695
1590515725.1586819,0.07188272205993726,-4.378117277940063,8.719413610299688,0.4544444444444444,0.28,-0.5877777777777777,-0.000885457664709987,0.001565542211633505,0.0026563729941299612
1590515725.1686819,0.08178621120767882,-4.37,8.76089310560384,0.45315440301667637,0.28,-0.5896632229414387,0.00029226812540643284,-0.0007985626570900231,0.0001948454169376219
1590515725.1786819,0.09870178056502188,-4.37,8.76935089028251,0.44093760292526196,0.28,-0.6075185461519675,0.0030600716891729745,0.0019692409066765183,0.002040047792781983
1590515725.1886818,0.08428234694527617,-4.365717653054724,8.762870612218896,0.44,0.28,-0.6088888888888889,0.007168683890551501,0.000467131586923691,0.0
1590515725.1986818,0.09764254316111359,-4.352357456838886,8.709429827355544,0.44,0.28,-0.6088888888888889,0.005711312561308688,0.0019245029161665034,0.0
1590515725.2086818,0.08162439197511534,-4.368375608024885,8.74,0.44,0.28,-0.6088888888888889,0.00545415391248228,0.0029181049936301616,-0.00017719367692960321
1590515725.2186818,0.0906550014371946,-4.359344998562806,8.74,0.43876277506307687,0.27956333237520364,-0.6084522212640925,0.005239805193400894,0.0014480786476320983,-0.0008764820634150705
1590515725.2286818,0.1,-4.347202843851488,8.731608531554464,0.4211111111111111,0.2733333333333333,-0.6022222222222222,0.002181661564992912,0.006544984694978735,0.001571416758943635
1590515725.2386818,0.1,-4.341139193071574,8.706582420785278,0.4211111111111111,0.2733333333333333,-0.6022222222222222,0.002015972649035587,0.006503562465989404,0.0
1590515725.2486818,0.09684450325801103,-4.363689006516022,8.626310993483978,0.4211111111111111,0.2733333333333333,-0.6022222222222222,-0.0004606050748784847,0.004421520018413623,0.0003442112980228854
1590515725.2586818,0.09,-4.35,8.642088572689168,0.4211111111111111,0.2733333333333333,-0.6022222222222222,0.0033050391957868855,0.002181661564992912,0.0010257370859014215
1590515725.2686818,0.09,-4.351646654813805,8.711646654813805,0.4211111111111111,0.2733333333333333,-0.5987459509486349,0.004004078778177034,0.002002039389088517,-0.001090830782496456
1590515725.2786818,0.08568493537280578,-4.355684935372806,8.726472596940791,0.4211111111111111,0.2733333333333333,-0.5811111111111111,0.002181661564992912,0.00014942971773544613,-0.000620130250115951
1590515725.2886817,0.07,-4.3470863894660425,8.711024857936767,0.4211111111111111,0.2733333333333333,-0.5811111111111111,0.0025681641533088014,-0.0036589949358052576,0.001090830782496456
1590515725.2986817,0.06225122349102774,-4.36,8.667120717781403,0.4211111111111111,0.2733333333333333,-0.5811111111111111,0.003272492347489368,-0.003940692932852205,0.0006682005853628373
1590515725.3086817,0.06211242134012438,-4.36,8.719084316005095,0.4211111111111111,0.2733333333333333,-0.5811111111111111,0.002281547193861269,-0.003272492347489368,0.0003303150512093662
1590515725.3186817,0.09261068606547096,-4.361305343032736,8.74,0.4254622545535627,0.27173791407110104,-0.5819813397996014,-0.00014239083618251429,-0.003272492347489368,0.0009484399463139416
1590515725.3286817,0.1071566882038767,-4.364313376407753,8.717253505631014,0.4544444444444444,0.2611111111111111,-0.5877777777777777,-0.0020213023919304317,-0.002031863534910734,-0.00031015720314465857
1590515725.3386817,0.09781556665603855,-4.322694583200481,8.617403549792751,0.4544444444444444,0.2611111111111111,-0.5877777777777777,-0.0054356043402429945,0.0004951189990202499,-0.0012099731391916973
1590515725.3486817,0.08295638927268219,-4.136954865908527,8.327649590817302,0.4544444444444444,0.2611111111111111,-0.5877777777777777,-0.012729585981796108,-0.003557093024064815,-0.00202041554380871
1590515725.3586817,-0.08312752680611707,-4.343374494638777,8.852181182984708,0.4544444444444444,0.2611111111111111,-0.5877777777777777,-0.07249310201603781,0.006913084957713411,0.02243611607256899
1590515725.3686817,0.030162731333758776,-4.3770485003190815,9.008854499042757,0.45255016663121317,0.2627139615684606,-0.5877777777777777,-0.04300776132023278,0.008583592191175845,0.0536473641789921
1590515725.3786817,0.2249535242668496,-4.4723373349339735,8.639721145601097,0.44,0.2733333333333333,-0.5877777777777777,0.02948284942362004,0.008186300584759375,0.056122018422171974
1590515725.3886817,0.21056731263934145,-4.421985594237695,8.55340387583605,0.44,0.2733333333333333,-0.5877777777777777,0.03889860291569664,0.009755592833438808,0.038859803686698224
1590515725.3986816,0.1224527391333289,-4.364905478266658,8.624716434799973,0.44,0.2733333333333333,-0.5877777777777777,0.010105650820543908,0.006256810916902931,0.011217103046309284
1590515725.4086816,0.12943253677694203,-4.378865073553884,8.666595220661652,0.44,0.2733333333333333,-0.5877777777777777,0.00782151738296908,0.00854094435447776,0.005887458358634686
1590515725.4186816,0.0070309553147081755,-4.169295647144617,8.500388513088742,0.4423436517715694,0.2733333333333333,-0.5894704151683556,0.005599206674265701,0.008922692418910019,0.005130281378749897
1590515725.4286816,0.07406377663482733,-4.404063776634827,8.892054665686995,0.46,0.2733333333333333,-0.6022222222222222,-0.023988338712568644,0.003934941618869949,0.013976547919249373
1590515725.4386816,0.10115260533776518,-4.416728908006648,8.893844168540424,0.46,0.2733333333333333,-0.6022222222222222,-0.0136982496503309,0.014369746695127427,0.025550586258067148
1590515725.4486816,0.058628973550109195,-4.299895656394079,8.788420286338267,0.46,0.2733333333333333,-0.6022222222222222,-0.01091968994669408,0.020519318473269297,0.027488618078304283
1590515725.4586816,0.23209548485578854,-4.232493371896843,8.812493371896842,0.46,0.2733333333333333,-0.6022222222222222,-0.010315151607110325,0.00840836677942762,0.048861695329427045
1590515725.4686816,0.32107721892510194,-4.170061005934817,8.761138224859918,0.4540921499066123,0.2733333333333333,-0.5990221367549705,0.0038799882744676834,0.008844152616270542,0.05600485312169978
1590515725.4786816,0.36,-4.1,8.73,0.43333333333333335,0.2733333333333333,-0.5877777777777777,0.002181661564992912,0.01308996938995747,0.04581489286485115
1590515725.4886816,0.031814304753442935,-3.5483687250111062,8.499571745890716,0.43333333333333335,0.2733333333333333,-0.5877777777777777,-0.003911871349899773,0.0115665861612343,0.026772602505811503
1590515725.4986815,-0.7328078271028038,-2.899357476635514,8.317871495327102,0.43333333333333335,0.2733333333333333,-0.5877777777777777,-0.05507198107951223,-0.008502490728848835,0.03272893763022647
1590515725.5086815,-0.5855736236477641,-3.0912313098601256,9.361633018672913,0.43333333333333335,0.2733333333333333,-0.5877777777777777,-0.13934425596422428,-0.08998681252811819,0.15822488098327925
1590515725.5186815,-0.46941427476661557,-2.7832173958478474,8.766239549951234,0.43333333333333335,0.2733333333333333,-0.5877777777777777,-0.038582838286595936,-0.04712890166744629,0.3004794045630421
1590515725.5286815,-0.36036267847598685,-2.6630915476826753,8.9497640681072,0.4392323941869639,0.27923239418696394,-0.5946600154403467,-0.01284568392877841,-0.04980833132620546,0.5156276402208213
1590515725.5386815,-0.3158137747820932,-2.7383724504358136,9.114012119349244,0.44,0.28,-0.5955555555555555,-0.037805009150350205,-0.06557040905396738,0.6763728993948211
1590515725.5486815,-0.30654458095728937,-2.8359156428203294,8.667014414204724,0.44,0.28,-0.5955555555555555,-0.0016675208031552338,-0.07606113193886559,0.8703396941669683
1590515725.5586815,-0.2925982144341552,-2.940513391743836,8.897129461836439,0.44,0.28,-0.5955555555555555,-0.026008522255015838,-0.08366769489257203,0.9578151681345924
1590515725.5686815,-0.2703175865998667,-3.0222231061990668,8.802223106199067,0.4397882756000889,0.28024701179989636,-0.5948498075558517,-0.01667425165276551,-0.08948276748863368,1.082693940585435
1590515725.5786815,-0.27933622895478105,-3.0853536026834667,8.865353602683467,0.43377584736347935,0.28726151140927414,-0.5748083801004867,-0.025528283080125683,-0.09046654875834036,1.1613964421619702
1590515725.5886815,-0.24200683954140628,-3.122075234955469,8.89584953008906,0.43333333333333335,0.2877777777777778,-0.5733333333333334,-0.022469621962966164,-0.09119569165139495,1.2499104684177298
1590515725.5986814,-0.2521770367982315,-3.21,8.73523925758762,0.43333333333333335,0.2877777777777778,-0.5733333333333334,-0.022150652119915713,-0.09476135879635059,1.3016586365240264
1590515725.6086814,-0.2628250429728341,-3.214237564459251,8.785762435540748,0.43333333333333335,0.2877777777777778,-0.5733333333333334,-0.02757893394607567,-0.09894518138384172,1.3384003483644655
1590515725.6186814,-0.2776902766210062,-3.2365354149315095,8.76346458506849,0.43333333333333335,0.2877777777777778,-0.5733333333333334,-0.029200479391318496,-0.10299904499694877,1.361101984597865
1590515725.6286814,-0.2854925481643039,-3.290985096328608,8.78979098509633,0.4544444444444444,0.2488888888888889,-0.6088888888888889,-0.027462884253112788,-0.11355385871952837,1.3873446406447905
1590515725.6386814,-0.3090631433677971,-3.3245315716838983,8.703202642474153,0.4544444444444444,0.2488888888888889,-0.6088888888888889,-0.02681922025747853,-0.11696605262141507,1.3867525101689533
1590515725.6486814,-0.33833804687834773,-3.3433239062433047,8.689971718729913,0.4544444444444444,0.2488888888888889,-0.6088888888888889,-0.032543632512477244,-0.11744714258478436,1.3749968288487797
1590515725.6586814,-0.3317833569071193,-3.3617833569071194,8.74356671381424,0.4544444444444444,0.2488888888888889,-0.6088888888888889,-0.031342291600827715,-0.11543352888357798,1.3659355671933506
1590515725.6686814,-0.35650223950966525,-3.386502239509665,8.79300447901933,0.4544444444444444,0.2488888888888889,-0.6088888888888889,-0.027297673893061727,-0.11273711707840066,1.3538017140700527
1590515725.6786814,-0.38720352383103684,-3.4172035238310365,8.92322114298622,0.4821612328388927,0.23646412167758457,-0.6165348994804608,-0.029780641337995066,-0.10751151314217725,1.3246566563483553
1590515725.6886814,-0.4171791044776119,-3.4290597014925375,8.912820895522389,0.4866666666666667,0.2344444444444445,-0.6177777777777778,-0.02659022140258525,-0.10393663630416605,1.2962895744324863
1590515725.6986814,-0.48321336433417206,-3.463573271331656,8.73,0.4866666666666667,0.2344444444444445,-0.6177777777777778,-0.025205949221788187,-0.09953854341908601,1.254261915250492
1590515725.7086813,-0.5032517437971781,-3.4234965124056442,8.73,0.4866666666666667,0.2344444444444445,-0.6177777777777778,-0.025934565260107914,-0.09443823115084794,1.2258458897560225
1590515725.7186813,-0.5192449318710535,-3.428489863742107,8.78546959122632,0.4866666666666667,0.2344444444444445,-0.6177777777777778,-0.0241630075265094,-0.0907036852587932,1.1840054224290597
1590515725.7286813,-0.5414321988114533,-3.415711867459031,8.804288132540968,0.4866666666666667,0.20110546851551714,-0.6066647858014687,-0.02399827721492203,-0.08742176798719023,1.1564322417635369
1590515725.7386813,-0.5985554728220401,-3.41,8.761444527177959,0.4866666666666667,0.18777777777777774,-0.6022222222222222,-0.02187964503840397,-0.08405699964070196,1.1072684571381912
1590515725.7486813,-0.6251406644410065,-3.41,8.676197785196646,0.4866666666666667,0.18777777777777774,-0.6022222222222222,-0.020902475294440323,-0.07942326847478312,1.0795923431422312
1590515725.7586813,-0.6555756707475905,-3.3818585569158635,8.71115134149518,0.4866666666666667,0.18777777777777774,-0.6022222222222222,-0.02379554010543747,-0.08478069537049673,1.039894539979086
1590515725.7686813,-0.6965463011200833,-3.395515433706694,8.793092602240167,0.4866666666666667,0.18777777777777774,-0.6022222222222222,-0.022305805945817492,-0.08254609413106676,1.0182933946645962
1590515725.7786813,-0.7507388558692422,-3.371723997028232,8.820738855869243,0.5133333333333333,0.1688888888888889,-0.6177777777777778,-0.019715550757535966,-0.08505793547719032,0.9822206272060421
1590515725.7886813,-0.7741097696879644,-3.4262561292719167,8.844109769687964,0.5133333333333333,0.1688888888888889,-0.6177777777777778,-0.022264921978389356,-0.08420814507023917,0.9626754478461661
1590515725.7986813,-0.7970757324488668,-3.4100939745715864,8.785942509673854,0.5133333333333333,0.1688888888888889,-0.6177777777777778,-0.014036682672721118,-0.07451598338695387,0.9348624826705544
1590515725.8086812,-0.8426836601807874,-3.350894553393596,8.670414815382259,0.5133333333333333,0.1688888888888889,-0.6177777777777778,-0.008496597451620739,-0.05896755535995401,0.9199955597285274
1590515725.8186812,-0.8667814462999847,-3.3589271487666617,8.943523058066493,0.5133333333333333,0.1688888888888889,-0.6177777777777778,-0.02602100204417813,-0.07912062064139502,0.9042235955952259
1590515725.8286812,-0.8843739740927519,-3.3240650647681202,8.900943142489863,0.4989593592405815,0.15611202302866498,-0.6273604271729457,-0.02287374965239473,-0.07162058597256699,0.898981142443133
1590515725.8386812,-0.9156325134085446,-3.3356325134085445,8.767469946365821,0.4933333333333334,0.1511111111111111,-0.6311111111111111,-0.014201613447047519,-0.06483543504890092,0.893093611551451
1590515725.8486812,-0.9739876707361296,-3.3220041097546233,8.669018493895805,0.4933333333333334,0.1511111111111111,-0.6311111111111111,-0.02290520490899968,-0.06730358682300358,0.8893550094263883
1590515725.8586812,-1.021588821037575,-3.32,8.680794410518788,0.4933333333333334,0.1511111111111111,-0.6311111111111111,-0.0179494283888523,-0.06611929630826284,0.8965881487671987
1590515725.8686812,-1.0641190164875467,-3.3119603278374843,8.76235704946264,0.4933333333333334,0.1511111111111111,-0.6311111111111111,-0.019656591892976284,-0.06983480788781327,0.9122132861860487
1590515725.8786812,-1.0965204667531026,-3.303369883311724,8.793260233376552,0.5161704019262827,0.1378508777345599,-0.6355311889032949,-0.017109617179875417,-0.07379693501231543,0.9311181643397783
1590515725.8886812,-1.1385193339204227,-3.3570386678408455,8.828519333920422,0.5277777777777778,0.13111111111111112,-0.6377777777777778,-0.02045659217773245,-0.08252626970415036,0.9630561253542462
1590515725.8986812,-1.1620953793827116,-3.3158092412345765,8.741618482469155,0.5277777777777778,0.13111111111111112,-0.6377777777777778,-0.014298499539006172,-0.08049290747157072,0.9803626250479333
1590515725.9086812,-1.1997253184713375,-3.3297253184713376,8.789267515923566,0.5277777777777778,0.13111111111111112,-0.6377777777777778,-0.020645883249606485,-0.08287317636304584,1.0131321043835009
1590515725.9186811,-1.2351562170594932,-3.3124218914702537,8.84273432558924,0.5277777777777778,0.13111111111111112,-0.6377777777777778,-0.02072578486743266,-0.08769682494030843,1.045020121045021
1590515725.9286811,-1.2551684830871075,-3.244430128360378,8.925971260192137,0.56,0.11666666666666667,-0.6377777777777778,-0.018990618033481454,-0.08577292178506081,1.0843960697241255
1590515725.9386811,-1.3025731815613144,-3.285062727052555,8.797301364333576,0.56,0.11666666666666667,-0.6377777777777778,-0.013080846109981156,-0.08207931433287312,1.115422372322502
1590515725.948681,-1.2515247823700102,-3.0134852168457376,8.709782173947142,0.56,0.11666666666666667,-0.6377777777777778,-0.025966088552595867,-0.09158226345696473,1.1636810150504981
1590515725.958681,-1.3090890910516824,-3.1450607795467023,8.70155870127833,0.56,0.11666666666666667,-0.6377777777777778,-0.017892713139054973,-0.08978818003173342,1.1959745167046618
1590515725.968681,-1.3772989308418415,-3.2682267385860144,8.86371123097669,0.56,0.11666666666666667,-0.6377777777777778,-0.02886314925073013,-0.09123393666660701,1.2145962098243777
1590515725.978681,-1.3967163771227795,-3.2967163771227797,8.792537966035527,0.542089661005921,0.09427874292406793,-0.6482254755243239,-0.023575018688775935,-0.0930950719121789,1.227624156543381
1590515725.988681,-1.4269741221947814,-3.3269741221947817,8.766974122194782,0.5333333333333333,0.08333333333333333,-0.6533333333333333,-0.02257737436702506,-0.09577306081608777,1.2424468518279579
1590515725.998681,-1.485351206055033,-3.33,8.705423592935794,0.5333333333333333,0.08333333333333333,-0.6533333333333333,-0.02190113310887334,-0.10102467547744928,1.2475723453401688
1590515726.008681,-1.5319282934308291,-3.3007713173723316,8.75269961080316,0.5333333333333333,0.08333333333333333,-0.6533333333333333,-0.02093612905063607,-0.09947594539038089,1.254037670474679
1590515726.018681,-1.5731507253213823,-3.317260290128553,8.810411015449935,0.5333333333333333,0.08333333333333333,-0.6533333333333333,-0.025432798814193962,-0.10397261515393878,1.268427013718064
1590515726.028681,-1.5899233912155262,-3.3001532175689476,8.86961695607763,0.5454619225967541,0.06348655090228125,-0.6731801157643854,-0.027262412840380015,-0.10688470324058992,1.292467342817673
1590515726.038681,-1.6080180297036126,-3.290990985148194,8.860990985148193,0.5455555555555556,0.06333333333333334,-0.6733333333333333,-0.0262880384903796,-0.10591868561262088,1.2818244354659505
1590515726.048681,-1.619268613392215,-3.327074453568859,8.776582479470067,0.5455555555555556,0.06333333333333334,-0.6733333333333333,-0.024157841020057594,-0.09772219486272682,1.238171285693835
1590515726.058681,-1.592008470317996,-3.2926779604239944,8.807322039576006,0.5455555555555556,0.06333333333333334,-0.6733333333333333,-0.01687367202878691,-0.08995933445604946,1.181894807260413
1590515726.068681,-1.629821973550356,-3.3059287894201423,8.754249237029502,0.5455555555555556,0.06333333333333334,-0.6733333333333333,-0.0172312424288166,-0.08076031725101178,1.1303143070708355
1590515726.078681,-1.7183682483207066,-3.261019844799558,8.877144434561238,0.5597053781690166,0.048095062826529256,-0.7168712490670592,-0.02920768594524434,-0.08815704732408204,1.074289722019109
1590515726.088681,-1.7541400072782611,-3.2463439970886956,8.859515995633043,0.56,0.04777777777777778,-0.7177777777777777,-0.02721797287617749,-0.08686765454806172,1.0711430317252857
1590515726.098681,-1.8138653616430966,-3.2312269276713805,8.753496204385188,0.56,0.04777777777777778,-0.7177777777777777,-0.02617993877991494,-0.08426164434659485,1.068191010158398
1590515726.108681,-1.8272198420385963,-3.193900789807019,8.732780157961404,0.56,0.04777777777777778,-0.7177777777777777,-0.03011775175014631,-0.09186959619268983,1.0750113994104469
1590515726.118681,-1.8672466844964017,-3.18,8.774696021395682,0.56,0.04777777777777778,-0.7177777777777777,-0.03000889949261288,-0.09327708487740732,1.0956179383041262
1590515726.128681,-1.9155749978236267,-3.1230800034821975,8.846919996517801,0.5394455568130156,0.04777777777777778,-0.7320077769072284,-0.03410918745299508,-0.09272061651219876,1.1343363846005559
1590515726.138681,-1.9730735735735736,-3.125844144144144,8.818311711711711,0.5311111111111111,0.04777777777777778,-0.7377777777777778,-0.03411797662373585,-0.09366033611152236,1.205816598344335
1590515726.148681,-1.98,-3.1369584506123362,8.782166197550655,0.5311111111111111,0.04777777777777778,-0.7377777777777778,-0.03229765583210661,-0.09532954571997874,1.2546560507584237
1590515726.158681,-1.98,-3.130595618187823,8.77,0.5311111111111111,0.04777777777777778,-0.7377777777777778,-0.03060823377529002,-0.09907068561100972,1.3057620366554055
1590515726.168681,-1.98,-3.1541890973083233,8.826441227052754,0.5311111111111111,0.04777777777777778,-0.7377777777777778,-0.032302342706215494,-0.09486789921639067,1.3105447294077228
1590515726.178681,-1.9894756477292757,-3.1789512954585515,8.811573056812174,0.494261369941706,0.0025052386267943524,-0.7798917676856694,-0.028590392184019084,-0.08967691600382062,1.2770687174110247
1590515726.188681,-2.0189726323890147,-3.1317122793516425,8.848630176518686,0.4922222222222222,0.0,-0.7822222222222223,-0.029415074986904217,-0.0810203270287385,1.2045983837246008
1590515726.1986809,-2.055724739904779,-3.147862369952389,8.823206445071417,0.4922222222222222,0.0,-0.7822222222222223,-0.027503948828163705,-0.07585027215663623,1.1261047126407109
1590515726.2086809,-1.9522234328466623,-3.024260671654439,8.685279291058327,0.4922222222222222,0.0,-0.7822222222222223,-0.023351902992989493,-0.06449044092634522,1.030795656749089
1590515726.2186809,-2.0059422463630936,-2.9825240640153776,8.62054331522768,0.4922222222222222,0.0,-0.7822222222222223,-0.017512559017438516,-0.05487613829481458,0.9670687382668122
1590515726.2286808,-2.069223292836196,-2.987669878508588,8.750630917469627,0.46762677465903274,-0.02510785272075594,-0.7822222222222223,-0.03421817804753106,-0.059063711345715926,0.8705253729351528
1590515726.2386808,-2.0687317885926846,-3.0256341057036575,8.758440406075636,0.4388888888888889,-0.054444444444444434,-0.7822222222222223,-0.04907149276138661,-0.05785936299797193,0.7614587643319379
1590515726.2486808,-2.0958743068391867,-3.008475415896488,8.559775970425138,0.4388888888888889,-0.054444444444444434,-0.7822222222222223,-0.018754546778338696,-0.029687292438948097,0.6820482175206661
1590515726.2586808,-2.1620096283239514,-3.0260048141619755,8.728534902674324,0.4388888888888889,-0.054444444444444434,-0.7822222222222223,-0.04102101400154926,-0.03921838620649073,0.6164739580006428
1590515726.2686808,-2.1967752452394693,-3.080651471436815,8.836775245239469,0.4388888888888889,-0.054444444444444434,-0.7822222222222223,-0.060031225292164814,-0.04651842521660896,0.5568815460327929
1590515726.2786808,-2.144175722263664,-3.1248107901050384,8.765567629684886,0.43406456859068704,-0.09648494990020362,-0.7629249410294148,-0.036728587593630804,-0.020103737959448708,0.541728677457858
1590515726.2886808,-1.9159781696053735,-3.3604793527211663,8.975756049156553,0.4311111111111111,-0.12222222222222222,-0.7511111111111111,-0.02085459299051655,-0.004363323129985824,0.5517631254948643
1590515726.2986808,-1.8816154443820952,-3.3229235550567617,8.942923555056762,0.4311111111111111,-0.12222222222222222,-0.7511111111111111,-0.009750427228755713,0.02490429723981938,0.6207325788308777
1590515726.3086808,-2.241777675347622,-2.7982169470692173,8.400569255588845,0.4311111111111111,-0.12222222222222222,-0.7511111111111111,0.027015345714746865,0.06038176182542532,0.8503424420818289
1590515726.3186808,-2.370756756756757,-2.7232702702702705,8.356918918918918,0.4311111111111111,-0.12222222222222222,-0.7511111111111111,6.780839999302041e-05,0.012972041737795682,1.0495207259441848
1590515726.3286808,-2.440512647879196,-2.788653457728191,8.865830528036934,0.4489101557073087,-0.15188729654921826,-0.7460256697979117,-0.09182514274778525,-0.1451356808558695,1.2770683419264652
1590515726.3386807,-2.442455611609775,-2.840177553560899,9.382130642730786,0.4544444444444444,-0.16111111111111112,-0.7444444444444445,-0.1419629464363556,-0.22027363328067462,1.4315412678982125
1590515726.3486807,-2.2662375397000094,-2.695544479733342,8.39950441810006,0.4544444444444444,-0.16111111111111112,-0.7444444444444445,-0.024171020959478873,-0.07751371300879298,1.6040613317348513
1590515726.3586807,-2.3713072086277713,-2.7774556639218204,8.590564932157527,0.4544444444444444,-0.16111111111111112,-0.7444444444444445,0.015922978121364246,-0.07199483164476607,1.6393297365535047
1590515726.3686807,-2.4609027658107876,-2.8067669739789762,8.79887342753748,0.4544444444444444,-0.16111111111111112,-0.7444444444444445,-0.025844094294859333,-0.09856867631899799,1.6309149098242846
1590515726.3786807,-2.587062150024949,-2.735336807673116,8.765471530742364,0.4270679405912538,-0.21586411881749248,-0.7444444444444445,-0.042848174228971365,-0.12185257792088884,1.5905782409508793
1590515726.3886807,-2.694899106658675,-2.71,8.79553671832634,0.4177777777777778,-0.2344444444444445,-0.7444444444444445,-0.012786229197759642,-0.0948071958153044,1.5223313972675305
1590515726.3986807,-2.7383485839831962,-2.719587145995799,8.876697167966393,0.4177777777777778,-0.2344444444444445,-0.7444444444444445,-0.03496160195252655,-0.10422436587755449,1.449413953042932
1590515726.4086807,-2.7564189520078357,-2.72,8.863581047992165,0.4177777777777778,-0.2344444444444445,-0.7444444444444445,-0.033609376053519185,-0.10352573523522784,1.4159941105372862
1590515726.4186807,-2.744856763815762,-2.6912648729322997,8.799713527631525,0.4177777777777778,-0.2344444444444445,-0.7444444444444445,-0.022230544349078826,-0.0935263597256534,1.3774875541966136
1590515726.4286807,-2.7268017243124003,-2.65072068972496,8.801125862662161,0.40407911868477336,-0.2564814177679734,-0.7051352487862577,-0.007793045584798253,-0.07978787722956435,1.3297473614368631
1590515726.4386806,-2.769975491912331,-2.626707513479448,8.87334150269589,0.3922222222222223,-0.27555555555555555,-0.6711111111111111,-0.017807100249410672,-0.08689661436437947,1.2806700930802235
1590515726.4486806,-2.842338464229491,-2.604332866888228,8.824662935105824,0.3922222222222223,-0.27555555555555555,-0.6711111111111111,-0.01934386235119883,-0.09006631248939195,1.2479088887379082
1590515726.4586806,-2.8678015254018185,-2.5482035592709096,8.819597966130909,0.3922222222222223,-0.27555555555555555,-0.6711111111111111,-0.014224655264455013,-0.08488883975010135,1.2095148355873295
1590515726.4686806,-2.8252901828867496,-2.474464292618799,8.802232146309398,0.3922222222222223,-0.27555555555555555,-0.6711111111111111,-0.01308996938995747,-0.08290313946973066,1.1684429097413158
1590515726.4786806,-3.0100444117737144,-2.474005329412846,8.878019541180434,0.41089303398776894,-0.27555555555555555,-0.648883954247365,-0.016581403025624098,-0.082030281060814,1.0982360297105844
1590515726.4886806,-3.06,-2.4227908532927223,8.883654529512206,0.4155555555555556,-0.27555555555555555,-0.6433333333333333,-0.026368363701179613,-0.08092080156911056,1.0076161856428447
1590515726.4986806,-3.043679577887037,-2.369198944717592,8.77391725626574,0.4155555555555556,-0.27555555555555555,-0.6433333333333333,-0.01946019093282981,-0.07182006849265969,0.9192630752101575
1590515726.5086806,-3.023745405392587,-2.376254594607413,8.782509189214826,0.4155555555555556,-0.27555555555555555,-0.6433333333333333,-0.012133988873513187,-0.061834214610128016,0.8322838392879974
1590515726.5186806,-3.033336205883505,-2.38,8.856681029417524,0.4155555555555556,-0.27555555555555555,-0.6433333333333333,-0.009453553435020795,-0.0549040526725019,0.755569118124683
1590515726.5286806,-3.04,-2.3860166035185943,8.94414943166735,0.4195666245679519,-0.25951127950597025,-0.6272890572837481,-0.005445098097891968,-0.049078329397750205,0.6683035323399568
1590515726.5386806,-3.0470540765391014,-2.3688377703826955,8.93062146422629,0.4222222222222222,-0.2488888888888889,-0.6166666666666667,0.0036528311003548117,-0.03921091981640962,0.5543216343566655
1590515726.5486805,-3.043645512092193,-2.353645512092193,8.827391657198506,0.4222222222222222,-0.2488888888888889,-0.6166666666666667,0.007238151796662493,-0.0318384132122805,0.4400210597154353
1590515726.5586805,-3.105859956596984,-2.330242013020905,8.806343982638793,0.4222222222222222,-0.2488888888888889,-0.6166666666666667,0.0054805534377790795,-0.02083138296861986,0.29212018651290556
1590515726.5686805,-3.1146440153776767,-2.32,8.858033976933486,0.4222222222222222,-0.2488888888888889,-0.6166666666666667,0.0057462775573126805,-0.009447689600812555,0.1397185761680232
1590515726.5786805,-3.058187925098665,-2.2781879250986647,8.886968679150224,0.4222222222222222,-0.2434688051053825,-0.6166666666666667,0.008065314641059529,-0.003173658993361089,-0.017769302781057816
1590515726.5886805,-3.122524203174042,-2.3218931523805315,8.91750806772468,0.4222222222222222,-0.2411111111111111,-0.6166666666666667,0.010977144788052562,0.009070831075411658,-0.1458553017108493
1590515726.5986805,-3.165277999165054,-2.3816679949903223,8.850830012524193,0.4222222222222222,-0.2411111111111111,-0.6166666666666667,0.015453580982999718,0.022816906111300682,-0.24365166302198213
1590515726.6086805,-3.199721583385602,-2.427832950031361,8.79188863335424,0.4222222222222222,-0.2411111111111111,-0.6166666666666667,0.024379942553518684,0.03443380807728672,-0.3589547115172113
1590515726.6186805,-3.2151977687626774,-2.4303955375253548,8.843220081135904,0.4222222222222222,-0.2411111111111111,-0.6166666666666667,0.029933126842409088,0.03813593093654699,-0.45119073371290147
1590515726.6286805,-3.197918336783685,-2.4361088842884198,8.910136105360525,0.4266969123023389,-0.24066364210309943,-0.624273639802865,0.02943758433571196,0.03970920984120947,-0.5432738977021826
1590515726.6386805,-3.1399901325063433,-2.46,8.934284304643763,0.43333333333333335,-0.24,-0.6355555555555555,0.02867388135509694,0.04534862410273287,-0.6579410952460322
1590515726.6486804,-3.1470394265232975,-2.4846929510155316,8.837401433691756,0.43333333333333335,-0.24,-0.6355555555555555,0.02919647035597981,0.050434176766261475,-0.763356604625585
1590515726.6586804,-3.1904385041745598,-2.534064173624266,8.814064173624265,0.43333333333333335,-0.24,-0.6355555555555555,0.029104765328300926,0.058700696611264126,-0.8641864837399129
1590515726.6686804,-3.205592202713645,-2.6003298244228072,8.846776608140935,0.43333333333333335,-0.24,-0.6355555555555555,0.03494256330320832,0.0688875161505029,-0.9385314976434304
1590515726.6786804,-3.218622962344567,-2.6658688870337013,8.87293444351685,0.44722588377735795,-0.23425135843695533,-0.6264535397474015,0.03926990816987242,0.07605773176211131,-1.0093851116259407
1590515726.6886804,-3.2078138715139786,-2.711093064243011,8.906639596364517,0.4655555555555556,-0.22666666666666666,-0.6144444444444445,0.039874940967296754,0.08398511151656389,-1.0988815260736975
1590515726.6986804,-3.1668680837512935,-2.7720468115595893,8.821689355942999,0.4655555555555556,-0.22666666666666666,-0.6144444444444445,0.042884039582590745,0.09340389464265669,-1.1832083704607
1590515726.7086804,-3.1436585291331847,-2.8417073543340767,8.800731766934524,0.4655555555555556,-0.22666666666666666,-0.6144444444444445,0.04126532626844136,0.10054267545609792,-1.273505093528086
1590515726.7186804,-3.1162584171749983,-2.871870791412501,8.8181292085875,0.4655555555555556,-0.22666666666666666,-0.6144444444444445,0.03409029829573215,0.10642280096027207,-1.3525450072015588
1590515726.7286804,-3.0760442878711625,-2.915933568193256,8.81598892803221,0.46954817424369516,-0.20271095453782922,-0.6370692836772354,0.036422878256421674,0.11300282248065953,-1.4343518966581732
1590515726.7386804,-3.008242685671418,-3.0213329225163434,8.864363412281643,0.4722222222222222,-0.18666666666666668,-0.6522222222222223,0.04036073895236887,0.12288700930463378,-1.5300782709111485
1590515726.7486804,-2.9952252895189284,-3.0709011580757126,8.801620657216077,0.4722222222222222,-0.18666666666666668,-0.6522222222222223,0.04378068294519067,0.12772550264897364,-1.5989914380610213
1590515726.7586803,-2.9780982905982905,-3.1075213675213673,8.721239316239316,0.4722222222222222,-0.18666666666666668,-0.6522222222222223,0.04786136599953467,0.13506489605410713,-1.6799260217446488
1590515726.7686803,-2.9215830721003138,-3.14217868338558,8.7708934169279,0.4722222222222222,-0.18666666666666668,-0.6522222222222223,0.04908738521234052,0.14313648999726614,-1.7652788030447504
1590515726.7786803,-2.865322200036304,-3.171742239970957,8.85706444000726,0.4769517355438575,-0.18373110667392753,-0.649775922228273,0.049727825053129504,0.14796247335557908,-1.8427516283715732
1590515726.7886803,-2.78,-3.2579871248821406,8.816017166823812,0.5044444444444445,-0.16666666666666666,-0.6355555555555555,0.05345070834232633,0.16471544815696484,-1.9842211933610532
1590515726.7986803,-2.772790957977468,-3.3420904202253205,8.76395478988734,0.5044444444444445,-0.16666666666666666,-0.6355555555555555,0.05266432384727749,0.16786098613716025,-2.0345498010441796
1590515726.8086803,-2.714311038011696,-3.411766721491228,8.756961120248539,0.5044444444444445,-0.16666666666666666,-0.6355555555555555,0.05235987755982988,0.1751534946851624,-2.1352837888919085
1590515726.8186803,-2.6730622745283577,-3.458229542452737,8.771291816981094,0.5044444444444445,-0.16666666666666666,-0.6355555555555555,0.05174400448216516,0.17903716370225176,-2.1972357995075305
1590515726.8286803,-2.634745945945946,-3.501045045045045,8.784209009009007,0.5128624624624625,-0.15918398398398398,-0.6425705705705705,0.0531055734136662,0.18044621077099843,-2.2332694572241234
1590515726.8386803,-2.557059276931547,-3.54610277115067,8.811470361534226,0.5244444444444445,-0.14888888888888888,-0.6522222222222223,0.05446134334367614,0.18283444973987634,-2.2723126258748207
1590515726.8486803,-2.506493781667434,-3.641037309995394,8.775975126669737,0.5244444444444445,-0.14888888888888888,-0.6522222222222223,0.0497674586642562,0.18803365191997115,-2.305151749349805
1590515726.8586802,-2.4617504979509603,-3.686374917008173,8.769124751024519,0.5244444444444445,-0.14888888888888888,-0.6522222222222223,0.05286432342570698,0.19049995172522088,-2.326169209950059
1590515726.8686802,-2.4075670351901475,-3.7038998420613654,8.770733438625756,0.5244444444444445,-0.14888888888888888,-0.6522222222222223,0.05563236990731925,0.19392786205535506,-2.341879056595599
1590515726.8786802,-2.314943536658397,-3.7650461972794935,8.770010266062108,0.5305618292601781,-0.14888888888888888,-0.6438803338371308,0.056178345225395686,0.1947104950414763,-2.3578368955611997
1590515726.8886802,-2.2360231323774062,-3.8159942169056484,8.762017349283054,0.5366666666666666,-0.14888888888888888,-0.6355555555555555,0.0567232006898157,0.1959094235099614,-2.3723305848827545
1590515726.8986802,-2.1810994679993554,-3.8394502660003225,8.726659680799614,0.5366666666666666,-0.14888888888888888,-0.6355555555555555,0.05757187864505154,0.20022855832482664,-2.382254495618453
1590515726.9086802,-2.1043126652247057,-3.8794124008651765,8.699412400865176,0.5366666666666666,-0.14888888888888888,-0.6355555555555555,0.059589351361537354,0.20357901465106953,-2.3889194136672383
1590515726.9186802,-2.0222276861095474,-3.929398347009509,8.742048760257132,0.5366666666666666,-0.14888888888888888,-0.6355555555555555,0.06068566604639547,0.2042744715625216,-2.3889194136672383
1590515726.9286802,-1.941465325710223,-3.979098261101401,8.77932369582605,0.5366666666666666,-0.14888888888888888,-0.6355555555555555,0.06000798859415966,0.20291911665804993,-2.3889194136672383
1590515726.9386802,-1.8491984016961593,-3.9873346652532007,8.72653306694936,0.6022222222222222,-0.2533333333333333,-0.5866666666666667,0.05558864950206792,0.19995649652084935,-2.3878285828847416
1590515726.9486802,-1.7757411538461538,-4.0618719230769225,8.689547692307693,0.6022222222222222,-0.2533333333333333,-0.5866666666666667,0.054281166208046905,0.19894643134721526,-2.3857524382204405
1590515726.9586802,-1.7016399033679124,-4.13,8.662950120790109,0.6022222222222222,-0.2533333333333333,-0.5866666666666667,0.054630981978524715,0.2001227271612487,-2.3803716531146706
1590515726.9686801,-1.6528287158865793,-4.140189231542533,8.713774873599244,0.6022222222222222,-0.2533333333333333,-0.5866666666666667,0.05308021742844038,0.19997188215157596,-2.37838159675616
1590515726.9786801,-1.596181527856211,-4.175273888575156,8.75618152785621,0.6836829612897224,-0.3670389482817189,-0.4555657897299087,0.05402600034245002,0.19811467171869993,-2.3774358138421503
1590515726.9886801,-1.5311596153846154,-4.180386538461539,8.746077307692309,0.8155555555555556,-0.5511111111111111,-0.2433333333333333,0.05543950263396785,0.19829617033575708,-2.3717433180311396
1590515726.99868,-1.4352038307709243,-4.154796169229076,8.67285363079294,0.8155555555555556,-0.5511111111111111,-0.2433333333333333,0.05240434653569872,0.19962203319685146,-2.3660564362106817
1590515727.00868,-1.3909826880252856,-4.145368508009482,8.658525967962072,0.8155555555555556,-0.5511111111111111,-0.2433333333333333,0.05073703071542985,0.19962203319685146,-2.3611970240189915
1590515727.01868,-1.333531978185424,-4.168425384234011,8.730978681209718,0.8155555555555556,-0.5511111111111111,-0.2433333333333333,0.047783039311881936,0.2002208273675902,-2.345309437560066
1590515727.02868,-1.2338768430182134,-4.211483087597571,8.728516912402428,1.1249609713790112,-0.19704924351932157,-0.10362243422954609,0.049572724493711445,0.19820764289344103,-2.3210636840809475
1590515727.03868,-1.1339020152883947,-4.26813064628214,8.72,1.3544444444444443,0.06555555555555556,0.0,0.04973475803252952,0.19503698108571188,-2.2874098014636157
1590515727.04868,-1.084968576807828,-4.306257855798043,8.663679297817614,1.3544444444444443,0.06555555555555556,0.0,0.04936180677722991,0.19007212224221162,-2.2421649682976295
1590515727.05868,-1.0184718461431645,-4.284235923071582,8.687969173088941,1.3544444444444443,0.06555555555555556,0.0,0.048773003585030734,0.18481246976977797,-2.1883710490602146
1590515727.06868,-0.9705401722925456,-4.258324103375528,8.71610803445851,1.3544444444444443,0.06555555555555556,0.0,0.0488456495932588,0.18071228596916036,-2.143947835863927
1590515727.07868,-0.9397949802709189,-4.239897490135459,8.710717569051784,1.350139030133742,0.06781077257544736,-0.005649432534678436,0.050122305536961786,0.1766698583981257,-2.104598938448933
1590515727.08868,-0.8957176340824486,-4.234856473183511,8.775143526816489,0.9344444444444444,0.2855555555555556,-0.5511111111111111,0.04578358017094301,0.1702322274572634,-2.0000276968645867
1590515727.09868,-0.8197005870457268,-4.230854652190132,8.715127913140792,0.9344444444444444,0.2855555555555556,-0.5511111111111111,0.04640692230196559,0.1649951324321621,-1.9239036460249763
1590515727.10868,-0.7399511296266624,-4.217135875660952,8.655728248678097,0.9344444444444444,0.2855555555555556,-0.5511111111111111,0.0445651828672787,0.1595683908131168,-1.8520078182947999
1590515727.11868,-0.6757094365241004,-4.212041509067985,8.67,0.9344444444444444,0.2855555555555556,-0.5511111111111111,0.04167426382827577,0.1528937242738028,-1.7636885550681765
1590515727.12868,-0.5588751683879659,-4.270011225864391,8.736681634485855,0.7708274709374844,0.28061617522327004,-0.6060617173077882,0.03829932837844146,0.14144357509581124,-1.6342952177470713
1590515727.13868,-0.47490577824049973,-4.315849036959917,8.725660593440915,0.64,0.2766666666666667,-0.65,0.03618264695265391,0.13598338555151526,-1.5364662182830633
1590515727.14868,-0.42430072788135925,-4.33284963605932,8.662867151920906,0.64,0.2766666666666667,-0.65,0.03568656874914119,0.1309016045836747,-1.4573728536244648
1590515727.15868,-0.37403480359467783,-4.3220609062906865,8.624034803594679,0.64,0.2766666666666667,-0.65,0.032074221488637415,0.12174715565551893,-1.3732070748256984
1590515727.16868,-0.3200920547131642,-4.30563538167443,8.664088454186077,0.64,0.2766666666666667,-0.65,0.02758817356397001,0.11174084581697644,-1.2983276660633967
1590515727.17868,-0.27143309886372424,-4.352850351704413,8.732866197727448,0.5943098606065291,0.2895170183710804,-0.6561872063761992,0.028359871811937214,0.10472148365263043,-1.2359251048322497
1590515727.18868,-0.26,-4.37,8.71,0.5333333333333333,0.30666666666666664,-0.6644444444444444,0.03272492347489368,0.10035643198967394,-1.201004691528598
1590515727.19868,-0.23100334708492257,-4.3506688980566155,8.652006694169845,0.5333333333333333,0.30666666666666664,-0.6644444444444444,0.029034705289494936,0.09930208393670287,-1.1509231590124722
1590515727.20868,-0.1647742219201631,-4.325596777740021,8.625225778079837,0.5333333333333333,0.30666666666666664,-0.6644444444444444,0.027010376150762235,0.09673381930967322,-1.0762418175046533
1590515727.21868,-0.10852931014626281,-4.3085293101462625,8.681470689853738,0.5333333333333333,0.30666666666666664,-0.6644444444444444,0.030453437654518415,0.09340076828652051,-1.038618392595114
1590515727.22868,-0.07402592915549266,-4.274025929155492,8.715974070844508,0.5333333333333333,0.30666666666666664,-0.6644444444444444,0.033464425661313225,0.0888842862763283,-1.0062502715220696
1590515727.23868,-0.026361943456915525,-4.203638056543085,8.733409514135772,0.4722222222222222,0.32666666666666666,-0.6766666666666666,0.023204576401790192,0.08508480103472357,-0.9330302079894961
1590515727.2486799,0.0037311784782172257,-4.256118249347521,8.676569965870307,0.4722222222222222,0.32666666666666666,-0.6766666666666666,0.01826730938774882,0.08264275043130699,-0.8838016775989447
1590515727.2586799,0.015596720712252944,-4.297201639643873,8.595185243205139,0.4722222222222222,0.32666666666666666,-0.6766666666666666,0.01994020784663426,0.07701354753125458,-0.8408195214443065
1590515727.2686799,0.03613832606651278,-4.271585021800462,8.666138326066513,0.4722222222222222,0.32666666666666666,-0.6766666666666666,0.020390991116115035,0.07208128117330967,-0.7960046905596652
1590515727.2786798,0.0650393171849686,-4.239399573240606,8.691279487888727,0.4678357547099397,0.3289643401254813,-0.6781288225040941,0.019429887208272562,0.06919796944978224,-0.7589960023826118
1590515727.2886798,0.13103389138423846,-4.280344630461413,8.738276847692935,0.4488888888888889,0.3388888888888889,-0.6844444444444444,0.018694496708797775,0.06661586443546282,-0.7287131796456228
1590515727.2986798,0.17910714285714285,-4.283630952380952,8.693184523809522,0.4488888888888889,0.3388888888888889,-0.6844444444444444,0.02186531345271914,0.066985450997766,-0.6888012017831638
1590515727.3086798,0.21893954976574106,-4.271060450234258,8.704241800937035,0.4488888888888889,0.3388888888888889,-0.6844444444444444,0.019519276909052686,0.06315250820891093,-0.6639527102358971
1590515727.3186798,0.2172352008146161,-4.26191199796346,8.725529598370768,0.4488888888888889,0.3388888888888889,-0.6844444444444444,0.018938742290746085,0.06138811662568532,-0.6326338561827543
1590515727.3286798,0.2364041095890411,-4.22679794520548,8.719212328767123,0.4431963470319635,0.34137937595129375,-0.6912043378995434,0.01823779411009486,0.05824924306875339,-0.6075441814663738
1590515727.3386798,0.25357607640012947,-4.202119617999353,8.75642392359987,0.4311111111111111,0.3466666666666667,-0.7055555555555556,0.01683198864207853,0.0545415391248228,-0.5853789427863486
1590515727.3486798,0.2648131422678946,-4.175615332645877,8.745186857732106,0.4311111111111111,0.3466666666666667,-0.7055555555555556,0.019109921710300785,0.05445403372905023,-0.5739927684179066
1590515727.3586798,0.3228330249361177,-4.237166975063882,8.673001850383294,0.4311111111111111,0.3466666666666667,-0.7055555555555556,0.01494417987469583,0.053759743423116055,-0.5617962689851397
1590515727.3686798,0.33038139145012574,-4.229237217099749,8.63457669740151,0.4311111111111111,0.3466666666666667,-0.7055555555555556,0.019426937317947153,0.054499935771424986,-0.5558660621858167
1590515727.3786798,0.3341174354824207,-4.2188238467763695,8.75294128225879,0.4311111111111111,0.3433985752680115,-0.6960780904994556,0.014822488418033623,0.05280902009674664,-0.5459287810796808
1590515727.3886797,0.3157573870320393,-4.2230295481281575,8.75575738703204,0.4311111111111111,0.33555555555555555,-0.6733333333333333,0.015436867172712802,0.05080624949496641,-0.55348109263715
1590515727.3986797,0.31722957728491763,-4.131319015793283,8.666859861223447,0.4311111111111111,0.33555555555555555,-0.6733333333333333,0.016546673806501516,0.050572528267178236,-0.5604769219998917
1590515727.4086797,0.3274819218687412,-4.035180781312588,8.572879640756435,0.4311111111111111,0.33555555555555555,-0.6733333333333333,0.017704308015293553,0.052093085918825915,-0.5625861159815135
1590515727.4186797,0.32,-4.100381997913666,8.731603000347723,0.4311111111111111,0.33555555555555555,-0.6733333333333333,0.010300388171254971,0.0545415391248228,-0.5574561993639966
1590515727.4286797,0.32,-4.052346341322719,8.747039023968158,0.4157295402177292,0.34259457952371336,-0.661601626719737,0.017264392631906933,0.05428559299071623,-0.5504246991385673
1590515727.4386797,0.32597517936784953,-4.045062051580376,8.761037230948226,0.3655555555555556,0.3655555555555556,-0.6233333333333333,0.015045342265573865,0.05279891738378754,-0.5437859138518809
1590515727.4486797,0.34,-3.993986455287055,8.736441434508235,0.3655555555555556,0.3655555555555556,-0.6233333333333333,0.019246774806941473,0.0514631364163308,-0.5378262513067746
1590515727.4586797,-1.672314088324604,-5.3515999918482136,3.415937557317249,0.3655555555555556,0.3655555555555556,-0.6233333333333333,-0.33078077967765723,-0.05739483001995865,0.628866069126585
1590515727.4686797,-3.9124554666866462,-8.44946803528949,-6.828373199468034,0.3655555555555556,0.3655555555555556,-0.6233333333333333,-1.2113258301139236,-0.5465429392636865,4.5442637129338035
1590515727.4786797,7.605037181336281,-8.0330784647948,1.090885046921537,0.3655555555555556,0.3655555555555556,-0.6233333333333333,-1.766662516023251,-1.8157615069052198,11.50911131537995
1590515727.4886796,1.057394362528005,-4.240727869535768,-1.7495243057364664,0.36777777777777776,0.4222222222222222,-0.6733333333333333,-1.598977590242349,-0.5517339460032564,4.84248969032447
1590515727.4986796,-0.8667423149905124,-0.5080265654648957,3.5629540796963948,0.36777777777777776,0.4222222222222222,-0.6733333333333333,-1.3289326063559794,0.5467719128072732,0.8385635584284666
1590515727.5086796,-1.050257066233812,-0.8998861992307421,9.713305691802816,0.36777777777777776,0.4222222222222222,-0.6733333333333333,-0.3948737376812188,-0.02877462177460502,0.9759649423245121
1590515727.5186796,0.016225596529284167,-0.05563991323210412,1.3915618221258135,0.36777777777777776,0.4222222222222222,-0.6733333333333333,1.0762879495480324,-0.5163699512153778,1.1416052877693605
1590515727.5286796,-3.2985008544844607,-0.6811412114690802,10.766130767770111,0.38447268111202537,0.4097717858373596,-0.6656932928244403,2.4053123929821183,0.011517658231377782,1.2858060312190884
1590515727.5386796,-3.484070080862534,1.7072506738544475,5.01943396226415,0.43333333333333335,0.37333333333333335,-0.6433333333333333,2.4708405114082526,-0.2783470849524919,1.2344176322625324
1590515727.5486796,1.1600183665403483,0.6735593890219236,-0.5988361658103364,0.43333333333333335,0.37333333333333335,-0.6433333333333333,0.8994539773663757,-0.38044463903231834,0.9754966222774809
1590515727.5586796,-1.768911137094417,-0.564401247198675,5.366459612199162,0.43333333333333335,0.37333333333333335,-0.6433333333333333,-0.45144036716562846,0.17041735872481095,0.8153759746824947
1590515727.5686796,-3.0332939800042547,-2.3093373750265904,13.207767496277388,0.43333333333333335,0.37333333333333335,-0.6433333333333333,-0.9814774910057518,0.20203074813786492,0.7235750213434338
1590515727.5786796,-1.7521757634121338,-1.8497306700630611,9.55983691093784,0.43790928451361494,0.3539735398782959,-0.6556532018956299,-0.2237176993611349,0.014101946976502598,0.7996462276841968
1590515727.5886796,-1.6566217305137532,-1.331723980225189,6.528554783631335,0.4477777777777778,0.31222222222222223,-0.6822222222222222,0.2467847317461801,0.0006701017897919603,0.9924451486872892
1590515727.5986795,-1.5527608663476244,-1.9629720262469783,7.717978193300114,0.4477777777777778,0.31222222222222223,-0.6822222222222222,-0.11172003748200839,-0.14311496435480847,1.0641680990266702
1590515727.6086795,-1.2461135828317194,-2.589078775189741,8.434012038733316,0.4477777777777778,0.31222222222222223,-0.6822222222222222,-0.15897980794468108,-0.161292220752381,1.1645031126175238
1590515727.6186795,-1.1447079233557742,-5.830091662351113,5.201500258933195,0.4477777777777778,0.31222222222222223,-0.6822222222222222,0.11165079561824187,-0.04564310537600745,1.1614115449466362
1590515727.6286795,-4.207350595546349,-22.345193164163643,6.946410150181253,0.4477777777777778,0.31222222222222223,-0.6822222222222222,-0.1237075544948974,0.05939937974160171,0.7380824319914595
1590515727.6386795,-1.4940329571849222,-1.3568474861459114,10.078559540574647,0.4544444444444444,0.31777777777777777,-0.6888888888888889,-0.04700808940891078,-0.07784963050437593,-1.3250635355521412
1590515727.6486795,-0.22830970974998643,-1.3952027360681822,5.813455749218136,0.4544444444444444,0.31777777777777777,-0.6888888888888889,0.5328816603689202,0.17653202019181535,-1.2623049046238046
1590515727.6586795,-0.5960724105511503,-2.21607241055115,8.070219431288027,0.4544444444444444,0.31777777777777777,-0.6888888888888889,-0.039583904428854025,0.048477794767606594,-1.1225193267493865
1590515727.6686795,-1.3400988061660724,-2.960098806166072,11.968917744310218,0.4544444444444444,0.31777777777777777,-0.6888888888888889,-0.3293275660604656,0.12882687740494428,-1.0543443475419485
1590515727.6786795,-0.3553000807909822,-3.5301342669180165,7.289767052668026,0.4520274048141166,0.3168481471507286,-0.6836829573774136,0.10308569119500868,0.06420703510782061,-0.9409957132117571
1590515727.6886795,-0.7183660985649982,-7.725563805639981,9.024415804254993,0.44037343387322225,0.31236585063500005,-0.6585820968893334,0.10572598178345069,0.1002910064831948,-0.9075520324248249
1590515727.6986794,-0.5542480419630668,-6.042407127972982,8.950346339009844,0.44,0.31222222222222223,-0.6577777777777778,-0.06386584182774446,0.08008008476733972,-1.4311739056939925
1590515727.7086794,-0.038075360045629544,-2.862392699272779,9.293589048909167,0.44,0.31222222222222223,-0.6577777777777778,0.13784613792003803,0.19274655617261147,-1.7606987590750303
1590515727.7186794,-0.26225087231651784,-3.1490720917854396,9.465171801998935,0.44,0.31222222222222223,-0.6577777777777778,0.028252897886542096,0.12710239769522755,-1.7388498758454385
1590515727.7286794,-0.088137559318062,-3.9230048626164393,9.269066729158123,0.43922588708575,0.31531867387922224,-0.6601001165205278,0.003390528814492177,0.15801644728143563,-1.6860575628198695
1590515727.7386794,0.22866884801085352,-4.604837795778301,7.930454491041858,0.4355555555555555,0.33,-0.6711111111111111,0.061095381569461885,0.13425009962245488,-1.804701594501483
1590515727.7486794,0.026598520834586012,-3.1351277734351513,8.586905177078949,0.4355555555555555,0.33,-0.6711111111111111,0.025842345969049132,0.17200252048787437,-2.041266507572175
1590515727.7586794,0.05717875666593613,-3.6625977061874497,8.813058660238148,0.4355555555555555,0.33,-0.6711111111111111,0.04824031594373526,0.1838819243274956,-2.169681471498828
1590515727.7686794,-2.9521918708906156,-8.811901374775852,8.106700537955769,0.4355555555555555,0.33,-0.6711111111111111,0.02116948501536383,0.19961153566212447,-2.1112117618133004
1590515727.7786794,-8.64181064801714,-16.125861664712776,7.431992561749606,0.4307642173442391,0.33448221961703795,-0.6704928739225542,-0.040045444450414316,0.2052836200236266,-1.7026102424587402
1590515727.7886794,1.7689109431216394,1.3299003516998837,13.112109390791122,0.40156295338067577,0.361799531066823,-0.6667249688949975,-0.11125373757991996,-0.052730844692374296,0.19319496423589033
1590515727.7986794,3.6080522132138677,-2.419139691161021,6.55327611156263,0.4011111111111111,0.3622222222222222,-0.6666666666666666,0.3724960185657072,-0.1808380642140055,0.7547054412150116
1590515727.8086793,0.6413515270797455,-2.7378638456401787,8.033556918426878,0.4011111111111111,0.3622222222222222,-0.6666666666666666,0.027311484506038118,-0.018653846625094825,0.07939686206928856
1590515727.8186793,0.1917463887814993,-4.211979053175413,10.34054721821952,0.4011111111111111,0.3622222222222222,-0.6666666666666666,-0.2717784211245206,0.011898348036091279,-0.27114937141168893
1590515727.8286793,-1.868816504086475,-6.571054046928553,7.842920906933826,0.3994570993350324,0.3649287869467147,-0.6684710431496617,-0.08066545527451618,0.1546290452340031,-0.46205380375572436
1590515727.8386793,0.03298400350608083,-5.580694094445053,8.8099791826449,0.3888888888888889,0.38222222222222224,-0.68,0.035719598779114396,0.0024458536812094573,-0.25661474450511024
1590515727.8486793,0.5587408973455485,-3.3836821705426354,8.81180526192154,0.3888888888888889,0.38222222222222224,-0.68,0.01955462158545003,-0.008749964465564126,0.10762428105801948
1590515727.8586793,0.06610523843081983,-4.5448947951273535,8.903294741434276,0.3888888888888889,0.38222222222222224,-0.68,-0.005779107932960183,-0.005679209372423492,0.012430873170659884
1590515727.8686793,0.014114152344578823,-4.367647641275903,8.421732088549401,0.3888888888888889,0.38222222222222224,-0.68,0.0014118539726773564,0.0019250590342210602,-0.0033369130068984167
1590515727.8786793,0.05861128792701039,-4.360231452012165,8.837038687318763,0.3888888888888889,0.38222222222222224,-0.68,-0.0010150882886343798,0.0011160782804504814,-0.00010098999181610158
1590515727.8886793,0.03500616397872161,-4.429975344085114,8.687509245968082,0.3744444444444445,0.37666666666666665,-0.6666666666666666,0.002452015910410762,0.0027264045704679216,-0.0010894860109500193
1590515727.8986793,0.04917250696614034,-4.373309972135439,8.70875876044921,0.3744444444444445,0.37666666666666665,-0.6666666666666666,-0.002956563141716941,0.0011810962698600063,0.0020011305902658118
1590515727.9086792,0.021731880385200204,-4.460949315762798,8.576369488089204,0.3744444444444445,0.37666666666666665,-0.6666666666666666,0.004887397381748819,0.001090830782496456,0.0003778376871556402
1590515727.9186792,0.03,-4.3649870870547725,8.75,0.3744444444444445,0.37666666666666665,-0.6666666666666666,0.0019993869066386046,0.001090830782496456,0.0018171122482842968
1590515727.9286792,0.03,-4.342420101151404,8.75,0.3744444444444445,0.37666666666666665,-0.6666666666666666,0.0011788281435866862,0.001090830782496456,0.00017599472218046046
1590515727.9386792,0.014152612311403603,-4.403389550754386,8.75,0.3806073174344542,0.38194912922953217,-0.6701883083752437,0.0028195126137840875,0.0028195126137840875,0.0
1590515727.9486792,0.02903438879180119,-4.391448416812298,8.7309656112082,0.38222222222222224,0.38333333333333336,-0.6711111111111111,0.0011961626254791413,0.004310657208494481,0.0
1590515727.9586792,0.04854878413509099,-4.3714512158649095,8.627981687256998,0.38222222222222224,0.38333333333333336,-0.6711111111111111,-0.003967565395613331,-0.0006950730481239632,0.0020233584712439153
1590515727.9686792,0.04111898072270351,-4.39671388433622,8.692237961445407,0.38222222222222224,0.38333333333333336,-0.6711111111111111,-0.0007246451972929219,0.00012206186173451133,-0.0008467070590274333
1590515727.9786792,0.0493026613595567,-4.445815968157341,8.708605322719114,0.38222222222222224,0.38333333333333336,-0.6711111111111111,0.001953458028546978,0.001014762937014478,0.0009386950915324999
1590515727.9886792,0.0428309043348281,-4.435661808669656,8.724338191330345,0.38700161933233684,0.3936886937385816,-0.662348883075901,0.002181661564992912,0.001090830782496456,0.0003088037590733147
1590515727.9986792,0.01152040620808584,-4.410304081241617,8.734526537650892,0.3888888888888889,0.3977777777777778,-0.6588888888888889,0.0031398118759950683,0.004330153012112249,3.317011787357493e-05
1590515728.0086792,0.051703391454301584,-4.4183406782908605,8.589867790764515,0.3888888888888889,0.3977777777777778,-0.6588888888888889,-0.00036681510313877697,0.003453496267328788,0.0009098268626570363
1590515728.0186791,0.030797951270882196,-4.403191805083529,8.645585658896175,0.3888888888888889,0.3977777777777778,-0.6588888888888889,0.0003481719236841879,0.003272492347489368,0.000916744820654362
1590515728.0286791,0.03749030683069264,-4.429961227322771,8.692432147814849,0.3888888888888889,0.3977777777777778,-0.6588888888888889,0.003268262904505202,0.003272492347489368,-0.0005433006697561451
1590515728.0386791,0.04990191110467642,-4.360441400028956,8.749705733314029,0.38222222222222224,0.3977777777777778,-0.6666666666666666,0.004357973210663822,0.0021870114843149137,0.001096180701818458
1590515728.048679,0.034720573331402924,-4.428757420008687,8.70416171999421,0.38222222222222224,0.3977777777777778,-0.6666666666666666,0.0035299596825356756,0.00301502501244306,0.0019241942299466042
1590515728.058679,0.02083789216559375,-4.395027352993562,8.640837892165594,0.38222222222222224,0.3977777777777778,-0.6666666666666666,0.0029068929208324558,0.002181661564992912,0.002364461278321368
1590515728.068679,0.03,-4.444415799476864,8.658934720837019,0.38222222222222224,0.3977777777777778,-0.6666666666666666,-0.00048168899986943863,0.0020598332084675085,0.0037541813473588063
1590515728.078679,0.03,-4.404951920362809,8.722076927419508,0.38222222222222224,0.3977777777777778,-0.6666666666666666,0.0038231524135635842,0.0011988649257809038,-0.0005506600660742161
1590515728.088679,0.03940491591203105,-4.429404915912031,8.731190168175939,0.3744444444444445,0.4033333333333333,-0.6711111111111111,0.002181661564992912,0.003012837930957223,-6.491360413303619e-05
1590515728.098679,0.03105721962384317,-4.421057219623843,8.747885560752314,0.3744444444444445,0.4033333333333333,-0.6711111111111111,0.002181661564992912,-0.0006295316986774748,-0.0009755060115417107
1590515728.108679,0.030365366978162257,-4.44,8.631461467912649,0.3744444444444445,0.4033333333333333,-0.6711111111111111,0.0,0.0009712647184903253,0.004203901711310983
1590515728.118679,0.0406221160851615,-4.439377883914839,8.668133651744515,0.3744444444444445,0.4033333333333333,-0.6711111111111111,-6.786233759803501e-05,-0.002045936889796842,6.786233759803501e-05
1590515728.128679,0.04911053994980977,-4.43088946005019,8.642668380150571,0.3744444444444445,0.4033333333333333,-0.6711111111111111,-0.0009938057422416208,-0.0001940500805096704,0.0009938057422416208
1590515728.138679,0.04874566696623443,-4.446237000898703,8.738118500449351,0.3744444444444445,0.3977777777777778,-0.6666666666666666,0.0022500748192295942,0.0020448350565195473,0.003204079093252686
1590515728.148679,0.03079599435100783,-4.392387983053023,8.711193991526512,0.3744444444444445,0.3977777777777778,-0.6666666666666666,0.0032290775904507364,8.682951407726347e-05,0.0022250763220315432
1590515728.158679,0.03,-4.439972014486619,8.630167913080289,0.3744444444444445,0.3977777777777778,-0.6666666666666666,0.002181661564992912,0.0021755560731008526,6.105491892059558e-06
1590515728.168679,0.03,-4.4301081792954236,8.689350924227458,0.3744444444444445,0.3977777777777778,-0.6666666666666666,0.002181661564992912,2.3601061095356035e-05,0.002158060503897556
1590515728.178679,0.04714350656059511,-4.438571753280298,8.69,0.3744444444444445,0.3977777777777778,-0.6666666666666666,-0.0006234381364411505,0.0,-0.0006234381364411505
1590515728.188679,0.030555261519302615,-4.41,8.70222104607721,0.3888888888888889,0.3977777777777778,-0.6666666666666666,-0.0007879826037009346,0.003272492347489368,6.056963575910427e-05
1590515728.198679,0.037084371108343714,-4.41,8.728337484433375,0.3888888888888889,0.3977777777777778,-0.6666666666666666,0.0027730942573084717,0.003272492347489368,0.0007727850079609855
1590515728.208679,0.02182722041727013,-4.419086389791365,8.658222491877716,0.3888888888888889,0.3977777777777778,-0.6666666666666666,0.003372151761367582,0.0012901496102528834,9.965941387821381e-05
1590515728.218679,0.027388911688990037,-4.42738891168899,8.68694455844495,0.3888888888888889,0.3977777777777778,-0.6666666666666666,0.0008544766516399038,0.0018968360144462773,0.0
1590515728.228679,0.03,-4.43,8.707541558721935,0.3888888888888889,0.3977777777777778,-0.6666666666666666,0.0024679693205671926,0.003004318005181976,0.0
1590515728.238679,0.03,-4.422574407454315,8.717425592545686,0.3839384938584324,0.3821015268479987,-0.6699669300203044,0.0024624858547784454,0.0016524793620675232,0.0
1590515728.248679,0.030816947776675385,-4.4,8.665915261116623,0.38222222222222224,0.37666666666666665,-0.6711111111111111,0.002270776743241867,0.00044557589124477544,0.001090830782496456
1590515728.258679,0.039713391533520014,-4.40057321693296,8.621433042332399,0.38222222222222224,0.37666666666666665,-0.6711111111111111,0.003241228213713321,0.00532909737737809,0.001090830782496456
1590515728.268679,0.030131942374565325,-4.42,8.67052776949826,0.38222222222222224,0.37666666666666665,-0.6711111111111111,0.002152876204254605,0.001119616143234763,0.0010764381021273026
1590515728.278679,0.03846636860407352,-4.42,8.703865474416295,0.38222222222222224,0.37666666666666665,-0.6711111111111111,0.0003345864671359224,0.0029379058803534457,0.0001672932335679612
1590515728.288679,0.04,-4.42,8.700118662663124,0.36904710577305566,0.38325422489125,-0.6711111111111111,0.0,0.0021946056535598955,-0.0010778866939294724
1590515728.2986789,0.031071459282827413,-4.393214377848482,8.708928540717173,0.3688888888888889,0.38333333333333336,-0.6711111111111111,0.003895810822825936,0.002181661564992912,-0.000116878076789972
1590515728.3086789,0.03,-4.407815000482021,8.647647498312928,0.3688888888888889,0.38333333333333336,-0.6711111111111111,0.0033916655841869587,0.0012100040191940467,0.0
1590515728.3186789,0.03942649800937358,-4.4005735019906265,8.69655898805624,0.3688888888888889,0.38333333333333336,-0.6711111111111111,0.003272492347489368,0.001090830782496456,0.001028271419976627
1590515728.3286788,0.04,-4.412458424284301,8.712458424284302,0.3688888888888889,0.38333333333333336,-0.6711111111111111,0.0012339874408818403,0.0024498340535681414,0.001090830782496456
1590515728.3386788,0.04,-4.427062507385088,8.727062507385089,0.3916458571297281,0.38882639463284624,-0.6773888954534116,0.0,0.0009612922103105952,0.00032043073677019837
1590515728.3486788,0.04633182160365753,-4.423668178396342,8.723668178396343,0.4011111111111111,0.3911111111111111,-0.68,0.0006906945914545707,0.0013813891829091414,0.0
1590515728.3586788,0.03434091395166465,-4.404340913951665,8.649534112782492,0.4011111111111111,0.3911111111111111,-0.68,0.0036530427455892045,-0.00038055039809983685,0.0008540706543642495
1590515728.3686788,0.03,-4.393074367394243,8.657702530423025,0.4011111111111111,0.3911111111111111,-0.68,0.005874261776909831,0.0004201078644275513,0.002601769429420464
1590515728.3786788,0.03718085253138364,-4.418723410125534,8.69154255759415,0.4011111111111111,0.3911111111111111,-0.68,0.003411746700658387,-0.0012590977132438056,0.002489182848909281
1590515728.3886788,0.033272330138264486,-4.416544660276529,8.706727669861737,0.3973735167434803,0.3955962243522681,-0.6740198490117907,0.0007139116890619566,0.0007538381868689987,0.0014477866270274343
1590515728.3986788,0.03895312711063083,-4.436859381331893,8.683140618668107,0.3955555555555556,0.3977777777777778,-0.6711111111111111,0.0029299039955638976,0.0002283922346169808,0.0001141961173084904
1590515728.4086788,0.030560402439913485,-4.373922817079395,8.613922817079393,0.3955555555555556,0.3977777777777778,-0.6711111111111111,-0.0008463090896789552,0.0010297003592920808,0.0020594007185841617
1590515728.4186788,0.058961712699108576,-4.408615616932145,8.648615616932146,0.3955555555555556,0.3977777777777778,-0.6711111111111111,0.00206840199010416,3.7753191629584125e-05,0.0032347391558597838
1590515728.4286788,0.05318671710802858,-4.403186717108029,8.6976929802438,0.3955555555555556,0.3977777777777778,-0.6711111111111111,0.0006952338233091326,-0.0014864277416837793,0.0017860646058055884
1590515728.4386787,0.03162270183852918,-4.418377298161471,8.692434052757793,0.38942978950173196,0.3783795186073363,-0.6670272670752286,0.0,-0.00017700931162812185,0.002093156909178851
1590515728.4486787,0.03,-4.42,8.749086602516654,0.3888888888888889,0.37666666666666665,-0.6666666666666666,0.002148449495276637,0.0010742247476383186,0.0011074368173545933
1590515728.4586787,0.03,-4.42,8.61278897690082,0.3888888888888889,0.37666666666666665,-0.6666666666666666,0.003250761619953035,2.173072753633323e-05,0.001090830782496456
1590515728.4686787,0.03,-4.41013867229673,8.688890621626161,0.3888888888888889,0.37666666666666665,-0.6666666666666666,0.0011210843844869527,0.0,0.001090830782496456
1590515728.4786787,0.03,-4.41,8.719737598849749,0.3888888888888889,0.37666666666666665,-0.6666666666666666,0.00044205701803972123,-0.0006487737644567347,0.001090830782496456
1590515728.4886787,0.03,-4.415383682253962,8.729232635492076,0.3888888888888889,0.38444309658905623,-0.6666666666666666,0.0023490745303206793,-0.0016780994150766258,0.0005035621499162861
1590515728.4986787,0.03,-4.429201233098312,8.673993834508439,0.3888888888888889,0.3911111111111111,-0.6666666666666666,0.002355925469873004,0.0018331337552327282,-0.0030110964901692303
1590515728.5086787,0.03,-4.420645798149425,8.613874788896553,0.3888888888888889,0.3911111111111111,-0.6666666666666666,0.0032020466974221036,0.0011612764325637207,-0.00021133695020179432
1590515728.5186787,0.03856375663108259,-4.411436243368917,8.64425502652433,0.3888888888888889,0.3911111111111111,-0.6666666666666666,-0.0004641513913078441,0.00015666984779715292,0.000934160934699303
1590515728.5286787,0.04,-4.417368728121353,8.679474912485414,0.3888888888888889,0.3911111111111111,-0.6666666666666666,0.002928186948813416,-0.0008038035462619742,0.00028702723623448177
1590515728.5386786,0.05213670613562971,-4.413931646932185,8.720341765339073,0.3929344576007655,0.3863912809472551,-0.6612725750508313,0.0037013684974428994,0.0015569877476752428,-0.0006619546325429247
1590515728.5486786,0.032866995073891625,-4.400955665024631,8.721911330049261,0.3955555555555556,0.38333333333333336,-0.6577777777777778,-0.001660427151681798,0.003272492347489368,-0.001090830782496456
1590515728.5586786,0.036770026725142194,-4.406770026725143,8.645529706023435,0.3955555555555556,0.38333333333333336,-0.6577777777777778,3.382450003972101e-05,0.0010570062824567352,-0.0018293261375073337
1590515728.5686786,0.04,-4.419172857653649,8.61,0.3955555555555556,0.38333333333333336,-0.6577777777777778,0.001090830782496456,0.0,-0.0011810580157870531
