time,acc_x,acc_y,acc_z,mag_x,mag_y,mag_z,gyr_x,gyr_y,gyr_z
1590515026.0750196,0.12,-4.31,8.76,0.4355555555555555,0.28,-0.5822222222222222,-0.003272492347489368,-0.009817477042468105,-0.002181661564992912
1590515026.0850196,0.12903671306071443,-4.328073426121429,8.769036713060714,0.4285270009527776,0.28,-0.6213813121519848,-0.003272492347489368,-0.009817477042468105,-0.0011959090870714043
1590515026.0950196,0.13,-4.33,8.794506986985242,0.42777777777777776,0.28,-0.6255555555555555,-0.0041635915404807395,-0.011599675428450846,-0.001090830782496456
1590515026.1050196,0.1262035851472471,-4.32430537772087,8.713287451984634,0.42777777777777776,0.28,-0.6255555555555555,-0.002181661564992912,-0.008933708569197127,-0.0028583677290384087
1590515026.1150196,0.11,-4.302236374178585,8.781181870892926,0.42777777777777776,0.28,-0.6255555555555555,-0.001693760405956712,-0.011037229940058605,-0.0013347813620145559
1590515026.1250196,0.1119590845089865,-4.3109795422544925,8.820489771127248,0.42815871087674734,0.2803809330989696,-0.6238141471031231,-5.342574219786071e-05,-0.015271630954950384,-0.002181661564992912
1590515026.1350195,0.15,-4.326899532613641,8.820698597840924,0.4355555555555555,0.2877777777777778,-0.59,-0.001090830782496456,-0.01510252669169205,-0.002350765828251245
1590515026.1450195,0.1495775662364461,-4.310422433763554,8.76788783118223,0.4355555555555555,0.2877777777777778,-0.59,-0.0010217102195688933,-0.014088639421883842,-0.003272492347489368
1590515026.1550195,0.1332474838910627,-4.326752516108937,8.686237419455313,0.4355555555555555,0.2877777777777778,-0.59,0.0016502932558880273,-0.010525968121274617,-0.003272492347489368
1590515026.1650195,0.13821152056394925,-4.318211520563949,8.710730876616305,0.4355555555555555,0.2877777777777778,-0.59,0.004168230287715216,-0.007245629792933975,-0.0012859236247670643
1590515026.1750195,0.13015449300870247,-4.309691013982595,8.760154493008702,0.43505774474973646,0.28755462120965203,-0.5901029953391349,0.003289344920446681,-0.0054035961936103405,-0.002249071856822164
1590515026.1850195,0.13768771549601025,-4.29231228450399,8.781561422519948,0.4033333333333333,0.2733333333333333,-0.5966666666666667,0.0041110920185016666,-0.002181661564992912,-0.006544984694978735
1590515026.1950195,0.1308560470767339,-4.300856047076734,8.811439529232661,0.4033333333333333,0.2733333333333333,-0.5966666666666667,0.0028989713464623885,-0.002088281314736167,-0.006358224194465245
1590515026.2050195,0.1350379911045219,-4.307518995552261,8.72,0.4033333333333333,0.2733333333333333,-0.5966666666666667,-8.288373254698809e-06,-0.0005495595778755774,-0.003822051925364945
1590515026.2150195,0.1253901233164744,-4.3,8.723593415544316,0.4033333333333333,0.2733333333333333,-0.5966666666666667,0.00346848276199144,0.001286821196998528,-0.002377651979494984
1590515026.2250195,0.14922543615388986,-4.3,8.739483624102593,0.4033333333333333,0.2733333333333333,-0.5966666666666667,0.004335159193774298,0.002153497628781386,-0.003244328411277842
1590515026.2350194,0.15,-4.328892158724131,8.768892158724132,0.420454612577263,0.2669128536168597,-0.590246186950193,-0.0019399680918253852,0.006383855712867051,-0.0022219438105208333
1590515026.2450194,0.1366147935612508,-4.301692603219374,8.723229587122502,0.4211111111111111,0.26666666666666666,-0.59,-0.0007215620436471718,0.013459238128806755,0.001275465151921098
1590515026.2550194,0.11805802456806151,-4.31,8.705535803455508,0.4211111111111111,0.26666666666666666,-0.59,0.0006671574664943869,0.015483467612951418,0.0013343149329887738
1590515026.2650194,0.11360561594540675,-4.31,8.77,0.4211111111111111,0.26666666666666666,-0.59,-0.000500863253029995,0.015969150051135864,-0.0023783174081483988
1590515026.2750194,0.12924635951746127,-4.31,8.77,0.4211111111111111,0.26666666666666666,-0.59,0.002058347429399602,0.014263009596182798,-0.0032313876356249317
1590515026.2850194,0.24522858602932504,-4.311192853492669,8.797614293014663,0.4355555555555555,0.28,-0.59,0.0017913011723494712,0.011118678351279573,-0.012469749395538321
1590515026.2950194,0.21225323322457643,-4.3194366916938565,8.781126616612287,0.4355555555555555,0.28,-0.59,-0.0009064885703830767,0.02011131082705473,-0.023260908366468512
1590515026.3050194,0.17881262595023845,-4.304406312975119,8.694234721363156,0.4355555555555555,0.28,-0.59,0.0048626950542779825,0.02752981439517488,-0.04185885472524535
1590515026.3150194,0.0899312854424885,-4.32,8.710051535918135,0.4355555555555555,0.28,-0.59,0.011999138607461015,0.028354104749453934,-0.05562862210959229
1590515026.3250194,0.05894102000480263,-4.32,8.733294234996398,0.4355555555555555,0.28,-0.59,0.011999138607461015,0.02497359119973756,-0.0539383653347341
1590515026.3350194,0.028255656579677955,-4.33,8.78290723903387,0.4211111111111111,0.2733333333333333,-0.5966666666666667,0.013736817356223022,0.021055502250676143,-0.0417812871181088
1590515026.3450193,0.006422473625763463,-4.33,8.819295877290394,0.4211111111111111,0.2733333333333333,-0.5966666666666667,0.008179678812154765,0.011528979032273411,-0.03225476389970608
1590515026.3550193,0.03692505411255411,-4.308845824314574,8.702308351370851,0.4211111111111111,0.2733333333333333,-0.5966666666666667,0.005915479511943093,-0.0020980390753534833,-0.003691539399982482
1590515026.3650193,0.09163706657001329,-4.298362933429987,8.722182755426685,0.4211111111111111,0.2733333333333333,-0.5966666666666667,0.001150356202748669,-0.009996053303224743,0.010472256665242447
1590515026.3750193,0.11697414522169867,-4.273025854778301,8.755965526962266,0.4211111111111111,0.2733333333333333,-0.5966666666666667,0.0020716383804750766,-0.012759899836403965,0.020606360620232928
1590515026.3850193,0.06175233086301697,-4.314743007410949,8.780876165431508,0.4355555555555555,0.2733333333333333,-0.5966666666666667,0.0037898741960365754,-0.005971535761029487,0.01278668557450364
1590515026.3950193,0.08069713800675364,-4.262788552027015,8.783725757939216,0.4355555555555555,0.2733333333333333,-0.5966666666666667,-0.002181661564992912,-0.0001520919194830185,-0.012861831510732943
1590515026.4050193,0.08843669846659162,-4.293746793866366,8.714069713800674,0.4355555555555555,0.2733333333333333,-0.5966666666666667,-0.002181661564992912,-0.0018406020779997588,-0.010329066272957835
1590515026.4150193,0.09261421272985484,-4.291307106364927,8.726535531824638,0.4355555555555555,0.2733333333333333,-0.5966666666666667,-0.000427749557657964,-0.004933655873529776,-0.008869229445857637
1590515026.4250193,0.10808591084306239,-4.299042955421531,8.765214777107655,0.4355555555555555,0.2733333333333333,-0.5966666666666667,-0.002959300241564834,-0.008309056785405602,-0.009713079673826593
1590515026.4350193,0.12045065032872641,-4.299549349671273,8.779098699342546,0.4155555555555556,0.26666666666666666,-0.6111111111111112,-0.006544984694978735,-0.01541910593016546,-0.005355837262338896
1590515026.4450192,0.1289879704451546,-4.291012029554845,8.76202405910969,0.4155555555555556,0.26666666666666666,-0.6111111111111112,-0.006544984694978735,-0.018212937405073282,-0.003493282945733679
1590515026.4550192,0.146376113825812,-4.308792037941937,8.667247772348377,0.4155555555555556,0.26666666666666666,-0.6111111111111112,-0.0051906174730777755,-0.020330480208325903,-0.004363323129985824
1590515026.4650192,0.12075230517335478,-4.3,8.72300922069342,0.4155555555555556,0.26666666666666666,-0.6111111111111112,-0.0031904285833966955,-0.016796782407201914,-0.0041171318377078055
1590515026.4750192,0.1267763479160084,-4.3,8.747105391664034,0.4155555555555556,0.26666666666666666,-0.6111111111111112,-0.0025333074575206024,-0.01153981340019317,-0.0021457684600795263
1590515026.4850192,0.12227649039413745,-4.307723509605863,8.783170528817587,0.4155555555555556,0.28297185361237653,-0.5948059241654012,-0.004709174173087492,-0.009569150462669842,-0.0019333349851946495
1590515026.4950192,0.14030669110221788,-4.289693308897782,8.76292441186371,0.4155555555555556,0.2877777777777778,-0.59,-0.006930898162145358,-0.007602360667973486,0.0015101990591647836
1590515026.5050192,0.12010544602456366,-4.289964851325146,8.720105446024565,0.4155555555555556,0.2877777777777778,-0.59,-0.004374825506934417,-0.004370991381284886,0.0010984990337955178
1590515026.5150192,0.13547871750305093,-4.305478717503051,8.743218076254577,0.4155555555555556,0.2877777777777778,-0.59,-0.006051789282575286,-0.0018306239011016295,0.0019350638587911874
1590515026.5250192,0.14,-4.301893889798145,8.774318330605563,0.4155555555555556,0.2877777777777778,-0.59,-0.004776505788080363,-0.00020659132904726925,-0.0004710567953546481
1590515026.5350192,0.14,-4.3,8.772532058804702,0.4197044117751652,0.2720121241432612,-0.59,-0.0019194450886747118,-0.0008146260137703706,-0.001090830782496456
1590515026.5450191,0.13043054200919604,-4.31,8.765264037898843,0.4211111111111111,0.26666666666666666,-0.59,-0.0009029713917808897,-4.6964847678891584e-05,0.001090830782496456
1590515026.5550191,0.13773564859969348,-4.31,8.684907865403371,0.4211111111111111,0.26666666666666666,-0.59,0.002284482663552039,-0.0008438283615121236,0.001090830782496456
1590515026.5650191,0.1215770083696974,-4.300788504184848,8.740788504184849,0.4211111111111111,0.26666666666666666,-0.59,0.001090830782496456,0.004191298202593776,-0.002095649101296888
1590515026.5750191,0.13657915444595464,-4.308289577222977,8.748289577222977,0.4211111111111111,0.26666666666666666,-0.59,0.001090830782496456,0.0025548179282447936,-0.0012774089641223968
1590515026.585019,0.13810823090535176,-4.309369410301784,8.790630589698216,0.4477777777777778,0.2877777777777778,-0.5966666666666667,-0.001090830782496456,-0.0045008964607736734,-6.878666539392498e-05
1590515026.595019,0.11199681897050318,-4.301996818970503,8.79400954308849,0.4477777777777778,0.2877777777777778,-0.5966666666666667,-0.001018224395826531,-0.0066901974683185855,-0.001018224395826531
1590515026.605019,0.14072251992614943,-4.328554960147701,8.712890079704598,0.4477777777777778,0.2877777777777778,-0.5966666666666667,7.88146976410845e-05,-0.008332572771766225,0.0
1590515026.615019,0.14972127277877442,-4.31,8.750418090831838,0.4477777777777778,0.2877777777777778,-0.5966666666666667,0.001090830782496456,-0.0032572901358477405,0.0
1590515026.625019,0.13388027570578792,-4.31,8.774179586441317,0.4477777777777778,0.2877777777777778,-0.5966666666666667,0.001090830782496456,-0.002393297774215244,0.0
1590515026.635019,0.14946567801370633,-4.31,8.80839703404112,0.4355555555555555,0.28,-0.6044444444444445,-0.002181661564992912,0.0011782590130585244,0.0021525188214722222
1590515026.645019,0.13061700932479497,-4.31,8.751851027974386,0.4355555555555555,0.28,-0.6044444444444445,-0.002181661564992912,0.004262365215299768,0.001124483420725141
1590515026.655019,0.1125016174250593,-4.344996765149881,8.71500323485012,0.4355555555555555,0.28,-0.6044444444444445,-0.006953605154154139,0.004363323129985824,0.002999608218160947
1590515026.665019,0.11063594522850104,-4.309682027385749,8.760317972614251,0.4355555555555555,0.28,-0.6044444444444445,-0.0010214599193733881,0.005384783049359212,0.0009867744878118542
1590515026.675019,0.12665603575043446,-4.301671982124782,8.768328017875216,0.4355555555555555,0.28,-0.6044444444444445,0.0007260608685970814,0.0036372622613887427,-0.0016345066941438507
1590515026.685019,0.13,-4.3,8.783461234257437,0.4258335530362949,0.2755129219141874,-0.5992095200109965,0.0025592236523373528,-0.0011326862620333212,-0.0014474651300724639
1590515026.695019,0.13,-4.309976432407371,8.770047135185257,0.4211111111111111,0.2733333333333333,-0.5966666666666667,0.0010959724335981272,-0.002184232390543748,-0.0043556106533333165
1590515026.705019,0.13678382843629533,-4.296432343127409,8.722513200945933,0.4211111111111111,0.2733333333333333,-0.5966666666666667,-0.000389170993800689,-0.000701659788695767,-0.002883321353688679
1590515026.715019,0.1486625877554222,-4.307325175510844,8.725987763266266,0.4211111111111111,0.2733333333333333,-0.5966666666666667,0.0017439944314109714,0.0028348252139074274,-0.002181661564992912
1590515026.725019,0.15,-4.294274812275547,8.792900750897813,0.4211111111111111,0.2733333333333333,-0.5966666666666667,0.003897013448029801,0.004987844230526257,-0.0004663096819560225
1590515026.735019,0.15,-4.326758461583389,8.874327307770931,0.4343850000162238,0.28660722223844615,-0.5905402564027684,0.009375480806532634,0.007459016983101004,-0.0020048630706187235
1590515026.745019,0.1708893416353814,-4.37,8.847331975093855,0.4355555555555555,0.2877777777777778,-0.59,0.01887396452132986,0.018679940274923913,-0.0012460501796212149
1590515026.755019,0.21889662118853587,-4.37,8.703310136434391,0.4355555555555555,0.2877777777777778,-0.59,0.03667902275029769,0.02601143483979302,-0.009624901110900193
1590515026.765019,0.3344904658797234,-4.331836511373425,8.604591278433563,0.4355555555555555,0.2877777777777778,-0.59,0.04645497594117669,0.029302181892014008,-0.02334719719489737
1590515026.775019,0.27663041410362105,-4.24128257974507,8.619010875768915,0.4355555555555555,0.2877777777777778,-0.59,0.03653689940187409,0.028761176177706075,-0.04611843560526554
1590515026.785019,-0.29079740772048457,-4.205165640220585,8.720993841323512,0.4355555555555555,0.28188002880310575,-0.59,0.011518642642687892,0.020090026750467473,-0.08123811095979765
1590515026.795019,0.17194102529419725,-4.3072216961991066,8.76944433923982,0.4355555555555555,0.28,-0.59,0.00015153296545703486,0.015332244141133197,-0.04699684999541602
1590515026.805019,0.14793477813875067,-4.26793477813875,8.635391290044002,0.4355555555555555,0.28,-0.59,0.006424045443031109,0.00334126084646404,-0.010023782539392116
1590515026.815019,0.10372260646050296,-4.296277393539497,8.718832180618492,0.4355555555555555,0.28,-0.59,0.00565719059839412,0.001090830782496456,-0.002283179907948832
1590515026.825019,0.08524523448447968,-4.29262261724224,8.7668869137888,0.4355555555555555,0.28,-0.59,0.0030399110505552663,-0.0029329073207152324,-0.002181661564992912
1590515026.8350189,0.1074113741549347,-4.296852843538733,8.78,0.43022556613654045,0.28,-0.59,0.002181661564992912,-0.005858381665922351,-0.0014341322970246482
1590515026.8450189,0.12,-4.280368160553258,8.78981591972337,0.42777777777777776,0.28,-0.59,0.0011109108257161854,-0.008686486173532189,-0.001090830782496456
1590515026.8550189,0.12,-4.273671853504937,8.695077802574058,0.42777777777777776,0.28,-0.59,-0.0009800503153920197,-0.010797527357860123,-0.001090830782496456
1590515026.8650188,0.10566434685225182,-4.277167826573874,8.67583913286937,0.42777777777777776,0.28,-0.59,-0.006872993087219691,-0.015126692955612201,0.0012548349786169336
1590515026.8750188,0.08351548585388921,-4.252525809756483,8.70648451414611,0.42777777777777776,0.28,-0.59,-0.012323009352986837,-0.02175700637696962,0.000982873867321182
1590515026.8850188,0.09287867111910267,-4.275757342238205,8.788636013357308,0.4137963676494372,0.27237377629363246,-0.59,-0.02587825341066556,-0.0324191284597474,0.003119594839916228
1590515026.8950188,0.20954532577903684,-4.31,8.821900849858357,0.4033333333333333,0.26666666666666666,-0.59,-0.03381575425739013,-0.030178158065844236,0.01730001997939988
1590515026.9050188,0.14702033096926714,-4.31,8.70140803782506,0.4033333333333333,0.26666666666666666,-0.59,-0.019884272099242963,-0.014525843100818057,0.01754901743400067
1590515026.9150188,0.14664055443618426,-4.3033594455638156,8.729843326617106,0.4033333333333333,0.26666666666666666,-0.59,-0.014922262706523158,-0.007294992436490924,0.013831431924026702
1590515026.9250188,0.15,-4.3,8.77469219424264,0.4033333333333333,0.26666666666666666,-0.59,-0.010396468833232187,-0.005710073408348466,0.011325763468279694
1590515026.9350188,0.15583634578013666,-4.305836345780136,8.801672691560274,0.41759995635144515,0.27055756385342444,-0.5906484828644596,-0.005543413442838469,-0.007181631258405372,0.005815135317551472
1590515026.9450188,0.16,-4.317997747829562,8.81,0.42777777777777776,0.2733333333333333,-0.5911111111111111,-0.0006552354905503795,-0.0067633965251621955,0.0039264994696189045
1590515026.9550188,0.16,-4.32,8.723701291010306,0.42777777777777776,0.2733333333333333,-0.5911111111111111,0.000941372882556636,-0.003720866047308828,0.0005978315997592801
1590515026.9650187,0.14159894150276076,-4.3015989415027605,8.774403704740337,0.42777777777777776,0.2733333333333333,-0.5911111111111111,0.001090830782496456,-0.003272492347489368,-0.003010866155895984
1590515026.9750187,0.12520626811041635,-4.3,8.78739686594479,0.42777777777777776,0.2733333333333333,-0.5911111111111111,0.0035114495024700524,-0.001658746534173637,-0.0008518736275157715
1590515026.9850187,0.13694568690095846,-4.305648562300319,8.79564856230032,0.42401206957756477,0.2733333333333333,-0.5835796947106852,0.003130998003178326,-0.001090830782496456,-0.0006161625634037489
1590515026.9950187,0.1155903145384379,-4.289354188723062,8.738062566169189,0.4211111111111111,0.2733333333333333,-0.5777777777777777,0.0029323644473427664,-0.0018415336648463102,-0.003342939429546019
1590515027.0050187,0.1429590741274122,-4.28,8.658449111047105,0.4211111111111111,0.2733333333333333,-0.5777777777777777,0.007021378783147634,-0.004056104782822045,-0.00811220956564409
1590515027.0150187,0.13445068146541644,-4.303323977801875,8.704422614871044,0.4211111111111111,0.2733333333333333,-0.5777777777777777,0.005091564181820225,-0.004363323129985824,-0.007878562494753326
1590515027.0250187,0.14466092221704704,-4.305113025927651,8.734660922217047,0.4211111111111111,0.2733333333333333,-0.5777777777777777,0.0027640646045717135,-0.0027640646045717135,-0.0049703846017850085
1590515027.0350187,0.15675654271212067,-4.3,8.766217286439398,0.4211111111111111,0.2754956381919196,-0.5821023874949502,0.0014446370876295806,-0.0007370244773633313,-0.0025354678701260368
1590515027.0450187,0.15488810141534307,-4.3,8.804888101415344,0.4211111111111111,0.28,-0.5911111111111111,0.0016484524158108397,0.0005332091491820724,-0.0016728648999431509
1590515027.0550187,0.1449862223917928,-4.292493111195896,8.727424223154859,0.4211111111111111,0.28,-0.5911111111111111,0.001090830782496456,0.0027285798601553012,-0.003275498155317689
1590515027.0650187,0.1462538152053274,-4.26498473917869,8.731269076026637,0.4211111111111111,0.28,-0.5911111111111111,0.0004086453690949022,0.003954677760890922,-0.0036811377165842703
1590515027.0750186,0.13913640247810297,-4.271727195043794,8.760863597521897,0.4211111111111111,0.28,-0.5911111111111111,-0.0035551039756612493,0.009103461764200821,-0.0026799750182124934
1590515027.0850186,0.13,-4.300640047982178,8.785960071973268,0.41815554222717277,0.272906634678548,-0.5911111111111111,-0.01002693225483847,0.014250618576577383,-0.002181661564992912
1590515027.0950186,0.0995806842264608,-4.302395171056615,8.822814486830154,0.4155555555555556,0.26666666666666666,-0.5911111111111111,-0.013919527540663883,0.014442072804243967,0.0011365710378327442
1590515027.1050186,0.09,-4.306872370807764,8.726914437883524,0.4155555555555556,0.26666666666666666,-0.5911111111111111,-0.013431140809869912,0.010432503359533855,0.002181661564992912
1590515027.1150186,0.12712707022909575,-4.31,8.702276242137458,0.4155555555555556,0.26666666666666666,-0.5911111111111111,-0.012279982368561364,0.006296685195783325,0.005421609650577341
1590515027.1250186,0.16449963829274175,-4.303875090426814,8.716124909573185,0.4155555555555556,0.26666666666666666,-0.5911111111111111,-0.009326642646485854,0.00679040189296986,0.009885604646197687
1590515027.1350186,0.19480554188058233,-4.3,8.734805541880583,0.4303610974361378,0.26666666666666666,-0.5812407498573895,-0.008443332519219174,0.006020781393987226,0.009576587482229067
1590515027.1450186,0.15971532489333426,-4.324170805063999,8.764170805064,0.4355555555555555,0.26666666666666666,-0.5777777777777777,-0.008726646259971648,0.01512178191971061,0.00433226989304968
1590515027.1550186,0.1253708046313938,-4.33,8.720741609262788,0.4355555555555555,0.26666666666666666,-0.5777777777777777,-0.010517731890384633,0.021931006595975758,0.005959120793108844
1590515027.1650186,0.1272960667762742,-4.3227039332237265,8.753776400657644,0.4355555555555555,0.26666666666666666,-0.5777777777777777,-0.010112430401893604,0.024499201278567487,0.0033614750026949095
1590515027.1750185,0.11649206643778418,-4.32,8.783507933562216,0.4355555555555555,0.26666666666666666,-0.5777777777777777,-0.009817477042468105,0.029018406594107028,0.0031639862141650474
1590515027.1850185,0.10484178652535958,-4.32484178652536,8.80726267978804,0.4336726385734712,0.2682805955084532,-0.5828885524434351,-0.0111378694885028,0.03407983274659707,0.004627401619192763
1590515027.1950185,0.12,-4.331254438814188,8.821254438814188,0.42777777777777776,0.2733333333333333,-0.5988888888888889,-0.01336364548461245,0.03347559593713314,0.0030691720745598624
1590515027.2050185,0.13074552139560355,-4.309254478604396,8.750899632324181,0.42777777777777776,0.2733333333333333,-0.5988888888888889,-0.006219689620045113,0.02811762903870764,0.0005860772756149308
1590515027.2150185,0.14,-4.305546591516089,8.716639774548268,0.42777777777777776,0.2733333333333333,-0.5988888888888889,-0.0003665437358877687,0.025089107997418484,-0.00011924777024030627
1590515027.2250185,0.1505788126004883,-4.304710593699755,8.745868218900732,0.42777777777777776,0.2733333333333333,-0.5988888888888889,0.001090830782496456,0.026820062161449585,-0.0033987696678712594
1590515027.2350185,0.16,-4.284342457542457,8.744342457542457,0.4242983238983239,0.2733333333333333,-0.5942496170496171,0.005076100950380711,0.02494565448672135,-0.017979288725832796
1590515027.2450185,0.14608504228942187,-4.27,8.716085042289423,0.4211111111111111,0.2733333333333333,-0.59,0.008726646259971648,0.02181661564992912,-0.029452431127404314
1590515027.2550185,0.15474930723934882,-4.292123960859023,8.65837742466228,0.4211111111111111,0.2733333333333333,-0.59,0.001486596999240873,0.018598815978493218,-0.04473697956672483
1590515027.2650185,0.16748487510982804,-4.277545374670516,8.662454625329485,0.4211111111111111,0.2733333333333333,-0.59,-0.01252145582461521,0.016636819302649097,-0.0673241535580151
1590515027.2750185,0.18254750908912254,-4.263726245455438,8.71391628181193,0.4211111111111111,0.2733333333333333,-0.59,-0.01978426402696407,0.019099903569060623,-0.08061362746420046
1590515027.2850184,0.2346079192546584,-3.732139622153209,8.821781185300207,0.4211111111111111,0.2733333333333333,-0.5858696371060501,-0.030737559085380367,0.027213743729579028,-0.0956277341857114
1590515027.2950184,0.2797961060861567,-3.7064295569523225,8.812754867392304,0.4211111111111111,0.2733333333333333,-0.5844444444444444,-0.03381575425739013,-0.01442595699096379,-0.1244550462380925
1590515027.3050184,0.4363950903643568,-3.9063950903643567,8.887837054218615,0.4211111111111111,0.2733333333333333,-0.5844444444444444,-0.025032679353721644,-0.01508012673958315,-0.16581827101460472
1590515027.3150184,0.38005702066999286,-3.804786382122343,8.628974466479393,0.4211111111111111,0.2733333333333333,-0.5844444444444444,0.002874687385594512,0.009230099584935843,-0.21660603660274513
1590515027.3250184,-0.04588302308095421,-3.205476998792408,8.56147075577024,0.4211111111111111,0.2733333333333333,-0.5844444444444444,-0.01544213151700297,0.0015499892931902445,-0.2951741023373525
1590515027.3350184,-0.4470414625907786,-2.89329315149468,8.991579547373755,0.4281689701439321,0.2733333333333333,-0.587701917844208,-0.05259497913596792,-0.016263161316611575,-0.3157714233508609
1590515027.3450184,-0.4442098296701383,-2.9082771953046085,9.116936500748894,0.4355555555555555,0.2733333333333333,-0.5911111111111111,-0.01200407810384628,0.000819538442567349,-0.20885452188280015
1590515027.3550184,-0.2768837572621198,-2.7264355807254796,8.891995801396279,0.4355555555555555,0.2733333333333333,-0.5911111111111111,-0.004558877034849713,-0.005600819341130195,-0.05487459852597169
1590515027.3650184,-0.22366081003052052,-2.648392972036625,8.901607027963374,0.4355555555555555,0.2733333333333333,-0.5911111111111111,-0.013664601374052072,-0.012573770591555617,0.04656459045732861
1590515027.3750184,-0.19138662422451036,-2.650146815214214,8.869706369571572,0.4355555555555555,0.2733333333333333,-0.5911111111111111,-0.009482932453897227,-0.0173180503366585,0.16201772623055122
1590515027.3850183,-0.175546739626083,-2.6989065207478338,8.84789238486092,0.42120616101737846,0.27976582054010235,-0.5851734306125551,-0.007158695146161648,-0.02630787388126382,0.2873588512858195
1590515027.3950183,-0.15163169420664943,-2.7559207644833763,8.887855464861635,0.4033333333333333,0.2877777777777778,-0.5777777777777777,-0.008492713765664425,-0.03605335808986684,0.4051127056001276
1590515027.4050183,-0.13,-2.8285791025221094,8.83142089747789,0.4033333333333333,0.2877777777777778,-0.5777777777777777,-0.009092209749849867,-0.04321795574877093,0.5234672184760862
1590515027.4150183,-0.1175008287222378,-2.846249585638881,8.832499171277762,0.4033333333333333,0.2877777777777778,-0.5777777777777777,-0.01336258668600887,-0.04840529957477574,0.6052717020520352
1590515027.4250183,-0.0914891592469245,-2.854627710188269,8.867766261129614,0.4033333333333333,0.2877777777777778,-0.5777777777777777,-0.014180800172453925,-0.05429787601283513,0.663474951075545
1590515027.4350183,-0.07,-2.884905933429812,8.887547033285093,0.4084067642171839,0.2877777777777778,-0.5833124296510693,-0.012369589582317505,-0.058266834119846275,0.7205042560143312
1590515027.4450183,-0.05705985166989466,-2.9329401483301054,8.857059851669893,0.4155555555555556,0.2877777777777778,-0.5911111111111111,-0.011229028255323006,-0.06172796468051843,0.7773110514018048
1590515027.4550183,-0.06263803393797543,-2.914723932124049,8.818404915155062,0.4155555555555556,0.2877777777777778,-0.5911111111111111,-0.014756329897416714,-0.06395748320728337,0.8112434871221169
1590515027.4650183,-0.06420628080178567,-2.969524630378572,8.823174876792857,0.4155555555555556,0.2877777777777778,-0.5911111111111111,-0.0182584519114127,-0.06815099651522262,0.8351263444954335
1590515027.4750183,-0.05679535599384529,-3.042432508043083,8.85281857602462,0.4155555555555556,0.2877777777777778,-0.5911111111111111,-0.018935809219164945,-0.06950571113072711,0.8502457570113127
1590515027.4850183,-0.05092838159183103,-3.083501328857183,8.876286473632677,0.4155555555555556,0.2877777777777778,-0.5911111111111111,-0.017655833963597763,-0.06694576061959275,0.8611255466836337
1590515027.4950182,-0.12196176952484981,-3.0836602949208083,8.83,0.4477777777777778,0.2733333333333333,-0.5988888888888889,-0.02072578486743266,-0.07742027007733776,0.8697131274375559
1590515027.5050182,-0.16,-3.113776684678572,8.782446630642855,0.4477777777777778,0.2733333333333333,-0.5988888888888889,-0.016835333934467886,-0.07046157856860065,0.8817727947441013
1590515027.5150182,-0.16898573975044562,-3.121014260249554,8.790435828877005,0.4477777777777778,0.2733333333333333,-0.5988888888888889,-0.017611472705604765,-0.07139409693843403,0.8935961326057527
1590515027.5250182,-0.19210076670317633,-3.113025191675794,8.843025191675794,0.4477777777777778,0.2733333333333333,-0.5988888888888889,-0.02181661564992912,-0.07265482608534772,0.9101378295331728
1590515027.5350182,-0.2414817782083768,-3.1292064763750185,8.865344127291698,0.44402699110647387,0.2712874496944403,-0.5965020246435138,-0.02181661564992912,-0.07551552092018524,0.9358232852400814
1590515027.5450182,-0.29323310833844685,-3.153233108338447,8.89515033749233,0.4355555555555555,0.26666666666666666,-0.5911111111111111,-0.02146393824005674,-0.07801080022493626,0.9635686042947826
1590515027.5550182,-0.31309502149444357,-3.1669049785055563,8.842144806550007,0.4355555555555555,0.26666666666666666,-0.5911111111111111,-0.020647797500524374,-0.07796823976715724,1.006238578313192
1590515027.5650182,-0.32237214762638494,-3.1611860738131927,8.781186073813192,0.4355555555555555,0.26666666666666666,-0.5911111111111111,-0.022907446432425576,-0.08438211199995009,1.039153424527039
1590515027.5750182,-0.3723604840166155,-3.17,8.810225302510384,0.4355555555555555,0.26666666666666666,-0.5911111111111111,-0.02643742764260645,-0.08903145320480692,1.0995948601901777
1590515027.5850182,-0.42,-3.17,8.873141197225939,0.44818077354638974,0.24772883968041529,-0.6016321261034729,-0.030084745345132592,-0.09214623484545718,1.1602285370330712
1590515027.5950181,-0.43615884192342175,-3.1807725612822813,8.872296035512015,0.4622222222222222,0.22666666666666666,-0.6133333333333333,-0.025423839981647406,-0.09800858516606757,1.220649091481542
1590515027.6050181,-0.49383250532292405,-3.19,8.790688431511711,0.4622222222222222,0.22666666666666666,-0.6133333333333333,-0.02529813873643484,-0.10492878585867613,1.282082295877586
1590515027.6150181,-0.5466904436687409,-3.19,8.783380887337481,0.4622222222222222,0.22666666666666666,-0.6133333333333333,-0.02636044707604212,-0.1096323841437605,1.3425847263404802
1590515027.6250181,-0.5742116667617038,-3.19,8.84052916690426,0.4622222222222222,0.22666666666666666,-0.6133333333333333,-0.02531881878488267,-0.1134464013796314,1.4018365473130958
1590515027.635018,-0.593035368268637,-3.180893895194089,8.867858526925453,0.46795569561853656,0.2229567721161103,-0.6153569121790913,-0.0284976899804645,-0.11543304526581674,1.4823779916713893
1590515027.645018,-0.6250372780262979,-3.181907618273011,8.830611020740138,0.4811111111111111,0.21444444444444444,-0.62,-0.033132968417864936,-0.12238113651294835,1.5566480578373199
1590515027.655018,-0.6964357587096122,-3.2519143449461496,8.78808565505385,0.4811111111111111,0.21444444444444444,-0.62,-0.033426955845810145,-0.1318105489100488,1.6398717230694075
1590515027.665018,-0.7220903547857549,-3.2820903547857547,8.782090354785755,0.4811111111111111,0.21444444444444444,-0.62,-0.033587731922726106,-0.1370214878524412,1.6935896887399067
1590515027.675018,-0.7603372730738774,-3.2981511569932835,8.809244215033582,0.4811111111111111,0.21444444444444444,-0.62,-0.032239125151516,-0.14103808256415684,1.741351560276263
1590515027.685018,-0.8696766904223883,-3.285080827394403,8.85,0.49094945632230524,0.19859377715974275,-0.6189068505320895,-0.03597978202040631,-0.14887195110780113,1.8206570618234728
1590515027.695018,-0.8841882523074306,-3.256753009229722,8.913929224618265,0.5011111111111111,0.18222222222222226,-0.6177777777777778,-0.03328446663498501,-0.15053464798451094,1.8809361143273258
1590515027.705018,-0.9175311468298913,-3.2721695544256213,8.777705858254814,0.5011111111111111,0.18222222222222226,-0.6177777777777778,-0.03346755692878931,-0.1552135200147326,1.9240486678135946
1590515027.715018,-0.9634680434395585,-3.2955106521868136,8.741212390956026,0.5011111111111111,0.18222222222222226,-0.6177777777777778,-0.04187395836793097,-0.1587715823656869,1.953543284959693
1590515027.725018,-0.9891747003647733,-3.29,8.86247589890568,0.5011111111111111,0.18222222222222226,-0.6177777777777778,-0.04408336242330242,-0.15783686194271693,1.972772728187956
1590515027.735018,-1.024501563295281,-3.300876172471461,8.832628517414383,0.5011111111111111,0.16570655291370773,-0.6334878046809989,-0.03549320501133601,-0.1578705702613303,1.9895666052534091
1590515027.745018,-1.0967098296868023,-3.2940500946184432,8.858860113542132,0.5011111111111111,0.13666666666666666,-0.6611111111111111,-0.03922846072864597,-0.16039357246820546,2.0007908923046327
1590515027.755018,-1.1945833012301923,-3.235265171944423,8.81511364511904,0.5011111111111111,0.13666666666666666,-0.6611111111111111,-0.04250934249226109,-0.16198423894758612,2.010368074115868
1590515027.765018,-1.2653392188519803,-3.2230088282779707,8.79233039057401,0.5011111111111111,0.13666666666666666,-0.6611111111111111,-0.04355922522670959,-0.16086053738165293,2.02187576441481
1590515027.775018,-1.2938850168620524,-3.250287457844869,8.797482575879235,0.5011111111111111,0.13666666666666666,-0.6611111111111111,-0.03902665658410486,-0.1596537270562617,2.041572475741501
1590515027.785018,-1.3553318477822387,-3.222951956509211,8.873237989127302,0.5097457487839184,0.13019068841206113,-0.6546351328565055,-0.041482771053326574,-0.1672191182248416,2.092451840693974
1590515027.795018,-1.4527024210357544,-3.258107263107263,8.877297578964246,0.5277777777777778,0.11666666666666667,-0.6411111111111111,-0.03926990816987242,-0.17164354409598057,2.1424490229440365
1590515027.805018,-1.4858230739941616,-3.275696154334306,8.814050006345983,0.5277777777777778,0.11666666666666667,-0.6411111111111111,-0.03786147796929665,-0.17562375598192942,2.2059086330335917
1590515027.815018,-1.5328975741239892,-3.2571024258760106,8.743224393530998,0.5277777777777778,0.11666666666666667,-0.6411111111111111,-0.038811229997178474,-0.1787892969285743,2.2523468851558603
1590515027.825018,-1.5960583569817361,-3.211970821509132,8.775240849887215,0.5277777777777778,0.11666666666666667,-0.6411111111111111,-0.04708407602807012,-0.18622790433963599,2.31137644981948
1590515027.835018,-1.66,-3.1715997526793074,8.842400659521847,0.5271555372355042,0.10173289365210222,-0.6526225611431712,-0.05035272194153396,-0.18945554426098937,2.3646597147635515
1590515027.845018,-1.6810442146895084,-3.15,8.889477892655247,0.5255555555555556,0.06333333333333334,-0.6822222222222222,-0.04799655442984406,-0.19531566314320814,2.413715033950956
1590515027.855018,-1.7652377229046334,-3.129926854490882,8.864945140868162,0.5255555555555556,0.06333333333333334,-0.6822222222222222,-0.04963878480655979,-0.1979917712260778,2.438042704097405
1590515027.865018,-1.8248939303299434,-3.0844696516497168,8.839787860659886,0.5255555555555556,0.06333333333333334,-0.6822222222222222,-0.05015507518259958,-0.19795107580475066,2.455065091287817
1590515027.875018,-1.8112038520997915,-3.0570679506999303,8.838796147900208,0.5255555555555556,0.06333333333333334,-0.6822222222222222,-0.04844771128587792,-0.19666937781259336,2.4655232826900457
1590515027.8850179,-1.793357538967762,-3.0511191796559207,8.856642461032237,0.5255555555555556,0.06333333333333334,-0.6822222222222222,-0.04714989077131203,-0.1973182880698763,2.4726612955201577
1590515027.8950179,-1.8971410554526464,-3.018570527726323,8.84,0.5133333333333333,0.02666666666666667,-0.72,-0.05532085136989878,-0.20266080065768796,2.5059494819974297
1590515027.9050179,-1.9647489771727908,-3.045251022827209,8.830502045654418,0.5133333333333333,0.02666666666666667,-0.72,-0.05035089367768541,-0.20171735592042012,2.523954988328545
1590515027.9150178,-2.0369914535335436,-2.9645128196996846,8.76247863383386,0.5133333333333333,0.02666666666666667,-0.72,-0.05761140438339171,-0.20071286397934787,2.534617734424392
1590515027.9250178,-2.076894731000365,-2.904657903499453,8.862236827500912,0.5133333333333333,0.02666666666666667,-0.72,-0.06994425934199495,-0.20071286397934787,2.536068658537169
1590515027.9350178,-2.198468800368409,-2.841291733824545,8.82516693529818,0.5076874664210607,0.011611021567273007,-0.7319190523703533,-0.05588806084367233,-0.19962203319685146,2.5486817918194067
1590515027.9450178,-2.218185778808106,-2.8627431152324236,8.941814221191894,0.4933333333333334,-0.02666666666666667,-0.7622222222222222,-0.06624620268911739,-0.19922623153237634,2.539260913229892
1590515027.9550178,-2.2170736932305055,-2.7946315338474723,8.865115681233933,0.4933333333333334,-0.02666666666666667,-0.7622222222222222,-0.05960988292121647,-0.19628294128359267,2.5285457538267853
1590515027.9650178,-2.2377315817503995,-2.7271006568436,8.731261849813599,0.4933333333333334,-0.02666666666666667,-0.7622222222222222,-0.05985367008401502,-0.19480041783717342,2.527807792181847
1590515027.9750178,-2.334464176866938,-2.6782540650071662,8.908254065007165,0.4933333333333334,-0.02666666666666667,-0.7622222222222222,-0.06427462643146112,-0.19656166530458666,2.5170552538656024
1590515027.9850178,-2.396652114462694,-2.6229758982553832,8.852975898255382,0.4933333333333334,-0.02666666666666667,-0.7622222222222222,-0.05296854032655786,-0.1860093182733436,2.5072566459080203
1590515027.9950178,-2.423106422334065,-2.536757431066374,8.90986385340044,0.4388888888888889,-0.10666666666666667,-0.7911111111111111,-0.06001054432747844,-0.18467440906227092,2.440628556022885
1590515028.0050178,-2.4540160642570283,-2.469979919678715,8.825983935742972,0.4388888888888889,-0.10666666666666667,-0.7911111111111111,-0.0590349733963353,-0.17330979285215178,2.3777876826699558
1590515028.0150177,-2.5784061440677966,-2.315458474576271,8.763427754237288,0.4388888888888889,-0.10666666666666667,-0.7911111111111111,-0.0582617805312123,-0.1605998268135637,2.3075716093846097
1590515028.0250177,-2.5415921173885305,-2.33386403912951,8.916815765222939,0.4388888888888889,-0.10666666666666667,-0.7911111111111111,-0.06495419051569065,-0.15624931149550672,2.2439891630353737
1590515028.0350177,-2.5391082943692247,-2.286478604826379,8.974858953619783,0.4190243584156319,-0.13025579660365932,-0.7790061628539702,-0.05799070801161827,-0.14517776406712615,2.1730679156298156
1590515028.0450177,-2.648173852693676,-2.2016347705387354,8.923078164309882,0.36777777777777776,-0.19111111111111112,-0.7477777777777778,-0.059020560156663404,-0.1354204668652435,2.1120571545822804
1590515028.0550177,-2.684560596859547,-2.2089121193719095,8.981296954975276,0.36777777777777776,-0.19111111111111112,-0.7477777777777778,-0.07410343678882664,-0.14097731615077733,2.0644270178491326
1590515028.0650177,-2.726891223935317,-2.1165543880323416,8.818614029919146,0.36777777777777776,-0.19111111111111112,-0.7477777777777778,-0.06413434409018633,-0.1255599827727123,1.9851325221518772
1590515028.0750177,-2.754350715244361,-2.1028246423778194,8.852938394055451,0.36777777777777776,-0.19111111111111112,-0.7477777777777778,-0.05889245387165639,-0.11732272671502239,1.9409508760242677
1590515028.0850177,-2.8423435701738446,-2.0076564298261554,8.957656429826157,0.36682298992917445,-0.1986626150046103,-0.7461285987665538,-0.04353105745528858,-0.10915133363751395,1.8584521726119014
1590515028.0950177,-2.8677497122781515,-1.9822502877218486,8.932250287721848,0.3564723394422347,-0.28052685067404315,-0.7282502024709305,-0.03059794991508862,-0.09806581288877113,1.80764353584683
1590515028.1050177,-2.892635567909121,-1.9750903786060805,8.925632650242564,0.3555555555555556,-0.2877777777777778,-0.7266666666666667,-0.024305490628503245,-0.09819448797779937,1.7422539351780235
1590515028.1150177,-2.8709120729243995,-1.9606080486162665,8.824256340313866,0.3555555555555556,-0.2877777777777778,-0.7266666666666667,-0.018776270654196976,-0.09503493370676722,1.7106583924677021
1590515028.1250176,-2.7600267347671683,-2.019919795698496,8.912199233869359,0.3555555555555556,-0.2877777777777778,-0.7266666666666667,-0.013092885700656455,-0.09899362258922811,1.648014162083981
1590515028.1350176,-2.696332577261128,-2.091635951233343,9.230105613836121,0.35113458085247146,-0.2940691648552437,-0.7298973789496898,-0.0011369135118959386,-0.08882647123791101,1.5918243556039777
1590515028.1450176,-2.5018313302098187,-1.9369036463638216,8.928036259930739,0.32666666666666666,-0.3288888888888889,-0.7477777777777778,0.03799508718816898,-0.04154356483446881,1.5066384110264972
1590515028.1550176,-2.557347313042995,-1.8160778393197858,8.676353296408129,0.32666666666666666,-0.3288888888888889,-0.7477777777777778,0.0020915184436266186,-0.07546589750798435,1.4160916956008733
1590515028.1650176,-2.72,-1.711583072429661,8.77086991237839,0.32666666666666666,-0.3288888888888889,-0.7477777777777778,-0.05604100454811996,-0.14396658189603398,1.2976227170837535
1590515028.1750176,-2.72,-1.7292095144039838,9.114585530877688,0.32666666666666666,-0.3288888888888889,-0.7477777777777778,-0.08488220278533848,-0.1680009137603827,1.1466871129756433
1590515028.1850176,-3.02,-1.564386988652425,8.937733109881679,0.3186866830890172,-0.3357123531074587,-0.7418795290464717,-0.028207664708295416,-0.07808983707862131,0.9675996558688396
1590515028.1950176,-3.02,-1.437353713201147,8.675197673949038,0.25375856452503065,-0.391230599415795,-0.6938891805426555,0.026297246148722767,-0.0300516105605714,0.8613612703000753
1590515028.2050176,-3.040699319015191,-1.5127972760607649,8.942890693207612,0.25,-0.3944444444444444,-0.6911111111111111,-0.000653508017242066,-0.04533433304919922,0.7814517825728378
1590515028.2150176,-3.1451234859210317,-1.502438257039484,9.022438257039484,0.25,-0.3944444444444444,-0.6911111111111111,-0.01106789137502303,-0.06486470726623962,0.6331322912876257
1590515028.2250175,-3.2624256292906177,-1.3705034324942793,8.960297482837529,0.25,-0.3944444444444444,-0.6911111111111111,-0.0018396848665901315,-0.02858126420957533,0.49173503432011295
1590515028.2350175,-3.222986510706537,-1.4170134892934627,9.109094425054241,0.26559622257858273,-0.3911260992149587,-0.6778377301931684,-0.011574577923697182,-0.045943104840607256,0.40561041867302144
1590515028.2450175,-3.23,-1.41,9.06,0.3022222222222222,-0.38333333333333336,-0.6466666666666666,-0.00545415391248228,-0.035997415822383035,0.32834006553143325
1590515028.2550175,-3.2228787519747235,-1.3886362559241705,9.010151263823065,0.3022222222222222,-0.38333333333333336,-0.6466666666666666,0.004644345610010483,-0.011916378499515688,0.1993899947057564
1590515028.2650175,-3.2673728099154724,-1.4431637465539633,8.966313595042264,0.3022222222222222,-0.38333333333333336,-0.6466666666666666,0.006142860294514115,0.0012633863889504647,-0.01034878825588792
1590515028.2750175,-3.217072956159276,-1.4868297689616892,8.916829768961689,0.3022222222222222,-0.38333333333333336,-0.6466666666666666,0.01939556584195396,0.029292945593757648,-0.23915913675790781
1590515028.2850175,-3.1907163653882407,-1.5483284807607718,8.978328480760773,0.3022222222222222,-0.38333333333333336,-0.6466666666666666,0.027062387317875934,0.04750164659907233,-0.37907862869348374
1590515028.2950175,-3.157889513206953,-1.6152265924486686,9.003116105655621,0.3211111111111111,-0.3644444444444445,-0.6255555555555555,0.04025104295129338,0.06557036934470269,-0.5253138711430516
1590515028.3050175,-3.150547707819146,-1.563833954734023,8.944381662553168,0.3211111111111111,-0.3644444444444445,-0.6255555555555555,0.04745884353579931,0.0735790366608204,-0.5957901435248874
1590515028.3150175,-3.1307384698010607,-1.5823615369123012,8.772915389263096,0.3211111111111111,-0.3644444444444445,-0.6255555555555555,0.033932387494769414,0.06074836554491345,-0.7607361654365357
1590515028.3250175,-3.2863590423851936,-1.5763615690733372,8.885448802981491,0.3211111111111111,-0.3644444444444445,-0.6255555555555555,0.005752029060781956,0.048591753488602465,-0.8975523943731788
1590515028.3350174,-3.453461667976204,-1.65,9.087922999214278,0.3234958157169404,-0.3615981841084547,-0.6245555181402077,-0.006427465401563077,0.04341513860822251,-1.0108479448182854
1590515028.3450174,-3.5016272788656315,-1.6504881836596894,9.058372721134369,0.3555555555555556,-0.3233333333333333,-0.6111111111111112,0.010278999370835613,0.07027469240814069,-1.0948133091952799
1590515028.3550174,-3.609002179364001,-1.6920029058186674,8.944996367726667,0.3555555555555556,-0.3233333333333333,-0.6111111111111112,0.04014304825933722,0.09621079955271977,-1.1449377326743282
1590515028.3650174,-3.63,-1.7369093964430753,8.932545861924101,0.3555555555555556,-0.3233333333333333,-0.6111111111111112,0.04164984705676427,0.0879407276989938,-1.1660386843945523
1590515028.3750174,-3.6186916209486406,-1.7845233516205439,8.992261675810273,0.3555555555555556,-0.3233333333333333,-0.6111111111111112,0.03381575425739013,0.07878652689913204,-1.179226809348161
1590515028.3850174,-3.572953885028427,-1.8011743524952621,8.99412823752369,0.3598615147048502,-0.3233333333333333,-0.6146341685968977,0.03471246815332357,0.07950254513710793,-1.1869519933412775
1590515028.3950174,-3.536194864281308,-1.839690584515731,8.94460171190623,0.3922222222222223,-0.3233333333333333,-0.6411111111111111,0.039979415028498416,0.0791286782222916,-1.1926256171990146
1590515028.4050174,-3.579118557482088,-1.9235257700716497,8.929118557482088,0.3922222222222223,-0.3233333333333333,-0.6411111111111111,0.03570896443292102,0.08072147790473774,-1.207291023921664
1590515028.4150174,-3.570039396497608,-1.9598424140095676,8.920039396497607,0.3922222222222223,-0.3233333333333333,-0.6411111111111111,0.03273781594858771,0.08072147790473774,-1.2270986804838862
1590515028.4250174,-3.4907114949619573,-1.996533004318322,8.93551100143944,0.3922222222222223,-0.3233333333333333,-0.6411111111111111,0.031144418911153184,0.0878676196009689,-1.2608451604446842
1590515028.4350173,-3.4044622660908903,-2.070460914779237,8.960153638259746,0.3922222222222223,-0.3233333333333333,-0.6411111111111111,0.0338325135917001,0.09055571428151582,-1.2796618232085124
1590515028.4450173,-3.2991185900549906,-2.170587606630006,8.91,0.4388888888888889,-0.2822222222222222,-0.6255555555555555,0.04475611105235516,0.1048159020296612,-1.3303743862531894
1590515028.4550173,-3.225767444571828,-2.2194883702854478,8.91,0.4388888888888889,-0.2822222222222222,-0.6255555555555555,0.04742323396650216,0.11281727077210217,-1.3846058855075116
1590515028.4650173,-3.1831138392857143,-2.3147560586734692,8.875902423469388,0.4388888888888889,-0.2822222222222222,-0.6255555555555555,0.04145156973486533,0.11693351190084536,-1.497640574315761
1590515028.4750173,-3.1113479603515666,-2.4534608158593736,8.93519122378906,0.4388888888888889,-0.2822222222222222,-0.6255555555555555,0.040696536840474064,0.12078813752809184,-1.6183059448413648
1590515028.4850173,-3.0649403771491954,-2.472529811425402,8.957470188574598,0.43823301185267355,-0.28053568127195416,-0.627335793225283,0.03754817930100281,0.1309127015877742,-1.731094555625421
1590515028.4950173,-3.004719171456211,-2.5026404142718945,8.926039378592158,0.4311111111111111,-0.26222222222222225,-0.6466666666666666,0.04304644342146872,0.1436908999277752,-1.8573108873138364
1590515028.5050173,-2.8932029914529913,-2.565974358974359,8.85484829059829,0.4311111111111111,-0.26222222222222225,-0.6466666666666666,0.05041432958087733,0.15749522056094076,-2.004064291011966
1590515028.5150173,-2.7642522831050225,-2.68976598173516,8.823387557077627,0.4311111111111111,-0.26222222222222225,-0.6466666666666666,0.05266060316938798,0.1682886661140123,-2.1355481256895867
1590515028.5250173,-2.757601723919381,-2.8055995690201545,8.885735200912663,0.4311111111111111,-0.26222222222222225,-0.6466666666666666,0.059035667923491804,0.17588536731929577,-2.2665552044663726
1590515028.5350173,-2.66,-2.844935815889904,8.786970047415288,0.43719607314033126,-0.2574648882721047,-0.6445645888747542,0.06338146930322648,0.18837854121679345,-2.3993279098164484
1590515028.5450172,-2.6625739482779167,-3.0031655345012513,8.868017637945417,0.4922222222222222,-0.21444444444444444,-0.6255555555555555,0.05566463593046496,0.20451463870651265,-2.569971271542962
1590515028.5550172,-2.662536884891464,-3.0867920089942054,8.884550203234454,0.4922222222222222,-0.21444444444444444,-0.6255555555555555,0.05849781247012336,0.20594739892948027,-2.7025428766814747
1590515028.5650172,-2.6335181181354317,-3.152084234195278,8.746711061143301,0.4922222222222222,-0.21444444444444444,-0.6255555555555555,0.056915084267745115,0.21781786044731707,-2.802254753431303
1590515028.5750172,-2.594436739166329,-3.3466749223217906,8.81889824529803,0.4922222222222222,-0.21444444444444444,-0.6255555555555555,0.06520732003559607,0.23089341618069037,-2.964400577636085
1590515028.5850172,-2.50629606280302,-3.4411113612824784,8.925926209453475,0.4922222222222222,-0.21444444444444444,-0.6255555555555555,0.06383379770749387,0.241194833641457,-3.04818543965032
1590515028.5950172,-2.44670209232813,-3.551813351046164,8.893732979076718,0.4922222222222222,-0.21666666666666667,-0.6322222222222222,0.07615455235038693,0.26820670537445074,-3.2207084981408194
1590515028.6050172,-2.293472932580538,-3.57270823646629,8.475835270674194,0.4922222222222222,-0.21666666666666667,-0.6322222222222222,0.09894733656339698,0.2917592490612278,-3.3027625213076557
1590515028.6150172,-2.1906535772575575,-3.765882195318019,8.944967723076175,0.4922222222222222,-0.21666666666666667,-0.6322222222222222,0.040859798486267335,0.2511548393551271,-3.5014881835637537
1590515028.6250172,-2.197622109394054,-3.8539631510099106,8.730792630201982,0.4922222222222222,-0.21666666666666667,-0.6322222222222222,0.05128213103898632,0.27372514812591753,-3.615697899787328
1590515028.6350172,-2.169494118364113,-3.899494118364113,8.742023526543548,0.4924938993970505,-0.2169477120199373,-0.6322222222222222,0.08928257478649179,0.31085918144845365,-3.6877070311016062
1590515028.6450171,-2.11836594136649,-3.84836594136649,8.94653623453404,0.5199516240809592,-0.2453522547963945,-0.6322222222222222,0.07255091798991148,0.308070571982357,-3.7583518042427237
1590515028.6550171,-1.8106744898310334,-3.9493255101689666,8.738963832203448,0.5244444444444445,-0.25,-0.6322222222222222,0.08538443320740284,0.31720570096080664,-3.82829568810883
1590515028.6650171,-1.7457226676761073,-4.014277332323893,8.731746963075123,0.5244444444444445,-0.25,-0.6322222222222222,0.07987376510850504,0.3156312243611215,-3.8550617903034756
1590515028.675017,-1.630375334132178,-4.0953824315605125,8.627315881648078,0.5244444444444445,-0.25,-0.6322222222222222,0.08965748243324234,0.32095609934366187,-3.8821833212812056
1590515028.685017,-1.498928933542262,-4.064453866715826,8.74329799981565,0.5244444444444445,-0.25,-0.6322222222222222,0.08375336207981361,0.32264299087321296,-3.8889308873994097
1590515028.695017,-1.3907182404891303,-4.114224014945652,8.83,0.68,-0.48,-0.4033333333333333,0.08246428757476162,0.32018705027551114,-3.8914541697177025
1590515028.705017,-1.3123600543478262,-4.050112771739131,8.83,0.68,-0.48,-0.4033333333333333,0.07624788601086913,0.32251820086197086,-3.8844607179583237
1590515028.715017,-1.1828618459455043,-4.134107730743188,8.617676807770435,0.68,-0.48,-0.4033333333333333,0.08118914782064052,0.31939917031532533,-3.867501965869469
1590515028.725017,-0.9754147286821705,-4.115834108527132,8.692917054263566,0.68,-0.48,-0.4033333333333333,0.07592660013145963,0.31884078974745617,-3.847905077893094
1590515028.735017,-0.8941298449612403,-4.148348062015504,8.709174031007752,0.68,-0.48,-0.4033333333333333,0.08568008599604757,0.32061415081374484,-3.8266247450976296
1590515028.745017,-0.8009178380621402,-4.177981741791586,8.899817417915868,1.3255555555555556,-0.15222222222222226,0.1111111111111111,0.07200478995265133,0.30489218286170205,-3.7969120045126608
1590515028.755017,-0.6979341299205434,-4.151173651968217,8.714115767978813,1.3255555555555556,-0.15222222222222226,0.1111111111111111,0.08068903593872306,0.30867266948048233,-3.739173270601763
1590515028.765017,-0.5707339115666888,-4.100293564626675,8.680195709751116,1.3255555555555556,-0.15222222222222226,0.1111111111111111,0.07421385329842582,0.3021974868401851,-3.7003221747599793
1590515028.775017,-0.5180906568979621,-4.107415620443148,8.702246861329446,1.3255555555555556,-0.15222222222222226,0.1111111111111111,0.07498541191482863,0.3021601267515183,-3.6531807293339402
1590515028.785017,-0.42394561598224195,-4.062466009988901,8.776547586015537,1.3255555555555556,-0.15222222222222226,0.1111111111111111,0.0721562316211163,0.29697497279961976,-3.5777190737915405
1590515028.795017,-0.32869535826949076,-3.9991302388463272,8.848478481297882,1.0034530694507036,0.2036967978568925,-0.4096635120925342,0.07116484902989567,0.2884061466903319,-3.5306633956527538
1590515028.805017,-0.17682429428761948,-3.9868242942876195,8.75682429428762,0.9022222222222224,0.31555555555555553,-0.5733333333333334,0.07301637927631827,0.28231732321374925,-3.4491361357233457
1590515028.815017,-0.13797955101133585,-3.947979551011336,8.717979551011336,0.9022222222222224,0.31555555555555553,-0.5733333333333334,0.0721689184422394,0.2797749407115127,-3.394898642342299
1590515028.825017,-0.013853898768809849,-3.9684634746922027,8.694609575923392,0.9022222222222224,0.31555555555555553,-0.5733333333333334,0.07048497858631204,0.27136545147604296,-3.3123571240356204
1590515028.835017,0.04734883720930233,-3.9531627906976747,8.740511627906976,0.9022222222222224,0.31555555555555553,-0.5733333333333334,0.06631236431269152,0.2688618829118707,-3.25310600135021
1590515028.845017,0.1154811299744745,-3.921230192040841,8.841096225994894,0.5933333333333334,0.3233333333333333,-0.6322222222222222,0.06618193861434256,0.2641152424987955,-3.1533499605086943
1590515028.855017,0.15140784266698645,-3.863747451732822,8.848281568533396,0.5933333333333334,0.3233333333333333,-0.6322222222222222,0.06383054076720868,0.2578448482397718,-3.094565014330347
1590515028.865017,0.2710138544820626,-3.7897972291035873,8.73,0.5933333333333334,0.3233333333333333,-0.6322222222222222,0.060953810578440834,0.24744163663821456,-2.988153427190856
1590515028.875017,0.30949720157812644,-3.7821005596843746,8.73,0.5933333333333334,0.3233333333333333,-0.6322222222222222,0.055916352223334985,0.24072502549807342,-2.9193081630044095
1590515028.885017,0.35748816816570717,-3.78,8.748744084082853,0.5933333333333334,0.3233333333333333,-0.6322222222222222,0.0586308639062785,0.2341210624550255,-2.8350898541547855
1590515028.895017,0.41568947288929164,-3.7264657906660625,8.751077631777678,0.4525581902700162,0.36298830321032405,-0.6560152041484166,0.060113244428833736,0.22055005258860286,-2.69263168009583
1590515028.905017,0.510587002096436,-3.5867714884696014,8.844423480083858,0.4355555555555555,0.36777777777777776,-0.6588888888888889,0.05037031198169169,0.21245587460433593,-2.5680466345522803
1590515028.915017,0.5268704868390404,-3.4972123223852782,8.689730375029118,0.4355555555555555,0.36777777777777776,-0.6588888888888889,0.05569906990275491,0.20535086404291833,-2.4836746341354456
1590515028.9250169,0.5591268224169651,-3.4221061897885305,8.802808253051374,0.4355555555555555,0.36777777777777776,-0.6588888888888889,0.054560204801601876,0.1990093674221558,-2.36130113883448
1590515028.9350169,0.6669899705248166,-3.446997685505727,8.835996914007636,0.4355555555555555,0.36777777777777776,-0.6588888888888889,0.041889080251276786,0.19176872482197002,-2.2798439095823904
1590515028.9450169,0.7453752683301496,-3.44273608129665,8.8254721625933,0.3863223287884059,0.4105541879197274,-0.6742238283737388,0.04036073895236887,0.18693353387529685,-2.201874985715899
1590515028.9550169,0.8108388315931074,-3.439440778937928,8.809720389468964,0.36777777777777776,0.4266666666666667,-0.68,0.04451055664029986,0.17644007976749823,-2.0863788831760552
1590515028.9650168,0.8309895266158478,-3.4260069822561015,8.80300349112805,0.36777777777777776,0.4266666666666667,-0.68,0.039381657009082416,0.16984578024164723,-2.024832087601446
1590515028.9750168,0.8811733371213466,-3.3541226606058454,8.8,0.36777777777777776,0.4266666666666667,-0.68,0.041579560959886394,0.1606092696249481,-1.9218570815868952
1590515028.9850168,0.9214923339011926,-3.34,8.823619250425894,0.36777777777777776,0.4266666666666667,-0.68,0.03653065925174822,0.1575436538828787,-1.83096402129154
1590515028.9950168,0.9911280980603449,-3.301880163433908,8.820752065373563,0.31777777777777777,0.4666666666666667,-0.7088888888888889,0.035997415822383035,0.1481478924045349,-1.7135630910007018
1590515029.0050168,1.0193763469827586,-3.348960578304598,8.839584231321838,0.31777777777777777,0.4666666666666667,-0.7088888888888889,0.035997415822383035,0.14301221582516968,-1.6283108597832392
1590515029.0150168,1.0589183291031146,-3.291622506345328,8.703785848139098,0.31777777777777777,0.4666666666666667,-0.7088888888888889,0.03175208468348255,0.13228550465978448,-1.5351540772158547
1590515029.0250168,1.0692683536252954,-3.2807316463747047,8.829756950754135,0.31777777777777777,0.4666666666666667,-0.7088888888888889,0.0286010310611368,0.12592440141955036,-1.4456694826447218
1590515029.0350168,1.1153100865902177,-3.257344956704891,8.772034870114673,0.31777777777777777,0.4666666666666667,-0.7088888888888889,0.02836160034490785,0.11720793378539422,-1.3704336706387301
1590515029.0450168,1.1613131958872729,-3.2343434020563637,8.820454690746365,0.2742872279343432,0.44753082473555544,-0.6671379610391917,0.025799795496994446,0.11026755741560554,-1.2756823764747398
1590515029.0550168,1.2158256482586525,-3.248330259303461,8.80333948139308,0.26222222222222225,0.44222222222222224,-0.6555555555555556,0.023089586887482756,0.1000852332549348,-1.170566583481152
1590515029.0650167,1.1922597606528513,-3.2037662677547525,8.836986985796198,0.26222222222222225,0.44222222222222224,-0.6555555555555556,0.019881455733056677,0.094222283374896,-1.0780978745588925
1590515029.0750167,1.2576922117758547,-3.2096703159679794,8.70461557644829,0.26222222222222225,0.44222222222222224,-0.6555555555555556,0.022799557585237842,0.08642737246065807,-0.9646541772346982
1590515029.0850167,14.557087717979554,-11.461522286530368,1.242333696632591,0.26222222222222225,0.44222222222222224,-0.6555555555555556,0.018744164974237386,0.07951438148411892,-0.8760909776323387
1590515029.0950167,-12.813394962427555,-5.150900196125962,-1.3144004936203972,0.18777777777777774,0.4955555555555556,-0.6111111111111112,-0.7868758894716938,-1.4941070454190983,0.6262671563527967
1590515029.1050167,-0.09005834618737846,0.3256475085507343,-1.4317839179129501,0.18777777777777774,0.4955555555555556,-0.6111111111111112,-2.1925961358619994,1.7259899217570271,6.10282176671654
1590515029.1150167,0.9319582858292536,-2.177824424921199,2.4968855207564893,0.18777777777777774,0.4955555555555556,-0.6111111111111112,-2.0831570068164034,-0.822816709846937,6.73695503782186
1590515029.1250167,0.37333679725657276,-2.928441026706848,6.321313104021614,0.18777777777777774,0.4955555555555556,-0.6111111111111112,-2.183672942238933,-1.1675756647260105,6.692247304042249
1590515029.1350167,0.3398458292492482,-1.906225973119798,5.3083220640273785,0.18777777777777774,0.4955555555555556,-0.6111111111111112,-1.2543503453621587,-1.2707253657979969,6.5604329088444
1590515029.1450167,0.3782240706429613,-1.0993597981629675,3.291104978909607,0.20501863751242866,0.5187644051983549,-0.6071324511723456,1.0550559018299612,-0.7179352225756307,6.3625124464505705
1590515029.1550167,-3.4003404204491154,-1.9944678690874345,12.452634774645645,0.21666666666666667,0.5344444444444445,-0.6044444444444445,2.0987584255231813,-0.3119776037939864,6.290821122657063
1590515029.1650167,-0.2510469962907722,-0.5350774348973271,2.882064548200834,0.21666666666666667,0.5344444444444445,-0.6044444444444445,3.15800362728472,-0.5279307307213849,6.097342755545637
1590515029.1750166,0.7113054161973995,0.0915357837616464,0.08269922528241369,0.21666666666666667,0.5344444444444445,-0.6044444444444445,1.9102552270300703,-0.6092621811865039,5.6448591737304055
1590515029.1850166,-0.923168269536972,-0.41402585822559074,4.541284631552131,0.21666666666666667,0.5344444444444445,-0.6044444444444445,0.3134220288231878,-0.524200153297381,5.237209443384735
1590515029.1950166,-0.2346194038712741,-1.2468420219293037,5.743176582353639,0.29455175992998106,0.46820572026723317,-0.621913998073599,-0.3420405858165536,-0.478536319784304,4.882021651734098
1590515029.2050166,-2.78126989067424,-3.8578737890518617,17.931380772672448,0.33555555555555555,0.43333333333333335,-0.6311111111111111,-0.4974188368183839,-0.4777838827334477,4.735296426817115
1590515029.2150166,-0.5603847922030156,-0.812793995954395,1.6297423225450522,0.33555555555555555,0.43333333333333335,-0.6311111111111111,0.12801565205048632,-0.4307741008903626,4.566674383249528
1590515029.2250166,-1.7127938587913163,-3.3022472129865053,11.260659104244082,0.33555555555555555,0.43333333333333335,-0.6311111111111111,-0.45699942810947575,-0.2655870006090557,4.384928427839925
1590515029.2350166,-1.293460786829586,-2.62576797804931,9.11697664778223,0.33555555555555555,0.43333333333333335,-0.6311111111111111,-0.2486754826956324,-0.3702889786521396,4.348047257066678
1590515029.2450166,-1.9675505295054825,-2.7843132048358377,10.85234419418325,0.42307824740800914,0.33487030499932313,-0.6398633802963565,0.0755230359097793,-0.33480016504696747,4.385526414496113
1590515029.2550166,-1.505561964181516,-2.5016160958750393,8.25733403653665,0.4244444444444445,0.3333333333333333,-0.64,-0.04417103305554479,-0.11358959158670584,4.448131416507142
1590515029.2650166,-1.6837932024892293,-2.517181426519866,8.283088559119197,0.4244444444444445,0.3333333333333333,-0.64,-0.11834453967832612,-0.5036843516068082,4.403086914533908
1590515029.2750165,-5.554240839843349,-20.423828299604274,6.924627750097394,0.4244444444444445,0.3333333333333333,-0.64,-0.560269397131501,-0.16815515157107053,3.313348747817778
1590515029.2850165,-2.7375645188593585,-12.473510564626583,6.847344916206276,0.4244444444444445,0.3333333333333333,-0.64,-0.48021185876069217,-0.25241509720106237,1.7008272304893752
1590515029.2950165,0.10247214694369178,0.8700180668473351,9.381936916591389,0.44965346783097465,0.29437393355415037,-0.6522225567934692,0.11396870107792029,-0.2606016007463879,0.3225447190639018
1590515029.3050165,-0.8030264644818796,1.3957454469002128,6.563561010223123,0.4977777777777778,0.22,-0.6755555555555556,0.7337744124264844,-0.10699794048809191,0.2757762180097768
1590515029.3150165,-0.6116038600134368,0.46963109998167707,6.488075490136199,0.4977777777777778,0.22,-0.6755555555555556,-0.22074935945108587,0.056325190362164435,0.17286999621078628
1590515029.3250165,-1.881231908448334,-1.0080388197015595,11.189752047570964,0.4977777777777778,0.22,-0.6755555555555556,-0.420911125753246,0.18802040590786326,0.12770907811367965
1590515029.3350165,-1.792417419397376,-1.783011801938419,10.293135755258126,0.4977777777777778,0.22,-0.6755555555555556,-0.1378485168515402,0.0057337840359309444,0.13156899377838477
1590515029.3450165,-2.430759243469499,-4.300372839314782,7.926816138283854,0.4977777777777778,0.1890398677105134,-0.6662675158687096,0.007671666361265483,-0.015728898831218974,0.16026106039999286
1590515029.3550165,-7.4086914500707595,-10.68123847985917,8.599363501432467,0.4977777777777778,0.16444444444444445,-0.6588888888888889,-0.05766285665640235,0.014242023148959351,-0.0779271347446055
1590515029.3650165,-3.300728495100649,-5.742785434041127,8.065543068945802,0.4977777777777778,0.16444444444444445,-0.6588888888888889,0.0975283928065755,-0.07335335373361956,-0.3340485337122269
1590515029.3750165,-1.063963344788087,-2.7889042812142035,8.592111612256586,0.4977777777777778,0.16444444444444445,-0.6588888888888889,-0.04246668742718207,0.0416973737073673,-0.39087243994596127
1590515029.3850164,-2.49264662669261,-4.622159393241472,9.372431402136362,0.4977777777777778,0.16444444444444445,-0.6588888888888889,-0.05818555415116187,0.08568620255893358,-0.39613076092330024
1590515029.3950164,-2.2560594488910612,-4.985935724323333,8.574394207857273,0.5085591264264815,0.1820866513241414,-0.6461472950313301,0.0318687942626643,0.024273467555297662,-0.4627514521009987
1590515029.4050164,-1.4611967243625537,-3.7727545133072775,9.255123766983063,0.51,0.18444444444444444,-0.6444444444444445,0.02514575080186973,0.02396995581269641,-0.4944344309924584
1590515029.4150164,-1.925627636636355,-4.106174182056811,8.700192181494328,0.51,0.18444444444444444,-0.6444444444444445,0.006808028613632201,0.04592364870409227,-0.4936307385080796
1590515029.4250164,-1.5532123724786882,-4.146163879442866,9.090623748078446,0.51,0.18444444444444444,-0.6444444444444445,0.019127115875579075,0.027864433140550218,-0.5050510952941926
1590515029.4350164,-1.4481234389513882,-3.804559397254619,8.742468779027764,0.51,0.18444444444444444,-0.6444444444444445,-0.0012515563501599887,0.043884632387412637,-0.5191681269643463
1590515029.4450164,-1.5517344301834783,-3.9531286071151692,8.871751012145749,0.5024130942468009,0.18306500703477188,-0.6492724753782985,0.00033946928326850437,0.045174878981891466,-0.5256301648634462
1590515029.4550164,-1.5565403925148336,-4.0010132359653126,8.455066179826565,0.4977777777777778,0.18222222222222226,-0.6522222222222223,0.010871465525601375,0.04145156973486533,-0.5337936372747845
1590515029.4650164,-1.4679040097205347,-3.9916287970838398,8.855139125151883,0.4977777777777778,0.18222222222222226,-0.6522222222222223,0.020650036411515686,0.03673289820538096,-0.550540374049127
1590515029.4750164,-1.455321788013419,-4.010214525342279,9.013820110617464,0.4977777777777778,0.18222222222222226,-0.6522222222222223,0.022326929414129743,0.04270620811025058,-0.5635662062099591
1590515029.4850163,-1.4213891972383919,-3.9794909976986594,8.96,0.4977777777777778,0.18222222222222226,-0.6522222222222223,0.016748822866365712,0.04752690799412567,-0.5784584232477803
1590515029.4950163,-1.3750821628184464,-3.899098197651295,8.721719453224761,0.4945263863013125,0.18826052067851487,-0.648970830745757,0.004524215589709715,0.04864930377041561,-0.6024516312128599
1590515029.5050163,-1.41531414399519,-3.9603404479182323,8.74604764767774,0.49,0.19666666666666666,-0.6444444444444445,0.005491291019386751,0.05215427079577599,-0.6375620632009605
1590515029.5150163,-1.3933076731496365,-4.013307673149637,8.873153712047456,0.49,0.19666666666666666,-0.6444444444444445,0.011269118993970623,0.051271146096202994,-0.6781569287324852
1590515029.5250163,-1.300622070390085,-3.9855676491618337,8.859377929609915,0.49,0.19666666666666666,-0.6444444444444445,0.0216249164610134,0.05393420281563593,-0.7164722520410562
1590515029.5350163,-1.239081626630467,-3.918163253260934,8.760142831847961,0.49,0.19666666666666666,-0.6444444444444445,0.020109130364997965,0.06128688180806388,-0.7541492061439281
1590515029.5450163,-1.226802751878338,-3.91401375939169,8.598366977459944,0.4771503575631393,0.19213149874777466,-0.6656085613992738,0.012652136160158495,0.06767604229616037,-0.8031261631896741
1590515029.5550163,-1.1952995483528162,-3.9716405419766208,8.712681987247608,0.4711111111111111,0.19,-0.6755555555555556,0.011665354241430118,0.06947938571374229,-0.84916198994743
1590515029.5650163,-1.18,-3.9617664775864667,8.751766477586466,0.4711111111111111,0.19,-0.6755555555555556,0.0196986374442075,0.07135306984712246,-0.9013446431384292
1590515029.5750163,-1.100684003340093,-3.913947274245497,8.646262913038292,0.4711111111111111,0.19,-0.6755555555555556,0.025267091815180463,0.07592757394935756,-0.9543564657426794
1590515029.5850163,-1.051936106687898,-3.9,8.682255573248408,0.4711111111111111,0.19,-0.6755555555555556,0.023552651996371923,0.08073309403667714,-1.0021556413470263
1590515029.5950162,-1.0309734185802686,-3.922566453549329,8.797699360647988,0.47662735531205813,0.21056054656716622,-0.6720452183367711,0.01689337921325227,0.0848724340444014,-1.047429316016553
1590515029.6050162,-0.9963915650996324,-3.955902108725092,8.826881021474172,0.4833333333333333,0.23555555555555555,-0.6677777777777778,0.01219594820075879,0.08984174335130493,-1.1103254416879498
1590515029.6150162,-0.9146485397318016,-4.018090186905066,8.753693633184334,0.4833333333333333,0.23555555555555555,-0.6677777777777778,0.02101078989458468,0.09479811393155319,-1.1867414291268539
1590515029.6250162,-0.8470249348981558,-3.986281168622695,8.72388435058681,0.4833333333333333,0.23555555555555555,-0.6677777777777778,0.031030055798854164,0.09892301660299317,-1.2451336276527072
1590515029.6350162,-0.786101183361224,-3.9113214200334685,8.786476213244084,0.4833333333333333,0.23555555555555555,-0.6677777777777778,0.03448129011939797,0.10405421925765193,-1.3139082852883952
1590515029.6450162,-0.7129738038813809,-3.88,8.87,0.47375392301287383,0.26081036458222134,-0.6608109339083527,0.03334401343606073,0.11288613928747493,-1.4073476340928375
1590515029.6550162,-0.6483245227606461,-3.9095288441367737,8.751884623452906,0.4711111111111111,0.2677777777777778,-0.6588888888888889,0.021736639698915376,0.1258110724167043,-1.4796178159521591
1590515029.6650162,-0.5875324300951283,-3.926066795700696,8.667532430095129,0.4711111111111111,0.2677777777777778,-0.6588888888888889,0.02010043152051782,0.12980886311707826,-1.5541586754444048
1590515029.6750162,-0.5477132867132868,-3.9422867132867134,8.689146853146854,0.4711111111111111,0.2677777777777778,-0.6588888888888889,0.0291881144377994,0.13382968063773476,-1.6436214866261993
1590515029.6850162,-0.49363243915139504,-3.8989956830665347,8.766367560848606,0.4711111111111111,0.2677777777777778,-0.6588888888888889,0.037862087272024995,0.13938859757303312,-1.7191726568795567
1590515029.6950161,-0.4194018430146454,-3.8647177883824253,8.844717788382425,0.46287184831696926,0.27372835646243576,-0.6529383102042309,0.03939672599903709,0.14514574287726764,-1.8066914901603404
1590515029.7050161,-0.34569622732209304,-3.8901547171826873,8.830773585913438,0.4511111111111111,0.2822222222222222,-0.6444444444444445,0.035980538795837395,0.15479670895522288,-1.907708057375905
1590515029.7150161,-0.26897507992142666,-3.8644875399607135,8.702437699803566,0.4511111111111111,0.2822222222222222,-0.6444444444444445,0.035960148676672826,0.16426320062999217,-1.999929946507626
1590515029.725016,-0.13217088375504218,-3.85673931976531,8.69065387788779,0.4511111111111111,0.2822222222222222,-0.6444444444444445,0.04005260525704734,0.16763225546726643,-2.107083735457717
1590515029.735016,-0.032430113063439965,-3.88973117933535,8.79730106627191,0.4511111111111111,0.2822222222222222,-0.6444444444444445,0.044488301654497124,0.16993384164158956,-2.199648536369006
1590515029.745016,0.013608478729371477,-3.9508254361881145,8.843195760635314,0.4329664728052825,0.3139753392574223,-0.6595649763659683,0.04433043811475648,0.18239384347765358,-2.312911086034761
1590515029.755016,0.08737604349604254,-3.9475413188346526,8.817541318834653,0.4244444444444445,0.3288888888888889,-0.6666666666666666,0.04526647268315387,0.19578910150586856,-2.4296723236979543
1590515029.765016,0.18557199704053273,-3.908511667899778,8.684046671599113,0.4244444444444445,0.3288888888888889,-0.6666666666666666,0.04512792402596328,0.2047139219643458,-2.523590761497751
1590515029.775016,0.20629224853268568,-4.079662011738515,8.633707751467314,0.4244444444444445,0.3288888888888889,-0.6666666666666666,0.04731017659078689,0.21287437984657945,-2.6270143707949805
1590515029.785016,-7.719488235411709,-16.531443136157367,8.52601063510785,0.4244444444444445,0.3288888888888889,-0.6666666666666666,-0.05573246213072966,0.25768701484498213,-2.1580527533793212
1590515029.795016,-3.679510053403103,-10.488629798215115,11.007506899394286,0.3996860725820261,0.35789155307057896,-0.6666666666666666,-0.04060841512910501,-0.06580773609293533,0.04736749212776292
1590515029.805016,3.1242780382098,-2.0423732973642315,6.582473023173536,0.3855555555555555,0.3744444444444445,-0.6666666666666666,0.40527492013766203,-0.17834748017240973,0.9291269863349125
1590515029.815016,1.2996834994567528,-1.9756441022249516,6.879204969530917,0.3855555555555555,0.3744444444444445,-0.6666666666666666,0.14356469841338082,-0.08782633205277635,0.29782210467090686
1590515029.825016,0.5661190185411347,-2.962896635949817,9.40425380259798,0.3855555555555555,0.3744444444444445,-0.6666666666666666,-0.23278326476289887,0.01712949489808445,-0.1735961695719817
1590515029.835016,0.4448715758775127,-3.498794083949589,9.421554213102802,0.3855555555555555,0.3744444444444445,-0.6666666666666666,-0.17212616687928098,0.10698119810069986,-0.41152956370382027
1590515029.845016,-1.7472075726842462,-6.017531150391191,8.405111561866125,0.3767309529175655,0.37783852238213295,-0.650375092565762,0.008172538360314653,0.08043720653883651,-0.6221701351338962
1590515029.855016,-1.6167443673157245,-7.46382728395788,8.594737484557916,0.3711111111111111,0.38,-0.64,-0.005781278015163097,0.032084680435617095,-0.4289820232324266
1590515029.865016,0.13212586098935503,-6.650384314339386,9.0770139323732,0.3711111111111111,0.38,-0.64,-0.025249283212506413,0.013646057436795247,-0.06409962794584254
1590515029.875016,-0.03947083529454362,-4.5476633839023854,8.766034432817987,0.3711111111111111,0.38,-0.64,0.04569040252753159,-0.02610795792973573,0.0862243102248172
1590515029.885016,-0.10088931519989038,-4.789761227775684,8.879067178239868,0.3711111111111111,0.38,-0.64,-0.04356933076071709,-0.00017746412887793047,-0.0458314472150497
1590515029.895016,0.07702506436634905,-4.313524635257355,8.697574763990053,0.3658250262233274,0.3862471912310171,-0.6419222126864669,0.0007962971095164255,0.006043221258442341,-0.00851941649641528
1590515029.905016,0.05479037667698659,-4.357903766769866,8.733951883384933,0.3588888888888889,0.3944444444444444,-0.6444444444444445,0.002704210598893917,-0.0011822962118853487,-0.001090830782496456
1590515029.915016,0.05637808438500659,-4.335512337540026,8.607950649839895,0.3588888888888889,0.3944444444444444,-0.6444444444444445,-0.0026885259813747057,0.00020621304277321662,-0.001090830782496456
1590515029.925016,0.048990217211076104,-4.344495108605538,8.682117393467086,0.3588888888888889,0.3944444444444444,-0.6444444444444445,-0.002451701418792814,0.0009806805675171256,-0.002892302278710136
1590515029.935016,0.04,-4.3480943912722045,8.765716826183388,0.3588888888888889,0.3944444444444444,-0.6444444444444445,0.0,0.0004414805582645456,-0.0025974008969276412
1590515029.945016,0.04,-4.343864285240024,8.746135714759976,0.3588888888888889,0.3993748017322149,-0.6444444444444445,0.0017601334357764341,0.001090830782496456,-0.0008800667178882171
1590515029.955016,0.04,-4.334332748724489,8.750889668367346,0.3588888888888889,0.4066666666666667,-0.6444444444444445,0.004363323129985824,0.0005696773322811131,-0.0011393546645622262
1590515029.965016,0.048763119066841124,-4.336855321399738,8.73,0.3588888888888889,0.4066666666666667,-0.6444444444444445,0.0034074151271066325,-0.002389770007197979,0.0
1590515029.9750159,0.055833460978785325,-4.340832695106074,8.73,0.3588888888888889,0.4066666666666667,-0.6444444444444445,-0.0005453318474952611,-0.0027271604999941075,0.0004544989020813621
1590515029.9850159,0.04741543173730913,-4.37,8.73,0.3588888888888889,0.4066666666666667,-0.6444444444444445,-0.003235592481823189,0.0008088981204557972,0.0008088981204557972
1590515029.9950159,0.04957015495648483,-4.379570154956485,8.73,0.36491454200963863,0.402767714647358,-0.6490522968309002,-0.0010439419619794677,-0.0006959613079863117,-0.0006959613079863117
1590515030.0050159,0.06294998446722586,-4.389424976700839,8.761725069897484,0.37777777777777777,0.3944444444444444,-0.6588888888888889,-0.0013498988574323183,-0.002181661564992912,-0.001797142866981502
1590515030.0150158,0.05,-4.369746631613539,8.818733158067696,0.37777777777777777,0.3944444444444444,-0.6588888888888889,0.002181661564992912,-0.002172448830484151,-0.0010724053134789345
1590515030.0250158,0.052319714617946746,-4.34695914385384,8.672319714617947,0.37777777777777777,0.3944444444444444,-0.6588888888888889,0.0016755783426202484,-0.0008377891713101242,0.0005847475601237924
1590515030.0350158,0.05823139365466385,-4.366462787309328,8.682652909518003,0.37777777777777777,0.3944444444444444,-0.6588888888888889,-0.0002893875365416842,-9.646251218056139e-05,-0.0012837558068575787
1590515030.0450158,0.04531468531468531,-4.343286713286713,8.715314685314686,0.37777777777777777,0.39621600621600617,-0.6588888888888889,-0.002113007879381247,-0.0013807018995234863,-0.0026927501134353074
1590515030.0550158,0.06,-4.370174744276668,8.736550170482221,0.37777777777777777,0.4011111111111111,-0.6588888888888889,1.9061643605484783e-05,-0.0011098924261019408,-0.0014480871621267797
1590515030.0650158,0.05255996102533353,-4.364880077949333,8.712799805126668,0.37777777777777777,0.4011111111111111,-0.6588888888888889,-0.0009642880345119792,0.001090830782496456,-0.0013700792113389567
1590515030.0750158,0.04304545783045458,-4.380863626508636,8.662181831321819,0.37777777777777777,0.4011111111111111,-0.6588888888888889,0.001090830782496456,0.0007586228676709833,-0.00033220791482547264
1590515030.0850158,0.05,-4.371677814365095,8.693892604788365,0.37777777777777777,0.4011111111111111,-0.6588888888888889,0.0006662134697722661,-0.0008492346254483796,-0.001090830782496456
1590515030.0950158,0.04761434707256424,-4.382843041217693,8.72147087634692,0.3732715444703991,0.3995206758261539,-0.6588888888888889,-0.00026023436495997134,-0.0019214272000329406,-0.0013510651474564273
1590515030.1050158,0.03481238363488805,-4.365187616365112,8.774437150904664,0.3588888888888889,0.3944444444444444,-0.6588888888888889,0.0006068127031574908,4.093154127284178e-05,-0.0027475427268775607
1590515030.1150157,0.04022077282218521,-4.359779227177815,8.729337681533444,0.3588888888888889,0.3944444444444444,-0.6588888888888889,0.002181661564992912,0.000533374101729316,-0.0016001223051879483
1590515030.1250157,0.05,-4.35,8.713225671666736,0.3588888888888889,0.3944444444444444,-0.6588888888888889,0.0012198635801084338,-0.0014426969773267172,-0.0009617979848844781
1590515030.1350157,0.04369760634432934,-4.35630239365567,8.73630239365567,0.3588888888888889,0.3944444444444444,-0.6588888888888889,0.00034374225015079625,-0.003272492347489368,-0.0025254038151437085
1590515030.1450157,0.032294523181014376,-4.37,8.75,0.36322298823080496,0.3911301331829792,-0.6573592067682126,0.001090830782496456,-0.003022198695789151,-0.002521611392388717
1590515030.1550157,0.04232667933473074,-4.363019961995808,8.743019961995808,0.37777777777777777,0.38,-0.6522222222222223,0.0008370294385641895,-0.0024354629089251784,-0.0007614040317967996
1590515030.1650157,0.052271182276096485,-4.341135591138048,8.709779679757567,0.37777777777777777,0.38,-0.6522222222222223,0.00012387377697132038,-0.003148618570518048,-0.0030247447935467272
1590515030.1750157,0.05592953328365193,-4.3535176166790865,8.654623316753609,0.37777777777777777,0.38,-0.6522222222222223,0.0018582556934106714,-0.002181661564992912,-0.001090830782496456
1590515030.1850157,0.03243117300482057,-4.35878441349759,8.70607793251205,0.37777777777777777,0.38,-0.6522222222222223,0.002609492759681198,-0.00244686140011618,-0.0002952312771266521
1590515030.1950157,0.05,-4.351930728616684,8.751930728616685,0.37649062536665495,0.3827888302240995,-0.6522222222222223,-0.002181661564992912,-0.0033102740261228246,0.00461171462939188
1590515030.2050157,0.05,-4.357137163223854,8.757137163223852,0.3711111111111111,0.3944444444444444,-0.6522222222222223,-0.0017132309928903253,0.0009346872584622605,0.000778543734428065
1590515030.2150156,0.04338299885127374,-4.346617001148727,8.72014899655382,0.3711111111111111,0.3944444444444444,-0.6522222222222223,0.000729929355454205,0.0,-8.126501369702926e-06
1590515030.2250156,0.03176653283842133,-4.3608832664192105,8.684416332096053,0.3711111111111111,0.3944444444444444,-0.6522222222222223,0.0,-0.000289048259766124,0.0018926133052267879
1590515030.2350156,0.05,-4.373363886170293,8.733363886170293,0.3711111111111111,0.3944444444444444,-0.6522222222222223,-0.0007338861166739124,-0.0021716631724784993,-0.0007238877241594998
1590515030.2450156,0.04784560838033844,-4.373536825141015,8.746463174858985,0.3711111111111111,0.39133254543826657,-0.6522222222222223,-0.001711646225737066,-0.000235007669627923,-0.000235007669627923
1590515030.2550156,0.043985689377986095,-4.353985689377986,8.758042931866042,0.3711111111111111,0.38,-0.6522222222222223,0.0008695425325952774,-0.0019603733150917336,-0.00022128824990117857
1590515030.2650156,0.05396422864800784,-4.36,8.70432194216793,0.3711111111111111,0.38,-0.6522222222222223,0.0026140918288030373,-0.0028400620836792428,0.00022597025487620524
1590515030.2750156,0.06423818785036037,-4.351523624299279,8.683905502802883,0.3711111111111111,0.38,-0.6522222222222223,0.0018855486167366953,-0.002181661564992912,-0.0001662016286613408
1590515030.2850156,0.06667691026606924,-4.353292358935723,8.739969269201792,0.3711111111111111,0.38,-0.6522222222222223,-0.0003624928574769638,-0.0014566758500389842,0.0003658450675425284
1590515030.2950156,0.05486083766812426,-4.376573891778749,8.761713054110626,0.369969075037361,0.38,-0.650128489420347,-0.001090830782496456,0.00018686521559521075,-0.0009039655669012452
1590515030.3050156,0.032100365094137016,-4.359299878301955,8.767899634905863,0.3644444444444445,0.38,-0.64,-0.0011672022124686468,0.0009380879225520742,-7.637142997219085e-05
1590515030.3150156,0.05675510287061885,-4.356489794258762,8.71079592583557,0.3644444444444445,0.38,-0.64,-0.0007658080950875747,-0.001090830782496456,-0.0007368674150201217
1590515030.3250155,0.05149269579215975,-4.365521912623521,8.65298539158432,0.3644444444444445,0.38,-0.64,0.002344489416891991,-0.0007651750786982984,0.0
1590515030.3350155,0.05867582332893768,-4.343972530013187,8.667351646657876,0.3644444444444445,0.38,-0.64,0.003128047080063522,0.0008019402476447633,0.0
1590515030.3450155,0.05,-4.36,8.76,0.3632729840780689,0.3812365414978409,-0.6411063792349103,0.00012778650281171033,-0.0008991510282788905,6.389325140585517e-05
1590515030.3550155,0.05,-4.36,8.76,0.3453210066769389,0.4001858509768114,-0.6580610245581997,0.0020860434583950373,0.0020382344050961006,0.0010430217291975187
1590515030.3650155,0.06756647619047619,-4.372699428571428,8.750797714285714,0.34444444444444444,0.4011111111111111,-0.6588888888888889,0.0002654562681366613,-0.0030070360793527065,0.0005599182462231333
1590515030.3750155,0.059275381249387714,-4.350724618750612,8.664347712503673,0.34444444444444444,0.4011111111111111,-0.6588888888888889,0.0010117871386222557,-0.0020235742772445114,-0.0012489180702448567
1590515030.3850155,0.05,-4.354789886862156,8.722605056568922,0.34444444444444444,0.4011111111111111,-0.6588888888888889,0.000568335179104884,-0.000568335179104884,-0.003272492347489368
1590515030.3950155,0.04906081930805662,-4.340939180691943,8.73281754207583,0.3483055206224339,0.3991283963170084,-0.6582627684275932,0.002079212844083096,-0.002079212844083096,-0.003170043626579552
1590515030.4050155,0.0379118209541531,-4.35626453713754,8.747470925724919,0.3855555555555555,0.38,-0.6522222222222223,0.001090830782496456,-0.0006352607859816804,-0.002181661564992912
1590515030.4150155,0.033118531160537326,-4.376881468839462,8.681288813036776,0.3855555555555555,0.38,-0.6522222222222223,0.0017711887397141588,0.0007506518038876047,-0.001161124629166358
1590515030.4250154,0.04795156975925665,-4.366024215120372,8.66385470927777,0.3855555555555555,0.38,-0.6522222222222223,0.002405110641232859,0.0,0.000223449076239947
1590515030.4350154,0.05693984651267775,-4.36,8.718360920923933,0.3855555555555555,0.38,-0.6522222222222223,0.0007570198201829573,0.0,-0.0007570198201829573
1590515030.4450154,0.047782317408017576,-4.36,8.758891158704008,0.38395389590579043,0.38,-0.6523454268106658,0.00024191164371409595,-0.0006047791092852399,0.00024191164371409595
1590515030.4550154,0.031060973403292925,-4.360530486701647,8.751591460104938,0.3711111111111111,0.38,-0.6533333333333333,0.002181661564992912,-0.0051648183005517925,0.0021237944426068145
1590515030.4650154,0.05378582057312917,-4.366214179426871,8.742141794268708,0.3711111111111111,0.38,-0.6533333333333333,0.00011681675590407463,-0.0008259379236355348,0.0015037997443142234
1590515030.4750154,0.06,-4.363422534009979,8.690267602029937,0.3711111111111111,0.38,-0.6533333333333333,-0.00252581125704412,-0.0018083210197702882,0.0010616399293250402
1590515030.4850154,0.05777130576254846,-4.367771305762549,8.718914776949807,0.3711111111111111,0.38,-0.6533333333333333,-0.001090830782496456,-0.000847717954597995,-0.000604605126699534
1590515030.4950154,0.05,-4.358958560174214,8.748958560174215,0.369838240212928,0.38,-0.6532176177971348,-0.0005228134724537873,0.0,0.0008636238584793885
1590515030.5050154,0.0527075378442812,-4.3472924621557185,8.745415075688562,0.3588888888888889,0.38,-0.6522222222222223,0.0028865903173278086,-0.000295346562531603,-0.001976870470091265
1590515030.5150154,0.05912919875801444,-4.343483204967942,8.751291987580144,0.3588888888888889,0.38,-0.6522222222222223,-0.000995841102477056,-0.001090830782496456,-0.004363323129985824
1590515030.5250154,0.050672607766442196,-4.377309568934231,8.666726077664421,0.3588888888888889,0.38,-0.6522222222222223,-7.337012561813342e-05,-0.001090830782496456,-0.004363323129985824
1590515030.5350153,0.06588017553901927,-4.362059912230491,8.700299561152452,0.3588888888888889,0.38,-0.6522222222222223,-0.0015075568639149645,-0.001090830782496456,-0.0019569599979669294
1590515030.5450153,0.05,-4.369669457468185,8.74,0.35880319267693683,0.38023260400386993,-0.6522222222222223,0.0010667930512545717,-0.0011148685137383403,-0.0010427553200126872
1590515030.5550153,0.05,-4.346056258996316,8.74,0.3511111111111111,0.4011111111111111,-0.6522222222222223,-0.0007605130954988222,-0.0029421746604917343,0.0022815392864964667
1590515030.5650153,0.05557218493350565,-4.362786092466753,8.717711260265977,0.3511111111111111,0.4011111111111111,-0.6522222222222223,-0.0009117466276846396,-0.0018777460224313654,0.0009117466276846396
1590515030.5750153,0.06606354147100653,-4.366063541471006,8.66,0.3511111111111111,0.4011111111111111,-0.6522222222222223,-0.002628390826872347,-0.0015202317962411365,0.002413690320000007
1590515030.5850153,0.05,-4.35,8.685250071667463,0.3511111111111111,0.4011111111111111,-0.6522222222222223,-0.0002503959585010021,-0.0025213044719863617,-0.0005900388654944518
1590515030.5950153,0.05049205582069716,-4.349015888358605,8.769507944179303,0.3511111111111111,0.4000723266007504,-0.6508007276290971,-0.0009298058917195521,-5.36749635923013e-05,0.0009298058917195521
1590515030.6050153,0.05480376337412804,-4.335196236625872,8.757401881687064,0.3511111111111111,0.38,-0.6233333333333333,0.001614840078529247,-0.001657652268960121,-0.0013314293352974143
1590515030.6150153,0.04542150090537187,-4.355421500905372,8.733735497283885,0.3511111111111111,0.38,-0.6233333333333333,0.0008870910112368067,-0.002976795343743766,0.0004994367750052515
1590515030.6250153,0.057734695363113576,-4.367734695363113,8.699061218547545,0.3511111111111111,0.38,-0.6233333333333333,0.0025311731385950693,-0.001440342356098613,-0.0008437243795316896
1590515030.6350152,0.048094462849029816,-4.36,8.73,0.3511111111111111,0.38,-0.6233333333333333,-0.0002078618581468874,0.001090830782496456,-0.0002078618581468874
1590515030.6450152,0.040154472314245154,-4.36,8.73,0.3511111111111111,0.38,-0.6233333333333333,-0.0010739804669542487,0.001090830782496456,-0.0010739804669542487
1590515030.6550152,0.047449647965066365,-4.36,8.752147535755464,0.34444444444444444,0.4011111111111111,-0.6522222222222223,0.0005344302813148375,-0.001068860562629675,2.1970219866780877e-05
1590515030.6650152,0.03824826354735711,-4.358248263547357,8.692993054189428,0.34444444444444444,0.4011111111111111,-0.6522222222222223,-0.001090830782496456,0.001035152737774507,0.0028903227384165665
1590515030.6750152,0.03190124540350771,-4.351901245403507,8.667604981614032,0.34444444444444444,0.4011111111111111,-0.6522222222222223,-0.001090830782496456,-0.0031189609232501613,0.0015056181847416768
1590515030.6850152,0.06975713469360316,-4.370242865306397,8.720242865306398,0.34444444444444444,0.4011111111111111,-0.6522222222222223,-5.298499044362429e-05,-0.001090830782496456,-0.0021551690697710997
1590515030.6950152,0.06270765403879122,-4.377292345961209,8.727292345961208,0.34444444444444444,0.4011111111111111,-0.6522222222222223,-0.001590943090220049,-0.001090830782496456,-0.0013861900198828875
1590515030.7050152,0.06,-4.360629124175166,8.749370875824836,0.3584345214290476,0.38066407551822967,-0.6672884589748718,0.003100925343418709,0.0010222039808681922,-3.431340081413189e-05
1590515030.7150152,0.06,-4.382336297933233,8.75,0.3588888888888889,0.38,-0.6677777777777778,2.380950047834937e-05,-0.0005335106410090534,0.0016243414235055094
1590515030.7250152,0.06,-4.380224375855894,8.662019382703045,0.3588888888888889,0.38,-0.6677777777777778,0.002108234737855523,0.002108234737855523,-0.001017403955359067
1590515030.7350152,0.03249761402729997,-4.389167461990899,8.733339695927201,0.3588888888888889,0.38,-0.6677777777777778,0.002181661564992912,-0.0008183833561190815,-0.001090830782496456
1590515030.7450151,0.049926434142905596,-4.350147131714189,8.749963217071453,0.3588888888888889,0.38,-0.6677777777777778,8.024790145931462e-06,-0.001090830782496456,-0.001090830782496456
1590515030.7550151,0.04164761828644502,-4.358352381713555,8.775057145140664,0.3690973554276783,0.39763280583972715,-0.6482888871128162,0.0027333105240918833,-0.0020019342905270836,-0.001090830782496456
1590515030.7650151,0.04837182915957533,-4.36,8.752090120755328,0.3711111111111111,0.4011111111111111,-0.6444444444444445,0.001826449790613241,0.000355211774379671,-0.001090830782496456
1590515030.775015,0.041573385201393954,-4.36,8.677307237215334,0.3711111111111111,0.4011111111111111,-0.6444444444444445,0.00034325940208098206,0.0018384021629119299,-0.001090830782496456
1590515030.785015,0.04322150292202043,-4.3483892485389894,8.713221502922021,0.3711111111111111,0.4011111111111111,-0.6444444444444445,0.0025696694368409364,0.003448198075151476,-0.001266536510158564
1590515030.795015,0.05972767163180574,-4.340136164184097,8.729727671631807,0.3711111111111111,0.4011111111111111,-0.6444444444444445,-0.0010314179491017926,0.004348469921637158,-0.0021668083566442464
1590515030.805015,0.04149252610230602,-4.358507473897694,8.767014947795388,0.3711111111111111,0.4011111111111111,-0.6444444444444445,-0.0018560428817779404,0.00016280934160748577,0.0040377044467708526
1590515030.815015,0.05,-4.3518558646721655,8.73329721795051,0.3711111111111111,0.4011111111111111,-0.6444444444444445,0.0,0.0008883873512418711,0.0019792181337383273
1590515030.825015,0.04865664757658454,-4.358656647576585,8.66268670484683,0.3711111111111111,0.4011111111111111,-0.6444444444444445,0.00014653701752027958,0.0,0.0006512197299356171
1590515030.835015,0.04059595648998732,-4.350595956489987,8.678808087020025,0.3711111111111111,0.4011111111111111,-0.6444444444444445,0.0010258220140657854,0.0,-0.001986635259700901
1590515030.845015,0.05903832957553182,-4.369038329575532,8.737114988726596,0.3711111111111111,0.4011111111111111,-0.6444444444444445,0.0017830839807732154,-0.0006922531982767595,-0.0028739147632696714
1590515030.855015,0.055263989764046215,-4.372631994882023,8.77,0.3711111111111111,0.40520444728776495,-0.6550871185037443,0.0013779368861648491,0.0005166185751596696,-0.0008613183110051797
1590515030.865015,0.05582826247431319,-4.354171737525687,8.774703629072482,0.3711111111111111,0.4066666666666667,-0.6588888888888889,-0.0006357648115449786,-0.0012425194394802817,-0.0009391421255126303
1590515030.875015,0.030724218422680204,-4.37927578157732,8.682655467549827,0.3711111111111111,0.4066666666666667,-0.6588888888888889,0.002102661590121852,-0.002155328240035892,-2.6333324957019972e-05
1590515030.885015,0.03790686388694774,-4.356279408339156,8.695813727773896,0.3711111111111111,0.4066666666666667,-0.6588888888888889,0.002181661564992912,-0.002181661564992912,0.0
1590515030.895015,0.057384027448464395,-4.358692013724232,8.734768054896929,0.3711111111111111,0.4066666666666667,-0.6588888888888889,-0.0006627932746893304,0.001610944887916744,0.0
1590515030.905015,0.04412832310838446,-4.344128323108384,8.771743353783231,0.3711111111111111,0.4022578675301068,-0.6588888888888889,-0.001956496468657051,-0.001281001179649468,0.000865665686160595
1590515030.915015,0.05652865286528653,-4.357685768576858,8.711900190019003,0.3711111111111111,0.4011111111111111,-0.6588888888888889,-0.0009646090387872451,-0.0018029963338652792,-0.0009646090387872451
1590515030.925015,0.03555505550555055,-4.343703370337034,8.66296179617962,0.3711111111111111,0.4011111111111111,-0.6588888888888889,-0.00020198751813103194,0.00048486822810336026,-0.00020198751813103194
1590515030.935015,0.04367822889139394,-4.37,8.703678228891393,0.3711111111111111,0.4011111111111111,-0.6588888888888889,0.0,-0.0006895982525164241,-0.000990522650001448
1590515030.945015,0.0746822390183505,-4.37,8.734682239018351,0.3711111111111111,0.4011111111111111,-0.6588888888888889,0.0,0.002692414610215182,-0.00014501943431854643
1590515030.955015,0.05,-4.36,8.776674226617073,0.3588888888888889,0.4066666666666667,-0.6588888888888889,-0.001000134382953863,-0.0019095723663651331,-0.002090965165450319
1590515030.965015,0.04921790013662259,-4.36,8.73687160054649,0.3588888888888889,0.4066666666666667,-0.6588888888888889,0.0,0.0010481738521985382,-0.0009628599916027027
1590515030.975015,0.033251434012215225,-4.361083811337405,8.664335245349621,0.3588888888888889,0.4066666666666667,-0.6588888888888889,0.0,0.0,0.0017087596572888679
1590515030.985015,0.06,-4.369496252767842,8.70251873616079,0.3588888888888889,0.4066666666666667,-0.6588888888888889,0.0001099005974870812,0.0001099005974870812,-0.0019618603700187493
1590515030.995015,0.06,-4.363542837676716,8.73228581161642,0.3588888888888889,0.4066666666666667,-0.6588888888888889,0.0014087342859628903,0.0014087342859628903,0.0006358070069328687
1590515031.005015,0.06,-4.347089098373118,8.762910901626881,0.3710825182031659,0.3987766712280168,-0.64956434882503,0.002885842011212211,-0.0006350602198842833,0.0007733006725543143
1590515031.015015,0.04220928626398564,-4.37,8.780426426189395,0.37777777777777777,0.3944444444444444,-0.6444444444444445,-0.0010104988670263852,-0.0010104988670263852,0.001860333903112629
1590515031.0250149,0.06703889338358625,-4.37,8.67283146200446,0.37777777777777777,0.3944444444444444,-0.6444444444444445,-0.0001076688749146017,-0.0001076688749146017,-0.0017509860653345051
1590515031.0350149,0.06358774518312793,-4.357175490366256,8.685649019267489,0.37777777777777777,0.3944444444444444,-0.6444444444444445,0.000699468493945523,-0.001398936987891046,-8.325608315634279e-05
1590515031.0450149,0.05297099055045265,-4.364058018899095,8.735145047247736,0.37777777777777777,0.3944444444444444,-0.6444444444444445,0.001090830782496456,-0.0014149155771904403,0.0003240847946939843
1590515031.0550148,0.056806370321407916,-4.363193629678593,8.763612740642815,0.37324019756350585,0.39898202465871635,-0.6497382880277618,0.001833290608862661,-0.001090830782496456,0.0
1590515031.0650148,0.04121510906189041,-4.369392445469055,8.741822663592837,0.3711111111111111,0.4011111111111111,-0.6522222222222223,0.0011571047009364783,-0.001090830782496456,0.0010245568640564336
1590515031.0750148,0.032981139975923376,-4.3770188600240765,8.683849119807387,0.3711111111111111,0.4011111111111111,-0.6522222222222223,0.001856469639726116,-0.00032519192526679597,-0.000440446931962864
1590515031.0850148,0.04757539331801308,-4.362424606681987,8.677575393318012,0.3711111111111111,0.4011111111111111,-0.6522222222222223,0.002181661564992912,-0.0009585890022885596,0.0008263472220806632
1590515031.0950148,0.04291996029265782,-4.367080039707342,8.722480238244053,0.3711111111111111,0.4011111111111111,-0.6522222222222223,0.002181661564992912,-0.001090830782496456,-0.0004537942683167542
1590515031.1050148,0.030723033107867566,-4.360723033107868,8.77710786756853,0.3463725327320913,0.40626498160674024,-0.6584068668169771,0.00015774135416520485,-7.887067708260242e-05,0.0009330894283312511
1590515031.1150148,0.05358586455501714,-4.367861954851673,8.772138045148328,0.34444444444444444,0.4066666666666667,-0.6588888888888889,0.0008576062362801589,0.0008576062362801589,-0.0014819879263440214
1590515031.1250148,0.04142673157102006,-4.36,8.69214009735653,0.34444444444444444,0.4066666666666667,-0.6588888888888889,0.001090830782496456,0.0030390439400851364,0.0008573823750922243
1590515031.1350148,0.05973805417912728,-4.36,8.719607081268691,0.34444444444444444,0.4066666666666667,-0.6588888888888889,0.001090830782496456,4.286078471313912e-05,-0.002138800780279773
