time,acc_x,acc_y,acc_z,mag_x,mag_y,mag_z,gyr_x,gyr_y,gyr_z
1590515072.0042872,0.11,-4.29,8.84,0.4211111111111111,0.2644444444444444,-0.6133333333333333,0.008726646259971648,-0.007635815477475192,-0.001090830782496456
1590515072.0142872,0.07523303325249975,-4.3147669667475,8.77,0.4211111111111111,0.2644444444444444,-0.6133333333333333,0.004312483160951425,-0.0021308215959585123,-0.0010399908134620566
1590515072.0242872,0.07410204343365254,-4.31,8.781795913132694,0.4211111111111111,0.2644444444444444,-0.6133333333333333,0.003272492347489368,0.00019590373278332825,0.0012867345152797842
1590515072.0342872,0.08371979899497488,-4.31,8.799146532663316,0.4211111111111111,0.2644444444444444,-0.6133333333333333,0.00427022428571487,0.000591964813383705,0.00118392962676741
1590515072.0442872,0.08189362733220257,-4.297929084888135,8.822070915111865,0.4211111111111111,0.2644444444444444,-0.6133333333333333,0.004795787623636083,0.0006583662888461971,-0.0013167325776923943
1590515072.0542872,0.0897412972009709,-4.299870648600486,8.73622883829539,0.4211111111111111,0.2644444444444444,-0.6133333333333333,0.005978404230478088,0.0016291911493272106,-0.0005665804645006479
1590515072.0642872,0.10285202293724116,-4.30642601146862,8.64,0.4211111111111111,0.2644444444444444,-0.6133333333333333,0.005296645453684409,0.000622214882465723,0.0007009691118646587
1590515072.0742872,0.09811369102828127,-4.3,8.648113691028282,0.4211111111111111,0.2644444444444444,-0.6133333333333333,0.0033034967658250895,-0.003509261154990092,-0.0004425331966657267
1590515072.0842872,0.10526598787324105,-4.301578004042253,8.678936048507035,0.4233904502832543,0.2612884363599385,-0.6077226522942115,0.0055121834644626996,-0.0052820203740629405,-0.000574430167238438
1590515072.0942872,0.07403502448109099,-4.31,8.791929951037819,0.4355555555555555,0.24444444444444444,-0.5777777777777777,0.0006506778912863723,-0.005664678912558568,0.00022962789113379462
1590515072.1042871,0.07,-4.295092030955867,8.747822108345535,0.4355555555555555,0.24444444444444444,-0.5777777777777777,0.0002777272056042273,-0.004918777541194279,-0.0002777272056042273
1590515072.1142871,0.0754492385786802,-4.29,8.735449238578681,0.4355555555555555,0.24444444444444444,-0.5777777777777777,0.0,-0.004363323129985824,0.0011888394365583202
1590515072.1242871,0.09192865636147443,-4.297952437574316,8.75988109393579,0.4355555555555555,0.24444444444444444,-0.5777777777777777,0.0013012145552918487,-0.003929584944888541,0.0008804470097010632
1590515072.134287,0.10454312261300804,-4.3045431226130075,8.795456877386991,0.42767339932990045,0.2517202809604337,-0.5814156960357724,0.006248757262509197,-0.0020819863814814364,-0.001090830782496456
1590515072.144287,0.09309972402080459,-4.306900275979195,8.820700827937587,0.4211111111111111,0.2577777777777778,-0.5844444444444444,0.004210426192475307,0.0011672792512517143,-0.001090830782496456
1590515072.154287,0.07246934558866125,-4.31,8.759877382354645,0.4211111111111111,0.2577777777777778,-0.5844444444444444,0.0015442289826863918,0.0002693638180733518,0.00018403438211658405
1590515072.164287,0.06560087779454121,-4.2931973666163765,8.71,0.4211111111111111,0.2577777777777778,-0.5844444444444444,0.0029237137546823814,0.0007420521896894696,-0.0007420521896894696
1590515072.174287,0.07545918152315928,-4.296377544569478,8.72091836304632,0.4211111111111111,0.2577777777777778,-0.5844444444444444,0.0025768101541764174,0.002181661564992912,-0.0033726702155325162
1590515072.184287,0.08,-4.304352605637702,8.741294788724595,0.4167186932737688,0.26530763692750736,-0.5882093740193093,0.001090830782496456,0.0009495912427347727,-0.0031312528077276844
1590515072.194287,0.09184863887947589,-4.294075680560262,8.732227041680787,0.4133333333333333,0.27111111111111114,-0.5911111111111111,0.0017370737835172866,0.0,-0.0015354185639720815
1590515072.204287,0.10629646215853113,-4.296296462158531,8.701110613524406,0.4133333333333333,0.27111111111111114,-0.5911111111111111,0.003555336513662878,-0.0020605124230049492,-0.001090830782496456
1590515072.214287,0.10378130645197262,-4.3,8.71487477419211,0.4133333333333333,0.27111111111111114,-0.5911111111111111,0.002328260425255711,-0.005985909287129519,-0.001090830782496456
1590515072.224287,0.08493473608054744,-4.303766315979863,8.752597895879179,0.4133333333333333,0.27111111111111114,-0.5911111111111111,0.001090830782496456,-0.00722497413673089,-0.00026914810100785256
1590515072.234287,0.06046404632530837,-4.31,8.790928092650615,0.4133333333333333,0.270956429002675,-0.5912915735709533,0.0011161405833039928,-0.006494365093363662,0.0011161405833039928
1590515072.244287,0.06930974871889856,-4.293964623078348,8.819309748718899,0.4133333333333333,0.2644444444444444,-0.5988888888888889,0.002764724323495293,-0.0037802603714834427,0.002181661564992912
1590515072.254287,0.08356801333508795,-4.297676010001316,8.762863973329825,0.4133333333333333,0.2644444444444444,-0.5988888888888889,0.00391521020819439,-0.0026297744867843456,-0.00038920987782717787
1590515072.264287,0.11311370141608919,-4.301257532389274,8.756227402832177,0.4133333333333333,0.2644444444444444,-0.5988888888888889,0.002456012573034164,-0.002181661564992912,-0.001228006286517082
1590515072.274287,0.11981033170814193,-4.29,8.79,0.4133333333333333,0.2644444444444444,-0.5988888888888889,0.0007410135890791245,-0.0018111547704533497,-0.00037050679453956223
1590515072.284287,0.09272255528255528,-4.293638722358723,8.782722555282554,0.4133333333333333,0.26201862953862953,-0.5936329565929566,0.002181661564992912,-0.001487753818281702,-0.001487753818281702
1590515072.294287,0.08378401864359916,-4.296215981356401,8.762431962712801,0.4133333333333333,0.2577777777777778,-0.5844444444444444,0.004245523573982139,-0.0030072063685886025,-0.0017688891631950667
1590515072.304287,0.07185640765271976,-4.28395213588424,8.6895213588424,0.4133333333333333,0.2577777777777778,-0.5844444444444444,0.008295535112057873,-0.0063424820337338655,-0.001090830782496456
1590515072.314287,0.08558358889776564,-4.299187691673324,8.701167177795531,0.4133333333333333,0.2577777777777778,-0.5844444444444444,0.006633593787740348,-0.004147394690423025,-0.0017885149399068895
1590515072.324287,0.1,-4.300497425352209,8.739502574647792,0.4133333333333333,0.2577777777777778,-0.5844444444444444,0.005972438959421353,-0.002699946611931986,-0.002181661564992912
1590515072.334287,0.1,-4.2942180347879155,8.783744278303326,0.4166140270572678,0.2605898009697216,-0.5816324212525006,0.006544984694978735,-0.004192724785149256,-0.002181661564992912
1590515072.344287,0.1,-4.3,8.813678961693139,0.4211111111111111,0.2644444444444444,-0.5777777777777777,0.003577736197074079,-0.004860704212901348,0.00019213723333081321
1590515072.354287,0.09430749014454665,-4.3,8.754459921156373,0.4211111111111111,0.2644444444444444,-0.5777777777777777,0.0017117872804957527,-0.00498427962798512,0.0015607050669936154
1590515072.364287,0.08345905898200712,-4.3,8.73962282305398,0.4211111111111111,0.2644444444444444,-0.5777777777777777,0.001468155584100878,-0.004027141950698213,0.001090830782496456
1590515072.374287,0.0917310993516535,-4.3,8.781282931604409,0.4211111111111111,0.2644444444444444,-0.5777777777777777,0.00023772116347593253,-0.001992827918958583,0.0015173855920067177
1590515072.3842869,0.10958247620128535,-4.3,8.828886603203427,0.4211111111111111,0.2644444444444444,-0.5777777777777777,-0.0010604675950256026,-4.554478120628001e-05,0.0021664799712574853
1590515072.3942869,0.09997769240302391,-4.304988846201511,8.789977692403024,0.4211111111111111,0.24444444444444444,-0.5777777777777777,-0.0005466320819214797,0.006003219375750263,0.001090830782496456
1590515072.4042869,0.09590516453382084,-4.3,8.691422531992687,0.4211111111111111,0.24444444444444444,-0.5777777777777777,0.0008416297922629763,0.005059201377795948,-0.00019747626734316565
1590515072.4142869,0.09596811278006209,-4.3,8.666286984979441,0.4211111111111111,0.24444444444444444,-0.5777777777777777,-1.73917805382502e-05,0.003272492347489368,-0.00021120944428399118
1590515072.4242868,0.0881335361038809,-4.294400608311642,8.72373292779224,0.4211111111111111,0.24444444444444444,-0.5777777777777777,-0.002865293093028374,0.003068892720258871,0.001090830782496456
1590515072.4342868,0.07702546832245843,-4.278923595032625,8.74,0.41516204775602794,0.24841048668116653,-0.5883538904090366,-0.0004418886390218225,0.002181661564992912,0.0007663597107591392
1590515072.4442868,0.07696454708082616,-4.3,8.729553179378762,0.4011111111111111,0.2577777777777778,-0.6133333333333333,0.001470687899592006,0.0018018044478973622,0.0
1590515072.4542868,0.09,-4.304513263546583,8.691946945813667,0.4011111111111111,0.2577777777777778,-0.6133333333333333,0.0016893408843796681,0.00010618942126996837,0.001969282722452975
1590515072.4642868,0.09391188701157607,-4.302176225976847,8.701295096092608,0.4011111111111111,0.2577777777777778,-0.6133333333333333,0.0027977134904465543,-0.0019442721364715055,0.0018029990680606765
1590515072.4742868,0.1,-4.285775592752146,8.771122036239271,0.4011111111111111,0.2577777777777778,-0.6133333333333333,0.004532531219730169,-0.004654926386617534,-0.0007992275258647452
1590515072.4842868,0.1053341158059468,-4.28,8.816002347417841,0.40644522691705787,0.2577777777777778,-0.6094809163623718,0.0029815614615629855,-0.006544984694978735,0.001090830782496456
1590515072.4942868,0.10721528288023512,-4.284261572373255,8.85147685525349,0.4211111111111111,0.2577777777777778,-0.5988888888888889,0.002181661564992912,-0.0037557920990289435,0.0015556962151547545
1590515072.5042868,0.09,-4.29798492987168,8.800075350641599,0.4211111111111111,0.2577777777777778,-0.5988888888888889,0.0030526822950033244,0.0013065310950156185,0.002617171929998118
1590515072.5142868,0.09,-4.29440801383916,8.74519732872028,0.4211111111111111,0.2577777777777778,-0.5988888888888889,0.0026625012835355226,0.003272492347489368,0.0015716705010390666
1590515072.5242867,0.08617872250423012,-4.28382127749577,8.76146383248731,0.4211111111111111,0.2577777777777778,-0.5988888888888889,0.0006739940704117802,0.0028556556354046923,0.0008336734241693515
1590515072.5342867,0.08281574872815749,-4.295631497456315,8.771552753815527,0.4176696404433631,0.2630964142642975,-0.5929445304627786,-0.0009214516165348298,0.0024888121038378554,0.002181661564992912
1590515072.5442867,0.09295561732829434,-4.31,8.755911234656589,0.4088888888888889,0.2766666666666667,-0.5777777777777777,-0.002627676674892687,0.003272492347489368,0.0025040694012912522
1590515072.5542867,0.07993843606922062,-4.31,8.714830699190356,0.4088888888888889,0.2766666666666667,-0.5777777777777777,0.0005504520785571503,0.0021783037734536305,0.0021783037734536305
1590515072.5642867,0.07641870485363073,-4.297685971359777,8.680523381067038,0.4088888888888889,0.2766666666666667,-0.5777777777777777,0.002629412281569521,-0.0011479228003865884,0.0006430800659198471
1590515072.5742867,0.09771772721742304,-4.282282272782577,8.721411363912885,0.4088888888888889,0.2766666666666667,-0.5777777777777777,0.004019364369076003,-0.005110195151572459,-0.000497914681057757
1590515072.5842867,0.09,-4.29202214532872,8.776177162629757,0.41136039984621303,0.2712742791234141,-0.580473971549404,0.006103821020728957,-0.007635815477475192,-0.0012993342164933563
1590515072.5942867,0.09,-4.3,8.838282545493701,0.4211111111111111,0.25,-0.5911111111111111,0.004363323129985824,-0.007635815477475192,0.0019943163406920777
1590515072.6042867,0.09291551207900169,-4.3,8.783760391288986,0.4211111111111111,0.25,-0.5911111111111111,0.00531742222674041,-0.006999749412972135,-0.0014088638147479846
1590515072.6142867,0.09801638837353123,-4.298016388373531,8.72198361162647,0.4211111111111111,0.25,-0.5911111111111111,0.006878490859540693,-0.00545415391248228,-0.0018570938715924126
1590515072.6242867,0.08508531346326545,-4.2833902089755105,8.748475522438776,0.4211111111111111,0.25,-0.5911111111111111,0.00018490721547912063,-0.003789988973170194,0.0005361091360590941
1590515072.6342866,0.10497806233546751,-4.294978062335468,8.792510968832266,0.4227850903326219,0.2566959168860433,-0.5947380660910513,0.00026911815365889685,0.003267706291535745,-0.0008121405169303133
1590515072.6442866,0.09,-4.283401727861771,8.8,0.42777777777777776,0.2766666666666667,-0.6055555555555555,-0.00181059061846334,0.00037107094652957193,0.002530350454430224
1590515072.6542866,0.09,-4.292113791861722,8.772520705797623,0.42777777777777776,0.2766666666666667,-0.6055555555555555,-0.001090830782496456,0.0013214097055520627,0.001090830782496456
1590515072.6642866,0.0941464779276003,-4.2917070441447995,8.690732389638002,0.42777777777777776,0.2766666666666667,-0.6055555555555555,-0.0006385202062596052,0.0012770404125192103,0.001090830782496456
1590515072.6742866,0.09752676584280193,-4.2874197024715945,8.7224732341572,0.42777777777777776,0.2766666666666667,-0.6055555555555555,0.0005395759901986686,0.0002697879950993343,0.0008210427873971216
1590515072.6842866,0.09,-4.304070800024164,8.741858399951672,0.4249229777894122,0.27139626668814565,-0.6027007555671899,0.001750477975044956,0.0006596471925485002,-0.00021559179497397787
1590515072.6942866,0.09,-4.280768188145652,8.785390871126088,0.4133333333333333,0.25,-0.5911111111111111,0.00016759265520514824,-0.0009232381272913078,-0.0012584234377016042
1590515072.7042866,0.08595261694669407,-4.285952616946695,8.713810467786777,0.4133333333333333,0.25,-0.5911111111111111,0.0012986595603727905,-0.0011166742290538484,-0.0019479893405591857
1590515072.7142866,0.09160916265898085,-4.282902290664746,8.70160916265898,0.4133333333333333,0.25,-0.5911111111111111,0.00031659079968561786,-0.004363323129985824,0.0006331815993712357
1590515072.7242866,0.11972250615815139,-4.289930626539538,8.729722506158152,0.4133333333333333,0.25,-0.5911111111111111,0.001083263311880414,-0.004363323129985824,0.002166526623760828
1590515072.7342865,0.09425659769545286,-4.303615103456821,8.78638489654318,0.4164075427800492,0.25,-0.5927664546593429,0.001555153561986801,0.0017873149517319735,0.00092864555898069
1590515072.7442865,0.11341352607124419,-4.286827052142488,8.81,0.42777777777777776,0.25,-0.5988888888888889,0.001783060621342426,0.0028738914038388816,0.0036186072669123527
1590515072.7542865,0.10784454861636171,-4.306077725691819,8.779611371540906,0.42777777777777776,0.25,-0.5988888888888889,-0.0020852963233273397,0.0013259540544411782,0.0025131500786032064
1590515072.7642865,0.0884790107970073,-4.311520989202993,8.718479010797008,0.42777777777777776,0.25,-0.5988888888888889,-0.0039008648308610553,0.004825781429110593,0.0009602008518655243
1590515072.7742865,0.09669948133835045,-4.293398962676701,8.73330051866165,0.42777777777777776,0.25,-0.5988888888888889,-0.0021924001411899683,0.00437406170618288,-0.0018216308295597788
1590515072.7842865,0.0956130399551206,-4.2828065199775605,8.742806519977561,0.4237239155879684,0.24844082223468872,-0.5948350266990796,0.0009184315149642136,0.002181661564992912,-0.001090830782496456
1590515072.7942865,0.10674607966601687,-4.293253920333983,8.753253920333982,0.4133333333333333,0.24444444444444444,-0.5844444444444444,0.002562597054669379,0.0007618709793529338,-0.0007358831360864614
1590515072.8042865,0.10108948520096742,-4.298910514799032,8.753463088794195,0.4133333333333333,0.24444444444444444,-0.5844444444444444,0.001090830782496456,-0.0020628171655639534,0.0
1590515072.8142865,0.10297571950876536,-4.293512140245618,8.724584981719321,0.4133333333333333,0.24444444444444444,-0.5844444444444444,0.001090830782496456,-0.0007077157132600519,-0.0007662301384728082
1590515072.8242865,0.08658334497044175,-4.298291672485221,8.775124982544337,0.4133333333333333,0.24444444444444444,-0.5844444444444444,0.00127718040646713,-0.0001863496239706742,-0.0023680111889635863
1590515072.8342865,0.07256507085718927,-4.291282535428595,8.80256507085719,0.4133333333333333,0.2478645389206968,-0.5852994680635075,0.002181661564992912,-0.000950927869981125,-0.003132589434974037
1590515072.8442864,0.08959637795915051,-4.299798188979575,8.81959637795915,0.4133333333333333,0.2705729483899785,-0.590976570430828,0.002181661564992912,-2.2014167332632447e-05,-0.0022036757323255444
1590515072.8542864,0.08671961834191895,-4.29,8.766401908290405,0.4133333333333333,0.27111111111111114,-0.5911111111111111,0.00035783412909715757,-0.002181661564992912,-0.0014486649115936136
1590515072.8642864,0.09598983223182511,-4.294010167768175,8.712030503304524,0.4133333333333333,0.27111111111111114,-0.5911111111111111,-0.0019657136713965113,0.0004429871017072543,-0.0013123243333500831
1590515072.8742864,0.09692410571326313,-4.296537947143368,8.743848211426526,0.4133333333333333,0.27111111111111114,-0.5911111111111111,-0.0025171895821606673,0.003230368981992773,-0.0028948409648250177
1590515072.8842864,0.10303635021976965,-4.29232121659341,8.77464243318682,0.4133333333333333,0.2649212001953508,-0.5895636333821711,-0.0013440362337897877,0.0013440362337897877,-0.0016752506624062484
1590515072.8942864,0.08426208169640743,-4.3,8.798524163392814,0.4133333333333333,0.24444444444444444,-0.5844444444444444,-0.0026465825561885073,0.0035764245385796973,-0.0018596839647823805
1590515072.9042864,0.09839185376609214,-4.3,8.76804073116954,0.4133333333333333,0.24444444444444444,-0.5844444444444444,-0.0028147877269762626,0.0049964492919691746,-0.003447913888959613
1590515072.9142864,0.10665926917926152,-4.3033407308207385,8.726703654103693,0.4133333333333333,0.24444444444444444,-0.5844444444444444,-0.002181661564992912,0.003270071525396971,-0.0025460787665225297
1590515072.9242864,0.09550494550494551,-4.3070032970032965,8.765993405993406,0.4133333333333333,0.24444444444444444,-0.5844444444444444,-0.0023451063587330624,0.0006004964012760053,-0.003435937141229518
1590515072.9342864,0.07157440379842453,-4.290524801266142,8.798425596201577,0.4133333333333333,0.24514417946596645,-0.5855523582285209,-0.003272492347489368,-0.002124414627412885,-0.004306076192405797
1590515072.9442863,0.1,-4.294726184842133,8.759452369684267,0.4133333333333333,0.2577777777777778,-0.6055555555555555,-0.003272492347489368,-0.001090830782496456,-0.003272492347489368
1590515072.9542863,0.1,-4.280547630315732,8.731095260631465,0.4133333333333333,0.2577777777777778,-0.6055555555555555,-0.003272492347489368,-0.001090830782496456,-0.003272492347489368
1590515072.9642863,0.08813966046778494,-4.29,8.690852880623714,0.4133333333333333,0.2577777777777778,-0.6055555555555555,-0.0004988979693411683,0.003162595628539963,-0.00029596640657764383
1590515072.9742863,0.10937375544230316,-4.29,8.719165007256406,0.4133333333333333,0.2577777777777778,-0.6055555555555555,0.0010452889931026825,0.00856724999709344,-0.0010680598877995692
1590515072.9842863,0.10087944940316164,-4.2817588988063235,8.792638348209485,0.41401734953579233,0.2570937615753187,-0.6042852397509887,0.002181661564992912,0.0033684253955510524,-0.003176559299427684
1590515072.9942863,0.10990041939993547,-4.299800838799871,8.819701258199807,0.42103365953328314,0.25007745157782796,-0.5912549497556487,0.002181661564992912,0.004352460571596839,-0.002192524123381897
1590515073.0042863,0.07340528664295908,-4.286594713357041,8.77594713357041,0.4211111111111111,0.25,-0.5911111111111111,-0.00037145914933637723,0.0007193716331600787,-0.0007193716331600787
1590515073.0142863,0.08328426226989938,-4.286568524539799,8.729705573619396,0.4211111111111111,0.25,-0.5911111111111111,-1.6058467957076735e-05,-0.0003582574381797931,0.0
1590515073.0242863,0.09,-4.297413705124195,8.772586294875804,0.4211111111111111,0.25,-0.5911111111111111,0.0010531775397367472,-0.0008087097761824148,-0.0002821210063140412
1590515073.0342863,0.09,-4.290509621240803,8.779490378759197,0.4211111111111111,0.25,-0.5911111111111111,-0.001959297350240297,-5.5591053688153766e-05,-0.0010352397288083022
1590515073.0442863,0.11231443344141617,-4.292314433441416,8.822314433441417,0.42777777777777776,0.2644444444444444,-0.5988888888888889,-0.0030200268232957704,0.003272492347489368,-0.0018482273550772482
1590515073.0542862,0.12,-4.298161926187798,8.806105040441373,0.42777777777777776,0.2644444444444444,-0.5988888888888889,-0.002181661564992912,0.003472995096974428,-0.0037618148815306432
1590515073.0642862,0.11442759961127308,-4.284427599611273,8.711144800777454,0.42777777777777776,0.2644444444444444,-0.5988888888888889,-0.004309152621739401,0.005275105011448605,-0.001394758076317383
1590515073.0742862,0.09270585666937901,-4.27,8.754588286661242,0.42777777777777776,0.2644444444444444,-0.5988888888888889,-0.009552254506568684,0.007635815477475192,-0.0011207714213952314
1590515073.0842862,0.07165539732579629,-4.272483095988694,8.799172301337103,0.4284215434044763,0.26389264533584567,-0.6000844536241863,-0.008636358341959603,0.007184375887414967,0.002271949483004957
1590515073.0942862,0.089893466681161,-4.299840200021741,8.790053266659418,0.4355141259315625,0.2578132888840574,-0.6132563926030606,-0.0076416259686527465,0.002210714020880685,0.0032666818563118136
1590515073.1042862,0.09,-4.3,8.750715631594815,0.4355555555555555,0.2577777777777778,-0.6133333333333333,-0.003350555644744446,0.003038713531539061,-0.0010127674852413778
1590515073.1142862,0.1,-4.3,8.670659407031069,0.4355555555555555,0.2577777777777778,-0.6133333333333333,-0.003931742237374645,0.0008750403361908667,-0.0001438602975370595
1590515073.1242862,0.1,-4.3,8.678110244613007,0.4355555555555555,0.2577777777777778,-0.6133333333333333,0.0009448195564805964,-0.0015632405607367542,-0.0017693808954888067
1590515073.1342862,0.09,-4.280205739462246,8.790102869731122,0.4354069659439341,0.25784635759852614,-0.6130361541100905,-0.0011020521294260138,0.0,-0.0010796094355668981
1590515073.1442862,0.09,-4.296705414921028,8.798352707460515,0.4234905336681462,0.2633462494181205,-0.5892032895585146,-0.0020019698240081197,0.0,-0.00017969174098479213
1590515073.1542861,0.08,-4.2867202782003915,8.801961530102153,0.4211111111111111,0.2644444444444444,-0.5844444444444444,-0.005811916062186073,0.0005366432245556896,0.0019852361567559386
1590515073.1642861,0.08,-4.271526841990871,8.718397630949795,0.4211111111111111,0.2644444444444444,-0.5844444444444444,-0.007469262853110106,0.003022663410941739,0.00612860313406602
1590515073.1742861,-0.02,-4.208263893100451,8.756944427598196,0.4211111111111111,0.2644444444444444,-0.5844444444444444,-0.006022293566802102,0.0012802106672697303,0.017066946970196232
1590515073.184286,-0.02,-4.200352224576271,8.791408898305084,0.4206806144067797,0.26420962806026366,-0.5849532132768361,-0.008803489742001324,0.0020279746009335595,0.03672742890166496
1590515073.194286,-0.014282459627884122,-4.221435080744231,8.812847378883653,0.4088888888888889,0.2577777777777778,-0.5988888888888889,-0.010284620921157535,-0.004364565728317497,0.06202453937217541
1590515073.204286,-0.006963799324874869,-4.247678733558375,8.751429868467,0.4088888888888889,0.2577777777777778,-0.5988888888888889,-0.010499122482202007,-0.011843164153588517,0.07805264377004603
1590515073.214286,-0.02777482489692514,-4.2355496497938505,8.698900700412299,0.4088888888888889,0.2577777777777778,-0.5988888888888889,-0.017818835436774108,-0.019029581202215505,0.09042193894825888
1590515073.224286,-0.023846153846153847,-4.216153846153846,8.739615384615385,0.4088888888888889,0.2577777777777778,-0.5988888888888889,-0.021439020379064963,-0.018837808513111873,0.10564276578177215
1590515073.234286,-0.039007735685367265,-4.200992264314633,8.777519339213418,0.4088888888888889,0.2577777777777778,-0.5988888888888889,-0.015650468315521332,-0.01139538443141292,0.1221814859633254
1590515073.244286,-0.0826120798365004,-4.097731008392399,8.7629551680654,0.40226034313654435,0.24641455648804433,-0.5922603431365444,-0.022708841897646576,-0.0062600509857794395,0.1548720249285583
1590515073.254286,-0.1784250684372998,-4.024834876812861,8.76483487681286,0.4011111111111111,0.24444444444444444,-0.5911111111111111,-0.03127848782958444,-0.003823911787252123,0.2221101492568339
1590515073.264286,-0.21914089347079038,-3.9515463917525775,8.691546391752578,0.4011111111111111,0.24444444444444444,-0.5911111111111111,-0.03483161385208615,-0.006488756304128402,0.27807188411123573
1590515073.274286,-0.3171905966687751,-3.208862534261016,8.729264178789796,0.4011111111111111,0.24444444444444444,-0.5911111111111111,-0.050378880101463186,-0.013874341809039098,0.3575553795311222
1590515073.284286,-0.23253210261188598,-2.4513944617534866,8.718366770520921,0.40448724792695906,0.24514780628107943,-0.5929398518863621,-0.07834765123378133,0.000332239174938501,0.41246010244573783
1590515073.294286,-0.2677678637816938,-2.5981101444964927,9.22849703819367,0.42777777777777776,0.25,-0.6055555555555555,-0.09762285282005412,0.013343190722618185,0.498499934557985
1590515073.304286,-0.29833419465977606,-2.857215044501866,9.176121734137238,0.42777777777777776,0.25,-0.6055555555555555,-0.030150024146334147,-0.0384513622803712,0.5514141149467007
1590515073.314286,-0.2622075796726959,-3.1582701693942004,8.730560149296583,0.42777777777777776,0.25,-0.6055555555555555,-0.0019076071646990517,-0.056184972943258346,0.586881336272475
1590515073.324286,-0.19071095612568054,-3.2896445219371597,8.876445219371599,0.42777777777777776,0.25,-0.6055555555555555,-0.03979201487931126,-0.04493087083619382,0.6592287927719189
1590515073.334286,-0.02708972267536705,-2.620257748776509,8.807595432300165,0.42777777777777776,0.25,-0.6055555555555555,-0.037398946530856465,-0.05262217520638775,0.7162266794190913
1590515073.344286,-0.0811890243902439,-2.7159451219512194,8.996920731707316,0.44,0.2577777777777778,-0.5988888888888889,-0.042778525473329,-0.07776160169613455,0.8111524121159012
1590515073.354286,-0.08875559243758117,-2.7537779621879057,8.913688483186608,0.44,0.2577777777777778,-0.5988888888888889,-0.030397757457494592,-0.07280929448980077,0.8639770223167946
1590515073.364286,-0.09677901498173605,-2.803558029963472,8.803389507490868,0.44,0.2577777777777778,-0.5988888888888889,-0.02074416781749856,-0.07746736850731427,0.9258375111789665
1590515073.374286,-0.1263846194568459,-2.862769238913692,8.818192309728424,0.44,0.2577777777777778,-0.5988888888888889,-0.025588373521878253,-0.08231157421169397,0.9484438044660717
1590515073.384286,-0.13911952645135725,-2.906478105805429,8.911195264513573,0.44,0.2577777777777778,-0.5988888888888889,-0.025185152762421826,-0.08091356743474443,0.9641366605643202
1590515073.394286,-0.14,-2.9530252628275537,8.842554526910403,0.4361755321931063,0.2357870878881392,-0.5864593685164845,-0.024150442375072564,-0.07508948417066222,0.9710172362434392
1590515073.404286,-0.1632947232947233,-2.9465894465894467,8.866821106821108,0.4355555555555555,0.23222222222222225,-0.5844444444444444,-0.029811829686373546,-0.08054177862525312,0.9717631630304465
1590515073.414286,-0.18137149751977477,-2.9832001608794743,8.803200160879475,0.4355555555555555,0.23222222222222225,-0.5844444444444444,-0.03148448552112844,-0.07933143277970371,0.9649862900526469
1590515073.424286,-0.21248464938010872,-3.053726974070163,8.87,0.4355555555555555,0.23222222222222225,-0.5844444444444444,-0.027684017338024516,-0.07281462922450922,0.9546258472287418
1590515073.4342859,-0.22888849779029294,-3.0783327466854393,8.87,0.4355555555555555,0.23222222222222225,-0.5844444444444444,-0.0232105616387159,-0.07102524694478576,0.941205480130816
1590515073.4442859,-0.2567492603550296,-3.0967492603550295,8.851124876725837,0.4666666666666667,0.21777777777777774,-0.5911111111111111,-0.02243014072945822,-0.06958127440861747,0.9140891670107184
1590515073.4542859,-0.3084541420118343,-3.1484541420118344,8.859742357001972,0.4666666666666667,0.21777777777777774,-0.5911111111111111,-0.027130247105839802,-0.07616142333555168,0.8971687840557445
1590515073.4642859,-0.31734392202869777,-3.157343922028698,8.720465481454742,0.4666666666666667,0.21777777777777774,-0.5911111111111111,-0.020861988591885518,-0.06754608094027882,0.8798398531644563
1590515073.4742858,-0.34,-3.1497212747141683,8.800557450571663,0.4666666666666667,0.21777777777777774,-0.5911111111111111,-0.021798373122630405,-0.07409744225813125,0.8453330480104242
1590515073.4842858,-0.34,-3.116603499463079,8.866793001073843,0.4666666666666667,0.21777777777777774,-0.5911111111111111,-0.019630819801129133,-0.06470471119829241,0.8381078702720868
1590515073.4942858,-0.40006358974358974,-3.151483076923077,8.857097435897435,0.4561793732193732,0.20157014245014246,-0.5977848433048434,-0.01948011205386184,-0.07216354680579222,0.8176377510841912
1590515073.5042858,-0.4176838448176028,-3.198419224088014,8.942206137811233,0.4544444444444444,0.1988888888888889,-0.5988888888888889,-0.027178551094406492,-0.062442008972805246,0.8089833524063756
1590515073.5142858,-0.43740559888640934,-3.222216796659228,8.75383680593915,0.4544444444444444,0.1988888888888889,-0.5988888888888889,-0.01673980208369321,-0.06417034599416771,0.80347061126708
1590515073.5242858,-0.4108923470475378,-3.141019825197186,8.898725218503518,0.4544444444444444,0.1988888888888889,-0.5988888888888889,-0.020656256322566655,-0.06213563747537838,0.7983629814066469
1590515073.5342858,-0.47348049456405883,-3.212549136644639,8.809313579194203,0.4544444444444444,0.1988888888888889,-0.5988888888888889,-0.015779607898963068,-0.05920964842121624,0.7895850142441605
1590515073.5442858,-0.48,-3.22,8.895646676990307,0.464186235619383,0.1988888888888889,-0.611287532202447,-0.02309670641778945,-0.06846884337605638,0.7834539387697116
1590515073.5542858,-0.5211855166802278,-3.2114818958502847,8.886443449959318,0.4666666666666667,0.1988888888888889,-0.6144444444444445,-0.019537964228339547,-0.05778170152011328,0.7753867066417869
1590515073.5642858,-0.555313262815297,-3.2541415785191212,8.78406021155411,0.4666666666666667,0.1988888888888889,-0.6144444444444445,-0.0167458945267377,-0.05685101161957932,0.7698025672385832
1590515073.5742857,-0.5697934823796892,-3.2697934823796895,8.730826070481243,0.4666666666666667,0.1988888888888889,-0.6144444444444445,-0.012089248918406157,-0.05992811030409622,0.7583526696123998
1590515073.5842857,-0.604952362764445,-3.2962142720733336,8.852333269675556,0.4666666666666667,0.1988888888888889,-0.6144444444444445,-0.01962456125234892,-0.053323448223028154,0.749548793359538
1590515073.5942857,-0.670163937660288,-3.3595081870191357,8.819508187019137,0.5077777777777778,0.15777777777777774,-0.62,-0.014162917347828662,-0.057831914296937424,0.7449301274973278
1590515073.6042857,-0.6784383507595186,-3.334684947721444,8.794684947721443,0.5077777777777778,0.15777777777777774,-0.62,-0.013260318896255398,-0.0587345127485107,0.7395145367878883
1590515073.6142857,-0.68,-3.3449473961650815,8.775052603834919,0.5077777777777778,0.15777777777777774,-0.62,-0.017981493346469618,-0.06053537024031267,0.7368619317645966
1590515073.6242857,-0.71,-3.3302880159304853,8.834032223026792,0.5077777777777778,0.15777777777777774,-0.62,-0.015428719276361667,-0.059030532911937654,0.7404855953294001
1590515073.6342857,-0.71,-3.337880883417813,8.940332367849384,0.5077777777777778,0.15777777777777774,-0.62,-0.01956998606765863,-0.06234354634497522,0.7355160751798436
1590515073.6442857,-0.7098357620159407,-3.3295072860478223,8.894087432573867,0.5011111111111111,0.15444444444444444,-0.65,-0.00541832274274888,-0.04157697882893223,0.7250083274930759
1590515073.6542857,-0.7030821995008453,-3.309246598502536,8.650959182030432,0.5011111111111111,0.15444444444444444,-0.65,-0.00394492396615283,-0.0467338745470184,0.7088009409505193
1590515073.6642857,-0.7183767882329236,-3.3551303646987707,8.962666129357244,0.5011111111111111,0.15444444444444444,-0.65,-0.03735063503690535,-0.06612645655704852,0.6563007689974648
1590515073.6742857,-0.7477966770316054,-3.2302821738525087,8.629377639578596,0.5011111111111111,0.15444444444444444,-0.65,6.7888990547528e-05,-0.04539576314617624,0.6310917782628496
1590515073.6842856,-0.7839643959797675,-3.347366484924128,8.948135058792616,0.5011111111111111,0.15444444444444444,-0.65,-0.022662093703051084,-0.04363323129985824,0.6053272458820961
1590515073.6942856,-0.82868553927655,-3.4086855392765503,8.787558149159837,0.5064841026772986,0.14692225625178196,-0.6349556236146751,-0.004061112168226397,-0.04257824687284983,0.5757281349073454
1590515073.7042856,-0.8695477703915765,-3.419886942597894,8.819547770391576,0.5066666666666667,0.14666666666666667,-0.6344444444444445,-0.018371466210271113,-0.040385404251250104,0.550062365315348
1590515073.7142856,-0.8893550946125668,-3.4490326419188504,8.694191885018315,0.5066666666666667,0.14666666666666667,-0.6344444444444445,-0.012210183401984001,-0.03719376900214099,0.5265542680765426
1590515073.7242856,-0.89,-3.4592177806058677,8.800613367270413,0.5066666666666667,0.14666666666666667,-0.6344444444444445,-0.014010146373696894,-0.040104758254233326,0.5086868711502868
1590515073.7342856,-0.9365625251955172,-3.491041683463678,8.833281262597758,0.5066666666666667,0.14666666666666667,-0.6344444444444445,-0.01248773897931936,-0.038667677759234305,0.4886126407363718
1590515073.7442856,-0.9961930302939502,-3.52771581817637,8.90467024241153,0.4994810841764966,0.14050759596080664,-0.6539481683463345,-0.008975811844575084,-0.03414797503686138,0.4650980760686144
1590515073.7542856,-1.0,-3.5554952118022602,8.833514364593219,0.4988888888888889,0.14,-0.6555555555555556,-0.008726646259971648,-0.03381575425739013,0.44969760164090744
1590515073.7642856,-1.0189835567373962,-3.5315246648939054,8.77254110815651,0.4988888888888889,0.14,-0.6555555555555556,-0.008726646259971648,-0.03278036185486915,0.4337805195907741
1590515073.7742856,-1.028564710911617,-3.5471294218232337,8.77,0.4988888888888889,0.14,-0.6555555555555556,-0.0049895861377416174,-0.03179065844433617,0.42745423046774794
1590515073.7842855,-1.0355826188929211,-3.555582618892921,8.82024357003629,0.4988888888888889,0.14,-0.6555555555555556,-0.00923507715826152,-0.028589246424724914,0.4185982356601663
1590515073.7942855,-1.0504731062721013,-3.5652365531360504,8.839053787455798,0.5029617635502616,0.1370908038133052,-0.6677741795396737,-0.009091434041469811,-0.02675115811541318,0.4111915971126639
1590515073.8042855,-1.06,-3.5159458456973294,8.829009025717111,0.5066666666666667,0.13444444444444445,-0.6788888888888889,-0.008402350684240598,-0.026288037305158624,0.4052387129324035
1590515073.8142855,-1.104727847955107,-3.5189455695910214,8.749489873680808,0.5066666666666667,0.13444444444444445,-0.6788888888888889,-0.015557318133766915,-0.028131559315285014,0.39689173816470485
1590515073.8242855,-1.0908264081255772,-3.5104132040627882,8.787933979686056,0.5066666666666667,0.13444444444444445,-0.6788888888888889,-0.012179432891917953,-0.02836160034490785,0.38969703077792023
1590515073.8342855,-1.1058787401574803,-3.5258787401574803,8.821757480314961,0.5066666666666667,0.13444444444444445,-0.6788888888888889,-0.011999138607461015,-0.02836160034490785,0.3816321310032658
1590515073.8442855,-1.11,-3.53,8.860974452842072,0.4977184914011792,0.1378860503157858,-0.6960969182455956,-0.012674896340083357,-0.029713115810152537,0.3687969885868092
1590515073.8542855,-1.0916952720207254,-3.539152363989637,8.834238180051814,0.4922222222222222,0.14,-0.7066666666666667,-0.01908017761346254,-0.028546525835399073,0.3401917229693047
1590515073.8642855,-1.1033499723613462,-3.54,8.769925124373943,0.4922222222222222,0.14,-0.7066666666666667,-0.015266185845766243,-0.02399283210573789,0.3214105976570832
1590515073.8742855,-1.1183806236249147,-3.514858129125256,8.765141870874743,0.4922222222222222,0.14,-0.7066666666666667,-0.012175785167300078,-0.02181661564992912,0.2838145394514463
1590515073.8842854,-1.142287911654506,-3.5471465194241767,8.799717215539342,0.4922222222222222,0.14,-0.7066666666666667,-0.013619961281480792,-0.01857497030188956,0.2619536227963985
1590515073.8942854,-1.1793820091478908,-3.5404119939014063,8.83938200914789,0.4922222222222222,0.15958800609859394,-0.7414897886197226,-0.015249160173457656,-0.016384932518939566,0.2403198338716112
1590515073.9042854,-1.2068310361988013,-3.575774714931735,8.848943678732933,0.4922222222222222,0.16,-0.7422222222222222,-0.018198442976143297,-0.014411253723318225,0.23120233608564156
1590515073.9142854,-1.1828305068178486,-3.5981129954547675,8.73226552954401,0.4922222222222222,0.16,-0.7422222222222222,-0.017556212652175808,-0.01714453212324576,0.2390564909591277
1590515073.9242854,-1.2533651206473053,-3.5358055194336075,8.811706400809133,0.4922222222222222,0.16,-0.7422222222222222,-0.026456547365853574,-0.02145473911812564,0.2559885585419497
1590515073.9342854,-1.289115618477176,-3.559115618477176,8.785061257827389,0.4922222222222222,0.16,-0.7422222222222222,-0.02282433975832577,-0.023087024165382157,0.2675993327927879
1590515073.9442854,-1.3034446630370133,-3.573444663037013,8.81899803266688,0.47328458210692737,0.1257665736377362,-0.7611598623375171,-0.02106510675470875,-0.0247133535498083,0.2920511892263774
1590515073.9542854,-1.308308747193317,-3.5367650112267315,8.758603780873512,0.4633333333333333,0.10777777777777778,-0.7711111111111111,-0.020003928209438863,-0.02327642055692823,0.3264469201358855
1590515073.9642854,-1.3318658600187756,-3.5227113799937415,8.74,0.4633333333333333,0.10777777777777778,-0.7711111111111111,-0.022020149404360086,-0.025292641751849452,0.3658003574573315
1590515073.9742854,-1.34,-3.4711418685121105,8.764429065743945,0.4633333333333333,0.10777777777777778,-0.7711111111111111,-0.023795712329129724,-0.031509534160139845,0.4158254491878444
1590515073.9842854,-1.3471758949056873,-3.4887035796227486,8.79870357962275,0.4633333333333333,0.10777777777777778,-0.7711111111111111,-0.02869488944797189,-0.031942154769385375,0.4415540859123041
1590515073.9942853,-1.3298934930340143,-3.510053253482993,8.81,0.44378534044973594,0.07370841875207944,-0.7604993435457297,-0.03383318141894729,-0.031634092692397225,0.46039448980588066
1590515074.0042853,-1.3462662290299052,-3.483733770970095,8.79963822027717,0.4244444444444445,0.04,-0.75,-0.035957951776568436,-0.031068945278241694,0.4785463503766763
1590515074.0142853,-1.3333905973969786,-3.4914305800915746,8.795178822511447,0.4244444444444445,0.04,-0.75,-0.03829611644742966,-0.030543261909900768,0.4967571492560844
1590515074.0242853,-1.3271634674165547,-3.5052243550556303,8.781418266291723,0.4244444444444445,0.04,-0.75,-0.035370711598523064,-0.03189456371797683,0.5049488901231582
1590515074.0342853,-1.3697504240368306,-3.49,8.743666101284226,0.4244444444444445,0.04,-0.75,-0.03666111247730154,-0.02482532095575833,0.5021548450473083
1590515074.0442853,-1.38,-3.463315441490118,8.872317645386039,0.4501406859724789,0.0054089056353381695,-0.7243037584719655,-0.051883521233832115,-0.028488008291407872,0.5066335495883543
1590515074.0542853,-1.3971581319312507,-3.4857371978968765,8.787051208412494,0.4533333333333333,0.0011111111111111113,-0.7211111111111111,-0.04689989187406602,-0.01915829096299524,0.49974966646855445
1590515074.0642853,-1.443081234531955,-3.515848740719173,8.726918765468046,0.4533333333333333,0.0011111111111111113,-0.7211111111111111,-0.04863455307137551,-0.021212839461975774,0.4759523859486855
1590515074.0742853,-1.4580038870974865,-3.5280038870974866,8.752015548389947,0.4533333333333333,0.0011111111111111113,-0.7211111111111111,-0.04297576471444527,-0.0174511724371468,0.4505025127570538
1590515074.0842853,-1.447087216717355,-3.5235436083586773,8.779369174923966,0.4533333333333333,0.0011111111111111113,-0.7211111111111111,-0.040043003585623856,-0.011432480215101678,0.4246347500945526
1590515074.0942852,-1.432160512063023,-3.504321024126046,8.829197439684885,0.46988336342250675,-0.018923135838940862,-0.7272084906176487,-0.032428664361341224,-0.009581801736038049,0.38777020228416487
1590515074.1042852,-1.4123459810284573,-3.517654018971543,8.83117299051423,0.4744444444444445,-0.024444444444444446,-0.7288888888888889,-0.02380312034477345,-0.009817477042468105,0.34122197106694596
1590515074.1142852,-1.4014892255661433,-3.52,8.710849157926006,0.4744444444444445,-0.024444444444444446,-0.7288888888888889,-0.016408776117691315,-0.005175569674800774,0.2951270961734359
1590515074.1242852,-1.4079038843399299,-3.4883844626402802,8.761134959059369,0.4744444444444445,-0.024444444444444446,-0.7288888888888889,-0.011822910819235477,-0.002638963062128371,0.23711070457726952
1590515074.1342852,-1.423013994402239,-3.48650699720112,8.793013994402239,0.4744444444444445,-0.024444444444444446,-0.7288888888888889,-0.008778897970384713,0.0013673548593068335,0.18387132645961632
1590515074.1442852,-1.462370270985298,-3.513121622132356,8.781502702294116,0.4621129126405214,-0.058356156905232826,-0.7170711709101293,-0.004609202217888196,0.006299105607076364,0.13226765399610196
1590515074.1542852,-1.473623109095884,-3.5294492436383536,8.833855294531524,0.4477777777777778,-0.09777777777777777,-0.7033333333333334,-0.005694466709658141,0.013845658478734578,0.06485848815205278
1590515074.1642852,-1.4700271670775267,-3.55004075061629,8.794857372842984,0.4477777777777778,-0.09777777777777777,-0.7033333333333334,-0.004902070717235797,0.015268667486506715,0.00814344664606663
1590515074.1742852,-1.4679317349196561,-3.5711726939678625,8.72530922412855,0.4477777777777778,-0.09777777777777777,-0.7033333333333334,-0.0033701840012302997,0.017423063105825,-0.040337512949636625
1590515074.1842852,-1.4049365894164716,-3.610090586547898,8.77,0.4477777777777778,-0.09777777777777777,-0.7033333333333334,0.0005602375804872536,0.025093060581215562,-0.08621120507139368
1590515074.1942852,-1.1959881296118062,-3.877514837985242,8.838361806223933,0.4574451039104552,-0.07775260221723167,-0.6639735055074324,0.008726646259971648,0.03201620718089203,-0.12953777399455935
1590515074.2042851,-1.154860981774644,-3.9379322424726175,8.728657709192497,0.4633333333333333,-0.06555555555555556,-0.64,0.02523552921060712,0.05534615440734003,-0.13534215317253265
1590515074.2142851,-1.5128289159503343,-3.4895845272206305,8.713793278414519,0.4633333333333333,-0.06555555555555556,-0.64,-0.0018056466202982027,0.014541708100581113,-0.074665257288879
1590515074.2242851,-1.6004193410355156,-3.3607097010819733,8.858580597836054,0.4633333333333333,-0.06555555555555556,-0.64,-0.019772183117907523,-0.008110849311725746,-0.013631884040568677
1590515074.234285,-1.674202007010791,-3.334556670561551,8.842127981304557,0.4633333333333333,-0.06555555555555556,-0.64,-0.014987358158755779,-0.011598802435687025,0.10491488104662705
1590515074.244285,-1.6694025026932957,-3.421841385597083,8.759353609016326,0.4795745053083248,-0.057434969568059824,-0.6200108652615489,-0.005519330757943451,-0.01431115386337627,0.2728658918509615
1590515074.254285,-1.6440037682524729,-3.4980075365049457,8.811005652378709,0.4922222222222222,-0.05111111111111112,-0.6044444444444445,-0.0044709675242076835,-0.026726381802611585,0.41791844198222966
1590515074.264285,-1.6186937566639024,-3.5413062433360976,8.74956095249378,0.4922222222222222,-0.05111111111111112,-0.6044444444444445,-0.005596642956526894,-0.029215345692791352,0.5045361555223093
1590515074.274285,-1.573731544812626,-3.5354926179250503,8.802536910374748,0.4922222222222222,-0.05111111111111112,-0.6044444444444445,-0.005753729747939117,-0.03815623554484012,0.5540506701380562
1590515074.284285,-1.481752562613356,-3.548057100935379,8.79388579812924,0.4922222222222222,-0.05111111111111112,-0.6044444444444445,-0.004797579194383702,-0.040138420298668175,0.57970692654203
1590515074.294285,-1.4698332971222026,-3.6131110628296037,8.823111062829604,0.48582922391865885,-0.03389919260151736,-0.5946090624389623,-0.005811702685626697,-0.038304321799445165,0.5874749985803761
1590515074.304285,-1.4557383702778646,-3.7228410864814236,8.932841086481424,0.4777777777777778,-0.012222222222222223,-0.5822222222222222,-0.003546732587141342,-0.03591993720764126,0.599718364352714
1590515074.314285,-1.3255316445890464,-3.7506914555736306,8.844334650244015,0.4777777777777778,-0.012222222222222223,-0.5822222222222222,0.008630939780441436,-0.031352668659704826,0.6210192849985346
1590515074.324285,-1.2854102481238106,-3.74,8.710684764264425,0.4777777777777778,-0.012222222222222223,-0.5822222222222222,0.013007870164846603,-0.02872767828283065,0.6253973102458482
1590515074.334285,-1.3957406794252036,-3.7221758492815047,8.789907622011787,0.4777777777777778,-0.012222222222222223,-0.5822222222222222,-0.007236875956646616,-0.043224214903712914,0.5820793255548236
1590515074.344285,-1.380175976150056,-3.669648047699888,8.871096020868702,0.4777777777777778,-0.010526226197212905,-0.5850488822639044,-0.0158074483361253,-0.05912478089502953,0.5312197762649314
1590515074.354285,-1.45,-3.535510247200507,8.854081977604057,0.4777777777777778,0.0011111111111111113,-0.6044444444444445,-0.006589466068530778,-0.035774778481184745,0.42856259245357486
1590515074.364285,-1.520121907585361,-3.4571286546718465,8.826252811286036,0.4777777777777778,0.0011111111111111113,-0.6044444444444445,-9.553969258882002e-05,-0.02825276259764589,0.3388553698412462
1590515074.374285,-1.5795754583921016,-3.4785141043723553,8.721485895627644,0.4777777777777778,0.0011111111111111113,-0.6044444444444445,0.009632235820729635,-0.016547702959185305,0.2547643369899328
1590515074.384285,-1.6455553605895772,-3.49685207931216,8.72592560098263,0.4777777777777778,0.0011111111111111113,-0.6044444444444445,0.011918364683928201,-0.00970636504576005,0.15406994269458454
1590515074.394285,-1.7108987136146112,-3.400898713614611,8.831797427229223,0.4777777777777778,0.006673008346626471,-0.5978712931661081,0.007544006959670138,-0.008622385882683383,0.05481073874849635
1590515074.404285,-1.6939604868583524,-3.4262370788498857,8.88247415769977,0.4777777777777778,0.013333333333333334,-0.59,0.014612822270330278,-0.0026136836628692646,0.023112681943558176
1590515074.414285,-1.647165965556511,-3.4928340344434887,8.78008087944779,0.4777777777777778,0.013333333333333334,-0.59,0.01807452378157653,-0.000624172121343871,0.04050648897371761
1590515074.424285,-1.6652103136882128,-3.5381682509505703,8.769294439163497,0.4777777777777778,0.013333333333333334,-0.59,0.023475803488182106,0.002304509641947539,0.07795517977516206
1590515074.434285,-1.685786706427058,-3.567360119281174,8.766853174291768,0.4777777777777778,0.013333333333333334,-0.59,0.020670485747485028,0.0013787970975178857,0.12020684719675906
1590515074.444285,-1.7091554876146502,-3.573614837461783,8.922399388531852,0.49835219040092066,0.02255634588853532,-0.6048987125891724,0.008398621117634238,-0.010447697771895066,0.1801162268881545
1590515074.454285,-1.5933778265642151,-3.5433427003293083,8.586818880351261,0.51,0.027777777777777776,-0.6133333333333333,0.01199607326519626,-0.009819776049166668,0.23669801843267194
1590515074.464285,-1.5692645871559634,-3.5561763914373086,8.644852110091742,0.51,0.027777777777777776,-0.6133333333333333,0.0227871147872078,-0.005117284017254077,0.2548774226605366
1590515074.474285,-1.6681742388758782,-3.5113693208430914,8.920290398126463,0.51,0.027777777777777776,-0.6133333333333333,-0.015036246532703957,-0.029235159094497226,0.2055107311751479
1590515074.4842849,-1.721547981450397,-3.4838493271501325,8.886068166946428,0.51,0.027777777777777776,-0.6133333333333333,-0.018612802596919383,-0.029945506875570793,0.15454225395528953
1590515074.4942849,-1.7394473526985121,-3.4898157842328374,8.724973825713391,0.51,0.027777777777777776,-0.6133333333333333,0.010024135615418796,-0.010420321730794761,0.1167935626753892
1590515074.5042849,-1.8220083925112978,-3.384572627501614,8.87141058747579,0.5155555555555555,0.006666666666666667,-0.6133333333333333,0.00464303777608498,0.006232664842146471,-0.02052043544446561
1590515074.5142848,-1.8537770238478493,-3.3526621430870955,8.771331071543548,0.5155555555555555,0.006666666666666667,-0.6133333333333333,0.0058425805443516375,0.01141834908209825,-0.13284552790380405
1590515074.5242848,-1.85836275907446,-3.3592696567606097,8.74745586138831,0.5155555555555555,0.006666666666666667,-0.6133333333333333,0.010551117264976137,0.02046752149870694,-0.18861216650201745
1590515074.5342848,-1.8517237679955705,-3.4332295127353265,8.761568037098561,0.5155555555555555,0.006666666666666667,-0.6133333333333333,0.012365013882376423,0.02599869990301968,-0.22342887897150354
1590515074.5442848,-1.7345713587885696,-3.6181633151510217,8.880040706667753,0.5179773309090251,0.009895700471292755,-0.6105079287542855,0.013085528981333777,0.029447990718780615,-0.23492932071094008
1590515074.5542848,-1.6624766682651517,-3.681455236268398,8.825727618134199,0.5222222222222223,0.015555555555555557,-0.6055555555555555,0.021583593367239348,0.03580153385516947,-0.2241234952926292
1590515074.5642848,-1.6106442556471,-3.692577022588399,8.756442556470999,0.5222222222222223,0.015555555555555557,-0.6055555555555555,0.022907446432425576,0.028712987290734696,-0.2191867098926223
1590515074.5742848,-1.6204640349212374,-3.6295359650787624,8.690928069842474,0.5222222222222223,0.015555555555555557,-0.6055555555555555,0.017549974618145205,0.021121622494332117,-0.22927693775475141
1590515074.5842848,-1.65,-3.555471041597801,8.81072130691209,0.5222222222222223,0.015555555555555557,-0.6055555555555555,0.0031938099691558855,0.015894656473114863,-0.25894439029993754
1590515074.5942848,-1.6534213903270056,-3.493421390327006,8.903421390327006,0.5199412953375518,-0.004972786406478165,-0.615439572055794,-0.0009467478635287168,0.016850943861384363,-0.2970517718445586
1590515074.6042848,-1.639570679443166,-3.561287961670502,8.87935601916475,0.5155555555555555,-0.04444444444444445,-0.6344444444444445,0.016502956561132768,0.03565103476468988,-0.343499473468167
1590515074.6142848,-1.5855742994100295,-3.6003281710914457,8.815574299410029,0.5155555555555555,-0.04444444444444445,-0.6344444444444445,0.013251059997770832,0.039359402951990946,-0.40133573039690246
1590515074.6242847,-1.5397636748262316,-3.6260634632819584,8.739054699304925,0.5155555555555555,-0.04444444444444445,-0.6344444444444445,0.010530456436962916,0.0438652429966612,-0.47307732206621944
1590515074.6342847,-1.5139699527117225,-3.6579774645337917,8.792172771907595,0.5155555555555555,-0.04444444444444445,-0.6344444444444445,0.01832759597128964,0.054325011793672676,-0.5323786836821189
1590515074.6442847,-1.4745617609459891,-3.636912352189198,8.889860578459572,0.5258477149248961,-0.10070824899683961,-0.6145462696637194,0.017950903446170806,0.05529555977956617,-0.5960868604240763
1590515074.6542847,-1.4449830209182286,-3.637474531377343,8.8,0.5488888888888889,-0.22666666666666666,-0.57,0.017713961367281907,0.059161826841136314,-0.6579945880825923
1590515074.6642847,-1.46,-3.6853768394113886,8.783082107059075,0.5488888888888889,-0.22666666666666666,-0.57,0.025593416585666686,0.07262429846738902,-0.7249337550987711
1590515074.6742847,-1.447016442060273,-3.7167541105150685,8.769737668454795,0.5488888888888889,-0.22666666666666666,-0.57,0.02040032918323107,0.07341111811146413,-0.7765105019696386
1590515074.6842847,-1.4169813709033874,-3.6858509672270987,8.793018629096613,0.5488888888888889,-0.22666666666666666,-0.57,0.018111855227848205,0.07833384289846664,-0.8338256051414207
1590515074.6942847,-1.4068669414300299,-3.63626611713994,8.79686694143003,0.5983215907706398,-0.3676543023153225,-0.38549766199064794,0.02066024510438253,0.08324490314287943,-0.8897528096546035
1590515074.7042847,-1.3957011204160452,-3.6585977591679093,8.777103361248136,0.7066666666666667,-0.6766666666666666,0.01888888888888889,0.021735108887319735,0.08493184028831177,-0.9401018781181518
1590515074.7142847,-1.3609098851722417,-3.7090901148277586,8.718545931103344,0.7066666666666667,-0.6766666666666666,0.01888888888888889,0.01953570100949438,0.09127266526758444,-1.0113577966380851
1590515074.7242846,-1.3244575282954156,-3.7316862924431233,8.719398650966045,0.7066666666666667,-0.6766666666666666,0.01888888888888889,0.02320974136974939,0.09720228860898338,-1.0673985600342206
1590515074.7342846,-1.2819399078726967,-3.697974246231156,8.774008584589614,0.7066666666666667,-0.6766666666666666,0.01888888888888889,0.023123739722003493,0.10123096948259248,-1.1356063484191485
1590515074.7442846,-1.2227342212804602,-3.68863288935977,8.785755259573179,0.8524665758538923,-0.3972168407244841,-0.038983443485865174,0.02338611922584965,0.1041075971305874,-1.1869333954452148
1590515074.7542846,-1.1601732269959695,-3.706034645399194,8.815861418403225,1.2133333333333334,0.29444444444444445,-0.18222222222222226,0.028568428821033373,0.1088573536395638,-1.2457655168814716
1590515074.7642846,-1.1197365023919812,-3.7,8.811775381577949,1.2133333333333334,0.29444444444444445,-0.18222222222222226,0.02970358147538284,0.11129348294483261,-1.2905178397774641
1590515074.7742846,-1.0649759416332834,-3.679980753306627,8.74501443502003,1.2133333333333334,0.29444444444444445,-0.18222222222222226,0.0294545306159636,0.11617505295229202,-1.3521073244063695
1590515074.7842846,-1.0194807177513803,-3.66,8.788726995148068,1.2133333333333334,0.29444444444444445,-0.18222222222222226,0.03342473786931942,0.12094335356923111,-1.3938917297914835
1590515074.7942846,-0.9811068471886857,-3.651106847188686,8.809249310106933,1.080594793223717,0.2733643785213292,-0.31133762600130316,0.03632077998371725,0.1260922683097609,-1.4325495169410858
1590515074.8042846,-0.951718953860752,-3.6603638358439095,8.746198256434587,0.7655555555555555,0.22333333333333333,-0.6177777777777778,0.03979821261686905,0.12973495289474388,-1.469542039246554
1590515074.8142846,-0.9072073548152194,-3.7582341161478245,8.673531767704352,0.7655555555555555,0.22333333333333333,-0.6177777777777778,0.03696055605451627,0.1297931748535033,-1.5099651840758215
1590515074.8242846,-0.8627212047479696,-3.7661769637983755,8.668013349554467,0.7655555555555555,0.22333333333333333,-0.6177777777777778,0.030366615686121624,0.12854138611080268,-1.540870412053257
1590515074.8342845,-0.8258624027880861,-3.742068798605957,8.741379199070638,0.7655555555555555,0.22333333333333333,-0.6177777777777778,0.04028551531229675,0.13868595665719416,-1.5565401269794692
1590515074.8442845,-0.7780816124949841,-3.782122418742476,8.78020403123746,0.6896781937970937,0.2121088715347443,-0.6375328305432945,0.038829124585785586,0.13983560377386917,-1.6061347390035186
1590515074.8542845,-0.7422691636795798,-3.79132166612356,8.78396499837068,0.5777777777777777,0.1955555555555556,-0.6666666666666666,0.03817907738737596,0.13853550937704992,-1.6373370045271802
1590515074.8642845,-0.68,-3.7762118853584834,8.757576229283032,0.5777777777777777,0.1955555555555556,-0.6666666666666666,0.03817907738737596,0.1397751669946274,-1.65221289593811
1590515074.8742845,-0.6247839025410922,-3.7198035477646294,8.764980354776462,0.5777777777777777,0.1955555555555556,-0.6666666666666666,0.0436546609144215,0.1439982351353575,-1.6853678463403257
1590515074.8842845,-0.5507538640456182,-3.7123414990996397,8.794643044717887,0.5777777777777777,0.1955555555555556,-0.6666666666666666,0.04194933084766903,0.14827075260884026,-1.7032976873359829
1590515074.8942845,-0.5049225700164744,-3.789046457990115,8.846984514003294,0.5603549697968149,0.2039319055464031,-0.6730326926597108,0.033503708364354415,0.15030972478725022,-1.7233214983509468
1590515074.9042845,-0.45000963623223317,-3.8233269091785114,8.826673090821489,0.52,0.22333333333333333,-0.6877777777777778,0.041814479229114326,0.15053307125969884,-1.7398729957820978
1590515074.9142845,-0.40916366799794374,-3.8518399304045237,8.798996401597533,0.52,0.22333333333333333,-0.6877777777777778,0.04457809461159792,0.15707963267948966,-1.7488936792833323
1590515074.9242845,-0.3203912093859327,-3.9996087906140674,8.743300732551173,0.52,0.22333333333333333,-0.6877777777777778,0.03923790242682914,0.15851984894813237,-1.7718159019363329
1590515074.9342844,-0.22943543473846065,-4.122258261046158,8.775354956627694,0.52,0.22333333333333333,-0.6877777777777778,0.047197791223768736,0.16328682028803226,-1.7881179905780975
1590515074.9442844,-0.15090947219708173,-4.2246217522792,8.742955784640515,0.5189141520054745,0.2327440159525544,-0.6870538791147608,0.050583162933519187,0.169814259144185,-1.8117211176863532
1590515074.9542844,-0.054782565163701905,-4.052934619363882,8.609348196108535,0.5166666666666667,0.25222222222222224,-0.6855555555555556,0.04068085626607215,0.1495741868256209,-1.8428045189428937
1590515074.9642844,-0.060499652113411025,-3.8939174204209426,8.71325121760306,0.5166666666666667,0.25222222222222224,-0.6855555555555556,0.03886075175508623,0.14664368930626018,-1.8818466105781408
1590515074.9742844,-0.09,-3.7798247890979884,8.690280337443218,0.5166666666666667,0.25222222222222224,-0.6855555555555556,0.043074437127435986,0.169606985388118,-1.900257803180081
1590515074.9842844,-0.07652236595240446,-3.721014910634936,8.810432902142786,0.5166666666666667,0.25222222222222224,-0.6855555555555556,0.042210271788740324,0.1642253875538202,-1.9133644147970994
1590515074.9942844,-0.030260843282454288,-3.667515490403506,8.885490705757896,0.4864554598424932,0.2649675751011704,-0.6827232549157893,0.0444245905394375,0.16594178791682448,-1.921551951062093
1590515075.0042844,0.03517966638095866,-3.6200718665523834,8.839425067580931,0.4455555555555555,0.2822222222222222,-0.6788888888888889,0.046937081346376315,0.16907877128695067,-1.9242176608989912
1590515075.0142844,0.09403893983167944,-3.6494508227609597,8.706510237407361,0.4455555555555555,0.2822222222222222,-0.6788888888888889,0.0480864133454528,0.16907877128695067,-1.9178302804881175
1590515075.0242844,0.15456794074615948,-3.660172823701536,8.718790234089246,0.4455555555555555,0.2822222222222222,-0.6788888888888889,0.0441880727617855,0.16800679264581228,-1.9100824044340108
1590515075.0342844,0.1870133015189017,-3.6149334924054912,8.877666268986271,0.4455555555555555,0.2822222222222222,-0.6788888888888889,0.046693361373357084,0.1630719471300842,-1.902890327216866
1590515075.0442843,0.19828334116909577,-3.536266729352766,8.95588371728569,0.4331574639990248,0.29347587455815005,-0.6712592940848701,0.05273439441898883,0.15636331875615214,-1.891435137258894
1590515075.0542843,-0.27870627517489927,-6.5234432195604555,5.962522083245,0.37333333333333335,0.3477777777777778,-0.6344444444444445,-0.3948459971697866,0.059502541321453134,-0.28187293664379953
1590515075.0642843,-1.4998879571810884,-14.142242640499553,-0.9555165031222124,0.37333333333333335,0.3477777777777778,-0.6344444444444445,-1.6459404968675868,-0.26785288559705117,4.132011615971561
1590515075.0742843,-0.49754393664345986,0.6162345149514253,-1.9143234455105826,0.37333333333333335,0.3477777777777778,-0.6344444444444445,-3.5813819877522306,-1.394982493075827,7.603412478447151
1590515075.0842843,-0.05376990128413123,-0.062117304149366115,2.063986581241235,0.37333333333333335,0.3477777777777778,-0.6344444444444445,-3.5320680206326163,0.9279364551393505,2.2048869291931954
1590515075.0942843,-1.6830858800103887,-1.3925318154272357,6.630215132888928,0.376842986177243,0.3647410998566743,-0.6359067997960735,-2.9859132714018166,0.39096707737300546,2.213533305998369
1590515075.1042843,-0.8872304923433592,-0.7861344640351412,7.028313403697151,0.38666666666666666,0.4122222222222222,-0.64,-1.7959722573360613,-1.1208490600473962,2.321673166539797
1590515075.1142843,-0.7896538378065543,-1.6301508355639152,13.340810243796572,0.38666666666666666,0.4122222222222222,-0.64,-0.6294222245126482,-1.2455531695488058,2.459376760241081
1590515075.1242843,-0.5956097744927974,-0.18663059054227316,1.566377931970737,0.38666666666666666,0.4122222222222222,-0.64,1.035613305087525,-0.6461856873491734,2.6525319302242165
1590515075.1342843,-0.8309952323081238,-1.6865165934374122,8.94654015144433,0.38666666666666666,0.4122222222222222,-0.64,2.5783233696864474,-0.5629255452474944,2.8031973043986365
1590515075.1442842,-0.363037120359955,-1.701169853768279,6.56429696287964,0.40486314210723656,0.4114310711161105,-0.6297150356205474,3.745150920685709,-0.4423901662867544,2.901727676440707
1590515075.1542842,-4.120068617265457,-0.5648872888931841,9.514571504506026,0.4633333333333333,0.4088888888888889,-0.5966666666666667,4.449811470668548,-0.3432994620211819,2.9373201269470246
1590515075.1642842,-4.275568069456168,0.967923308814663,7.628283853852646,0.4633333333333333,0.4088888888888889,-0.5966666666666667,2.7528723354074405,-0.4759190395722557,2.597615980408946
1590515075.1742842,1.2876483097163982,1.1481197209690561,-1.5294184867937277,0.4633333333333333,0.4088888888888889,-0.5966666666666667,0.5769038432784871,-0.3589101445742702,2.225935068891101
1590515075.1842842,-1.4381688855379853,0.0838534949703379,4.569804765778457,0.4633333333333333,0.4088888888888889,-0.5966666666666667,-0.367499009843012,0.16570862554983362,2.1343286077659434
1590515075.1942842,-4.114093848143359,-2.721278403842601,20.424699796785514,0.4646154319847281,0.39834718886630954,-0.6025073383007985,-1.4570268879601862,0.12635439770537416,1.9794522093470543
1590515075.2042842,-0.8435202561556112,-1.5217905208725728,5.498080887640834,0.4833333333333333,0.24444444444444444,-0.6877777777777778,-0.5819287673037483,-0.06070988256215554,1.9612275107428334
1590515075.2142842,-1.2816866150355941,-2.1534319017445043,11.415908628647422,0.4833333333333333,0.24444444444444444,-0.6877777777777778,0.24832805857449144,-0.36188001871794573,2.011314467184781
1590515075.2242842,-5.186622467493196,-9.319201693377682,2.404621409132144,0.4833333333333333,0.24444444444444444,-0.6877777777777778,0.4194984553520743,-0.003806428781607009,1.9062886732274336
1590515075.2342842,-14.388208950710613,-17.690045358330813,6.374430601753855,0.4833333333333333,0.24444444444444444,-0.6877777777777778,-0.35665132998961313,-0.12417190351374038,1.2574219186369673
1590515075.2442842,0.9618365119912701,1.8948079164703258,7.416164529649562,0.48681753924753846,0.23640396925781712,-0.6872417460986693,0.06600055133232992,-0.1059812404140976,0.18971222199946008
1590515075.2542841,-1.45095233171337,-0.13683279909006307,4.423526005583704,0.4977777777777778,0.2111111111111111,-0.6855555555555556,0.15803082448889846,0.1903049103422806,0.269624358816098
1590515075.2642841,-1.7665480451230011,-2.23403683232909,11.401255606396955,0.4977777777777778,0.2111111111111111,-0.6855555555555556,-0.2125192675688351,-0.1447757750666885,0.2824528970348419
1590515075.2742841,-2.0917886865575235,-5.650356992025439,9.558350185079373,0.4977777777777778,0.2111111111111111,-0.6855555555555556,-0.1494395355021751,-0.06720431410802116,0.21173832236384177
1590515075.284284,-3.6443276438361583,-7.596082158185162,7.95961017384941,0.4977777777777778,0.2111111111111111,-0.6855555555555556,0.11291055430095685,0.038976472726096896,-0.081278575914382
1590515075.294284,-0.9442195211786373,-2.568846408839779,7.786422099447513,0.5015875588295479,0.20685312052383875,-0.6871242889298138,0.07928873294327093,-0.02713215570607207,-0.3130591936527269
1590515075.304284,-1.99,-3.91,9.87,0.5166666666666667,0.19,-0.6933333333333334,-0.0818123086872342,0.03817907738737596,-0.30870511144649704
1590515075.314284,-1.7133352923890683,-3.807531589773729,9.538685473601724,0.5166666666666667,0.19,-0.6933333333333334,-0.04194564374194375,0.028119264737629775,-0.3273343941312122
1590515075.324284,-1.2447712605765093,-3.6809399520599864,8.872240888324354,0.5166666666666667,0.19,-0.6933333333333334,0.029186936265671138,0.017810794313137368,-0.3743494981918557
1590515075.334284,-1.4294675256376543,-3.892025374704181,8.88893505127531,0.5166666666666667,0.19,-0.6933333333333334,0.014992612905075697,0.03817907738737596,-0.40354930558115504
1590515075.344284,-1.590365458750964,-4.098815728604472,9.14951734772552,0.5156400239869785,0.19218161569433737,-0.6924350209886062,0.006458862048773927,0.039312969492974824,-0.4253841398080894
1590515075.354284,-1.4419244733074248,-3.8984894661484963,8.468525772141543,0.5077777777777778,0.2088888888888889,-0.6855555555555556,-0.007129613322067371,0.04610720717839547,-0.4459850163587282
1590515075.364284,-1.4538357990630844,-4.063835799063084,8.76136611920677,0.5077777777777778,0.2088888888888889,-0.6855555555555556,0.012074012414758483,0.0396435500800952,-0.4698793941012191
1590515075.374284,-1.4693682300442534,-4.0793682300442535,8.442951284092803,0.5077777777777778,0.2088888888888889,-0.6855555555555556,0.025628615487767195,0.04557368892453651,-0.4952942748631104
1590515075.384284,-1.2753848999934707,-4.02,8.907935447363267,0.5077777777777778,0.2088888888888889,-0.6855555555555556,0.022704294126381173,0.038157021936597035,-0.5349443463860689
1590515075.394284,-1.4245147882657672,-4.028227817601349,9.005316547195951,0.5077777777777778,0.20706048497747795,-0.6875363264595841,0.018226552965001922,0.051312775943392785,-0.5636787411072843
1590515075.404284,-1.3718449982929326,-4.04671583020371,8.731992488904062,0.5077777777777778,0.1955555555555556,-0.7,-0.005683592111208802,0.04505412932766043,-0.5891049827592224
1590515075.414284,-1.3075039808917197,-3.990621350849257,8.495618696921445,0.5077777777777778,0.1955555555555556,-0.7,-0.0038187762345835326,0.048064333293154037,-0.6114775639567276
1590515075.424284,-1.2240187101910829,-4.0671495156581745,8.62780370886412,0.5077777777777778,0.1955555555555556,-0.7,0.014394884398477319,0.05641226108330692,-0.6380391523799414
1590515075.434284,-1.0882778292948434,-3.9468886828206267,8.743720316090796,0.5077777777777778,0.1955555555555556,-0.7,0.025276967679208333,0.0567232006898157,-0.6989132436925571
1590515075.444284,-1.0819316400125432,-3.9791721542803384,9.045308874255253,0.507256541583917,0.19607679174941645,-0.6986202571338977,0.02578862162244365,0.05714461916709247,-0.7353030680925287
1590515075.454284,-1.1683258525319873,-3.962217235021325,8.857601735794239,0.4888888888888889,0.21444444444444444,-0.65,0.009111635799172433,0.07221694724540366,-0.7846676787604296
1590515075.464284,-1.2386305477436537,-4.009087031829102,8.771673774979979,0.4888888888888889,0.21444444444444444,-0.65,-0.00196588457840444,0.07306906419752499,-0.8153438890367964
1590515075.474284,-1.1183432116825143,-4.006508613079775,8.469525839239326,0.4888888888888889,0.21444444444444444,-0.65,0.011069639301384122,0.07035535278881143,-0.8628018914037568
1590515075.484284,-1.0970563537121891,-4.115730663210354,8.866764088428047,0.4888888888888889,0.21444444444444444,-0.65,0.027832125552089467,0.0734386456224748,-0.9080858902463176
1590515075.494284,-1.0358022234798008,-4.000879169024627,8.851450555869949,0.4888888888888889,0.21444444444444444,-0.65,0.025326454646619367,0.0751090928927882,-0.9414948356525856
1590515075.504284,-0.8814988381990936,-4.059882899671015,8.98976579934203,0.48209471808754023,0.2377387443347827,-0.6567941708013487,0.02032470686421509,0.08003172512545886,-0.9827746667075581
1590515075.514284,-0.9139372801875733,-3.9491869871043375,8.675563305978898,0.4811111111111111,0.2411111111111111,-0.6577777777777778,0.01237415165197108,0.08821412983461566,-1.0390840976215112
1590515075.524284,-0.9385228604923798,-4.006553341148886,8.585416178194608,0.4811111111111111,0.2411111111111111,-0.6577777777777778,0.007904367018300815,0.0873201729078816,-1.083781943958214
1590515075.5342839,-0.9137000210216524,-4.103136850956486,8.704021021652302,0.4811111111111111,0.2411111111111111,-0.6577777777777778,0.028019422986564107,0.0939986106507334,-1.1508614912706723
1590515075.5442839,-0.7461749001471516,-4.032599957956696,8.950900147151566,0.4811111111111111,0.2411111111111111,-0.6577777777777778,0.03571380440514704,0.09592220600537912,-1.196065982104847
1590515075.5542839,-0.656734826919316,-3.909795519242052,8.870204480757948,0.4755555555555556,0.26666666666666666,-0.67,0.02729307495293116,0.10086838929514251,-1.262090859789571
1590515075.5642838,-0.6382539709418499,-3.9634920581163002,8.808359806278999,0.4755555555555556,0.26666666666666666,-0.67,0.02130871638492552,0.1093370278821474,-1.3106245219182813
1590515075.5742838,-0.6169465235208453,-4.006106952958309,8.666310156805634,0.4755555555555556,0.26666666666666666,-0.67,0.01511063117339047,0.1124360704879149,-1.357110161004794
1590515075.5842838,-0.5306734715353046,-4.039831632116174,8.67949489634852,0.4755555555555556,0.26666666666666666,-0.67,0.024988094518664735,0.12101793555244512,-1.4447355228917587
1590515075.5942838,-0.45832072877277413,-3.9969924372636645,8.751679271227225,0.4755555555555556,0.26666666666666666,-0.67,0.039163299991301165,0.12577361418840083,-1.506338952114629
1590515075.6042838,-0.3465260710727333,-3.9453680947636447,8.94363113030001,0.4811111111111111,0.2933333333333333,-0.6644444444444444,0.042749021957509174,0.13352346013574215,-1.6220599393438215
1590515075.6142838,-0.30009299236134174,-3.883457323148456,8.858503819329126,0.4811111111111111,0.2933333333333333,-0.6644444444444444,0.030930541254466926,0.13943270048726328,-1.6803081656659584
1590515075.6242838,-0.22800526639164398,-3.957001316597911,8.652007899587465,0.4811111111111111,0.2933333333333333,-0.6644444444444444,0.025579766421712467,0.1458982581125186,-1.7757032163540143
1590515075.6342838,-0.16910172913192312,-3.942275432282981,8.563652593697885,0.4811111111111111,0.2933333333333333,-0.6644444444444444,0.027989283608243605,0.14991412009007052,-1.8391538355993344
1590515075.6442838,-0.08849868032914143,-3.9790616752057133,8.722627309424004,0.4805064129103486,0.2938337732236195,-0.6644027411202539,0.04177910687713332,0.15839564524729538,-1.9577838737269695
1590515075.6542838,-0.023379909951870823,-3.938362443719919,8.836585157584226,0.4542780192861702,0.315540030016043,-0.662593886387552,0.05598581872630235,0.16816275964359909,-2.0412483058408375
1590515075.6642838,0.02507388500806018,-3.948731528747985,8.86209363245567,0.4488888888888889,0.32,-0.6622222222222223,0.04470794287412329,0.1780982742528357,-2.1542752500151328
1590515075.6742837,0.05324623858140784,-3.941688440354648,8.707145687802257,0.4488888888888889,0.32,-0.6622222222222223,0.03856168877548695,0.18578109187613112,-2.2142012274768366
1590515075.6842837,-0.23149268292682926,-4.7246345528455285,8.58694430894309,0.4488888888888889,0.32,-0.6622222222222223,0.04088154413693883,0.1921494432523181,-2.32341600071805
1590515075.6942837,-11.279892682926828,-20.00995955284553,7.043919308943089,0.4488888888888889,0.32,-0.6622222222222223,0.02693254550576539,0.2228372402408996,-2.375492262274431
1590515075.7042837,-0.38,-6.65,6.63,0.3955555555555556,0.3588888888888889,-0.6677777777777778,-0.21707532571679475,0.1308996938995747,-0.4134248665661568
1590515075.7142837,1.4311495642746945,-2.540954426051787,10.252299128549389,0.3955555555555556,0.3588888888888889,-0.6677777777777778,0.09223858237831647,-0.11482273209215046,0.40770786350669347
1590515075.7242837,1.0652460548393263,-1.0375933988913197,9.426726631692969,0.3955555555555556,0.3588888888888889,-0.6677777777777778,0.31262738057384104,-0.09430289224421659,0.6238674694197738
1590515075.7342837,0.34970360428827835,-3.3624623643743026,9.461778374270331,0.3955555555555556,0.3588888888888889,-0.6677777777777778,-0.23780111058422734,-0.03565917590703042,-0.20652266721459062
1590515075.7442837,0.2615353394887053,-4.094937179632295,9.990787963067769,0.3955555555555556,0.3588888888888889,-0.6677777777777778,-0.23780111058422734,0.06495640401945832,-0.312316990225531
1590515075.7542837,-2.140084536304044,-7.411958304975463,8.634824658810045,0.39025794716879003,0.3712499751246752,-0.6633631041221398,0.02311145214634233,0.0594796027347936,-0.5311855531192589
1590515075.7642837,-0.18191489361702118,-5.590027804642166,8.913091150870406,0.3888888888888889,0.3744444444444445,-0.6622222222222223,0.002201046493066766,0.04422321883865044,-0.348054273642032
1590515075.7742836,0.24924342515268605,-3.0731052391042417,8.354740122148822,0.3888888888888889,0.3744444444444445,-0.6622222222222223,0.053946247989832094,-0.024385091819957853,0.15639320104412086
1590515075.7842836,-0.012148822136357929,-4.606606423199967,8.955942290913622,0.3888888888888889,0.3744444444444445,-0.6622222222222223,-0.013535633293720768,-0.007277009241028955,0.00717270299457437
1590515075.7942836,-0.010814641744548291,-4.3419480789200415,8.786517133956385,0.3888888888888889,0.3744444444444445,-0.6622222222222223,-0.005868850848590226,0.0040967322424878575,-0.0012981792505504294
1590515075.8042836,0.02208362752020083,-4.402188161920452,8.627602769279045,0.38443282951108326,0.3842477750756169,-0.673807976604517,-0.006329099125311917,0.0017384874914969108,-0.00021588556966681835
1590515075.8142836,0.026550119311546987,-4.281499602294843,8.76160063632825,0.38333333333333336,0.38666666666666666,-0.6766666666666666,0.009315712235680824,0.002307102766689732,-0.0009653895807996356
1590515075.8242836,0.005255292863307892,-4.352482357122307,8.648028228604309,0.38333333333333336,0.38666666666666666,-0.6766666666666666,0.006218505275992971,0.003081404506611695,-0.000191087840877673
1590515075.8342836,0.03833527587010705,-4.344994172389678,8.79584984489591,0.38333333333333336,0.38666666666666666,-0.6766666666666666,-0.000272389848787779,0.00018159323252518598,-0.0019092717162051329
1590515075.8442836,0.023293586042425003,-4.390119241872725,8.667995481360613,0.38333333333333336,0.38666666666666666,-0.6766666666666666,-0.0027335805915076872,0.0018223870610051247,0.0005519190265147753
1590515075.8542836,0.020001254295963677,-4.37,8.749992474224218,0.3888888888888889,0.38,-0.6766666666666666,6.841123237691944e-07,0.004362502195197301,-0.002181524742528158
1590515075.8642836,0.029656496095423243,-4.36690846485881,8.69206102342746,0.3888888888888889,0.38,-0.6766666666666666,0.005416683449180275,-0.0020692501750868963,-0.0009409489292884352
1590515075.8742836,0.02274638373587268,-4.304717453622854,8.733521697584763,0.3888888888888889,0.38,-0.6766666666666666,0.004662907121949577,0.000192078806605195,0.002074156379634353
1590515075.8842835,0.04011147090007737,-4.360111470900078,8.671003238100695,0.3888888888888889,0.38,-0.6766666666666666,-0.0032360135807422735,4.863835566279294e-05,-2.431917783139647e-05
1590515075.8942835,0.046121013267616126,-4.366121013267616,8.725089119408546,0.3888888888888889,0.38,-0.6766666666666666,-0.0012693954397739013,0.0026707958769539553,-0.0013353979384769777
1590515075.9042835,0.03307020872865275,-4.386929791271347,8.743070208728653,0.3819915665190807,0.38,-0.6685152856841662,-0.0024623383280033854,0.004363323129985824,-0.0015660769829920656
1590515075.9142835,0.03919654672632176,-4.361606906547356,8.768393093452643,0.37666666666666665,0.38,-0.6622222222222223,0.0019187320960251794,0.004363323129985824,-0.004231858395501957
1590515075.9242835,0.03239125147336713,-4.3295650058934685,8.701521263260304,0.37666666666666665,0.38,-0.6622222222222223,-0.0011382812786573616,0.0010433802863355503,-0.001873365997248118
1590515075.9342835,0.037918431628109046,-4.327918431628109,8.727510589768654,0.37666666666666665,0.38,-0.6622222222222223,-0.0004541277711859362,0.0017275337938069757,-0.001090830782496456
1590515075.9442835,0.054430902010314704,-4.3516463530154725,8.718353646984529,0.37666666666666665,0.38,-0.6622222222222223,-0.00472250163961238,0.0013945779583908486,-0.001090830782496456
1590515075.9542835,0.04098470299980134,-4.3790152970001985,8.729015297000199,0.38441363951859947,0.38,-0.6622222222222223,-0.005162153274570121,0.001090830782496456,-0.0003994150722921487
1590515075.9642835,0.03899017834982094,-4.372019643300358,8.73100982165018,0.3888888888888889,0.38,-0.6622222222222223,-0.002401970473162249,0.001090830782496456,-0.0009806763284117873
1590515075.9742835,0.024908318857363443,-4.362454159428682,8.707362478286045,0.3888888888888889,0.38,-0.6622222222222223,0.003580203057510324,0.00026770726499599374,-0.001090830782496456
1590515075.9842834,0.010130685961074654,-4.340043561987025,8.7201742479481,0.3888888888888889,0.38,-0.6622222222222223,0.005425642658646207,-9.503751278691056e-06,-0.0010860789068571105
1590515075.9942834,0.03365584160637164,-4.347885280535457,8.751541122141829,0.3888888888888889,0.38,-0.6622222222222223,0.0002932498704641606,-0.0017203013473393732,-0.00023068010882676935
1590515076.0042834,0.030830115252207753,-4.359169884747793,8.732490345756624,0.36443586289477625,0.3861132564985282,-0.656108965723694,-0.004091668548947416,0.0018194554569417013,-0.0010002792554836533
1590515076.0142834,0.03925545237588904,-4.3692554523758895,8.748510904751779,0.3622222222222222,0.38666666666666666,-0.6555555555555556,-0.0033537098942308516,0.00016243509348296773,-8.121754674148387e-05
1590515076.0242834,0.04,-4.3994824310288045,8.661552706913586,0.3622222222222222,0.38666666666666666,-0.6555555555555556,-5.6458016584507754e-05,0.0032160343309048604,-0.0032160343309048604
1590515076.0342834,0.04,-4.314350754186078,8.707582914341069,0.3622222222222222,0.38666666666666666,-0.6555555555555556,0.0020761963073651353,0.003272492347489368,-0.00015819788644166497
1590515076.0442834,0.04,-4.331373992570838,8.742060988856258,0.3622222222222222,0.38666666666666666,-0.6555555555555556,0.0004330058869088196,0.0021067218954333063,0.0
1590515076.0542834,0.034093679689097975,-4.352953160155451,8.767046839844548,0.3700973159700916,0.38469789322969933,-0.6548992977432331,-0.001090830782496456,0.001090830782496456,-0.00032213980032079833
1590515076.0642834,0.0480428863172226,-4.388042886317223,8.713261856137963,0.3888888888888889,0.38,-0.6533333333333333,-0.001090830782496456,0.002110498903325626,-0.001090830782496456
1590515076.0742834,0.02449660741085206,-4.347494345684753,8.684496607410852,0.3888888888888889,0.38,-0.6533333333333333,0.0026184873100814857,0.0012543320418484266,-0.001090830782496456
1590515076.0842834,0.029932174408663435,-4.359864348817327,8.719728697634654,0.3888888888888889,0.38,-0.6533333333333333,0.004355924505698729,0.001090830782496456,0.0010760335339222665
1590515076.0942833,0.037487835969621346,-4.322560820151893,8.764927015817728,0.3888888888888889,0.38,-0.6533333333333333,0.00109613834200696,0.002724423176485888,-0.0005427616114929759
1590515076.1042833,0.029289573514197035,-4.34748649270031,8.763934360271294,0.39245903105082325,0.3770248815317214,-0.6622586887381692,-0.004089142016532725,0.0015200029118324855,-0.0016749939277154167
1590515076.1142833,0.026433556266356496,-4.373566443733644,8.737132887467288,0.3955555555555556,0.3744444444444445,-0.67,-0.004828646990969337,0.0014035842432529276,-7.628520011352053e-05
1590515076.1242833,0.03,-4.375821044240733,8.683431646074133,0.3955555555555556,0.3744444444444445,-0.67,-0.0013675600742696704,0.002181661564992912,0.00045585335808989
1590515076.1342833,0.03,-4.359538211382113,8.68410298102981,0.3955555555555556,0.3744444444444445,-0.67,0.0014880232592883904,0.0029256731946371074,0.0
1590515076.1442833,0.023872548113364516,-4.343872548113365,8.724509807546541,0.3955555555555556,0.3744444444444445,-0.67,0.002850062878613709,0.0019356897202477735,0.0
1590515076.1542833,0.02794430360588747,-4.363832910817663,8.77177721442355,0.3902593531516306,0.38415414885164023,-0.675296202403925,-0.0001938640200304909,0.002824008966256386,-0.0008665890918799648
1590515076.1642833,0.03,-4.363205292836804,8.766410585673608,0.3888888888888889,0.38666666666666666,-0.6766666666666666,-0.004055581075161716,0.0010489296279904228,-0.0018320183556627709
1590515076.1742833,0.020598973188819168,-4.369401026811181,8.656588705077011,0.3888888888888889,0.38666666666666666,-0.6766666666666666,-0.00545415391248228,-0.0030764788298131653,-0.001156168621721857
1590515076.1842833,0.02729006392891971,-4.362709936071081,8.708320511431358,0.3888888888888889,0.38666666666666666,-0.6766666666666666,-0.0030684860704724773,0.0014988433365302374,0.0004996144455100789
1590515076.1942832,0.03,-4.36,8.753863817572954,0.3888888888888889,0.38666666666666666,-0.6766666666666666,-0.0006197783572053695,0.0017106091397018257,0.001090830782496456
1590515076.2042832,0.025920181019216892,-4.36,8.784079818980782,0.3888888888888889,0.3898398592072757,-0.6798398592072757,0.0015358699956216088,0.0008900784262503057,0.0015358699956216088
1590515076.2142832,0.03753909404595845,-4.386308641068937,8.772460905954041,0.3888888888888889,0.3944444444444444,-0.6844444444444444,-0.0026013843556150344,0.002181661564992912,0.00026844319674973363
1590515076.2242832,0.03151547797027526,-4.364546433910826,8.651216691583855,0.3888888888888889,0.3944444444444444,-0.6844444444444444,-0.004198010127968673,0.002181661564992912,-0.001851035560958611
1590515076.2342832,0.03819959762316942,-4.368199597623169,8.711995976231695,0.3888888888888889,0.3944444444444444,-0.6844444444444444,-0.0007855737334106325,0.00039278686670531624,-0.002181661564992912
1590515076.2442832,0.04,-4.363140585254472,8.750578244236586,0.3888888888888889,0.3944444444444444,-0.6844444444444444,0.0022447382262997654,0.0022447382262997654,-0.002181661564992912
1590515076.2542832,0.04,-4.365780727240711,8.771561454481422,0.3773274344074661,0.38994832325722445,-0.6748098990432588,0.0020113333036126104,0.0026419128255509893,-0.002181661564992912
1590515076.2642832,0.031920102178386436,-4.378079897821613,8.73152061307032,0.3688888888888889,0.38666666666666666,-0.6677777777777778,-0.002434689722800399,-0.0004624788139797292,-0.0013002814386686983
1590515076.2742832,0.03584094143229458,-4.368318117135411,8.673272468541644,0.3688888888888889,0.38666666666666666,-0.6677777777777778,-0.0019981966048681944,-0.0004536829111858691,-0.001090830782496456
1590515076.2842832,0.04,-4.366203177322639,8.664812709290553,0.3688888888888889,0.38666666666666666,-0.6677777777777778,-0.0024441541370600448,0.002029985031845383,-0.0004141691052146617
1590515076.2942832,0.034737461583731116,-4.375262538416269,8.711575230497614,0.3688888888888889,0.38666666666666666,-0.6677777777777778,-0.0009762767880748704,0.002124384567782119,-0.0005740538898536244
1590515076.3042831,0.03,-4.370764791792826,8.749235208207175,0.37812409709606304,0.38102292831783807,-0.6754737846170896,0.002601938191768877,8.342584298150863e-05,-8.342584298150863e-05
1590515076.3142831,0.03,-4.35449861609431,8.776504151717068,0.3888888888888889,0.3744444444444445,-0.6844444444444444,0.0007626757835918832,0.00010938499963485744,0.0022910465646277696
1590515076.3242831,0.05256345654871583,-4.357521152182906,8.692225021622232,0.3888888888888889,0.3744444444444445,-0.6844444444444444,-0.0038225224291836097,0.002731691646687154,-0.000829659812987377
1590515076.334283,0.041643790566854175,-4.366118736477715,8.678356209433145,0.3888888888888889,0.3744444444444445,-0.6844444444444444,-0.0023609713000230952,-6.476070244851306e-05,-0.002181661564992912
1590515076.344283,0.024855297838692673,-4.359710595677385,8.710578808645229,0.3888888888888889,0.3744444444444445,-0.6844444444444444,3.156911436956e-05,6.313822873912e-05,-0.001059261668126896
1590515076.354283,0.030545144804088587,-4.355272572402044,8.761635434412266,0.38244463373083476,0.3773736513344691,-0.6756568237743706,0.002816276066223814,0.004482255276629389,-0.0005751484279091195
1590515076.364283,0.04,-4.381171274831636,8.768828725168364,0.37666666666666665,0.38,-0.6677777777777778,0.0012840860245137476,0.00269593831313864,0.0012185970466076018
1590515076.374283,0.04801460839379987,-4.3659561748186,8.671839307668202,0.37666666666666665,0.38,-0.6677777777777778,-0.0008742581545611376,0.0028393470916187316,-0.00044111289869050094
1590515076.384283,0.03544539919685651,-4.367277300401572,8.686386502007858,0.37666666666666665,0.38,-0.6677777777777778,-0.004266152099099767,0.0024786620183385403,0.0004968298758051997
1590515076.394283,0.02370098355022978,-4.37,8.71889704934931,0.37666666666666665,0.38,-0.6677777777777778,-0.003392805599624011,0.002181661564992912,0.001090830782496456
1590515076.404283,0.024173535571920816,-4.37,8.759214749003446,0.3706382263961144,0.38,-0.6747336703976458,-0.0012711373502538766,0.0008158752428843584,0.001090830782496456
1590515076.414283,0.033110331579386955,-4.363779336841226,8.793779336841226,0.3622222222222222,0.38,-0.6844444444444444,-0.0003392845430566109,-7.297715332662321e-05,0.0007515462394398451
1590515076.424283,0.03321593302583518,-4.36356813394833,8.705375263284187,0.3622222222222222,0.38,-0.6844444444444444,-0.0018308576910901137,0.0029216884735865697,0.0
1590515076.434283,0.042581208816656495,-4.376290604408328,8.695162417633313,0.3622222222222222,0.38,-0.6844444444444444,-0.0008092645791704409,0.001213896868755661,-0.0006861984929112355
1590515076.444283,0.045607426001842054,-4.375607426001842,8.718785147996316,0.3622222222222222,0.38,-0.6844444444444444,0.0,0.0014374664794752658,-0.000611675289338034
1590515076.454283,0.04,-4.373812874094298,8.741438622282894,0.37493180253654895,0.38,-0.6725821694844062,0.0,0.002024732217936297,-0.00041592004318435693
1590515076.464283,0.04,-4.375249123906106,8.769501752187788,0.3955555555555556,0.38,-0.6533333333333333,0.0015547205661137552,-0.0005182401887045849,-0.0016090709712010408
1590515076.474283,0.04,-4.35763099811984,8.699601487778958,0.3955555555555556,0.38,-0.6533333333333333,0.0012486191475440714,0.00025841801746707515,-0.0008324127650293808
1590515076.484283,0.04,-4.366553684744902,8.683107369489806,0.3955555555555556,0.38,-0.6533333333333333,-0.0018057268883481397,0.0022946487080618824,-0.0006019089627827132
1590515076.494283,0.03568870292887029,-4.371377405857741,8.71862259414226,0.3955555555555556,0.38,-0.6533333333333333,-0.0028022027917218584,0.001861623680186839,-0.001090830782496456
1590515076.504283,0.03,-4.355309826967026,8.75345086516487,0.3924287735335728,0.3773943483150144,-0.667924982769253,-0.0016700430530326086,-0.0005116185119603032,-0.001602449294456759
1590515076.514283,0.024182222074864892,-4.36163555585027,8.762546666224594,0.3888888888888889,0.3744444444444445,-0.6844444444444444,0.00017841146679669164,-0.001090830782496456,-0.0002777981910531903
1590515076.524283,0.034511763687192304,-4.37,8.706464708938423,0.3888888888888889,0.3744444444444445,-0.6844444444444444,-0.002075144925164271,0.0004921570713339073,0.0002993368555812743
1590515076.534283,0.047223028657051885,-4.3627769713429485,8.69,0.3888888888888889,0.3744444444444445,-0.6844444444444444,-0.0024845821472927448,0.001090830782496456,0.003151640800786492
1590515076.544283,0.038770135324311714,-4.365614932337844,8.729304526364908,0.3888888888888889,0.3744444444444445,-0.6844444444444444,-0.0009566733578418756,0.001090830782496456,0.002525840819259269
1590515076.554283,0.03,-4.37,8.752306730047536,0.3888888888888889,0.3744444444444445,-0.6788881939232202,-0.0016784111364406315,0.001930036350716772,0.00025162521427614024
1590515076.564283,0.03,-4.365088904694168,8.759644381223328,0.3888888888888889,0.3744444444444445,-0.67,-0.001684736162298047,0.003272492347489368,-0.0005551133889589007
1590515076.574283,0.03,-4.36,8.706298123472727,0.3888888888888889,0.3744444444444445,-0.67,0.001821706015621012,0.0018107418812402555,-0.0007308752331245562
1590515076.5842829,0.035627660657908136,-4.36,8.698138303289541,0.3888888888888889,0.3744444444444445,-0.67,0.0003400139212657758,0.00047694823458741063,-0.00047694823458741063
1590515076.5942829,0.03678034591194969,-4.36321965408805,8.723219654088052,0.3888888888888889,0.3744444444444445,-0.67,-0.0014420405613200398,-0.00035120977882358375,-0.00035120977882358375
1590515076.6042829,0.030185534591194968,-4.369814465408806,8.729814465408806,0.3888888888888889,0.3744444444444445,-0.67,-0.002161422880663575,-0.0010705920981671192,-0.0010705920981671192
1590515076.6142828,0.03,-4.35,8.750125124594405,0.38333333333333336,0.38,-0.6844444444444444,-0.0007317701803051321,0.0003454116262688394,-1.364897592248432e-05
1590515076.6242828,0.021970251538042208,-4.35,8.709925628845106,0.38333333333333336,0.38,-0.6844444444444444,0.00043795483990035657,0.0015206729878879418,0.0017437067250925553
1590515076.6342828,0.019501367707793253,-4.359501367707793,8.684750683853895,0.38333333333333336,0.38,-0.6844444444444444,0.0016090500010703895,0.000463826873225345,5.4392345348588814e-05
1590515076.6442828,0.03,-4.366397938734612,8.708010306326939,0.38333333333333336,0.38,-0.6844444444444444,0.0010028897723759285,0.0010028897723759285,-0.0014837547133687836
1590515076.6542828,0.03418490912585695,-4.364184909125857,8.731630181748287,0.3805433939160954,0.3911597576689519,-0.6774695959013495,-0.001090830782496456,-0.001090830782496456,-0.0012686560257058927
1590515076.6642828,0.03476073488570818,-4.364760734885708,8.746196325571459,0.37666666666666665,0.4066666666666667,-0.6677777777777778,5.2199550369409504e-05,-0.0005193156160635232,0.0005715151664329327
1590515076.6742828,0.0426198626355425,-4.36,8.706900686822287,0.37666666666666665,0.4066666666666667,-0.6677777777777778,0.001090830782496456,0.0,-0.000974089412562536
1590515076.6842828,0.03747971916941626,-4.353739859584708,8.707560842491752,0.37666666666666665,0.4066666666666667,-0.6677777777777778,0.000407955395721404,0.000682875386775052,0.000549839982107296
1590515076.6942828,0.03529178894294212,-4.355291788942942,8.73,0.37666666666666665,0.4066666666666667,-0.6677777777777778,-0.000577244627343564,0.00166807540984002,0.00333615081968004
1590515076.7042828,0.03409422780997282,-4.36,8.747717316570082,0.387822014136718,0.3909179408265942,-0.6677777777777778,-0.0004466109725671408,0.0008932219451342816,0.000498004270409933
1590515076.7142828,0.03,-4.366497880981812,8.753502119018188,0.3955555555555556,0.38,-0.6677777777777778,0.0,0.0,-0.002181661564992912
1590515076.7242827,0.036181874214731055,-4.357636251570538,8.706726880496882,0.3955555555555556,0.38,-0.6677777777777778,0.0,-0.0006743378686949739,-0.00015864795890798995
1590515076.7342827,0.03386760656982816,-4.356132393430172,8.716794360581032,0.3955555555555556,0.38,-0.6677777777777778,0.001337880704802095,0.0009159902747066866,-0.00024704992230563903
1590515076.7442827,0.026452117137679657,-4.363547882862321,8.73645211713768,0.3955555555555556,0.38,-0.6677777777777778,0.0010206196133197118,0.0014076335972107784,-0.002638886718060723
1590515076.7542827,0.02065015008783943,-4.369349849912161,8.73065015008784,0.3955555555555556,0.38,-0.6677777777777778,-0.0008780696637790499,0.00014184074581160416,-0.005170472420859071
1590515076.7642827,0.05,-4.361619102457984,8.769047756144959,0.38333333333333336,0.38666666666666666,-0.6844444444444444,-0.0012674474626149126,-0.000560980742141086,-0.0015479378336854556
1590515076.7742827,0.037054366642414516,-4.356472816678793,8.688217466569657,0.38333333333333336,0.38666666666666666,-0.6844444444444444,0.0007060747682683601,-0.000832949288644024,-0.0014755867967245519
1590515076.7842827,0.038746686742263836,-4.368746686742264,8.664373343371132,0.38333333333333336,0.38666666666666666,-0.6844444444444444,0.0001367152681649522,0.0015678885396622079,-0.0006137730253307041
1590515076.7942827,0.045906085548508974,-4.375906085548509,8.68842261503171,0.38333333333333336,0.38666666666666666,-0.6844444444444444,-0.0013141191777261312,0.0017350847745335614,-0.000669865185689026
