time,acc_x,acc_y,acc_z,mag_x,mag_y,mag_z,gyr_x,gyr_y,gyr_z
1589541541.2868648,0.0,-4.12,8.83,0.4533333333333333,0.32,-0.6,-0.002181661564992912,0.004363323129985824,-0.001090830782496456
1589541541.2968647,0.0,-4.0728998825867055,8.817100117413295,0.4552665883911368,0.31838895411849716,-0.6041887192919075,-0.0024979896841132603,0.0006000209693911706,-0.0007745026633761078
1589541541.3068647,-0.004000609732860791,-4.0920018291985825,8.830003048664304,0.46,0.3144444444444445,-0.6144444444444445,-0.0028360935229534206,-0.00458168882109721,0.0004363988245359474
1589541541.3168647,-0.01,-4.091155485228274,8.803466455684822,0.46,0.3144444444444445,-0.6144444444444445,-0.002181661564992912,-0.005517175855268339,0.0005769263626412576
1589541541.3268647,-0.014129589348098347,-4.078259178696197,8.760647946740491,0.46,0.3144444444444445,-0.6144444444444445,-0.001731193246995397,-0.004363323129985824,0.0004504683179975148
1589541541.3368647,-0.02,-4.094385142379473,8.816310854276836,0.46,0.3144444444444445,-0.6144444444444445,-0.0015691756118123073,-0.004363323129985824,0.001090830782496456
1589541541.3468647,-0.012917828860889359,-4.092917828860889,8.839376743291334,0.45567200652609907,0.3144444444444445,-0.6124771746835804,-0.0029542065935378994,-0.0032045055871683424,0.0007045582682239621
1589541541.3568647,0.0,-4.08,8.811137269252663,0.4477777777777778,0.3144444444444445,-0.6088888888888889,-0.005813484057411736,-0.0006074438066878187,0.0009667739516172745
1589541541.3668647,-0.004616458346551615,-4.08,8.767684791574139,0.4477777777777778,0.3144444444444445,-0.6088888888888889,-0.007132237990422072,0.003021464922318716,0.0016780840779397925
1589541541.3768647,-0.004491695524626685,-4.08,8.735508304475374,0.4477777777777778,0.3144444444444445,-0.6088888888888889,-0.009549298735528837,0.005343259078758695,0.001090830782496456
1589541541.3868647,-0.003736946921811412,-4.087473893843622,8.762421681530869,0.4477777777777778,0.3144444444444445,-0.6088888888888889,-0.012406776280947742,0.0031404101095256444,-0.00013208223796372376
1589541541.3968647,-0.011802777344359494,-4.1,8.805408332033078,0.4477777777777778,0.31304228428772046,-0.6072864201383471,-0.012500011883593107,-8.908423023227413e-05,-0.001985009062871457
1589541541.4068646,-0.024675057412985774,-4.1,8.83935011482597,0.4477777777777778,0.30666666666666664,-0.6,-0.01083741634967273,-0.006474093219686905,-0.0016008004360987687
1589541541.4168646,0.045581541283517976,-4.11744189414235,8.809302247001183,0.4477777777777778,0.30666666666666664,-0.6,-0.015804369614565078,-0.022222534338040778,-0.0009132512292915566
1589541541.4268646,0.05899073086156308,-4.1217981461723125,8.816908342224593,0.4477777777777778,0.30666666666666664,-0.6,-0.020333490228195306,-0.030040873086260345,-0.00044734173143888903
1589541541.4368646,-0.0016613467092263263,-4.108338653290774,8.868338653290772,0.4477777777777778,0.30666666666666664,-0.6,-0.02109519830160231,-0.023824016209844697,-0.0009096059694141294
1589541541.4468646,-0.008158656984334205,-4.101841343015666,8.852634627937336,0.4488007461198143,0.31034935269799824,-0.6053194353785901,-0.011396560514674083,-0.011396560514674083,-0.0004017187285246209
1589541541.4568646,0.0007858498566409562,-4.10921415014336,8.816856600573436,0.4533333333333333,0.32666666666666666,-0.6288888888888889,-0.008898092102780523,-0.008812369181376086,-0.0020959386435884736
1589541541.4668646,0.017580808180899344,-4.09620959590955,8.761047979547751,0.4533333333333333,0.32666666666666666,-0.6288888888888889,-0.011735245716957155,-0.009817477042468105,-0.0006773618365001576
1589541541.4768646,0.019683671485058663,-4.093438776171647,8.740316328514941,0.4533333333333333,0.32666666666666666,-0.6288888888888889,-0.012714857099742672,-0.009817477042468105,0.0003751122902147987
1589541541.4868646,0.0037525940785832876,-4.111257782235749,8.79377334670725,0.4533333333333333,0.32666666666666666,-0.6288888888888889,-0.012408483120974272,-0.012682888637060907,0.0006814862689831986
1589541541.4968646,0.012520251245397445,-4.127479748754602,8.865121507472384,0.4499729983394701,0.32498649916973504,-0.6272087213919573,-0.014189636445199296,-0.019377709866616487,-0.0005498335276209124
1589541541.5068645,-0.002592104299421371,-4.115481579140116,8.891926316560463,0.44,0.32,-0.6222222222222222,-0.015481759495048946,-0.022131808460076962,-0.0007030117963221501
1589541541.5168645,-0.004315792690380144,-4.11,8.833308275271971,0.44,0.32,-0.6222222222222222,-0.013890458645881867,-0.020945591070212932,0.0002903415265720612
1589541541.5268645,0.029544099899017268,-4.094316149848526,8.759544099899017,0.44,0.32,-0.6222222222222222,-0.01755275449272234,-0.022237703575203546,-0.0005205498980534675
1589541541.5368645,0.02287172178604604,-4.0914868871441845,8.761486887144184,0.44,0.32,-0.6222222222222222,-0.020887979094130097,-0.016815647814249962,-0.000313256252298472
1589541541.5468645,0.028208864061485997,-4.112835456245944,8.782835456245943,0.44,0.32,-0.6222222222222222,-0.02321674672797533,-0.011575920638098185,-0.0008954481607597805
1589541541.5568645,-0.003402755001639882,-4.11,8.77659724499836,0.4533333333333333,0.3,-0.6088888888888889,-0.026773831564088153,-0.0012393039785397585,0.0011650673805181071
1589541541.5668645,-0.04613308941230277,-4.106133089412303,8.73,0.4533333333333333,0.3,-0.6088888888888889,-0.03575021406033091,-0.002428863327045047,0.003868919605881553
1589541541.5768645,-0.06127319656446087,-4.081765831516176,8.720882915758088,0.4533333333333333,0.3,-0.6088888888888889,-0.034767700839418325,-0.00042781770665040566,0.008534023922516886
1589541541.5868645,-0.10482577544390548,-4.044435049619509,8.702217524809754,0.4533333333333333,0.3,-0.6088888888888889,-0.03001685146953801,0.0009295678276011142,0.012606180525271446
1589541541.5968645,-0.03942632973303444,-3.9887214183819033,8.798590177297738,0.45294171591603827,0.30101820528496703,-0.6088888888888889,-0.04002453098916373,-0.01668435351919839,0.01869791110258873
1589541541.6068645,0.08878744650499289,-3.8519600570613406,8.781495007132667,0.4481930575368521,0.31336471707085123,-0.6088888888888889,-0.062402056406852174,-0.007360384595161534,0.020562704887396102
1589541541.6168644,-0.06759956083441461,-3.7836670326379878,8.843711281897727,0.4477777777777778,0.3144444444444445,-0.6088888888888889,-0.11100289252130545,0.013904472342732796,0.0038106674705435627
1589541541.6268644,-0.15769908097964683,-3.6230972429389405,8.86690275706106,0.4477777777777778,0.3144444444444445,-0.6088888888888889,-0.1342108164475124,0.007992987371565959,0.0005019826590865663
1589541541.6368644,-0.11919963965237053,-3.49927877481806,8.82847841447043,0.4477777777777778,0.3144444444444445,-0.6088888888888889,-0.14516779984245703,0.012898093234158352,0.011170225136249698
1589541541.6468644,-0.11203501559398923,-3.4314785937056986,8.907758718457613,0.445329442711779,0.3144444444444445,-0.6060907916706045,-0.15350365927009935,0.017696077369464054,0.021755919437548926
1589541541.6568644,-0.15624765571838747,-3.451219524339037,9.108592933131959,0.44,0.3144444444444445,-0.6,-0.15407319926980534,-0.009692630660112113,0.026863498069157284
1589541541.6668644,-0.23135681079524417,-3.184294236228247,8.730678405397622,0.44,0.3144444444444445,-0.6,-0.12960139569174886,-0.041325374969555746,0.03607141837145684
1589541541.6768644,-0.6791067057654557,-2.2934204977825168,8.563834670285727,0.44,0.3144444444444445,-0.6,0.005622815919421362,0.008693336835403728,0.13558617131997172
1589541541.6868644,-0.74,-2.27,8.25,0.44,0.3144444444444445,-0.6,0.09708393964218458,0.0567232006898157,0.20507618710933373
1589541541.6968644,-0.6444517847629195,-2.7084451784762917,8.721873841236015,0.44155482152370806,0.3148763393121412,-0.6017275794707867,0.1074906396541559,0.024838304090921866,0.45713569388417113
1589541541.7068644,-0.4656856686201385,-2.6905685668620136,9.088344379328715,0.4594314331379862,0.3198420647605517,-0.6215904812644291,-0.07386269193681451,-0.06583836170456334,0.6336139359162445
1589541541.7168643,-0.16041257697723788,-2.8548080035309695,8.98039828495765,0.46,0.32,-0.6222222222222222,0.0027511385570782743,-0.024915323400614788,0.8366284410780541
1589541541.7268643,-0.31560018682858476,-2.9668005604857544,8.93479915927137,0.46,0.32,-0.6222222222222222,0.011431305395367464,-0.036259296729530724,0.9012009834454805
1589541541.7368643,-0.3397302624169389,-3.016486841611292,8.87,0.46,0.32,-0.6222222222222222,-0.032076166435575856,-0.04431141214505599,0.9464299025795845
1589541541.7468643,-0.3733094652047438,-3.0544006862086968,8.885527709405533,0.46,0.3187676421106719,-0.623701051689416,-0.020372589042354936,-0.046060771183990726,1.0247389018549642
1589541541.7568643,-0.407440710284829,-3.09813570094943,8.889762841139316,0.46,0.3144444444444445,-0.6288888888888889,-0.01415672848851968,-0.051143293353792155,1.1221375566207212
1589541541.7668643,-0.3866841086285385,-3.010156977656847,8.743734498456387,0.46,0.3144444444444445,-0.6288888888888889,-0.030560385515926037,-0.06401443213537572,1.1794470418804577
1589541541.7768643,-0.36425185505367047,-2.9893703623658237,8.629370362365824,0.46,0.3144444444444445,-0.6288888888888889,-0.021850957055588,-0.061876769072217376,1.2341505919145093
1589541541.7868643,-0.34906187805319344,-3.0590618780531935,8.69302062601773,0.46,0.3144444444444445,-0.6288888888888889,-0.02150961596073548,-0.07211966436955874,1.2628975459367637
1589541541.7968643,-0.3712556388174328,-3.091300749356895,8.712556388174328,0.4618137005140696,0.3092823737505541,-0.6263776112540234,-0.026444035081653446,-0.07662717187299649,1.279143442619229
1589541541.8068643,-0.38896489299799575,-3.17,8.856777655653973,0.4744444444444445,0.2733333333333333,-0.6088888888888889,-0.01308996938995747,-0.0696001100297362,1.2944774008490043
1589541541.8168643,-0.40930319389668324,-3.17,8.985586894678994,0.4744444444444445,0.2733333333333333,-0.6088888888888889,-0.01308996938995747,-0.06664202407187439,1.3011330942541932
1589541541.8268642,-0.5,-3.238388219850465,8.909809371611209,0.4744444444444445,0.2733333333333333,-0.6088888888888889,-0.016869121226514593,-0.0603265345861999,1.3086660974468525
1589541541.8368642,-0.5025670710571923,-3.2058675909878684,8.812933795493935,0.4744444444444445,0.2733333333333333,-0.6088888888888889,-0.01862413016329807,-0.05781403147231216,1.3112186039911693
1589541541.8468642,-0.5703812970079399,-3.359656832692854,8.889961870299206,0.4743893682099643,0.27328673036569623,-0.6088888888888889,-0.02072994417256801,-0.05783898730312424,1.3123027057843193
1589541541.8568642,-0.6330979260433333,-3.303211866561,8.883690207395667,0.46533029957151856,0.2656213645947037,-0.6088888888888889,-0.02141407646783019,-0.06194378107469733,1.3177757641464165
1589541541.8668642,-0.6823466413974362,-3.303953263842949,8.827526774060898,0.46,0.2611111111111111,-0.6088888888888889,-0.024173532536863586,-0.0680627427039022,1.3216694824280464
1589541541.8768642,-0.7141715213446662,-3.3737427179830006,8.694356794957503,0.46,0.2611111111111111,-0.6088888888888889,-0.02899738873814402,-0.07522054880160119,1.3242015845440367
1589541541.8868642,-0.7620740922129714,-3.3320740922129715,8.588977821311131,0.46,0.2611111111111111,-0.6088888888888889,-0.025089107997418484,-0.06782058941197715,1.3332586320398012
1589541541.8968642,-0.7987555096900582,-3.3687555096900583,8.67701322325614,0.46,0.2611111111111111,-0.6088888888888889,-0.025089107997418484,-0.07502296889130688,1.3340588964263935
1589541541.9068642,-0.8535565774561938,-3.451547380350449,8.83778288728097,0.5255555555555556,0.2466666666666667,-0.6288888888888889,-0.016289405269078527,-0.06935215119444994,1.3292617049778566
1589541541.9168642,-0.8824178212442271,-3.422417821244227,8.875604455311056,0.5255555555555556,0.2466666666666667,-0.6288888888888889,-0.0138751245538326,-0.06562365087641985,1.3255332046598265
1589541541.9268641,-0.950002168171246,-3.490002168171246,8.86799523002326,0.5255555555555556,0.2466666666666667,-0.6288888888888889,-0.012435329013983379,-0.061522477715530204,1.322959525709543
1589541541.9368641,-0.9914985985124368,-3.5332969167273607,8.785095234942284,0.5255555555555556,0.2466666666666667,-0.6288888888888889,-0.010013643129024443,-0.05457423347258219,1.3217926592558698
1589541541.9468641,-1.0377841047032599,-3.635125030347172,8.942465955991082,0.5255555555555556,0.2466666666666667,-0.6288888888888889,-0.016072401721390045,-0.055584026571309786,1.3127045213673219
1589541541.956864,-1.0712533919798521,-3.5488728872177786,8.854661866165333,0.5066666666666667,0.2222222222222222,-0.6355555555555555,-0.020515291652925427,-0.05925207932473154,1.299502089236838
1589541541.966864,-0.9894250039905645,-3.3257045563379033,8.78771136690137,0.5066666666666667,0.2222222222222222,-0.6355555555555555,-0.014835051002875908,-0.05600622752470324,1.2913874597367672
1589541541.976864,-1.0321276155675825,-3.2918085766486263,8.717978730738738,0.5066666666666667,0.2222222222222222,-0.6355555555555555,-0.02012232896073119,-0.05283565185317114,1.2532833650112518
1589541541.986864,-1.0755034644420698,-3.2267448033368957,8.71074942259299,0.5066666666666667,0.2222222222222222,-0.6355555555555555,-0.03747142305610633,-0.06624177001777921,1.2256825334958823
1589541541.996864,-1.1515124711700786,-3.3719640012364174,8.799390588962599,0.5066666666666667,0.2222222222222222,-0.6355555555555555,-0.023668307192929974,-0.07640740906431039,1.200394005774172
1589541542.006864,-1.1779739126264805,-3.3989869563132404,8.836960868939721,0.5286347820990318,0.1742917885516073,-0.6485367146746804,-0.026718239943645812,-0.08627190928593842,1.1791060268649853
1589541542.016864,-1.2440996492414318,-3.3440996492414317,8.854099649241432,0.5311111111111111,0.1688888888888889,-0.65,-0.02224713032168394,-0.07197814395752171,1.1560131654644978
1589541542.026864,-1.2080554560802168,-3.310249910472195,8.835611091216043,0.5311111111111111,0.1688888888888889,-0.65,-0.005960170596387053,-0.05411730545169966,1.1449208269445617
1589541542.036864,-1.156218872985899,-3.260168363835307,8.838151527451776,0.5311111111111111,0.1688888888888889,-0.65,-0.0015400190472898805,-0.038408262931127965,1.1300547765527753
1589541542.046864,-1.2524472760002117,-3.3341902123078553,8.904771191077069,0.5311111111111111,0.1688888888888889,-0.65,-0.007192190809669951,-0.0432529815845966,1.1098684488299895
1589541542.056864,-1.3315797847217044,-3.2762550028587767,8.8211467422378,0.5433333333333333,0.14888888888888888,-0.6444444444444445,-0.015248012151371828,-0.053089430133282656,1.0501253879832566
1589541542.066864,-1.442840443812716,-3.4083267921165965,8.938910410081252,0.5433333333333333,0.14888888888888888,-0.6444444444444445,-0.01827672084382451,-0.06491504203255688,1.0178300038613353
1589541542.076864,-1.3884752385061603,-3.2815247614938396,8.735247614938396,0.5433333333333333,0.14888888888888888,-0.6444444444444445,-0.017120641165254195,-0.060440648869937094,1.0026592425511012
1589541542.086864,-1.3835934089917066,-3.2864065910082934,8.80921977302488,0.5433333333333333,0.14888888888888888,-0.6444444444444445,-0.015663611069175704,-0.0448547221204298,0.9881680202993256
1589541542.096864,-1.4064780663465735,-3.2635219336534265,8.74056580096028,0.5433333333333333,0.14888888888888888,-0.6444444444444445,-0.01815993993813297,-0.045686831743415555,0.966533170101696
1589541542.106864,-1.4489838793837366,-3.1722862713865925,8.885935517534946,0.5379189056411477,0.1174852082742122,-0.6704336973669355,-0.019607243693762474,-0.051130494821464756,0.9323730895960117
1589541542.116864,-1.5719812668677569,-3.1940093665661218,8.676037466264487,0.5377777777777778,0.11666666666666667,-0.6711111111111111,-0.01832289194434494,-0.047777877406412185,0.9027654251908759
1589541542.126864,-1.5427619509097896,-3.211104780363916,8.740828585272936,0.5377777777777778,0.11666666666666667,-0.6711111111111111,-0.013120097600678896,-0.047207005754561875,0.8922694518713795
1589541542.136864,-1.612843322361276,-3.2391373289445102,8.761852996708383,0.5377777777777778,0.11666666666666667,-0.6711111111111111,-0.01388456677326739,-0.05485169748044682,0.891504982698791
1589541542.146864,-1.7300226179478195,-3.299103246153356,8.843654869230033,0.5377777777777778,0.11666666666666667,-0.6711111111111111,-0.015073522379530285,-0.041745031744937725,0.9045995824057498
1589541542.156864,-1.813709595904107,-3.3418547979520534,8.899818497440068,0.5422020552711185,0.106933256181317,-0.6773050996017882,-0.014402926100542758,-0.04426001136822933,0.9232078984163886
1589541542.166864,-1.9118112995408976,-3.330905649770449,8.835471751147756,0.5433333333333333,0.10444444444444444,-0.6788888888888889,-0.015666795214056943,-0.04749847003600745,0.9579304928816278
1589541542.176864,-1.9275305912114682,-3.338765295605734,8.796173521971328,0.5433333333333333,0.10444444444444444,-0.6788888888888889,-0.019096212660716653,-0.052642596205997,0.9973687935182145
1589541542.186864,-1.983844886410918,-3.225383207123242,8.839998169260214,0.5433333333333333,0.10444444444444444,-0.6788888888888889,-0.025256912756053997,-0.06620506821501279,1.0653212639401581
1589541542.196864,-2.0466703836232005,-3.2951893151368896,8.930746109677955,0.5433333333333333,0.10444444444444444,-0.6788888888888889,-0.026018379270329586,-0.0646821351864616,1.1079633887395912
1589541542.2068639,-1.9781954787234042,-3.0803257978723404,8.911553856382978,0.5577777777777778,0.09,-0.7,-0.014061418026975928,-0.04138868740185839,1.2120387640195764
1589541542.2168639,-1.8606011952089052,-2.8481271640719177,8.604277616763703,0.5577777777777778,0.09,-0.7,0.0021160813409766078,-0.013629719254173575,1.2898248234969465
1589541542.2268639,-1.95,-2.8458244046492256,8.903990080642108,0.5577777777777778,0.09,-0.7,-0.011236098076760053,-0.04020111827412903,1.352798339869161
1589541542.2368639,-1.95,-2.869643925339795,8.63403551281566,0.5577777777777778,0.09,-0.7,-0.025959835699790955,-0.06185367360211565,1.3891746328201784
1589541542.2468638,-1.855248437197912,-2.7386878907005223,8.659184765096347,0.5564656684782998,0.08788604612861879,-0.7018952689881348,-0.026036809858527896,-0.05919112009758272,1.4628777527607602
1589541542.2568638,-1.93,-2.72,8.79,0.5377777777777778,0.057777777777777775,-0.7288888888888889,-0.02399827721492203,-0.06326818538479445,1.5260722647125418
1589541542.2668638,-2.0413593539703903,-2.8684791386271873,8.896056527590847,0.5377777777777778,0.057777777777777775,-0.7288888888888889,-0.028047417589249387,-0.08293543863152732,1.5596222849569685
1589541542.2768638,-2.214243373493976,-3.0269975903614457,8.94275421686747,0.5377777777777778,0.057777777777777775,-0.7288888888888889,-0.03752405321629616,-0.116553823430396,1.640877604681452
1589541542.2868638,-2.3420307443365695,-3.1386043689320386,9.031751618122977,0.5377777777777778,0.057777777777777775,-0.7288888888888889,-0.038209525333974766,-0.10929621387583724,1.7266496573932544
1589541542.2968638,-2.329856343339419,-3.1197845150091283,8.789820429174272,0.5377777777777778,0.057717920835868936,-0.7289128316656525,-0.033796166118956056,-0.08502016017789112,1.856729149964163
1589541542.3068638,-2.2444630656181515,-2.992617420824202,8.750906278200334,0.5377777777777778,0.024444444444444446,-0.7422222222222222,-0.026128704280096775,-0.05573122952316237,1.9372971884191688
1589541542.3168638,-2.227593358125054,-2.9586193894318082,9.022070915852288,0.5377777777777778,0.024444444444444446,-0.7422222222222222,-0.04043603957769004,-0.08523540228536591,1.9629703606856936
1589541542.3268638,-2.3073949667041425,-2.9441100060537924,9.043834990919311,0.5377777777777778,0.024444444444444446,-0.7422222222222222,-0.04122740367887916,-0.08681813048774413,1.980380370911854
1589541542.3368638,-2.3161967470115616,-2.7923934940231234,8.720491867528905,0.5377777777777778,0.024444444444444446,-0.7422222222222222,-0.03386940868153409,-0.08789595083963331,2.0143960567268513
1589541542.3468637,-2.2833196159122084,-2.726639231824417,8.638299039780522,0.5377777777777778,0.024444444444444446,-0.7422222222222222,-0.024903562020697552,-0.055618902860621766,2.0395004273771935
1589541542.3568637,-2.46,-2.77,8.74,0.4977777777777778,-0.04,-0.7855555555555556,-0.04690572364734761,-0.11453723216212787,2.061670178918302
1589541542.3668637,-2.4723190440320484,-2.7453619119359036,8.76874443607478,0.4977777777777778,-0.04,-0.7855555555555556,-0.03346773120626016,-0.09169264501227922,2.075556104440759
1589541542.3768637,-2.340112060028632,-2.618543219627783,8.957534679370095,0.4977777777777778,-0.04,-0.7855555555555556,-0.0425912959288495,-0.09067341732879707,2.0998614801585505
1589541542.3868637,-2.356345408593092,-2.493172704296546,8.741586352148273,0.4977777777777778,-0.04,-0.7855555555555556,-0.04690572364734761,-0.10223526624750415,2.1013294364830974
1589541542.3968637,-2.4976866048862676,-2.563843302443134,8.776921651221567,0.4977777777777778,-0.04,-0.7855555555555556,-0.04690572364734761,-0.0954899206583773,2.1100020236691175
1589541542.4068637,-2.526394699094393,-2.5044212036224285,8.771802650452804,0.476828995601609,-0.1074004296102821,-0.771893306310228,-0.04601153152525108,-0.08417197261203331,2.115228524741125
1589541542.4168637,-2.5147570449669883,-2.416751921354633,9.088491033678379,0.4722222222222222,-0.12222222222222222,-0.7688888888888888,-0.05405052554784753,-0.09959201209281528,2.1000808133284674
1589541542.4268637,-2.7069437444025577,-2.4691664757461522,8.84388977985129,0.4722222222222222,-0.12222222222222222,-0.7688888888888888,-0.05023883158910728,-0.0767218483403738,2.0934103489006723
1589541542.4368637,-2.861235687459925,-2.4510955390675098,8.53752862508015,0.4722222222222222,-0.12222222222222222,-0.7688888888888888,-0.03780527524783952,-0.053674430071923254,2.1087704475444458
1589541542.4468637,-2.835824026268605,-2.4072800328357564,8.887391717612495,0.4722222222222222,-0.12222222222222222,-0.7688888888888888,-0.03149621597968014,-0.056087897976629456,2.110598738452345
1589541542.4568636,-2.86,-2.3463137923581256,9.128676721342972,0.43333333333333335,-0.19666666666666666,-0.7477777777777778,-0.05975580405161089,-0.09909238443602865,2.094299560716792
1589541542.4668636,-2.8441531536517424,-2.233474827974247,8.779404873909273,0.43333333333333335,-0.19666666666666666,-0.7477777777777778,-0.025421848916277284,-0.051481489830275215,2.0989804070820517
1589541542.4768636,-2.7126146069695793,-2.179311896987474,9.18949563709484,0.43333333333333335,-0.19666666666666666,-0.7477777777777778,-0.0372383673943979,-0.08946315636709146,2.073659296057508
1589541542.4868636,-2.3193949396560614,-1.82,8.271181090759052,0.43333333333333335,-0.19666666666666666,-0.7477777777777778,-0.05023698432039667,-0.09817477042468103,2.0146026173328426
1589541542.4968636,-2.541900944577887,-1.82,8.858349714858313,0.43333333333333335,-0.19666666666666666,-0.7477777777777778,-0.05091119654111622,-0.09817477042468103,1.962688276337438
1589541542.5068636,-2.6032146242941345,-1.7551024277647254,8.80495115617658,0.42882655748366144,-0.23542493897384462,-0.7540872639673184,-0.03091626929506999,-0.05392960198497791,1.8254057904182492
1589541542.5168636,-2.705340150491993,-1.7832525564344974,8.864175188114991,0.42777777777777776,-0.24444444444444444,-0.7555555555555555,-0.02617993877991494,-0.04363323129985824,1.7998707911191525
1589541542.5268636,-2.8522483104577443,-1.885503379084512,9.423576255835016,0.42777777777777776,-0.24444444444444444,-0.7555555555555555,-0.05676294879120536,-0.08755617533871714,1.714169476511823
1589541542.5368636,-2.919487851662404,-1.7493171355498722,9.227496163682865,0.42777777777777776,-0.24444444444444444,-0.7555555555555555,-0.025120145062521484,-0.03073569171353937,1.59654795407639
1589541542.5468636,-2.83903452685422,-1.6420460358056266,8.834168797953964,0.42777777777777776,-0.24444444444444444,-0.7555555555555555,-0.0299957541322411,-0.06096446794580096,1.5292645489142591
1589541542.5568635,-2.6854544748693,-1.504727211553393,8.683999948237487,0.3367676323251146,-0.2722828418770238,-0.7898181985494993,-0.024236273578513448,-0.09063813421473807,1.4596902229905804
1589541542.5668635,-3.0067205244206443,-1.6607081525251592,9.287366817468378,0.3333333333333333,-0.2733333333333333,-0.7911111111111111,-0.0133284595841179,-0.04049760895822361,1.4067299788496563
1589541542.5768635,-2.944248251748252,-1.4986195804195803,8.563113986013986,0.3333333333333333,-0.2733333333333333,-0.7911111111111111,-0.01787993703508334,-0.025077436870864504,1.3599764960654182
1589541542.5868635,-2.699925964010283,-1.4398951156812339,9.119574293059125,0.3333333333333333,-0.2733333333333333,-0.7911111111111111,-0.03599068576100002,-0.07088919472722702,1.301325454192942
1589541542.5968635,-2.5964162467866325,-1.2932563496143958,8.524393419023136,0.3333333333333333,-0.2733333333333333,-0.7911111111111111,-0.02658138694141158,-0.05018873732413241,1.2514561704491232
1589541542.6068635,-2.654059702230796,-1.3106959489538508,8.893711727753871,0.2888888888888889,-0.3622222222222222,-0.6911111111111111,-0.021930490031215104,-0.056457493800148396,1.189438442833981
1589541542.6168635,-2.9856167348733385,-1.3626411201677546,9.186919876889776,0.2888888888888889,-0.3622222222222222,-0.6911111111111111,-0.03105028959089136,-0.03319546346204015,1.1315123106277676
1589541542.6268635,-2.6806231609564715,-1.206597896303311,8.697511583860384,0.2888888888888889,-0.3622222222222222,-0.6911111111111111,-0.018670889446068047,-0.020042350808165382,1.0920529726661434
1589541542.6368635,-2.491643541137385,-1.097762360758257,8.354580809067814,0.2888888888888889,-0.3622222222222222,-0.6911111111111111,-0.027476699313416203,-0.08175112665976175,1.0055630749127031
1589541542.6468635,-2.6983142174784764,-1.179564807170657,8.805813038094115,0.2888888888888889,-0.3622222222222222,-0.6911111111111111,-0.016629299736827127,-0.07270040129599313,0.9508726517262176
1589541542.6568635,-2.821617459681823,-1.1972190469256252,8.920493647384324,0.29670828934435184,-0.3724851853200173,-0.6881788359403125,-0.0012672682635344167,-0.04150108977512064,0.8779144650683371
1589541542.6668634,-2.2458188726116974,-0.9650739780075256,8.240744894604173,0.30666666666666664,-0.3855555555555555,-0.6844444444444444,-0.037935032243913126,-0.07152288085540777,0.7062717460597001
1589541542.6768634,-3.012268718658136,-1.1200095106346186,8.932263963340827,0.30666666666666664,-0.3855555555555555,-0.6844444444444444,-0.0014521932365112594,-0.030419522502444826,0.6433442390319476
1589541542.6868634,-2.320826356907128,-0.9135414763298715,8.402385844536013,0.30666666666666664,-0.3855555555555555,-0.6844444444444444,0.0010267839058704731,-0.06775756838817748,0.5865487604798181
1589541542.6968634,-2.047303380550969,-0.926404507401292,9.313146200863242,0.30666666666666664,-0.3855555555555555,-0.6844444444444444,-0.02301469360590818,0.011141192818649517,0.48459850211650163
1589541542.7068634,-1.9113141573378907,-0.7263426717102863,8.435503753912325,0.3122201100464892,-0.3786137513307774,-0.644181979940731,-0.022774462223088415,0.003698402083300016,0.3778658022216456
1589541542.7168634,-2.1741283748959286,-0.8109106767632717,8.377137929667368,0.31555555555555553,-0.3744444444444445,-0.62,-0.040704167063370905,-0.06650283620135232,0.21051425296523718
1589541542.7268634,-2.6881589894576883,-0.9217420457783265,9.094211985943584,0.31555555555555553,-0.3744444444444445,-0.62,-0.003913501770745335,-0.01444175416380658,0.12554653170964705
1589541542.7368634,-2.1086825325260854,-0.7395024475074069,8.23920810253768,0.31555555555555553,-0.3744444444444445,-0.62,0.0307825266419497,-0.014512559991785901,0.012595385898176992
1589541542.7468634,-2.241185309531608,-0.7843792990501147,8.453849082869308,0.31555555555555553,-0.3744444444444445,-0.62,-0.001510700590318645,0.04596393079152945,-0.16154777810912005
1589541542.7568634,-2.606332423592158,-0.9527506823058813,8.903056313673202,0.3422222222222222,-0.3688888888888889,-0.6222222222222222,-0.017419953309586365,0.016943841205307092,-0.427185733590025
1589541542.7668633,-2.501472739015396,-1.0313954457384529,8.990439384153836,0.3422222222222222,-0.3688888888888889,-0.6222222222222222,-0.016466751878093024,-0.028809827506373252,-0.5711191497455194
1589541542.7768633,-2.679736793498338,-1.0917463982268194,9.319102789065385,0.3422222222222222,-0.3688888888888889,-0.6222222222222222,-0.0125993574661712,-0.01688178503664976,-0.642372748984409
1589541542.7868633,-2.533050544786356,-0.950989932451668,8.317616397939906,0.3422222222222222,-0.3688888888888889,-0.6222222222222222,0.05200286402233019,0.07217110813758185,-0.7274188374239452
1589541542.7968633,-2.5539122178585303,-0.9965203630975501,8.686510868470645,0.3422222222222222,-0.3688888888888889,-0.6222222222222222,0.0271292077755672,0.033532285449325225,-0.8310683873660665
1589541542.8068633,-2.688646072832456,-1.0878042720462804,9.125608544092561,0.35960559387541513,-0.3650259174104016,-0.6338111366576842,-0.0036956615537378076,-0.0029870624727843693,-0.9662116784986241
1589541542.8168633,-2.807497049733071,-1.2025068839561674,9.24249901657769,0.38222222222222224,-0.36,-0.6488888888888888,0.03982240369348244,0.045276128507033706,-1.082381885844548
1589541542.8268633,-2.7595508230830426,-1.172809293596883,8.673711523162597,0.38222222222222224,-0.36,-0.6488888888888888,0.04237090891463041,0.08718050540997321,-1.160643529799474
1589541542.8368633,-2.7654629243779874,-1.3155090084569188,9.106596151489153,0.38222222222222224,-0.36,-0.6488888888888888,0.007130843315998402,0.03468700169913745,-1.28324359941436
1589541542.8468633,-2.459673865591536,-1.228946097943042,9.015583575152153,0.38222222222222224,-0.36,-0.6488888888888888,0.030773187670993976,0.03427972360205228,-1.4065804237277921
1589541542.8568633,-2.354661372921342,-1.300199282659148,8.944422387172258,0.4014785405118566,-0.3445949453682925,-0.6360513433624659,0.022790092732384862,0.0684529007254949,-1.5032517717437228
1589541542.8668633,-1.8688488910956638,-1.2038906818934128,8.472893909301556,0.4155555555555556,-0.3333333333333333,-0.6266666666666667,0.009759252459986292,0.050336054262231464,-1.6581806377549697
1589541542.8768632,-1.9886397203096573,-1.334842139060326,9.358704648424958,0.4155555555555556,-0.3333333333333333,-0.6266666666666667,0.01090830782496456,0.04436678202049104,-1.7755982787886708
1589541542.8868632,-1.9778524069341805,-1.4118568271289453,8.872819255473445,0.4155555555555556,-0.3333333333333333,-0.6266666666666667,0.0668700967250641,0.11667493352533981,-1.887420301667611
1589541542.8968632,-1.9569408906267796,-1.3614137656125431,8.157196765498652,0.4155555555555556,-0.3333333333333333,-0.6266666666666667,0.05237383336916519,0.16185243664837018,-1.9705509190565094
1589541542.9068632,-2.315869488411532,-1.7506186404748445,9.956593767665348,0.4267081606054896,-0.30088939136988874,-0.6418747644620313,-0.003435438664207674,0.04214902467659931,-2.1080833637937335
1589541542.9168632,-1.8688749564611635,-1.5064798850574712,8.268457419017764,0.42777777777777776,-0.2977777777777777,-0.6433333333333333,0.07296246427984895,0.07350032820408145,-2.183996630573381
1589541542.9268632,-2.0895104923907,-1.7156796886262073,7.923474330196256,0.42777777777777776,-0.2977777777777777,-0.6433333333333333,0.03039497685470484,0.13968959886511095,-2.269656985332533
1589541542.9368632,-2.2831589867727153,-1.8765271894181723,8.816432955822599,0.42777777777777776,-0.2977777777777777,-0.6433333333333333,-0.002882256523337007,0.05440234432626098,-2.381652143767528
1589541542.9468632,-2.3765608762176,-1.9720295102331429,9.322649406917028,0.42777777777777776,-0.2977777777777777,-0.6433333333333333,0.013038444486837924,0.0631482305189366,-2.430353268618222
1589541542.9568632,-2.361778211223536,-2.030222276402942,9.130446990938275,0.43320984644280996,-0.27604950311764886,-0.6460493676658494,0.0406273185096826,0.10062301154698768,-2.475749437570362
1589541542.9668632,-2.150181255526083,-2.0505455869350393,8.62709080979872,0.4388888888888889,-0.2533333333333333,-0.6488888888888888,0.04012268174306137,0.11094739639226922,-2.530806900174962
1589541542.9768631,-1.9991425197182504,-2.101571555105656,8.911000885739591,0.4388888888888889,-0.2533333333333333,-0.6488888888888888,0.038264792421657916,0.14418455802126506,-2.5696000346077987
1589541542.9868631,-2.0189705264925686,-2.219624093822599,9.208594620315168,0.4388888888888889,-0.2533333333333333,-0.6488888888888888,0.04177774728264179,0.1400345277132507,-2.6321532444244986
1589541542.9968631,-1.8874498957666825,-2.3748137216454417,9.218395426118185,0.4388888888888889,-0.2533333333333333,-0.6488888888888888,0.055401072984192126,0.13341579374901524,-2.678458401538901
1589541543.006863,-1.762088273020562,-2.451058809810705,9.11576476075718,0.43303921949702645,-0.2498235316982159,-0.6488888888888888,0.05362075447491864,0.15031005395275893,-2.715141969185508
1589541543.016863,-1.548482681474971,-2.47,8.555448044424912,0.42777777777777776,-0.2466666666666667,-0.6488888888888888,0.0499698638726239,0.1803609450095237,-2.7618487944159593
1589541543.026863,-1.48,-2.524340633370096,8.62170316685048,0.42777777777777776,-0.2466666666666667,-0.6488888888888888,0.029336765597765095,0.12784839254264357,-2.8357248708636726
1589541543.036863,-1.3029454063391315,-2.4866801912184147,8.933319808781585,0.42777777777777776,-0.2466666666666667,-0.6488888888888888,0.02226928435129852,0.08535640225554521,-2.9282833298927837
1589541543.046863,-1.0788102828335249,-2.476752418727064,8.84311895318234,0.42777777777777776,-0.2466666666666667,-0.6488888888888888,0.03879288957102485,0.10922688740848271,-2.9952178973060226
1589541543.056863,-0.9817520483957424,-2.4748594838808486,8.827173596753198,0.33587691757919186,-0.3339724838553233,-0.5661781147101616,0.016566193744377605,0.12025642980482389,-3.0780648539870645
1589541543.066863,-1.0044779978962133,-2.5241299964936887,9.006020994039272,0.29444444444444445,-0.37333333333333335,-0.5288888888888889,0.019727346725503105,0.1407336414541646,-3.1603000716212657
1589541543.076863,-1.3244088682389779,-2.7859168728852075,8.57055603252361,0.29444444444444445,-0.37333333333333335,-0.5288888888888889,0.08485964950661574,0.2180852848469148,-3.1889033414855184
1589541543.086863,-1.4011748681388743,-2.922750439537085,8.645901582333506,0.29444444444444445,-0.37333333333333335,-0.5288888888888889,0.09404590878845037,0.2215012421624168,-3.178080847372183
1589541543.096863,-1.3734833835390148,-2.948988922359343,8.537756291905549,0.29444444444444445,-0.37333333333333335,-0.5288888888888889,0.055326431675273735,0.18050228492459855,-3.149535175788593
1589541543.106863,-1.4661925254813137,-3.0860147225368064,8.24265685164213,0.3780218950547376,-0.4338040770101925,0.16578721530137153,0.035601480074036365,0.1497142394650818,-3.0923226808467015
1589541543.116863,-1.5660336397418346,-3.3088186974379035,8.707132798748288,0.4833333333333333,-0.51,1.0411111111111109,0.032549980928121315,0.1264580733126798,-2.9914812812306435
1589541543.126863,-1.2740461043847047,-3.2974966367968626,9.408755044804705,0.4833333333333333,-0.51,1.0411111111111109,0.0017373650953818078,0.08296957376801936,-2.8620964471701598
1589541543.136863,-1.0964511796985343,-3.1829023593970684,8.479483433281622,0.4833333333333333,-0.51,1.0411111111111109,0.05751306734708983,0.1739106396911056,-2.731720886238466
1589541543.146863,-1.3100198770819529,-3.6685811875985284,9.28328611574402,0.4833333333333333,-0.51,1.0411111111111109,0.03258655402381139,0.12221668685229128,-2.6392220496375502
1589541543.156863,-1.3144631623518026,-3.8484768932978466,8.808957476409388,0.7584283678791299,0.10096687904938573,-0.0944556012581661,0.05756890466630115,0.14713414863738186,-2.5246086808090014
1589541543.166863,-1.0960524920987025,-3.7186841640329007,7.970591861172729,0.8655555555555555,0.3388888888888889,-0.5366666666666666,0.06759202181520776,0.14743076641382954,-2.478471586570138
1589541543.176863,-1.2081210945149632,-3.740584109237863,8.287903010450233,0.8655555555555555,0.3388888888888889,-0.5366666666666666,0.024706809395217612,0.08021174643513657,-2.492514566935153
1589541543.186863,-1.3636475567525972,-3.6791035013466717,8.4427741439015,0.8655555555555555,0.3388888888888889,-0.5366666666666666,0.012987559728191735,0.07595607093880286,-2.5006819315919344
1589541543.196863,-1.258740302858531,-3.58576791643048,8.540375415013362,0.8655555555555555,0.3388888888888889,-0.5366666666666666,0.041926079800248296,0.10407331266824948,-2.4432869887348057
1589541543.206863,-1.4634847403551487,-3.8152693001973046,9.869433273162336,0.8062508804089762,0.30623212944693995,-0.5651433609000461,0.010963991894966475,0.04456667215752197,-2.3702761947007494
1589541543.216863,-1.5093838862559241,-3.7877400135409616,9.30650778605281,0.6133333333333333,0.2,-0.6577777777777778,0.05067880171208552,0.17138746257069062,-2.137998644189021
1589541543.226863,-1.3096923417441346,-3.6921536077910577,9.486689907038512,0.6133333333333333,0.2,-0.6577777777777778,0.011353163007954761,0.042786135283835916,-1.9464703117224065
1589541543.236863,-1.2750541247380363,-3.660216498952145,9.396677866879124,0.6133333333333333,0.2,-0.6577777777777778,0.014093419595544044,0.0428433864569837,-1.7771735303987533
1589541543.246863,-0.9698171199339272,-3.5254569051973337,8.808067960592295,0.6133333333333333,0.2,-0.6577777777777778,0.062077673351511195,0.1518020606599441,-1.605355411025068
1589541543.2568629,-0.4398648745093375,-3.3698310931366717,9.135042226715832,0.5916300701796122,0.19332207287577813,-0.6638992109749812,0.03429391883448731,0.06640801859204064,-1.453477664278789
1589541543.2668629,-0.286845552900749,-3.157454696770383,8.732327847727456,0.57,0.18666666666666668,-0.67,0.024623976978642378,0.04017721089755115,-1.429332421870119
1589541543.2768629,-0.11770694405108267,-3.2615587425010943,8.888805067071758,0.57,0.18666666666666668,-0.67,0.022777464587851987,0.050458570094347246,-1.5212782152281092
1589541543.2868629,-0.35734144794040934,-3.27214911765397,8.75480766971356,0.57,0.18666666666666668,-0.67,0.02898356638897291,0.07839886471080133,-1.6427436875509913
1589541543.2968628,-0.5885689560223428,-3.3407111950279287,8.846777987569821,0.57,0.18666666666666668,-0.67,0.014025641486689347,0.07692367299904238,-1.7142980512030204
1589541543.3068628,-0.5775997063861023,-3.547714705162711,8.722741619770003,0.5745777940896609,0.19713019601446324,-0.6752317646738982,0.03306789327071162,0.08266012468444486,-1.7337103160904814
1589541543.3168628,-0.52,-3.6868807522609752,8.78146798698317,0.5777777777777777,0.20444444444444448,-0.6788888888888889,0.038899619368043925,0.058314399378611714,-1.7235326501895383
1589541543.3268628,-0.52,-3.7656179971988797,8.579022233893557,0.5777777777777777,0.20444444444444448,-0.6788888888888889,0.028346895518183028,0.06728957355048407,-1.698482347653881
1589541543.3368628,-0.482974048718357,-3.7950310460117818,7.882279891736984,0.5777777777777777,0.20444444444444448,-0.6788888888888889,0.049173873626555335,0.13289483225800797,-1.639183480069212
1589541543.3468628,-0.33656801685787874,-3.6771599157106065,8.659885741044251,0.5777777777777777,0.20444444444444448,-0.6788888888888889,0.05306954330842381,0.043258298125261,-1.5590747102497773
1589541543.3568628,-0.33002107234839617,-3.709894638258019,9.537176305314913,0.5777777777777777,0.20444444444444448,-0.6788888888888889,-0.02048902529464544,-0.07814904811281449,-1.5533614233679853
1589541543.3668628,-2.625552190028297,-9.25560519708262,7.018688772866765,0.5111111111111111,0.24444444444444444,-0.6622222222222223,0.011923752988041747,0.06498336038902107,-1.533900087449628
1589541543.3768628,-9.66754081482571,-25.762590086777468,5.671751728195322,0.5111111111111111,0.24444444444444444,-0.6622222222222223,-0.3206322125453037,-0.023643705067647847,-0.8862245238121751
1589541543.3868628,-17.35137085264215,-24.154680986027174,6.407003154018289,0.5111111111111111,0.24444444444444444,-0.6622222222222223,-1.8860321804186229,-0.7046069528956866,-1.345545084725111
1589541543.3968627,-16.00925393389124,-8.160320850431354,-0.9120181589065883,0.5111111111111111,0.24444444444444444,-0.6622222222222223,-2.6213051410217436,-0.8546120444599741,-6.25123614982065
1589541543.4068627,-1.944295556986478,-2.218023824855119,4.498833869929169,0.5064858696429849,0.2675706517850755,-0.659699363239608,-2.2846220130546717,1.0901193894401053,-8.225692794264868
1589541543.4168627,-2.130851005232718,-3.830616909942165,10.400572844946296,0.4988888888888889,0.3055555555555556,-0.6555555555555556,-1.4942468034692082,1.0598960712586583,-5.003430804621911
1589541543.4268627,-1.8681560771220007,-5.157363416151101,13.355164489836001,0.4988888888888889,0.3055555555555556,-0.6555555555555556,-0.01480541497041199,0.3146328192506769,-4.2351933264278125
1589541543.4368627,-0.3353345711102859,-3.3464300037133308,9.98663497957668,0.4988888888888889,0.3055555555555556,-0.6555555555555556,1.3601844063747905,-0.0006920881823146846,-3.64410546358104
1589541543.4468627,1.4178597482552868,-4.611325981994138,11.077204242130342,0.4988888888888889,0.3055555555555556,-0.6555555555555556,2.781311386562516,0.2564870241789797,-2.964301429970727
1589541543.4568627,0.22863670322445717,2.7422595105041387,8.796377192720318,0.44816639937310526,0.3864956983998911,-0.6393675269866884,3.4772239399060028,0.47520996802899396,-2.373476153627333
1589541543.4668627,-0.43957520270872297,3.6413605987703823,3.036715673171166,0.3944444444444444,0.4722222222222222,-0.6222222222222222,0.8165927357478293,0.0497904039283521,-1.323959292257576
1589541543.4768627,1.2815513928914506,-3.6464548511047075,6.865149855907781,0.3944444444444444,0.4722222222222222,-0.6222222222222222,-1.1136588005203194,-0.18322321043332146,-0.6091640765900961
1589541543.4868627,2.061756508833048,-7.04288635567191,9.548457257116944,0.3944444444444444,0.4722222222222222,-0.6222222222222222,-0.37434496726256417,0.11423946915534966,-0.34079178502074176
1589541543.4968626,2.5778101600681524,-6.099787920907501,10.60036856028337,0.3944444444444444,0.4722222222222222,-0.6222222222222222,0.4202762698977468,0.1244441485576393,0.011481805477535634
1589541543.5068626,2.2204963457830784,-1.3418723938483614,9.114695332466484,0.3944444444444444,0.4722222222222222,-0.6222222222222222,0.9105645273944726,0.3576216880365563,0.46416078241314573
1589541543.5168626,2.453929087078984,-2.914504011929276,10.422321001680514,0.3555555555555556,0.4544444444444444,-0.6488888888888888,-0.07585104200524229,-0.17085437600524137,0.9352953638402646
1589541543.5268626,1.574832682553005,-6.118852680363464,8.068631901616612,0.3555555555555556,0.4544444444444444,-0.6488888888888888,-0.27055656601584754,-0.07302109549921783,1.0903922687607344
1589541543.5368626,1.2229308057826955,-4.172327014456739,8.203006363651628,0.3555555555555556,0.4544444444444444,-0.6488888888888888,0.20867387549663746,0.10224170818061583,1.301045543244208
1589541543.5468626,1.0668063245788055,-3.842365795161816,9.121936754211944,0.3555555555555556,0.4544444444444444,-0.6488888888888888,0.22610244865250037,-0.036088821712131215,1.379794482680416
1589541543.5568626,1.0880470689841304,-4.499221634459678,8.359808917197451,0.3539566015329807,0.44740904674511495,-0.6450513992347091,-0.09422149509612592,-0.08515369189165549,1.3339530935273944
1589541543.5668626,0.8840965171571777,-4.4264271944480145,8.78,0.35,0.43,-0.6355555555555555,-0.059812042050918945,-0.05531841083555459,1.3596175295612265
1589541543.5768626,0.7148396717142527,-3.818876892844758,8.601684660732863,0.35,0.43,-0.6355555555555555,0.09602228678629428,-0.045564068614181635,1.4029017203495344
1589541543.5868626,0.5501809033185575,-4.06618425781718,8.553700730801486,0.35,0.43,-0.6355555555555555,0.013280116603151718,-0.05421142788047321,1.394478239442726
1589541543.5968626,0.428768278726741,-4.203957317848515,8.787701224939601,0.35,0.43,-0.6355555555555555,-0.051501841800851836,-0.07508640503951912,1.4060755615718532
1589541543.6068625,0.2372680997308952,-4.10114223648802,8.83435431054048,0.37854492465425255,0.4222590034835925,-0.6413613029428611,0.0028300485810259686,-0.07598793084610772,1.4685887751620017
1589541543.6168625,0.18011440712592958,-3.8998627114488844,8.814942796437034,0.4155555555555556,0.4122222222222222,-0.6488888888888888,0.007036736595905577,-0.09000726742557472,1.5446987552326843
1589541543.6268625,0.18968277907006467,-3.92063444185987,8.77208123514225,0.4155555555555556,0.4122222222222222,-0.6488888888888888,-0.010009901142823616,-0.094527133337852,1.6270363620288422
1589541543.6368625,0.16356067623899956,-3.916333024548402,8.872515516442798,0.4155555555555556,0.4122222222222222,-0.6488888888888888,0.001416437960717781,-0.08809448855057073,1.7289619651369326
1589541543.6468625,0.07958999649216927,-3.96955821967274,8.97056785589006,0.4155555555555556,0.4122222222222222,-0.6488888888888888,-0.0022883294782102253,-0.08892507099582482,1.8105450777806393
1589541543.6568625,-0.12710971219234898,-4.150479188159252,8.782766701054804,0.41172677572618627,0.40662631324083626,-0.6450601090595195,-0.01215677935300401,-0.09586160377388113,1.8868227990149098
1589541543.6668625,-0.20351447539525017,-3.975747724317295,8.5889131476285,0.4011111111111111,0.3911111111111111,-0.6344444444444445,2.120292534590288e-05,-0.09391313174653015,1.989800399738164
1589541543.6768625,2.3488564383692814,-8.073953989419003,8.872437938381251,0.4011111111111111,0.3911111111111111,-0.6344444444444445,0.00989145601469448,-0.11366737210429773,2.110063707698935
1589541543.6868625,4.69519401150583,-10.384533706618413,8.310237286399564,0.4011111111111111,0.3911111111111111,-0.6344444444444445,-0.00997415862125786,-0.12444424153533298,2.151399842040668
1589541543.6968625,3.400854471102977,-6.1458929337413135,7.897046240956276,0.4011111111111111,0.3911111111111111,-0.6344444444444445,-0.028682214568434363,-0.12681908401222566,2.0458526490616475
1589541543.7068624,-1.310628266885313,-4.203476820060811,9.230705818045164,0.4131903780381796,0.3778628828685198,-0.6426271736531037,0.014770320590215907,0.02832966286478765,0.913683940385572
1589541543.7168624,-0.6542109689063911,-4.044015710886865,8.174655632127328,0.4355555555555555,0.3533333333333333,-0.6577777777777778,0.08792989695022445,0.07671782734139834,0.42501524566922433
1589541543.7268624,-0.1569291495952833,-4.399859098630959,8.517099030678525,0.4355555555555555,0.3533333333333333,-0.6577777777777778,-0.022243813195307712,-0.0529190823079269,0.1735985191369207
1589541543.7368624,0.040980396663066215,-4.282941189989199,8.837058810010802,0.4355555555555555,0.3533333333333333,-0.6577777777777778,-0.03036299017141038,-0.040864903176090206,0.004179992964003322
1589541543.7468624,-0.010590996784565916,-4.248258306538049,8.878802357984995,0.4355555555555555,0.3533333333333333,-0.6577777777777778,0.018800287315778413,-0.027328409388324662,-0.019185386826109263
1589541543.7568624,-0.05574385591895441,-4.402644612594584,8.682189981864799,0.44699726929731304,0.3410743543243074,-0.6569605125105094,-0.006391773142387463,0.011724162753277836,-0.010344849488186324
1589541543.7668624,-0.0949548273219221,-4.344593445897298,8.652974313119818,0.4666666666666667,0.32,-0.6555555555555556,-0.02409605600594428,0.0,0.0008255144490386179
1589541543.7768624,-0.0852135541259261,-4.256921987133334,8.755257681677776,0.4666666666666667,0.32,-0.6555555555555556,0.013626530347350986,0.0,0.002419426548473629
1589541543.7868624,-0.08,-4.21,8.81,0.4666666666666667,0.32,-0.6555555555555556,0.03381575425739013,0.0,0.003272492347489368
1589541543.7968624,-0.07371813527351119,-4.219422797089734,8.800577202910267,0.4666666666666667,0.32,-0.6555555555555556,0.018740361144098237,-0.0051393385613495105,0.0019020020644628316
1589541543.8068624,-0.06611934749268021,-4.243496769995818,8.777377422503136,0.4655010766680609,0.3210684574987219,-0.6561383505548585,-0.013227204084767057,-0.01483670799714785,-0.000995471173727769
1589541543.8168623,-0.12497460018814675,-4.283350266541236,8.749162433364692,0.4533333333333333,0.3322222222222222,-0.6622222222222223,-0.0037293140815828196,0.00035991600794693353,-0.0001827286936373806
1589541543.8268623,-0.07849720633083276,-4.288843576786947,8.742832402110277,0.4533333333333333,0.3322222222222222,-0.6622222222222223,-0.005636974849672936,-0.008253749759534934,-0.002181661564992912
1589541543.8368623,-0.10553594424664799,-4.21,8.751845314748882,0.4533333333333333,0.3322222222222222,-0.6622222222222223,0.004798465535911612,-0.007401965684696997,-0.0019803689518453197
1589541543.8468623,-0.1293653889856829,-4.21,8.759788462995228,0.4533333333333333,0.3322222222222222,-0.6622222222222223,0.016062485338071204,0.0029955910557580116,-0.0011139058901407355
1589541543.8568623,-0.012188017461990065,-4.270729339153997,8.818541321692006,0.4538195594359978,0.3322222222222222,-0.6622222222222223,-0.009976594162480007,-0.008587418779961234,-3.977928000297553e-05
1589541543.8668623,-0.10689598073159717,-4.302298660243865,8.755402679512269,0.47486577349591047,0.3322222222222222,-0.6622222222222223,-0.016863951607948745,-0.002560981015176084,-0.001761618641370161
1589541543.8768623,-0.07313672168042011,-4.29686327831958,8.783099212303075,0.48,0.3322222222222222,-0.6622222222222223,-0.0025197331831615906,0.0068830563131474145,-0.0008855328285888803
1589541543.8868623,-0.11246811702925731,-4.257531882970743,8.696570142535634,0.48,0.3322222222222222,-0.6622222222222223,0.0069191241051493125,-0.0025558009751634886,0.0016887009773140936
1589541543.8968623,-0.09221938333622033,-4.2066581500086615,8.76221938333622,0.48,0.3322222222222222,-0.6622222222222223,0.007879306178513559,0.0004855878671692499,-0.004484371713051265
1589541543.9068623,-0.11,-4.260828775899246,8.78,0.4796316551558903,0.3322222222222222,-0.662099440607519,0.0007593442195102521,-0.004182512277447895,-0.0054842890545719345
1589541543.9168622,-0.10049358220224404,-4.3014077013573075,8.776197432880897,0.4666666666666667,0.3322222222222222,-0.6577777777777778,-0.011323103551567135,0.0005224786585826117,-0.007374576148183885
1589541543.9268622,-0.0636698214254359,-4.345596214289476,8.761467928570173,0.4666666666666667,0.3322222222222222,-0.6577777777777778,-0.012929843222872252,-0.005904480026637855,-0.01058805549079412
1589541543.9368622,-0.10508169536165439,-4.2501633907233085,8.762295761595864,0.4666666666666667,0.3322222222222222,-0.6577777777777778,0.006777590273726943,0.0040950712251257,-0.011230029218992556
1589541543.9468622,-0.08608837622005323,-4.223911623779947,8.8,0.4666666666666667,0.3322222222222222,-0.6577777777777778,0.01204734035809839,0.0024191084217471542,-0.0019683155835573582
1589541543.9568622,-0.07120177462289265,-4.238798225377107,8.8,0.4666666666666667,0.3322222222222222,-0.6577777777777778,0.003927958723626545,-0.0008286442320415846,-0.0011563774201101737
1589541543.9668622,-0.09458051765905903,-4.2809675294317655,8.791806494113647,0.4666666666666667,0.322207937250013,-0.6459427137197123,-0.005665236089910407,0.0006967149049834987,-0.00019705793875647863
1589541543.9768622,-0.10159502213815931,-4.315214933585522,8.712024889309204,0.4666666666666667,0.32,-0.6433333333333333,-0.004015343280572326,0.004758194213655284,0.0014388106319099538
1589541543.9868622,-0.10289671283163691,-4.287632237610546,8.677892541298181,0.4666666666666667,0.32,-0.6433333333333333,-0.0014068131349766575,0.0006603594324874258,0.0031003038074857558
1589541543.9968622,-0.028620925506136166,-4.256551629797546,8.775172555303682,0.4666666666666667,0.32,-0.6433333333333333,0.007259656640847105,-0.004175243711671781,0.0005265925275543256
1589541544.0068622,-0.06960329867896506,-4.240158680528414,8.79976197920738,0.4666666666666667,0.32,-0.6433333333333333,0.0054714632729799565,-0.0032811470277382066,-0.002155697524246397
1589541544.0168622,-0.10869900796803704,-4.283766997343988,8.79434950398402,0.46,0.3388888888888889,-0.6577777777777778,-0.0007582897146853982,0.008790187877367074,0.0017707458989525
1589541544.0268621,-0.0664549436795995,-4.3,8.750635168961201,0.46,0.3388888888888889,-0.6577777777777778,-0.00802252113347284,0.002779041595363507,0.00017603128162470185
1589541544.0368621,-0.08807438268468652,-4.2880743826846865,8.679814043288284,0.46,0.3388888888888889,-0.6577777777777778,-0.00241199855981332,-0.004153270865700611,0.0013076446236267342
1589541544.0468621,-0.04539567574517325,-4.24,8.799460432425484,0.46,0.3388888888888889,-0.6577777777777778,0.005689584680290459,0.001090830782496456,0.0020050884891367774
1589541544.056862,-0.1352728909079221,-4.24,8.790472710909206,0.46,0.3388888888888889,-0.6577777777777778,0.009611217998073806,0.001090830782496456,-0.0009361364992007321
1589541544.066862,-0.0445469505471202,-4.2815156501823735,8.81090609890576,0.4666666666666667,0.3388888888888889,-0.6555555555555556,-0.003669647651979256,-0.0009919907246575626,0.0
1589541544.076862,-0.06589379930443634,-4.2886312664348125,8.768212401391127,0.4666666666666667,0.3388888888888889,-0.6555555555555556,-0.010655387572112256,-0.005649150671412895,0.0
1589541544.086862,-0.05642454822811547,-4.268715090354377,8.678994367519362,0.4666666666666667,0.3388888888888889,-0.6555555555555556,-0.005953872684468453,0.0006703450842447712,0.0002803237988344565
1589541544.096862,-0.1,-4.257240376521007,8.745519246957986,0.4666666666666667,0.3388888888888889,-0.6555555555555556,0.005855524877680333,-0.0016799478584953453,0.0020813188236933986
1589541544.106862,-0.1,-4.233166564628454,8.793666870743094,0.4666666666666667,0.3388888888888889,-0.6555555555555556,0.009356918886270589,0.002696794652242473,0.001205970321545835
1589541544.116862,-0.08450254206641282,-4.284241102767555,8.8,0.4666666666666667,0.3388888888888889,-0.6391971277367691,-0.004551861497272592,0.0007367267228292453,-0.0014449348421636669
1589541544.126862,-0.07352849260217785,-4.281764246301089,8.733825137946189,0.4666666666666667,0.3388888888888889,-0.6344444444444445,-0.007635815477475192,0.001090830782496456,0.0
1589541544.136862,-0.10801801801801802,-4.298018018018018,8.673963963963963,0.4666666666666667,0.3388888888888889,-0.6344444444444445,-0.00601431026025073,0.0006584293912365996,0.0001081003478149641
1589541544.146862,-0.08993707647628267,-4.279874152952566,8.710314617618588,0.4666666666666667,0.3388888888888889,-0.6344444444444445,0.008709486530818145,-0.003262196509997267,0.001090830782496456
1589541544.156862,-0.0714811229428848,-4.24296224588577,8.802594385285577,0.4666666666666667,0.3388888888888889,-0.6344444444444445,0.0036764059721794877,-0.00024234817481407194,0.001090830782496456
1589541544.166862,-0.07170955434694375,-4.252849257244907,8.818860297102038,0.4666666666666667,0.31222222222222223,-0.6488888888888888,-0.007822298928074877,0.00193301696419333,-0.0021195004147930166
1589541544.176862,-0.09724510918094001,-4.295408515301567,8.801836593879374,0.4666666666666667,0.31222222222222223,-0.6488888888888888,-0.010607795854179808,-0.0017809789372799103,-0.0011910014394247064
1589541544.186862,-0.08119920053297802,-4.268800799467021,8.687195203197868,0.4666666666666667,0.31222222222222223,-0.6488888888888888,-0.0010043491948101948,-0.0020508490794170545,0.0
1589541544.196862,-0.08966688874083943,-4.26033311125916,8.738001332445037,0.4666666666666667,0.31222222222222223,-0.6488888888888888,0.007308784263535548,-0.0011271675840453053,0.0
1589541544.206862,-0.07609963086901025,-4.26,8.767800738261979,0.4666666666666667,0.31222222222222223,-0.6488888888888888,0.006119520423860478,-0.00260712583611117,0.0015162950536147133
1589541544.216862,-0.07,-4.26956552594228,8.827827629711402,0.4666666666666667,0.32603909302773837,-0.6488888888888888,-0.0028933422064040216,0.00194469272681457,-0.0009486494795894512
1589541544.226862,-0.08556915218054284,-4.301138304361086,8.736585086916744,0.4666666666666667,0.32666666666666666,-0.6488888888888888,-0.007518319961466358,0.001332496042197514,-0.001090830782496456
1589541544.236862,-0.08,-4.3,8.69081386807698,0.4666666666666667,0.32666666666666666,-0.6488888888888888,-0.0006469346068661955,0.0,0.00017755847025210418
1589541544.246862,-0.08,-4.3,8.698516049654767,0.4666666666666667,0.32666666666666666,-0.6488888888888888,0.0035539537718477067,0.0,0.001857913821737665
1589541544.256862,-0.08,-4.258025089250298,8.783949821499405,0.4666666666666667,0.32666666666666666,-0.6488888888888888,0.006194824119518499,0.002747251484299013,0.00035016057546023694
1589541544.266862,-0.08756752720290165,-4.25,8.822702581608706,0.4565766303961311,0.32666666666666666,-0.6446847071094991,0.001592049722796086,-2.9464300632398195e-05,0.0016509783240608832
1589541544.276862,-0.06263356104396567,-4.271975170782974,8.772757707129093,0.4533333333333333,0.32666666666666666,-0.6433333333333333,-0.008583007787254585,0.0029133961656967115,-0.00014363847271706267
1589541544.286862,-0.09936766509020845,-4.299525748817656,8.671738921001927,0.4533333333333333,0.32666666666666666,-0.6433333333333333,-0.006579473214201123,-0.0020954402669369435,-0.002147173045770524
1589541544.296862,-0.07082483867950996,-4.28835032264098,8.76329935471804,0.4533333333333333,0.32666666666666666,-0.6433333333333333,0.0023616134494335505,-0.0020017096805522733,8.997594222031928e-05
1589541544.3068619,-0.07866978397082204,-4.272660432058355,8.794679135883289,0.4533333333333333,0.32666666666666666,-0.6433333333333333,0.004073115011586317,-0.00029020811839950604,0.0009457267232967029
1589541544.3168619,-0.0878230482268866,-4.242176951773113,8.801451301182077,0.48,0.3466666666666667,-0.6488888888888888,0.0038092297285572787,-0.0024982863658092234,7.915620020407786e-05
1589541544.3268619,-0.06046930486248114,-4.27046930486248,8.817653475687594,0.48,0.3466666666666667,-0.6488888888888888,-0.0033407499728719944,-0.0064596626632504525,0.001090830782496456
1589541544.3368618,-0.08967413252872229,-4.299674132528722,8.67162933735639,0.48,0.3466666666666667,-0.6488888888888888,-0.007588419974983992,-0.001150075160610456,0.001090830782496456
1589541544.3468618,-0.08065457413249212,-4.3,8.726072555205048,0.48,0.3466666666666667,-0.6488888888888888,-0.001519248550385442,-0.003129686424859706,0.001090830782496456
1589541544.3568618,-0.09141411926377499,-4.27717176147245,8.741414119263775,0.48,0.3466666666666667,-0.6488888888888888,0.003266974644307581,-0.00015977418548648436,0.001090830782496456
1589541544.3668618,-0.0854656806101225,-4.25515522687004,8.793602958169632,0.47354030249338774,0.3337472716534422,-0.652118737642195,0.004431053629230269,0.0016531787985557952,0.0005623480160593394
1589541544.3768618,-0.08174904864753677,-4.261749048647537,8.79887832973362,0.4666666666666667,0.32,-0.6555555555555556,-0.0016632056139415262,0.003654075568452748,-0.0006408111964890731
1589541544.3868618,-0.07253928998803351,-4.304921420023932,8.69142680494615,0.4666666666666667,0.32,-0.6555555555555556,-0.006267991126515535,-0.0002598500771068546,-0.0020431647807613116
1589541544.3968618,-0.07,-4.303545056372508,8.692909887254983,0.4666666666666667,0.32,-0.6555555555555556,-0.00372848421171978,0.0010215445799477611,-6.928620254869483e-05
1589541544.4068618,-0.08376561927293326,-4.265585951817667,8.775710906001134,0.4666666666666667,0.32,-0.6555555555555556,0.0015723287457676087,0.0014308635028408077,0.00034003272034435186
1589541544.4168618,-0.06188346610681315,-4.259372177964395,8.800627822035604,0.4739561384167522,0.3262481186429304,-0.661803674198486,0.003272492347489368,6.848476023668475e-05,0.0
1589541544.4268618,-0.09921327267861922,-4.2603933636606905,8.837049772544821,0.4744444444444445,0.32666666666666666,-0.6622222222222223,-0.00015018261642880026,-0.0021387522460132547,-0.0020958429270335976
1589541544.4368618,-0.07115400053518865,-4.274422999732406,8.731827502006958,0.4744444444444445,0.32666666666666666,-0.6622222222222223,-0.00550656822941619,-0.0006083563565882862,0.0009649488518163394
1589541544.4468617,-0.05002003487552406,-4.3,8.710050087188812,0.4744444444444445,0.32666666666666666,-0.6622222222222223,-0.0032659359498058292,0.001088645316601943,0.0010897380495491994
1589541544.4568617,-0.06558156791451787,-4.3,8.748953919786295,0.4744444444444445,0.32666666666666666,-0.6622222222222223,0.0018265638287251898,-0.0006088546095750634,0.00024098808646069627
1589541544.4668617,-0.07,-4.261595805894763,8.798404194105236,0.46697696225731516,0.3320005825146161,-0.6558215232046829,0.006414428130511414,-4.351885482244025e-05,0.0
1589541544.4768617,-0.07940685605973047,-4.278813712119462,8.790593143940269,0.4666666666666667,0.3322222222222222,-0.6555555555555556,-0.002690174645841853,0.0,0.0
1589541544.4868617,-0.0708250617456545,-4.28,8.698250617456544,0.4666666666666667,0.3322222222222222,-0.6555555555555556,-0.004273322855023805,0.0010008305075344364,0.00300249152260331
1589541544.4968617,-0.08513946107902466,-4.287569730539513,8.72027892215805,0.4666666666666667,0.3322222222222222,-0.6555555555555556,-0.0018861346036747571,-0.0013863577438146108,0.0007953038211783014
1589541544.5068617,-0.08517404341307606,-4.29,8.758955739521543,0.4666666666666667,0.3322222222222222,-0.6555555555555556,-3.797038249482489e-05,-0.0016552313649920965,0.0005264302000008155
1589541544.5168617,-0.08,-4.279094507845934,8.800905492154065,0.4598002456807735,0.33020268663813596,-0.6511125772705658,0.0022804354364892926,-0.00029776101316789853,0.0006942958978321772
1589541544.5268617,-0.08,-4.254964158080629,8.809928316161258,0.4477777777777778,0.32666666666666666,-0.6433333333333333,0.0021660225774112994,0.0005415056443528249,0.0
1589541544.5368617,-0.08,-4.2826688218390805,8.73466235632184,0.4477777777777778,0.32666666666666666,-0.6433333333333333,-0.004989061908594603,0.0,0.0
1589541544.5468616,-0.07407152429733253,-4.294071524297332,8.723713902810669,0.4477777777777778,0.32666666666666666,-0.6433333333333333,-0.007635815477475192,-0.0006466963789751988,0.0
1589541544.5568616,-0.08198132937289729,-4.29,8.763962658745795,0.4477777777777778,0.32666666666666666,-0.6433333333333333,-0.0011010140298825348,0.0015230897965406067,0.0006534801447592657
1589541544.5668616,-0.07308926012445771,-4.273089260124458,8.80254765316739,0.45466733846781354,0.3185244585784426,-0.6464649518288041,0.0038873842011904287,0.0014278167863861861,0.001090830782496456
1589541544.5768616,-0.0673623090997349,-4.252637690900265,8.827362309099735,0.46,0.31222222222222223,-0.6488888888888888,0.002757116450736907,0.0016062066792489169,0.00028772744287199753
1589541544.5868616,-0.08730795950774116,-4.275961939261612,8.717498263199682,0.46,0.31222222222222223,-0.6488888888888888,-0.0006503466869940289,0.0002936560636682846,0.002832008251986941
1589541544.5968616,-0.08054672534299767,-4.28,8.709453274657003,0.46,0.31222222222222223,-0.6488888888888888,-0.002122023081621633,-0.0010311922991251769,0.00017891545011383724
1589541544.6068616,-0.08723187537447573,-4.28,8.738927501497903,0.46,0.31222222222222223,-0.6488888888888888,-0.002181661564992912,-0.00030195555513083433,0.0
1589541544.6168616,-0.08174540844722034,-4.288254591552779,8.816036732422237,0.46550306103518646,0.32873140532778156,-0.6488888888888888,0.003220955972631456,0.000900436256270728,-0.000900436256270728
1589541544.6268616,-0.07308754356230124,-4.269262630686904,8.823087543562302,0.4666666666666667,0.3322222222222222,-0.6488888888888888,0.003609291103495063,0.0003367987560056948,-0.001090830782496456
1589541544.6368616,-0.07,-4.277102027251579,8.725938850116318,0.4666666666666667,0.3322222222222222,-0.6488888888888888,-0.0013913620947894317,0.0009327708884557599,-0.001090830782496456
1589541544.6468616,-0.07797246558197747,-4.272027534418022,8.725944931163955,0.4666666666666667,0.3322222222222222,-0.6488888888888888,-0.003051322651914367,-0.0006484913913464539,-0.00022116969557500104
1589541544.6568615,-0.08,-4.27,8.751358192418287,0.4666666666666667,0.3322222222222222,-0.6488888888888888,-0.0023405653975553786,-0.0015567942574634505,0.0009319269499339891
1589541544.6668615,-0.08,-4.27,8.779019969926399,0.4666666666666667,0.3322222222222222,-0.6488888888888888,-0.0011335926613787132,-0.002160280625551783,0.0021388996861106545
1589541544.6768615,-0.08058594699732556,-4.262942702001783,8.797057297998217,0.46,0.3322222222222222,-0.6488888888888888,0.0018606625722670323,-0.00038491589488528805,0.001090830782496456
1589541544.6868615,-0.09219095202779187,-4.25,8.77095476013896,0.46,0.3322222222222222,-0.6488888888888888,0.0011429048699703294,-0.0006649132869926482,-0.00018692170401496725
1589541544.6968615,-0.07065606644070203,-4.268687867118596,8.7193439335593,0.46,0.3322222222222222,-0.6488888888888888,-0.003710559118405497,-0.00101926503560839,-0.0006527640115803267
1589541544.7068615,-0.07613237234798498,-4.2940330930869965,8.738066186173993,0.46,0.3322222222222222,-0.6488888888888888,-0.004574269494888448,-0.001741719356195996,0.00065088857369954
1589541544.7168615,-0.0916458175819644,-4.291645817581965,8.783416729672142,0.4497893326001787,0.3377916771675793,-0.6368217365072819,0.0003727073901841969,-0.0001795308480780647,0.0009112999344183913
1589541544.7268615,-0.09,-4.273771648212453,8.773771648212453,0.4477777777777778,0.3388888888888889,-0.6344444444444445,0.001975950066448351,-0.0008851192839518951,-0.002449646353311124
1589541544.7368615,-0.08438361015091476,-4.28123277969817,8.725068881207317,0.4477777777777778,0.3388888888888889,-0.6344444444444445,0.0009563553782163518,-0.0004781776891081759,-0.00020922688054796686
1589541544.7468615,-0.073428123969667,-4.283428123969667,8.722859380151665,0.4477777777777778,0.3388888888888889,-0.6344444444444445,-0.0014337609345275706,0.0007168804672637853,3.1020163201556095e-05
1589541544.7568614,-0.07527326903473693,-4.290546538069474,8.761093076138948,0.4477777777777778,0.3388888888888889,-0.6344444444444445,-0.002756885983740553,0.0005156063637488149,0.0006348424737464672
1589541544.7668614,-0.07560295048988563,-4.295602950489886,8.78,0.45608331574132716,0.33351471726541576,-0.6407957381812763,-0.001353917564371882,0.00047964369577937154,0.0007427304776547973
1589541544.7768614,-0.09247019272932284,-4.29,8.78,0.4666666666666667,0.32666666666666666,-0.6488888888888888,0.0004780513345521209,-0.0001347281133922142,0.0001347281133922142
1589541544.7868614,-0.08971835075493612,-4.269718350754936,8.739436701509872,0.4666666666666667,0.32666666666666666,-0.6488888888888888,0.0007374615772103896,-0.00035336920528606633,0.00035336920528606633
1589541544.7968614,-0.07259436371233577,-4.26,8.749622545150658,0.4666666666666667,0.32666666666666666,-0.6488888888888888,-0.0005248284228149297,-0.0016156592053113857,0.0008078296026556929
1589541544.8068614,-0.08811492944478246,-4.272076619629855,8.772076619629855,0.4666666666666667,0.32666666666666666,-0.6488888888888888,-0.0017495082045337934,-0.0028403389870302496,0.0004321533604591184
1589541544.8168614,-0.08782791127024532,-4.286086044364877,8.78,0.4747813924865031,0.3300478024249318,-0.6488888888888888,-0.0015177771113081824,-0.001944723440119909,0.0
1589541544.8268614,-0.08,-4.268934053510866,8.787021982163044,0.48,0.3322222222222222,-0.6488888888888888,0.001207107506780653,-0.0018568102122554922,0.0
1589541544.8368614,-0.09514254799828893,-4.2675712739991445,8.7218585340077,0.48,0.3322222222222222,-0.6488888888888888,0.0013557636908947297,-0.0005298658167965473,0.0008258978740981823
1589541544.8468614,-0.09205867886478776,-4.262058678864787,8.747647926811274,0.48,0.3322222222222222,-0.6488888888888888,0.00022456702769853504,-0.002598791264393763,-0.001507960481897307
1589541544.8568614,-0.09,-4.272334937722747,8.76,0.48,0.3322222222222222,-0.6488888888888888,-0.0006727664884074479,-0.0005814263938595764,-0.0008361285881780161
1589541544.8668613,-0.08343434658029152,-4.28,8.779696960259125,0.4712457954403887,0.3322222222222222,-0.6547250252619631,-0.001090830782496456,-0.0003415725889877716,0.0021486050572263413
1589541544.8768613,-0.08692299079651566,-4.273077009203484,8.79,0.4666666666666667,0.3322222222222222,-0.6577777777777778,-0.001090830782496456,-0.0003356496357185616,0.001762130053933579
1589541544.8868613,-0.08413813888715678,-4.281723722225686,8.731381388871567,0.4666666666666667,0.3322222222222222,-0.6577777777777778,0.001466888635346869,0.0,0.0004514009280356247
1589541544.8968613,-0.08,-4.283289273314248,8.703421453371506,0.4666666666666667,0.3322222222222222,-0.6577777777777778,0.0003443854507936368,0.0029281068966957313,0.0007320267241739328
1589541544.9068613,-0.08,-4.2755279369318915,8.73683237840865,0.4666666666666667,0.3322222222222222,-0.6577777777777778,-0.0025543099992839085,0.004363323129985824,0.00011517797130482102
1589541544.9168613,-0.08286355140186916,-4.271431775700934,8.774295327102804,0.4647576323987539,0.3331767393561786,-0.656505088265836,-0.003738593126701872,0.004207140629164836,-0.0007784657808544801
1589541544.9268613,-0.08671217505143071,-4.275570725017143,8.8,0.4533333333333333,0.3388888888888889,-0.6488888888888888,0.0,-0.00010962029931951183,0.0015739897320405816
1589541544.9368613,-0.08568718905472637,-4.2647709369817575,8.747709369817578,0.4533333333333333,0.3388888888888889,-0.6488888888888888,0.0011408045807824669,-0.002652116258812123,0.0016112592746016785
1589541544.9468613,-0.09335412089858976,-4.26,8.739875274608462,0.4533333333333333,0.3388888888888889,-0.6488888888888888,0.0014567086149360935,0.0010840280676739993,-0.0003590751176171807
1589541544.9568613,-0.0842839483280796,-4.26,8.77714815501576,0.4533333333333333,0.3388888888888889,-0.6488888888888888,-0.0007797427529248728,0.002181661564992912,-0.0004673062706893465
1589541544.9668612,-0.08,-4.272270828498492,8.783864585750754,0.4574236094994972,0.33479861272272504,-0.6488888888888888,-0.0028509314376373783,0.00017385194705951288,-0.0006692698726444662
1589541544.9768612,-0.08645707839819515,-4.28,8.773542921601804,0.46,0.3322222222222222,-0.6488888888888888,-0.0025681343593149503,0.0010222431820267974,0.0017266011702012148
1589541544.9868612,-0.07932723205206427,-4.285336383973968,8.727308928208256,0.46,0.3322222222222222,-0.6488888888888888,0.0013109935786220373,0.0004353339931854373,0.0015261647756818935
1589541544.9968612,-0.07619565925829369,-4.277608681483413,8.714782637033174,0.46,0.3322222222222222,-0.6488888888888888,0.003687481546305233,0.0016125355522259085,0.0013516831673611822
