time,acc_x,acc_y,acc_z,mag_x,mag_y,mag_z,gyr_x,gyr_y,gyr_z
1589544020.635772,-0.06,-4.18,8.82,0.5155555555555555,0.3055555555555556,-0.7088888888888889,-0.007635815477475192,-0.009817477042468105,0.029452431127404314
1589544020.645772,-0.07185996234047004,-4.17728665411349,8.72356672943255,0.5155555555555555,0.3055555555555556,-0.7088888888888889,-0.0007948506608399333,-0.004270233425856189,0.025774157944861167
1589544020.655772,-0.04353123092573754,-4.172156256358087,8.78587507629705,0.5155555555555555,0.3055555555555556,-0.7088888888888889,0.0,-0.0013260418635320092,0.030308050828865216
1589544020.665772,-0.01898241507622134,-4.18,8.882035169847558,0.5147641006148388,0.30702540044545806,-0.7059491991090839,0.000222002591732414,-0.0016266550856618768,0.02967443371913673
1589544020.675772,-0.02075779290576854,-4.174621103547116,8.88655275886779,0.5077777777777778,0.32,-0.68,0.0036485280216597025,0.0044459855128228,0.03104734610973051
1589544020.685772,-0.04575472990456476,-4.168490540190871,8.844339639872754,0.5077777777777778,0.32,-0.68,0.007172728347463949,0.00794454023081602,0.0292980687507339
1589544020.695772,-0.026602383597923867,-4.2067952328041525,8.818803178130565,0.5077777777777778,0.32,-0.68,0.00508353145663233,0.009337338158037101,0.028601669787123352
1589544020.705772,-0.06945247216434797,-4.18,8.8,0.5077777777777778,0.32,-0.68,0.0012102828259770366,0.012058864629201305,0.022787994388944997
1589544020.715772,-0.060056007348164075,-4.18,8.8,0.5077777777777778,0.32,-0.68,0.003260273439604694,0.013083859936015133,0.020738003775317336
1589544020.725772,-0.06,-4.17,8.83,0.5277777777777778,0.3055555555555556,-0.6877777777777778,0.003272492347489368,0.00545415391248228,0.015271630954950384
1589544020.735772,-0.07376802956252235,-4.176884014781261,8.761159852187388,0.5277777777777778,0.3055555555555556,-0.6877777777777778,0.003272492347489368,0.00545415391248228,0.015271630954950384
1589544020.745772,-0.06,-4.1710616335141655,8.702654083785411,0.5277777777777778,0.3055555555555556,-0.6877777777777778,0.002181661564992912,0.002181661564992912,0.01515582470325226
1589544020.7557719,-0.06,-4.186862944544907,8.742157361362267,0.5277777777777778,0.3055555555555556,-0.6877777777777778,0.002181661564992912,0.002181661564992912,0.013432169055638906
1589544020.7657719,-0.06,-4.19,8.786976213391997,0.5277777777777778,0.3055555555555556,-0.6877777777777778,0.0011732917702891898,0.002181661564992912,0.01208159959525375
1589544020.7757719,-0.06,-4.181769251769252,8.864076734076734,0.5213760847094181,0.2991538624871958,-0.6932649432649433,0.0028865014891121393,0.002181661564992912,0.013794809314076695
1589544020.7857718,-0.051498940782830786,-4.2,8.842505296085847,0.52,0.2977777777777777,-0.6944444444444444,0.0029454741980791373,0.00638147562027362,0.011345102308640553
1589544020.7957718,-0.05980300540497733,-4.2,8.800984972975114,0.52,0.2977777777777777,-0.6944444444444444,0.0011338083361436858,0.005475642689305895,0.007721770584769652
1589544020.8057718,-0.053636744966442954,-4.178787751677852,8.85,0.52,0.2977777777777777,-0.6944444444444444,-0.001090830782496456,0.006809456252144403,0.006412748916395901
1589544020.8157718,-0.07762793624161074,-4.170790687919463,8.85,0.52,0.2977777777777777,-0.6944444444444444,-0.001090830782496456,0.008554144915591965,0.005540404584672121
1589544020.8257718,-0.08,-4.171140784037085,8.821140784037086,0.5277777777777778,0.3055555555555556,-0.6733333333333333,0.0033969325818727185,0.0042388828956024735,0.0049855243019025774
1589544020.8357718,-0.08,-4.179594477476569,8.82959447747657,0.5277777777777778,0.3055555555555556,-0.6733333333333333,0.00431908748483047,0.003316727992644722,0.009596298816691337
1589544020.8457718,-0.06031120495717725,-4.180311204957177,8.701867229743062,0.5277777777777778,0.3055555555555556,-0.6733333333333333,6.789438939088728e-05,0.006646826279065066,0.01308996938995747
1589544020.8557718,-0.06858823065082686,-4.1885882306508275,8.75152938390496,0.5277777777777778,0.3055555555555556,-0.6733333333333333,0.0018736612722203008,0.009355476603309189,0.01308996938995747
1589544020.8657718,-0.061144006313163454,-4.198855993686837,8.795423974747347,0.5277777777777778,0.3055555555555556,-0.6733333333333333,0.004113739669632029,0.007885398937828988,0.015022047494596588
1589544020.8757718,-0.0842007194709519,-4.1757992805290485,8.808066906490318,0.5394299760415695,0.3055555555555556,-0.6733333333333333,0.0026033971461541117,0.003236000517895912,0.019671445914529663
1589544020.8857718,-0.080152937857661,-4.179949020714113,8.839337269283469,0.5422222222222223,0.3055555555555556,-0.6733333333333333,0.0010852698050649334,0.004335518242828211,0.022929690342151667
1589544020.8957717,-0.10550737486902555,-4.171497541710325,8.729468042234224,0.5422222222222223,0.3055555555555556,-0.6733333333333333,0.00016335645956947007,-0.0002740484846491054,0.02661734372413352
1589544020.9057717,-0.08723148311048558,-4.200358022519352,8.79348456192822,0.5422222222222223,0.3055555555555556,-0.6733333333333333,-0.0033115465459830394,-0.006058150601471015,0.025614996289419878
1589544020.9157717,-0.08,-4.184446430044264,8.837035713303823,0.5422222222222223,0.3055555555555556,-0.6733333333333333,-0.0034341691063060286,-0.004848353406435806,0.019514183855339713
1589544020.9257717,-0.07242335675642063,-4.195153286487159,8.855153286487159,0.536329277477216,0.2996626108105493,-0.6842773735740592,-0.00244600877968035,-0.003536839562176806,0.01771763973463073
1589544020.9357717,-0.06207361065563432,-4.20654398224061,8.84894074316995,0.5344444444444445,0.2977777777777777,-0.6877777777777778,-0.001090830782496456,0.0021062629538569594,0.014180800172453925
1589544020.9457717,-0.08881615402676685,-4.162367691946466,8.707103075839399,0.5344444444444445,0.2977777777777777,-0.6877777777777778,-0.0016073810342313356,0.0008325556566290161,0.014051662609520205
1589544020.9557717,-0.08079635434597474,-4.1784072913080506,8.763185417383898,0.5344444444444445,0.2977777777777777,-0.6877777777777778,-0.005280416345609463,-0.0010039619990600478,0.013263706956830287
1589544020.9657717,-0.08839623838083675,-4.163207523238326,8.793584953523348,0.5344444444444445,0.2977777777777777,-0.6877777777777778,-0.003622378855883292,-0.00017494325419696187,0.01492174444655646
1589544020.9757717,-0.082339765276838,-4.152339765276838,8.804150586807905,0.5422222222222223,0.31222222222222223,-0.6666666666666666,-0.004746166328154509,-0.0014736739806651415,0.015782088552508632
1589544020.9857717,-0.1,-4.171867991612727,8.75719801258091,0.5422222222222223,0.31222222222222223,-0.6666666666666666,-0.007533932339844814,-0.004465206267616202,0.01963495408493621
1589544020.9957716,-0.0989127978507043,-4.190543601074649,8.734348808597183,0.5422222222222223,0.31222222222222223,-0.6666666666666666,-0.006485687016416332,-0.0053948562339198765,0.019457061049249002
1589544021.0057716,-0.08056371968080904,-4.198308840957573,8.81,0.5422222222222223,0.31222222222222223,-0.6666666666666666,-0.005515646190534837,-0.004363323129985824,0.01623947718134172
1589544021.0157716,-0.08608675041479023,-4.181739748755629,8.81,0.5422222222222223,0.31222222222222223,-0.6666666666666666,-0.006118115384264906,-0.004363323129985824,0.015034538793881586
1589544021.0257716,-0.09,-4.174854272554002,8.839125635324015,0.5443796766906678,0.30521049519977406,-0.669902848369335,-0.005485946709272003,-0.007010918094252656,0.012062724201040462
1589544021.0357716,-0.09,-4.18,8.792481947044664,0.5466666666666666,0.2977777777777777,-0.6733333333333333,-0.0054203116095217045,-0.008760488562932222,0.00664651160386046
1589544021.0457716,-0.08224067803023137,-4.18,8.751203390151156,0.5466666666666666,0.2977777777777777,-0.6733333333333333,-0.007146975363667211,-0.011265878436749043,0.006544984694978735
1589544021.0557716,-0.08588756528372748,-4.18,8.757662695851183,0.5466666666666666,0.2977777777777777,-0.6733333333333333,-0.009562516711109416,-0.011356904862916274,0.005902750950433994
1589544021.0657716,-0.07601156842422013,-4.13803470527266,8.81196529472734,0.5466666666666666,0.2977777777777777,-0.6733333333333333,-0.013197159589220471,-0.01090830782496456,0.00545415391248228
1589544021.0757716,-0.06363067050660069,-4.113630670506601,8.849107988480197,0.5388819306191787,0.3027317007170883,-0.6641331907317566,-0.012791228037401422,-0.009518735689912055,0.008233298182587289
1589544021.0857716,-0.06,-4.081964732467113,8.897380356710515,0.5344444444444445,0.3055555555555556,-0.6588888888888889,-0.010979747513447803,-0.0036296907899055868,0.012875650324507739
1589544021.0957716,-0.04042274949017577,-4.03431974881041,8.802113747450878,0.5344444444444445,0.3055555555555556,-0.6588888888888889,-0.008772761075688489,-0.001848794514638654,0.01807291180493497
1589544021.1057715,-0.013467624737606976,-3.976935249475214,8.758266187631197,0.5344444444444445,0.3055555555555556,-0.6588888888888889,-0.005832413093075068,0.0025159739863037907,0.027037693212833093
1589544021.1157715,-0.0027172840700261146,-3.97,8.818261727439792,0.5344444444444445,0.3055555555555556,-0.6588888888888889,-0.007042996055800843,-0.0014940340824663228,0.035511389989841394
1589544021.1257715,-0.00976579730439349,-3.9602342026956063,8.879063189217575,0.5539760390532313,0.2979599354299161,-0.679505572087053,-0.007635815477475192,0.0009886405786119637,0.05841945878635729
1589544021.1357715,0.012197483059051302,-3.9008067118425296,8.82080671184253,0.5544444444444444,0.2977777777777777,-0.68,-0.008442938737967084,-0.0021376622594711124,0.07504732746464647
1589544021.1457715,-0.03168126589432042,-3.86277291136856,8.73109164547424,0.5544444444444444,0.2977777777777777,-0.68,-0.011545422045767095,-0.007030860061883299,0.09481535683371498
1589544021.1557715,-0.13931121589760861,-3.8419434152913436,8.729028292354329,0.5544444444444444,0.2977777777777777,-0.68,-0.01790814213554808,-0.016499320769605794,0.11579578414779364
1589544021.1657715,-0.7667235768733562,-3.13879374136317,8.628620781883832,0.5544444444444444,0.2977777777777777,-0.68,-0.02591662809087566,-0.030355175899706134,0.13531942338215253
1589544021.1757715,-0.49829097134686656,-2.871795006866969,9.064102120294246,0.5412820641460605,0.3028964812271493,-0.6756125399005387,-0.041628699162813455,-0.05426181787549676,0.18017350521821587
1589544021.1857715,-0.17247317596566525,-2.8595125178826897,9.070451716738196,0.5344444444444445,0.3055555555555556,-0.6733333333333333,-0.01013653334215537,-0.021861988904580167,0.3028904293773248
1589544021.1957715,-0.21586039325142672,-2.9264517656440803,8.57838587484736,0.5344444444444445,0.3055555555555556,-0.6733333333333333,0.017253948882790093,0.0001877086887416956,0.4264154223898973
1589544021.2057714,-0.1762867085228214,-2.995569937215768,8.83413639460166,0.5344444444444445,0.3055555555555556,-0.6733333333333333,0.0002653317892136464,-0.025929991454446476,0.5022013363750353
1589544021.2157714,-0.15200658281415305,-2.9320724109556835,8.88404607969907,0.5344444444444445,0.3055555555555556,-0.6733333333333333,0.00043058772394770177,-0.029021843403456607,0.5916141970509885
1589544021.2257714,-0.1678031839383492,-2.9752783411072805,8.858131210707766,0.5390600847247573,0.2897305031659118,-0.6772895964307443,0.008007739884912256,-0.025976085491318208,0.6529066883387875
1589544021.2357714,-0.22985148317738402,-3.1054596854469443,8.935459685446945,0.5422222222222223,0.2788888888888889,-0.68,0.0011232321268620678,-0.03441131355221759,0.7321156293250732
1589544021.2457714,-0.2270197272606911,-3.1457450681848274,8.860843704488282,0.5422222222222223,0.2788888888888889,-0.68,0.0011143357089960322,-0.0375523876650209,0.7898104822037166
1589544021.2557714,-0.2041511133530302,-3.1675466599409097,8.820942206528787,0.5422222222222223,0.2788888888888889,-0.68,0.0037253085702011095,-0.04219236308315722,0.8487477857420083
1589544021.2657714,-0.20694471077021412,-3.152221156919144,8.891668264621284,0.5422222222222223,0.2788888888888889,-0.68,0.0047875932042262155,-0.04202714072300903,0.8962396789966982
1589544021.2757714,-0.2637868039424948,-3.3013604118274844,8.874142130705003,0.5422222222222223,0.27191652541486183,-0.6560947538033356,0.0025205388408535254,-0.04133861064291179,0.9378852334438817
1589544021.2857714,-0.296542120265119,-3.3465421202651187,8.889906590198839,0.5422222222222223,0.27111111111111114,-0.6533333333333333,1.0189428649302543e-05,-0.04724216209844828,0.9602063904760861
1589544021.2957714,-0.31,-3.335498995066691,8.761160972044584,0.5422222222222223,0.27111111111111114,-0.6533333333333333,0.0033635776147287032,-0.04661468927705685,0.9973658977021453
1589544021.3057714,-0.31778837027819373,-3.26769303777445,8.761153481112775,0.5422222222222223,0.27111111111111114,-0.6533333333333333,0.003513743725492402,-0.05261152810079853,1.024803805009075
1589544021.3157713,-0.34805279350782536,-3.313118785392607,8.854158380523476,0.5422222222222223,0.27111111111111114,-0.6533333333333333,0.004037513614823185,-0.05224647532282135,1.0499606211424963
1589544021.3257713,-0.34170010898134495,-3.3034002179626896,8.825950381434708,0.5422222222222223,0.27111111111111114,-0.6716332243519884,0.005361427351959791,-0.04927283833338549,1.0860527772368334
1589544021.3357713,-0.3845728871242201,-3.3802311968235963,8.944804083947817,0.5422222222222223,0.27111111111111114,-0.6733333333333333,0.00545415391248228,-0.05978411022710514,1.1032355641334148
1589544021.3457713,-0.39,-3.404308157332358,8.816918426676422,0.5422222222222223,0.27111111111111114,-0.6733333333333333,0.007014931758376114,-0.05406302351327928,1.1089135272836443
1589544021.3557713,-0.4206652742103926,-3.41,8.84432950407858,0.5422222222222223,0.27111111111111114,-0.6733333333333333,0.0026182217181165467,-0.053777843657012755,1.103775611568914
1589544021.3657713,-0.4235683181175751,-3.41,8.87,0.5422222222222223,0.27111111111111114,-0.6733333333333333,0.001792418440553833,-0.05383995146676541,1.0940216260827893
1589544021.3757713,-0.4553791162826071,-3.4365343372119552,8.87,0.5579462739033809,0.24359402066908342,-0.6792298527137679,0.004111293019922379,-0.04959144543246741,1.0743029000745234
1589544021.3857713,-0.5324909747292419,-3.476245487364621,8.851877256317689,0.56,0.24,-0.68,0.005351765463583695,-0.05007582754593838,1.0544946971892546
1589544021.3957713,-0.5556594110115237,-3.464340588988476,8.771702944942382,0.56,0.24,-0.68,0.00630824229083898,-0.04761595085976687,1.033007672406876
1589544021.4057713,-0.5406900647063642,-3.408506839216971,8.782183225489394,0.56,0.24,-0.68,0.007247113755855826,-0.04199082022120798,1.009307241528857
1589544021.4157712,-0.5472326381574328,-3.3914884254382884,8.822976850876577,0.56,0.24,-0.68,0.01014220109957528,-0.03551032973672229,0.9804031046010029
1589544021.4257712,-0.5455985211224923,-3.3639963028062305,8.890405176071278,0.56,0.22559852112249226,-0.6960016431972308,0.011999138607461015,-0.03351040229854658,0.9429117085822731
1589544021.4357712,-0.6011399826657376,-3.383349081454039,8.882209098788302,0.56,0.22,-0.7022222222222222,0.007755014735355521,-0.03805987812949563,0.9040422827122279
1589544021.4457712,-0.6627740736250859,-3.3716777791247425,8.802516668687113,0.56,0.22,-0.7022222222222222,0.002969887857173848,-0.040058134462053356,0.8517350183819944
1589544021.4557712,-0.6644272205336036,-3.372291117865586,8.842446133063154,0.56,0.22,-0.7022222222222222,0.0015737656263919656,-0.04230938786287714,0.8155158134184539
1589544021.4657712,-0.688765243902439,-3.3660289634146343,8.88561737804878,0.56,0.22,-0.7022222222222222,0.0031826983501497203,-0.038971426271308215,0.7797062216771962
1589544021.4757712,-0.6838934866567936,-3.296672183988152,8.891663908005924,0.5792568071163768,0.20074319288362324,-0.7070364240013164,0.007029597760617824,-0.02957403577862259,0.7258307949482583
1589544021.4857712,-0.7245108604142112,-3.3422981261876696,8.868850936906165,0.5866666666666667,0.19333333333333333,-0.7088888888888889,0.004237979790607247,-0.03430781279692675,0.6802744338057197
1589544021.4957712,-0.787680807688574,-3.352053198718571,8.804372391029997,0.5866666666666667,0.19333333333333333,-0.7088888888888889,0.00413935389350587,-0.03166310809230054,0.6448550848548253
1589544021.5057712,-0.8467258983602745,-3.3811505989068498,8.860088847540412,0.5866666666666667,0.19333333333333333,-0.7088888888888889,0.0035138223254660233,-0.025446257082781962,0.6177479884519516
1589544021.5157712,-0.7891293500628267,-3.2777881375994755,8.820941125052356,0.5866666666666667,0.19333333333333333,-0.7088888888888889,0.007782119061564321,-0.020777115276297064,0.599071421226012
1589544021.5257711,-0.7475223222913687,-3.2,8.95301341270148,0.5866666666666667,0.1841393838661049,-0.7088888888888889,0.004343843255937145,-0.029211378227109303,0.5655227111967299
1589544021.5357711,-0.7914137529137529,-3.2248482517482517,8.902324242424243,0.5866666666666667,0.1811111111111111,-0.7088888888888889,-0.0005288622248285266,-0.028207383825191282,0.5321163078173555
1589544021.5457711,-0.8,-3.1855578406169665,8.82074378748929,0.5866666666666667,0.1811111111111111,-0.7088888888888889,0.002949075508805757,-0.024846825787630072,0.5050557739727563
1589544021.555771,-0.7940111191393706,-3.1879666425818884,8.853899927745665,0.5866666666666667,0.1811111111111111,-0.7088888888888889,0.005016608689533667,-0.023344991655374188,0.4810866978296878
1589544021.565771,-0.8111475212481641,-3.2687294440565333,8.879426239375919,0.5866666666666667,0.1811111111111111,-0.7088888888888889,0.004877444733707398,-0.020023900538551166,0.4545769194290507
1589544021.575771,-0.8575576581904198,-3.318976936723832,8.919603784742757,0.572581641369341,0.18417307313226888,-0.7125632433142782,0.0013572489452232665,-0.01925693703080083,0.42145676134608784
1589544021.585771,-0.9211371604700443,-3.2962876131766516,8.923433635137739,0.5611111111111111,0.18666666666666668,-0.7155555555555555,0.002399344402131821,-0.01773420613775128,0.39481992907984986
1589544021.595771,-0.9644547432900782,-3.3132715402595307,8.84672845974047,0.5611111111111111,0.18666666666666668,-0.7155555555555555,0.002915622665362092,-0.019019949545276117,0.3769516245009374
1589544021.605771,-0.9885753492244596,-3.3638127910203828,8.86286302383669,0.5611111111111111,0.18666666666666668,-0.7155555555555555,-0.0015585435277313377,-0.02550501897864447,0.3699470405583252
1589544021.615771,-1.0500237207726195,-3.411016604540834,8.888983395459167,0.5611111111111111,0.18666666666666668,-0.7155555555555555,-0.0013074444180582734,-0.025086520462522695,0.3648816029776166
1589544021.625771,-1.1471389012606263,-3.446430549369687,8.867138901260626,0.5746805617414242,0.17209207154521924,-0.7256070004668985,0.0022856940508819354,-0.017453292519943295,0.3650121821927566
1589544021.635771,-1.1553099808408342,-3.385557965513502,8.870371977009002,0.5911111111111111,0.15444444444444444,-0.7377777777777778,0.0037840940744209737,-0.016914639861558393,0.3800260357756118
1589544021.645771,-1.1236131303433456,-3.359160608969963,8.954963653819778,0.5911111111111111,0.15444444444444444,-0.7377777777777778,0.005848285292451625,-0.015665762334919727,0.4002712117691108
1589544021.655771,-1.0927114220087701,-3.31542284401754,8.706181353100856,0.5911111111111111,0.15444444444444444,-0.7377777777777778,0.015872681221668385,0.001100340530913499,0.42141684205246077
1589544021.665771,-1.1047287710378972,-3.364186313113692,8.802341956171395,0.5911111111111111,0.15444444444444444,-0.7377777777777778,0.013172811562228007,-0.0020633156046064322,0.43031499180079397
1589544021.675771,-1.0722914144997704,-3.314964731416169,8.819165657999083,0.598057514921324,0.15070407316202217,-0.7479302141157811,0.01332294159722966,2.4676751288161408e-05,0.43354274740554605
1589544021.685771,-1.0271699577142415,-3.254403150095046,8.787486131047057,0.6055555555555555,0.14666666666666667,-0.7588888888888888,0.016197760127272025,0.0016944545665492725,0.4252524057313622
1589544021.695771,-1.04,-3.303929268888075,8.907504882216527,0.6055555555555555,0.14666666666666667,-0.7588888888888888,0.0027281420906558797,-0.01756902603119498,0.40123283877327637
1589544021.705771,-0.957474979297291,-3.155581213770259,8.756212468945936,0.6055555555555555,0.14666666666666667,-0.7588888888888888,-0.002522318739917098,-0.020997582784632953,0.37401360076714135
1589544021.715771,-0.9768922567966862,-3.134701058911682,8.813784513593372,0.6055555555555555,0.14666666666666667,-0.7588888888888888,-0.005727937279251109,-0.028943927834863974,0.35233404006177643
1589544021.725771,-1.0599089533880932,-3.1999284633763594,8.979817906776187,0.6055555555555555,0.14666666666666667,-0.7588888888888888,-0.010902632599426853,-0.042527503050325294,0.33163525878107347
1589544021.735771,-1.1175276837718995,-3.264944632456201,8.996014687938855,0.5988888888888889,0.15444444444444444,-0.7511111111111111,-0.013617265794867526,-0.03677024144340996,0.2991452429443713
1589544021.745771,-1.1680907202748787,-3.285708864329855,8.874763711890049,0.5988888888888889,0.15444444444444444,-0.7511111111111111,-0.003792132704350291,-0.017608977643545833,0.2890186072927862
1589544021.755771,-1.206569693094629,-3.326528132992327,8.86338874680307,0.5988888888888889,0.15444444444444444,-0.7511111111111111,-0.0025513164976803298,-0.022921046944099927,0.28580673202185436
1589544021.765771,-1.1815688850929635,-3.2750982195650744,8.900784442546483,0.5988888888888889,0.15444444444444444,-0.7511111111111111,-0.004748313798376268,-0.026864350709015605,0.2901609881440573
1589544021.775771,-1.2732320199209024,-3.353156034861579,8.956540024901127,0.5963159961264912,0.15187155168204677,-0.7606675699428739,0.000344269997764234,-0.014205666224969823,0.2941303091712471
1589544021.785771,-1.298228978559937,-3.392915914239748,8.97228978559937,0.5911111111111111,0.14666666666666667,-0.78,0.006226907793795066,-0.005897119244521423,0.30486476533611306
1589544021.795771,-1.2830952673129628,-3.3945236634351863,8.855476336564815,0.5911111111111111,0.14666666666666667,-0.78,0.010947261286457562,0.0044412300529718274,0.32308067892641595
1589544021.8057709,-1.2310382985402606,-3.3781804269345472,8.754934468686233,0.5911111111111111,0.14666666666666667,-0.78,0.008839907060885381,0.004476583930899559,0.33251920074519387
1589544021.8157709,-1.1831718274238365,-3.2543906091412786,8.80976522853197,0.5911111111111111,0.14666666666666667,-0.78,-0.0016498677191809264,-0.011760484775427507,0.32333760968860015
1589544021.8257709,-1.1968696512114412,-3.2286965121144116,8.918696512114412,0.5890242119187385,0.15118828158347386,-0.783825981852683,-0.008593793186085007,-0.024339745296773074,0.3107445845404689
1589544021.8357708,-1.19,-3.16594404898203,8.962936930658568,0.5844444444444444,0.16111111111111112,-0.7922222222222223,-0.011793179069504469,-0.027034293478097986,0.29806379625220275
1589544021.8457708,-1.2542342896174863,-3.2342342896174863,8.86481557377049,0.5844444444444444,0.16111111111111112,-0.7922222222222223,-0.007086376530062018,-0.020080749205952344,0.2945243112740431
1589544021.8557708,-1.3244379629868621,-3.2738905092532846,8.868299305681026,0.5844444444444444,0.16111111111111112,-0.7922222222222223,-0.00902841753031202,-0.021511662801537948,0.29385786921685364
1589544021.8657708,-1.3802555431897954,-3.321757126958308,8.955750791884256,0.5844444444444444,0.16111111111111112,-0.7922222222222223,-0.011371824526353238,-0.025552624698807164,0.2990793072215167
1589544021.8757708,-1.5250668518840076,-3.500637263413787,8.928036985587775,0.5830238660261233,0.13412012116301056,-0.8106897416603963,-0.00532970942140741,-0.013234586389859544,0.32068407754513084
1589544021.8857708,-1.4985364456537305,-3.4322511814406416,8.881857367893454,0.5822222222222222,0.11888888888888888,-0.8211111111111111,-0.0029491328000502068,-0.005777513459921441,0.3489410367378012
1589544021.8957708,-1.4965836431226767,-3.4187781908302357,8.87,0.5822222222222222,0.11888888888888888,-0.8211111111111111,-0.003272492347489368,-0.007449482115186298,0.37133407269617064
1589544021.9057708,-1.5144712599558583,-3.4444712599558582,8.814712599558582,0.5822222222222222,0.11888888888888888,-0.8211111111111111,-0.0026694003646323167,-0.007520462294257545,0.39095250679983307
1589544021.9157708,-1.500650700044129,-3.402602800176515,8.826095799735226,0.5822222222222222,0.11888888888888888,-0.8211111111111111,-0.003201511983658612,-0.006035059485645885,0.4079127949523613
1589544021.9257708,-1.499500709745109,-3.3837517743627723,8.899500709745109,0.5822222222222222,0.10041528660673263,-0.8237501971514192,-0.00799060645592093,-0.011154170567523162,0.42452457301573643
1589544021.9357708,-1.5480713140413835,-3.405241085744827,8.881446514468962,0.5822222222222222,0.08,-0.8266666666666667,-0.011999138607461015,-0.01797240953602368,0.44079397914196305
1589544021.9457707,-1.593801201815844,-3.415204807263376,8.872807210895065,0.5822222222222222,0.08,-0.8266666666666667,-0.010755198222099789,-0.02144665086828261,0.4592206958685648
1589544021.9557707,-1.6280393857456252,-3.4540196928728126,8.863267690423958,0.5822222222222222,0.08,-0.8266666666666667,-0.008216875841744643,-0.018023612088282855,0.490242983404953
1589544021.9657707,-1.6431808017888516,-3.4405664031304903,8.847843195975084,0.5822222222222222,0.08,-0.8266666666666667,-0.006259798041552944,-0.010102663695893896,0.5273062020928341
1589544021.9757707,-1.6292043470514876,-3.418408694102975,8.93681738820595,0.5776200486964784,0.0651707741948255,-0.824109903596809,-0.007375438658948779,-0.014509234881596812,0.5690290306073301
1589544021.9857707,-1.6094913544902971,-3.392057842770467,8.953849732420254,0.5722222222222222,0.04777777777777778,-0.8211111111111111,-0.009482031982639298,-0.016977867239168207,0.5999834040059132
1589544021.9957707,-1.5808414843575003,-3.332710371089375,8.89289628910625,0.5722222222222222,0.04777777777777778,-0.8211111111111111,-0.007931471099103067,-0.01577115049419109,0.6212334654645737
1589544022.0057707,-1.6586222104400636,-3.3345975321733263,8.847012339133368,0.5722222222222222,0.04777777777777778,-0.8211111111111111,-0.011083917542684623,-0.01712738927584515,0.6526933435596628
1589544022.0157707,-1.709063199825601,-3.357189599476803,8.901721199389602,0.5722222222222222,0.04777777777777778,-0.8211111111111111,-0.015561573729377986,-0.018646312349168002,0.6795377043980206
1589544022.0257707,-1.741530844086252,-3.383848330261071,8.927696660522141,0.5780321325312109,0.035816197729860014,-0.8187187951015276,-0.017202037159444582,-0.01644672791269692,0.7123078714744311
1589544022.0357707,-1.8074962940553623,-3.375832098018454,8.905832098018454,0.5911111111111111,0.008888888888888889,-0.8133333333333334,-0.016089349785973817,-0.01672553299048045,0.7516257717674428
1589544022.0457706,-1.8549198045568007,-3.3998396091136014,8.85604254076159,0.5911111111111111,0.008888888888888889,-0.8133333333333334,-0.019652450016547758,-0.023444113857868026,0.7991940530744481
1589544022.0557706,-1.8916569525395504,-3.41,8.800552317513183,0.5911111111111111,0.008888888888888889,-0.8133333333333334,-0.01509088547142266,-0.02169611866091064,0.8529297623484695
1589544022.0657706,-1.8616094582808411,-3.3349264463610817,8.85587828277934,0.5911111111111111,0.008888888888888889,-0.8133333333333334,-0.012909055754802471,-0.023729581247972767,0.8969529950653019
1589544022.0757706,-1.8024810558221773,-3.244987370548118,8.983696324829502,0.594025322051023,-0.0011026914765232525,-0.8162475442732452,-0.014180800172453925,-0.03353960241304635,0.9364658278378166
1589544022.0857706,-1.8192792961437665,-3.254459472107825,8.92941454511419,0.5988888888888889,-0.017777777777777778,-0.8211111111111111,-0.011920522012316661,-0.03131962631181981,0.9791041446604758
1589544022.0957706,-1.891616280371739,-3.267883215765312,8.89949949613705,0.5988888888888889,-0.017777777777777778,-0.8211111111111111,-0.008079427324079954,-0.02421098372121669,1.0067913151591903
1589544022.1057706,-2.0238130918598345,-3.294532729649587,9.015037464528266,0.5988888888888889,-0.017777777777777778,-0.8211111111111111,-0.008491145343978806,-0.03495346958201602,1.0350097962152733
1589544022.1157706,-1.997825686788451,-3.239709477980752,8.829418955961502,0.5988888888888889,-0.017777777777777778,-0.8211111111111111,-0.011287596272877152,-0.04436011715952454,1.0812985247794178
1589544022.1257706,-1.9287681019501834,-3.1469453562463796,8.817290982815216,0.57830855377486,-0.04842934071356547,-0.8127914011713974,-0.00545415391248228,-0.032891528446694164,1.1242221258585514
1589544022.1357706,-1.8882369483226362,-3.05,8.840291967180573,0.5466666666666666,-0.09555555555555556,-0.8,-0.0067054551202540115,-0.04443558342623462,1.1595537353093583
1589544022.1457705,-1.983293007684699,-3.074531689872936,8.80731111618352,0.5466666666666666,-0.09555555555555556,-0.8,-0.008344361653399428,-0.05473268142810891,1.188959406537886
1589544022.1557705,-2.1556489168629573,-3.1743510831370427,8.986965478626868,0.5466666666666666,-0.09555555555555556,-0.8,-0.006544984694978735,-0.05904643395268754,1.2378994090748925
1589544022.1657705,-2.175279717109439,-3.1405594342188774,8.896398585547194,0.5466666666666666,-0.09555555555555556,-0.8,-0.003198115273553622,-0.05740782583048489,1.2806143706459532
1589544022.1757705,-2.1317371418116955,-3.077968760719921,8.85768381091774,0.5447824761207797,-0.10330167224420203,-0.7905790472705652,0.007224748867966728,-0.037167451392183144,1.337754563277173
1589544022.1857705,-2.017032867259851,-2.937655710913383,9.015311421826766,0.5366666666666666,-0.13666666666666666,-0.75,0.0028969312137299198,-0.05457739174360469,1.3936061481095021
1589544022.1957705,-2.0442552366966487,-2.9044685798201066,8.91915050276367,0.5366666666666666,-0.13666666666666666,-0.75,-0.006846676865136233,-0.0773097755344847,1.4290577187192306
1589544022.2057705,-2.117255912345411,-2.8961550770232156,8.85483727489694,0.5366666666666666,-0.13666666666666666,-0.75,-0.006281152276929717,-0.07499165787077298,1.4571706743925068
1589544022.2157705,-2.285303000665076,-2.965808066977035,8.977929267243066,0.5366666666666666,-0.13666666666666666,-0.75,-0.002181661564992912,-0.07997772770414512,1.4894522973681112
1589544022.2257705,-2.354863679199298,-2.9817216390992103,9.012869398498685,0.5303825864664912,-0.13422285769993175,-0.7388283018663547,-0.0018389181588915168,-0.08309094116230747,1.5245103700016474
1589544022.2357705,-2.3377328236595916,-2.924192535962177,8.918385071924353,0.5166666666666667,-0.1288888888888889,-0.7144444444444444,0.003939851230196033,-0.07087013803363285,1.5814166140346184
1589544022.2457705,-2.312412412115459,-2.8446536533270046,8.914482482423091,0.5166666666666667,-0.1288888888888889,-0.7144444444444444,0.006676561364759226,-0.06792310649102032,1.6395284388797466
1589544022.2557704,-2.2904333482944343,-2.7578254039497305,8.923477782764813,0.5166666666666667,-0.1288888888888889,-0.7144444444444444,0.0020867769125477533,-0.07944087781735097,1.697806606745777
1589544022.2657704,-2.3892509164091136,-2.77506547832962,8.89013095665924,0.5166666666666667,-0.1288888888888889,-0.7144444444444444,0.005242730474828291,-0.0813557482176997,1.7359540502658888
1589544022.2757704,-2.36513361604255,-2.696684252138288,8.733368504276575,0.5166666666666667,-0.1288888888888889,-0.7144444444444444,0.007215822497120343,-0.07543647215082355,1.7589734571926294
1589544022.2857704,-2.0496932695125523,-2.4843762821139004,9.003742307316596,0.5244444444444445,-0.14333333333333334,-0.7066666666666667,0.003000344079589012,-0.10158333690612059,1.8086665933015469
1589544022.2957704,-2.15551654676259,-2.512915107913669,8.919686330935251,0.5244444444444445,-0.14333333333333334,-0.7066666666666667,0.01087409183783014,-0.09183508165250882,1.8177789365322863
1589544022.3057704,-2.234282687274087,-2.5335759690888695,8.929293281814783,0.5244444444444445,-0.14333333333333334,-0.7066666666666667,0.013206761567716968,-0.07795585545094734,1.8101180470602207
1589544022.3157704,-2.2556617647058825,-2.4527573529411764,8.84716911764706,0.5244444444444445,-0.14333333333333334,-0.7066666666666667,0.014493611940963939,-0.0718344153532225,1.7912845091142813
1589544022.3257704,-2.186840804874474,-2.2967363219497896,8.919190728449088,0.5251929246610878,-0.1455787739832632,-0.7066666666666667,0.015260233635901288,-0.06693088173756384,1.7614011848774587
1589544022.3357704,-2.3185740907472936,-2.3494296362989178,9.147528423961976,0.5310477373665463,-0.16314321209963917,-0.7066666666666667,0.006638310237332648,-0.08704870300089068,1.7249975083057245
1589544022.3457704,-2.4245006562660953,-2.2942542657296183,8.963022313047235,0.5311111111111111,-0.16333333333333333,-0.7066666666666667,0.008371517761690931,-0.08181374043775036,1.6610636478593657
1589544022.3557703,-2.410563558125239,-2.2036631278140524,8.489160976258121,0.5311111111111111,-0.16333333333333333,-0.7066666666666667,0.021294081081803088,-0.05140770909630999,1.638259124353285
1589544022.3657703,-2.2139013552543876,-2.0102621639635636,9.11324594534548,0.5311111111111111,-0.16333333333333333,-0.7066666666666667,-0.006877614165979932,-0.1072411955686918,1.578864863525904
1589544022.3757703,-2.128575960732671,-1.9406291152879205,9.079768346701785,0.5165452864572941,-0.17514346143102277,-0.6991869188714633,-0.005540866667130629,-0.10139672386245818,1.55152258879333
1589544022.3857703,-2.4371131354550113,-2.0122014351614554,8.998473510088067,0.49,-0.19666666666666666,-0.6855555555555556,0.021428082473404123,-0.06761338814881596,1.5304174674765634
1589544022.3957703,-2.5405045258290047,-2.006254849102505,8.889760668025511,0.49,-0.19666666666666666,-0.6855555555555556,0.02342604948180233,-0.057650336327600624,1.5176730087419934
1589544022.4057703,-2.3595986393004726,-1.8877281340608663,8.77171525764252,0.49,-0.19666666666666666,-0.6855555555555556,0.015662777008006005,-0.0651631991036986,1.5124259345161881
1589544022.4157703,-2.2006334122477362,-1.834585202721719,8.948144628578051,0.49,-0.19666666666666666,-0.6855555555555556,0.013861621601027965,-0.07935916293845456,1.5005257890281296
1589544022.4257703,-2.2631281558862972,-1.8484729235302884,9.093965697068025,0.49,-0.19666666666666666,-0.6855555555555556,0.006287044922676087,-0.08844865495247682,1.4793169743287442
1589544022.4357703,-2.7669077939086577,-1.926546103045671,9.23182628807089,0.51,-0.19,-0.7,0.016005427202066245,-0.07344269696264315,1.4471754138374162
1589544022.4457703,-2.572386313554229,-1.8009163027364878,8.9149901839016,0.51,-0.19,-0.7,0.01799475261707654,-0.061338919659735716,1.4460526002099967
1589544022.4557703,-2.3669338842975205,-1.5971570247933884,8.427735537190081,0.51,-0.19,-0.7,0.022907446432425576,-0.04618090716046567,1.4362058384957017
1589544022.4657702,-2.7397978227060653,-1.7410886469673406,9.464556765163296,0.51,-0.19,-0.7,0.009904421175598655,-0.08958765889544085,1.394719613085243
1589544022.4757702,-2.9970182174829407,-1.8027996076876527,9.280242899772542,0.507680835820065,-0.1926504733484972,-0.7014356730637693,-0.016083568167881375,-0.12956971392985533,1.3539378424218564
1589544022.4857702,-2.970760626865049,-2.091633104484464,8.930141691533983,0.48725826533948235,-0.21599055389773447,-0.7140782166946061,0.05361339625790618,-0.002587573263694465,1.3558473482965354
1589544022.4957702,-1.9473926653210631,-1.3869007218364067,8.483184290650337,0.4866666666666667,-0.21666666666666667,-0.7144444444444444,0.03572324341093624,-0.03161701989013276,1.33798444879635
1589544022.5057702,-1.940218261434778,-1.681051281174096,10.03285553008792,0.4866666666666667,-0.21666666666666667,-0.7144444444444444,-0.01905918082561775,-0.12161671685018573,1.2886802669834514
1589544022.5157702,-2.9756204904938297,-1.2777741691975493,8.447958148271685,0.4866666666666667,-0.21666666666666667,-0.7144444444444444,0.047299635295188346,0.013248951135235734,0.7359404782563621
1589544022.5257702,-2.961230388109001,-1.3871180842279107,8.981288191577208,0.4865712450683549,-0.21833654463712268,-0.7144444444444444,-0.013183649325035613,-0.05890486225480863,0.7196807881715243
1589544022.5357702,-2.32,-1.1,9.01,0.4844444444444445,-0.25555555555555554,-0.7144444444444444,-0.015271630954950384,-0.05890486225480863,0.6894050545377601
1589544022.5457702,-2.3608764499205854,-1.1345877653174183,9.038299080714252,0.4844444444444445,-0.25555555555555554,-0.7144444444444444,-0.011155696507022764,-0.047929037060334974,0.5967965294593887
1589544022.5557702,-2.460297193877551,-1.2168647959183674,9.021054846938775,0.4844444444444445,-0.25555555555555554,-0.7144444444444444,-0.002181661564992912,-0.0165099465116109,0.3548181740010025
1589544022.5657701,-2.48,-1.23,8.87,0.4844444444444445,-0.25555555555555554,-0.7144444444444444,-0.002181661564992912,-0.002181661564992912,0.2781618495365963
1589544022.5757701,-2.485773456802523,-1.224226543197477,8.835359259184862,0.4844444444444445,-0.25555555555555554,-0.7144444444444444,0.004745989276773244,0.0003374841956493265,0.23722573092615992
1589544022.5857701,-2.7619219437535873,-1.2999770422804668,9.153901281806007,0.462228599366537,-0.25999872457113704,-0.7082240078226304,-0.010248049468419255,-0.020501107534271062,0.1296129852191538
1589544022.5957701,-2.942818403412553,-1.3594649603900062,9.076111517367458,0.4566666666666666,-0.2611111111111111,-0.7066666666666667,0.0012905837685660384,0.004679803651342657,0.06062865408001874
1589544022.60577,-3.213823297396792,-1.393823297396792,8.904409676571127,0.4566666666666666,-0.2611111111111111,-0.7066666666666667,0.0026737735851094214,-0.001988908926066376,0.05660550302189975
1589544022.61577,-3.222695920915287,-1.4175279887021837,9.12763994351092,0.4566666666666666,-0.2611111111111111,-0.7066666666666667,-0.01609280713561315,-0.027037752086062815,0.06839162281963454
1589544022.62577,-3.167540557924578,-1.408770278962289,9.083851394811445,0.45571021697066905,-0.2667131736162396,-0.7066666666666667,-0.013527788124585965,-0.015960036468901203,0.08788408118150157
1589544022.63577,-3.192385354803159,-1.4078491397783628,9.010173268842221,0.4488888888888889,-0.30666666666666664,-0.7066666666666667,-0.0005771057853151213,-0.011035069401232132,0.12230648790798168
1589544022.64577,-3.3113248324728923,-1.4286911436221357,8.860654428188932,0.4488888888888889,-0.30666666666666664,-0.7066666666666667,-0.001769879036058028,-0.006043532683960261,0.16258689119257247
1589544022.65577,-2.9948956376384968,-1.3666462034585287,8.891676898270736,0.4488888888888889,-0.30666666666666664,-0.7066666666666667,-0.013275569242922282,-0.023640470647399707,0.17544619201200898
1589544022.66577,-3.3132441122431935,-1.4402705862702523,9.123244112243194,0.4488888888888889,-0.30666666666666664,-0.7066666666666667,-0.011468481407858389,-0.02511862438070969,0.19245784215239642
1589544022.67577,-3.120587940537832,-1.3702137965592118,8.930587940537832,0.4488888888888889,-0.30666666666666664,-0.7066666666666667,-0.007647476270874185,-0.017476614106741284,0.21156286783731748
1589544022.68577,-2.7188068608248366,-1.32,9.217483754050045,0.42777777777777776,-0.37333333333333335,-0.7066666666666667,-0.008899968326860465,-0.02226441757067205,0.20780680838203486
1589544022.69577,-2.5038287356532245,-1.32,9.27890607552765,0.42777777777777776,-0.37333333333333335,-0.7066666666666667,0.0019877525106660326,-0.004676560833129242,0.19440653658200224
1589544022.70577,-3.235388920220381,-1.394500021691033,8.796166760661142,0.42777777777777776,-0.37333333333333335,-0.7066666666666667,0.003884561469905278,0.01659273298761506,0.15746748783082112
1589544022.71577,-3.202405762304922,-1.42978031212485,9.073284513805522,0.42777777777777776,-0.37333333333333335,-0.7066666666666667,-0.02090892134394182,-0.030551249986459264,0.17621310579424937
1589544022.72577,-2.574254308828702,-1.2813489271895886,9.042075272599366,0.4268439051080627,-0.37531637159495057,-0.7059287919646695,-0.021578919670415732,-0.035748400986702344,0.20605382933015712
1589544022.73577,-2.9312050723510192,-1.3951493698459623,9.193326590944453,0.3377777777777778,-0.5644444444444444,-0.6355555555555555,0.002016517897438991,-0.006213594139070173,0.1915559616070955
1589544022.74577,-2.651327074887988,-1.329036341654221,9.06111371879667,0.3377777777777778,-0.5644444444444444,-0.6355555555555555,-0.0014225562946189839,0.006003021545379118,0.1428238917107985
1589544022.75577,-2.447126737305628,-1.3155800192651714,9.138839961469657,0.3377777777777778,-0.5644444444444444,-0.6355555555555555,-0.017085679393985705,-0.012312562946782964,0.016471139525602523
1589544022.76577,-2.61,-1.3580666653328266,9.013266641323703,0.3377777777777778,-0.5644444444444444,-0.6355555555555555,-0.009606582945686063,0.003767001138225942,-0.10029826860688143
1589544022.77577,-2.551197756468247,-1.3441197756468248,8.884255925456849,0.33377595842631125,-0.5840043573970206,-0.6115446394467563,-0.011051840787977142,-0.005276970388873416,-0.1936680056342212
1589544022.78577,-1.033448525420662,-1.1923448525420661,9.510327483263977,0.23048469131335064,-1.088866775224655,0.008202963231007332,-0.0710676156114445,-0.05701470730565564,-0.377854349057966
1589544022.79577,-1.6008443215302814,-1.2127891089271898,8.903761502625644,0.2288888888888889,-1.096666666666667,0.017777777777777778,0.018167853392544106,0.06264572570374917,-0.6279003492890357
1589544022.80577,-1.8839303998551369,-1.330166263354569,8.938284195104284,0.2288888888888889,-1.096666666666667,0.017777777777777778,0.034737556278702675,0.07695592365088613,-0.7642238139433404
1589544022.81577,-2.4760614415124063,-1.5485821189444664,9.178188263095707,0.2288888888888889,-1.096666666666667,0.017777777777777778,-0.006175502823002783,0.07315440324065343,-0.9652473312524981
1589544022.82577,-1.8916714508737473,-1.3468865723254604,7.947311611354518,0.2288888888888889,-1.096666666666667,0.017777777777777778,0.02019530245537105,0.12274619570648354,-1.0887173859791732
1589544022.83577,-1.779628783746932,-1.5228306517589312,8.849141668939188,0.9644496712420083,-0.7653905326788475,-0.3992833606035815,-0.031978305282851616,0.006909425399207247,-1.3578287211674933
1589544022.84577,-2.380951285001918,-1.8615650172612197,10.04380130418105,1.1244444444444444,-0.6933333333333334,-0.49,-0.05178705541129223,0.00012803767527576337,-1.5577067758287146
1589544022.8557699,-2.5104189837920052,-1.8193495413280099,8.50934954132801,1.1244444444444444,-0.6933333333333334,-0.49,0.027458381672609767,0.1417418436334482,-1.723335886397277
1589544022.8657699,-2.528149223151784,-1.9509253884241078,8.716779921461498,1.1244444444444444,-0.6933333333333334,-0.49,0.0045389511695784765,0.10204212593066342,-1.8774315230430554
1589544022.8757699,-2.2524937399942533,-2.0912468699971263,9.363989983990804,1.113721362469156,-0.6850762831301397,-0.4957633102089405,-0.029754389888611357,0.0502271580762486,-2.042486741281594
1589544022.8857698,-2.3385801075489514,-2.1342900537744756,9.501728172078321,0.7435499819839543,-0.40003475500458385,-0.6947184707797983,-0.0025217485808403974,0.12722979901546305,-2.208699758918679
1589544022.8957698,-1.7227763272410792,-2.263623440673049,9.10930180833575,0.6944444444444444,-0.3622222222222222,-0.7211111111111111,-0.01246369897552159,0.11447478444689357,-2.536743598741369
1589544022.9057698,-2.148655352480418,-2.5272628372497823,9.562220771685524,0.6944444444444444,-0.3622222222222222,-0.7211111111111111,-0.027949097320543445,0.09161538688995656,-2.742478176753802
1589544022.9157698,-1.9848849686668382,-2.577782856897588,8.781582110052364,0.6944444444444444,-0.3622222222222222,-0.7211111111111111,0.026644564896753452,0.22321086259681375,-2.9919331095944766
1589544022.9257698,-1.750848141471371,-2.370750278993905,7.305349815434801,0.6944444444444444,-0.3622222222222222,-0.7211111111111111,-0.009685816978927023,0.15840531654830264,-3.193223063230003
1589544022.9357698,-2.216306730023274,-3.073728180760279,10.216513770364624,0.6144444444444445,-0.2255555555555556,-0.7566666666666667,-0.09403560074970978,0.0183694761319683,-3.409682407223034
1589544022.9457698,-2.3465815942138177,-3.057635990356362,8.263214231899344,0.6144444444444445,-0.2255555555555556,-0.7566666666666667,0.001343136252417659,0.20898501111064474,-3.4509990016558674
1589544022.9557698,-2.465082498304829,-3.2551374971747156,8.42911549762676,0.6144444444444445,-0.2255555555555556,-0.7566666666666667,-0.0124450700341035,0.16675862935817365,-3.487193043157986
1589544022.9657698,-2.267637278588686,-3.3919019571402025,8.422303821355559,0.6144444444444445,-0.2255555555555556,-0.7566666666666667,-0.03552899905854302,0.13832803803749777,-3.4830761625959195
1589544022.9757698,-2.189686342906975,-3.4038944087835423,8.752096241547413,0.6144444444444445,-0.2255555555555556,-0.7566666666666667,-0.039453519681589715,0.13701986449648218,-3.476535294890842
1589544022.9857697,-1.7013506362115258,-3.1696521265418887,9.392684151134285,0.6162247990626527,-0.1311967607905193,-0.7682389716850202,-0.02659476773191066,0.12062311627951675,-3.4714573524095447
1589544022.9957697,-1.719392454965944,-3.1675077577626416,9.021184059017544,0.6166666666666667,-0.10777777777777778,-0.7711111111111111,0.005321608147502033,0.169256300861986,-3.4427944953237954
1589544023.0057697,-1.9808586302976976,-3.402146575744244,8.979141369702303,0.6166666666666667,-0.10777777777777778,-0.7711111111111111,-0.0272707695624114,0.1601179699371008,-3.398738034011172
1589544023.0157697,-2.0116131397565624,-3.4790328493914062,8.948386860243437,0.6166666666666667,-0.10777777777777778,-0.7711111111111111,-0.0272707695624114,0.1517309785325238,-3.3492547847241667
1589544023.0257697,-2.1691094613998105,-3.555916048024929,8.68837778388782,0.6166666666666667,-0.10777777777777778,-0.7711111111111111,-0.004905955874659085,0.1484272347616621,-3.2493510254442097
1589544023.0357697,-2.3875224084569315,-3.6637612042284657,8.917430563929418,0.6140061229685009,-0.03239570632974709,-0.7826401338031629,-0.03200430169243778,0.11439721173912444,-3.174257706111936
1589544023.0457697,-2.18,-3.7370193150787885,8.844254828769698,0.6133333333333333,-0.013333333333333334,-0.7855555555555556,-0.024369958189763185,0.12625776717143394,-3.006795651975567
1589544023.0557697,-2.1356112207257443,-3.8557879385776785,8.855787938577679,0.6133333333333333,-0.013333333333333334,-0.7855555555555556,-0.0010271046297230077,0.13117387543793918,-2.8537332931309276
1589544023.0657697,-1.8526807432432433,-3.705026393581081,8.71373880912162,0.6133333333333333,-0.013333333333333334,-0.7855555555555556,-0.008257215893036254,0.11795017818596146,-2.7235986663209806
1589544023.0757697,-1.9235304054054054,-3.8378695101351354,9.076843327702703,0.6133333333333333,-0.013333333333333334,-0.7855555555555556,-0.02468027678142794,0.09283255565077418,-2.602840865671043
1589544023.0857697,-1.8788644871474918,-3.9177289742949837,8.87747254804093,0.6288888888888889,0.06,-0.7711111111111111,-0.009361966035028077,0.09926560120717748,-2.388044394240575
1589544023.0957696,-1.8108765847074082,-3.7804382923537037,8.801022682158644,0.6288888888888889,0.06,-0.7711111111111111,-0.006624668493504269,0.09877156165631917,-2.2248309557467154
1589544023.1057696,-1.8536415395653483,-3.794732103594325,8.885267896405674,0.6288888888888889,0.06,-0.7711111111111111,-0.012237062770079262,0.06437918821800524,-2.026531880384728
1589544023.1157696,-3.2763103825136612,-5.113261202185792,9.440999999999999,0.6288888888888889,0.06,-0.7711111111111111,-0.00940224604624568,0.07335926424647887,-1.8303688699835268
1589544023.1257696,-22.207959562841527,-22.66973005464481,14.683875,0.6288888888888889,0.06,-0.7711111111111111,0.04872620398726719,0.2889970627578977,-1.4184694229718602
1589544023.1357696,-20.139732370271812,-20.08734347082304,5.248385478045998,0.6241127795729583,0.10298498384337579,-0.7597678514857759,-0.1800027957006461,0.4864778517588021,-1.8868100666869776
1589544023.1457696,0.45871404258851856,-0.9213162591839276,12.520996845294922,0.62,0.14,-0.75,-1.0113887701772482,-0.6342768729481986,-3.327506832009698
1589544023.1557696,4.288966003901872,-0.5208808268648042,16.18585156282429,0.62,0.14,-0.75,0.20027668561698064,-0.6684617917637096,-2.33234586204704
1589544023.1657696,1.4466639973182365,0.8806663438617401,8.648496722288439,0.62,0.14,-0.75,1.0653400279070988,0.4221137676757656,-2.3217935642147185
1589544023.1757696,0.5447037834710213,0.3939985213282329,3.980810697868784,0.62,0.14,-0.75,0.1364032541116016,0.2556489522045805,-2.147978460864108
1589544023.1857696,0.9120796112796792,-1.5435383734006662,10.376625432324046,0.6077777777777778,0.22666666666666666,-0.7355555555555555,-0.40060901096934387,-0.2488659523603054,-1.6578244124668418
1589544023.1957695,-0.17367353434191246,-1.5791368371915382,6.318400560164654,0.6077777777777778,0.22666666666666666,-0.7355555555555555,0.16730752817843314,0.2763354966635362,-1.3481400090683104
1589544023.2057695,-0.10636730449251248,-3.2568764559068217,9.071541181364394,0.6077777777777778,0.22666666666666666,-0.7355555555555555,-0.007412068115225184,0.02908398079654445,-0.9970778697986583
1589544023.2157695,-0.5894468224027858,-2.7070806732443415,7.955267701683111,0.6077777777777778,0.22666666666666666,-0.7355555555555555,-0.05019495356814647,0.030615672688048205,-0.47293975995030907
1589544023.2257695,-0.5514108749274521,-3.1939408009286128,9.005059852002322,0.6077777777777778,0.22666666666666666,-0.7355555555555555,0.023658639010425572,0.035594566569749686,-0.21486709374878216
1589544023.2357695,-0.6318786885245902,-3.2493540983606555,9.064304918032786,0.6044444444444445,0.27,-0.7511111111111111,0.014927929846104778,-0.018204713986836756,0.13258422274729878
1589544023.2457695,-0.6461046919163369,-3.168740079140757,8.794010853589597,0.6044444444444445,0.27,-0.7511111111111111,0.0040652161579733375,-0.023894706871096082,0.31880217168669484
1589544023.2557695,-0.6583354318273971,-3.0897919289784244,8.538738982906164,0.6044444444444445,0.27,-0.7511111111111111,-0.006113741171946941,-0.029429734099876325,0.5038916100473197
1589544023.2657695,-0.5867282699161314,-3.0808410337395165,8.91467658294031,0.6044444444444445,0.27,-0.7511111111111111,0.012437691737306952,-0.028453342894126113,0.6415627700580987
1589544023.2757695,-0.516002020882452,-3.0352014146177164,8.93720040417649,0.6044444444444445,0.27,-0.7511111111111111,0.019765677423572867,-0.030455929314077458,0.731290531700759
1589544023.2857695,-0.4467944940055706,-3.126219270980503,8.747369717030638,0.5924535672797894,0.2773790013320954,-0.728051731948313,0.02200190673024822,-0.031634092692397225,0.8089003642552233
1589544023.2957695,-2.315721886396563,-6.89201803467053,7.852257830843783,0.59,0.2788888888888889,-0.7233333333333334,-0.07997404873966156,-0.15296033913655577,0.25557867690000646
1589544023.3057694,0.5880825592174035,-0.8023556791511348,9.574882748555313,0.59,0.2788888888888889,-0.7233333333333334,-0.066558792627238,-0.03156331121448833,-0.5470297037694717
1589544023.3157694,0.4818145332815478,-0.46799016072056077,8.836216501137436,0.59,0.2788888888888889,-0.7233333333333334,0.09094456912320487,0.14517900757719668,-0.7196536434481762
1589544023.3257694,-0.6250240673886884,-2.5839921780986765,9.222044223826714,0.59,0.2788888888888889,-0.7233333333333334,0.01193867363403292,0.05929251082936457,-0.4528557411917496
1589544023.3357694,-1.2931272992233735,-5.4932040732908,9.260810926087188,0.5953882441683895,0.2795624194099376,-0.7401715963595507,-0.06938357634005644,-0.039240422065264596,-0.22425630688374493
1589544023.3457694,-1.732960993540559,-6.252792548445808,8.42873559116377,0.5988888888888889,0.28,-0.7511111111111111,0.007200160529867411,0.006490951179897009,-0.19353567158629478
1589544023.3557694,-1.0458845447672536,-4.267958202829679,8.687164380602658,0.5988888888888889,0.28,-0.7511111111111111,0.006840989915955338,0.010027007504361394,-0.253707930454161
1589544023.3657694,-1.0597513246202754,-4.06883927940657,8.635107735782409,0.5988888888888889,0.28,-0.7511111111111111,-0.01030952610966979,0.018406642404101798,-0.18525127202977698
1589544023.3757694,-0.9493615635179153,-4.253315960912052,8.868827361563518,0.5988888888888889,0.28,-0.7511111111111111,-0.005420753882008447,0.0008236305387057906,-0.06709426547141394
1589544023.3857694,-0.7835937373770016,-3.953593737377002,9.069218787868996,0.6055555555555555,0.26666666666666666,-0.7588888888888888,0.023279581333164455,0.00130671978501377,-0.0039059712052310043
1589544023.3957694,-0.8242552228918583,-3.994255222891858,8.947234331324426,0.6055555555555555,0.26666666666666666,-0.7588888888888888,0.015147867988530546,0.016091653138893606,0.0012687554686269392
1589544023.4057693,-0.8493180582242685,-4.093862524018417,8.797501359533046,0.6055555555555555,0.26666666666666666,-0.7588888888888888,-0.020527020573743535,-0.011725986005688065,0.0012396073986640829
1589544023.4157693,-0.92354199173933,-4.044843506195503,8.624530518586507,0.6055555555555555,0.26666666666666666,-0.7588888888888888,-0.013882486237947439,0.0028663468615603305,8.805742755444096e-05
1589544023.4257693,-0.8844085270193665,-4.055197157660212,8.761971576602111,0.6055555555555555,0.26666666666666666,-0.7588888888888888,-0.004801205698852376,-0.0017151035768245794,-0.000552584246073673
1589544023.4357693,-0.8467157518964747,-4.051531682284694,8.91,0.6010783876245723,0.26778595864941246,-0.7564637562596063,0.006202791906002828,-0.006170665698218462,-0.0007245433376822734
1589544023.4457693,-0.8531761318847036,-3.973411934057648,8.930117901086472,0.5788888888888889,0.2733333333333333,-0.7444444444444445,0.008290156922971746,-0.0025667068482273436,0.0003593232563516961
1589544023.4557693,-0.8665506056251283,-4.013188257031411,8.793971669061795,0.5788888888888889,0.2733333333333333,-0.7444444444444445,-0.013023502837659186,-0.00219115678674981,0.0
1589544023.4657693,-0.8735973853590122,-4.042805229281975,8.74561045856395,0.5788888888888889,0.2733333333333333,-0.7444444444444445,-0.01863053412577708,-0.0017892476963816497,-0.0006984169138851936
1589544023.4757693,-0.8579565056005589,-4.0620434943994415,8.814195724797484,0.5788888888888889,0.2733333333333333,-0.7444444444444445,-0.009570843868102925,-0.0028385322859796093,0.0008797813804636366
1589544023.4857693,-0.8452538812419974,-4.027284931177977,8.897461187580024,0.5846897007042253,0.27016925416133164,-0.7444444444444445,0.003402495527933737,-0.004307934835211976,0.0016639403211316079
1589544023.4957693,-0.864219305019305,-3.973945173745174,8.907616216216216,0.5911111111111111,0.26666666666666666,-0.7444444444444445,0.010017701349031353,-0.0001703212233365118,-0.000230127389789986
1589544023.5057693,-0.88,-4.0133320243806665,8.798752454286252,0.5911111111111111,0.26666666666666666,-0.7444444444444445,-0.0007269349524918756,0.0009090970443734873,-0.0004999819567174858
1589544023.5157692,-0.8624969083320452,-4.055834363889318,8.753337455557274,0.5911111111111111,0.26666666666666666,-0.7444444444444445,-0.0112723677506733,0.00018202996285437067,0.0012728607453508266
1589544023.5257692,-0.862588209157191,-4.041117686264213,8.763705895421404,0.5911111111111111,0.26666666666666666,-0.7444444444444445,-0.008283907274148756,0.00040425048023806827,0.0008085009604761365
1589544023.5357692,-0.8777392901659778,-4.022260709834022,8.837392901659777,0.5816519786860271,0.2812853258690693,-0.7496039712217629,0.006365004414326727,0.0008442255947720719,0.0008442255947720719
1589544023.5457692,-0.8739845198050388,-3.9839071188302326,8.841953559415115,0.5788888888888889,0.2855555555555556,-0.7511111111111111,0.010473664139284251,-0.0015339176047681335,0.001090830782496456
1589544023.5557692,-0.8559472440058534,-3.995131889985366,8.80892086600878,0.5788888888888889,0.2855555555555556,-0.7511111111111111,0.00017788265283590066,0.001326261297708629,0.001090830782496456
1589544023.5657692,-0.8613108676497481,-4.026966301474622,8.777378264700504,0.5788888888888889,0.2855555555555556,-0.7511111111111111,-0.008681708043166834,0.002038668086580507,-0.00014299347841240486
1589544023.5757692,-0.8749318401597155,-4.049863680319431,8.789591040958292,0.5788888888888889,0.2855555555555556,-0.7511111111111111,-0.01038519768929004,0.0021667913946104385,-1.4870170382473482e-05
1589544023.5857692,-0.8746454395799037,-4.0278726374794225,8.846772802100482,0.5895980097290815,0.2825807997666132,-0.7439716972176493,3.4732739495606235e-05,0.0015202165475959176,0.0005067388491986391
1589544023.5957692,-0.8566815778771858,-4.0,8.903296055307035,0.5988888888888889,0.28,-0.7377777777777778,0.011267851683937059,0.001452814482584747,0.0007264072412923735
1589544023.6057692,-0.8723251768526035,-3.985116548764931,8.808374115736981,0.5988888888888889,0.28,-0.7377777777777778,0.005784072349308298,0.002181661564992912,0.001090830782496456
1589544023.6157691,-0.88,-4.04643829401089,8.784764065335752,0.5988888888888889,0.28,-0.7377777777777778,-0.005585310971176272,0.00137640671784149,-0.0005196789118063878
1589544023.6257691,-0.8921623743718593,-4.0578376256281405,8.77175643844221,0.5988888888888889,0.28,-0.7377777777777778,-0.008726646259971648,0.00042747616484295004,0.0002358784528105559
1589544023.6357691,-0.8787066459988374,-4.021608861331783,8.823880062003488,0.5902138187402671,0.2650157879251078,-0.7425096342224806,-0.00020991605738217463,-0.0007742482002354068,0.0003165825822610492
1589544023.6457691,-0.8571253052055865,-3.9906879578083796,8.862874694794414,0.5866666666666667,0.2588888888888889,-0.7444444444444445,0.006783520696737655,-0.00038862511264679865,0.0007022056698496573
1589544023.655769,-0.8648530609687324,-3.9874265304843663,8.81058775612507,0.5866666666666667,0.2588888888888889,-0.7444444444444445,0.005486211036173666,-0.0008101088059494954,-0.0005293868294025349
1589544023.665769,-0.87,-4.003794527831173,8.776205472168828,0.5866666666666667,0.2588888888888889,-0.7444444444444445,-0.004665174222962432,0.0004139187763282533,-0.00033845600308410133
1589544023.675769,-0.8644061350718824,-4.032375459712471,8.79237545971247,0.5866666666666667,0.2588888888888889,-0.7444444444444445,-0.012387822294002506,-0.001349953240190783,0.0006101960056718097
1589544023.685769,-0.8532834186713039,-4.036566837342608,8.850299487972176,0.5993535425097593,0.26859061747478324,-0.739966723558647,-0.007212311921819467,-0.00034183088089630685,0.00035816541584819065
1589544023.695769,-0.8552442308009978,-4.0090230767960096,8.875244230800998,0.6055555555555555,0.2733333333333333,-0.7377777777777778,0.0030201328795794466,-0.0011973965728012948,0.0005720568388244377
1589544023.705769,-0.8700327993897788,-3.9849836003051107,8.844885202135774,0.6055555555555555,0.2733333333333333,-0.7377777777777778,0.009273850580420767,-0.0016308793861420127,-3.577858401780914e-06
1589544023.715769,-0.8702630159158349,-3.9946054761262477,8.81,0.6055555555555555,0.2733333333333333,-0.7377777777777778,0.003444635861856897,-0.0005310700983842673,0.000502379512656346
1589544023.725769,-0.86,-4.027166427974699,8.81,0.6055555555555555,0.2733333333333333,-0.7377777777777778,-0.004770545792314135,-0.0003418040600840727,0.0014326348425805287
1589544023.735769,-0.8691699059272718,-4.050830094072728,8.828339811854544,0.6024989202464649,0.27893716473333285,-0.7408344130868684,-0.005635252345862214,0.0005906899995932116,0.0005001407829032443
1589544023.745769,-0.8733408128551264,-4.0200224385653796,8.863318374289747,0.5988888888888889,0.2855555555555556,-0.7444444444444445,0.002538744711736802,-0.0014528092648065426,0.0018172354148997274
1589544023.755769,-0.87,-3.995556021635942,8.819446075725798,0.5988888888888889,0.2855555555555556,-0.7444444444444445,0.00702974753460499,-0.0013938647539315572,0.0013938647539315572
1589544023.765769,-0.8632035463783884,-3.9967964536216116,8.806796453621612,0.5988888888888889,0.2855555555555556,-0.7444444444444445,0.0024461689018907655,0.00039192538195623725,0.001090830782496456
1589544023.775769,-0.8657613776137761,-4.040329643296433,8.81,0.5988888888888889,0.2855555555555556,-0.7444444444444445,-0.006284688050692988,-0.00016610682764214174,-0.00016610682764214174
1589544023.785769,-0.87,-4.07,8.836291259735443,0.5857432590211673,0.2819039917034107,-0.7488263210670183,-0.008757359167712229,0.001060117874755874,0.0017771007605066507
1589544023.795769,-0.876311934863549,-4.038440325682255,8.831064195409354,0.5788888888888889,0.28,-0.7511111111111111,-0.0007505626312034244,-0.0005724395735157949,0.001206916493607838
1589544023.805769,-0.8457839013363092,-3.9994703408017855,8.833686439465476,0.5788888888888889,0.28,-0.7511111111111111,0.006258410241832544,-0.0036746205121645,0.001492958947171588
1589544023.815769,-0.8558555864578323,-3.983536103385542,8.820608310156626,0.5788888888888889,0.28,-0.7511111111111111,0.004815408516704991,-0.0015429161692156225,0.0007714580846078112
1589544023.825769,-0.8649248859604662,-4.015525798276736,8.804924885960467,0.5788888888888889,0.28,-0.7511111111111111,-0.0017099892096136028,-0.0005536090619003301,0.0011072181238006601
1589544023.835769,-0.8549210140131787,-4.05,8.805078985986821,0.5817105477704563,0.269277696250044,-0.7511111111111111,-0.007653047546637294,-0.002198893634155015,0.002181661564992912
1589544023.845769,-0.8634137912414277,-4.045528736252857,8.832356318735712,0.5844444444444444,0.2588888888888889,-0.7511111111111111,-0.004824732554336792,-0.003272492347489368,0.0007184439253798409
1589544023.855769,-0.866621782650143,-4.0221623768668575,8.833243565300286,0.5844444444444444,0.2588888888888889,-0.7511111111111111,0.0034051199700355092,-0.0022996009274792225,-0.0006043850724913832
1589544023.865769,-0.8588931952474744,-4.004446597623737,8.81778639049495,0.5844444444444444,0.2588888888888889,-0.7511111111111111,0.005210572694801119,-0.0025459764521009,0.0
1589544023.875769,-0.87,-4.012127575277337,8.835744849445325,0.5844444444444444,0.2588888888888889,-0.7511111111111111,0.0005570843417741409,-0.0036670757486063506,0.0
1589544023.885769,-0.8664399664147775,-4.023560033585222,8.82,0.5852355630189383,0.26403115962309914,-0.7487377553876294,-0.00700751160107505,-0.0007024913603482633,0.00038833942214819257
1589544023.895769,-0.8648526790792916,-4.039705358158583,8.829705358158582,0.5866666666666667,0.2733333333333333,-0.7444444444444445,-0.006112060840380582,-0.0010586903434535776,0.002149521125950034
1589544023.9057689,-0.8652135987852202,-4.021281592711321,8.8160679939261,0.5866666666666667,0.2733333333333333,-0.7444444444444445,0.0014731460827292699,-0.001659546186746886,0.0011840308345052643
1589544023.9157689,-0.86,-3.99,8.825158606965173,0.5866666666666667,0.2733333333333333,-0.7444444444444445,0.004974752778140952,-0.001090830782496456,-0.001090830782496456
1589544023.9257689,-0.8553617687210735,-4.003914693836779,8.85608530616322,0.5866666666666667,0.2733333333333333,-0.7444444444444445,0.0023395129478294453,-0.0005848782369573613,-7.89256914182667e-05
1589544023.9357688,-0.8568844345459045,-4.0337688690918085,8.84,0.5908738211113861,0.2733333333333333,-0.7394723528279579,-0.002252925936826385,0.0007509753122754616,0.001090830782496456
1589544023.9457688,-0.87,-4.054911799891245,8.829823599782491,0.5988888888888889,0.2733333333333333,-0.73,-0.005989948164365585,0.001071588503766611,0.0005357942518833055
1589544023.9557688,-0.8595650533577665,-4.029130106715533,8.7886951600733,0.5988888888888889,0.2733333333333333,-0.73,-0.0009010495080597541,-0.0011382761011056314,-0.0005691380505528157
1589544023.9657688,-0.8589264369512285,-4.005536781524386,8.791242529329299,0.5988888888888889,0.2733333333333333,-0.73,0.005219938788372143,-0.0016947999547722182,-0.001090830782496456
1589544023.9757688,-0.87,-4.005949370245666,8.8389240553685,0.5988888888888889,0.2733333333333333,-0.73,0.0053644008073206444,-0.001090830782496456,-0.00044185516245229934
1589544023.9857688,-0.87,-4.028628429448365,8.84849542740218,0.596651888661535,0.27141590456702996,-0.7341544289936572,-0.0018824312893751217,-0.0007770922342672691,0.001090830782496456
1589544023.9957688,-0.8720113627599682,-4.052011362759968,8.826034088279904,0.5911111111111111,0.26666666666666666,-0.7444444444444445,-0.006764390336312761,0.00021940564133402586,0.001090830782496456
1589544024.0057688,-0.88,-4.045189021232522,8.82334023821854,0.5911111111111111,0.26666666666666666,-0.7444444444444445,-0.005697062890459223,-0.00020167094218085692,0.001090830782496456
1589544024.0157688,-0.8741840875886077,-3.9983681751772155,8.78326364964557,0.5911111111111111,0.26666666666666666,-0.7444444444444445,0.0008124221034985148,-0.0029552835331568728,0.001090830782496456
1589544024.0257688,-0.8608927903099588,-3.9726783709298767,8.842678370929876,0.5911111111111111,0.26666666666666666,-0.7444444444444445,0.005161988966756986,-0.002181661564992912,0.001090830782496456
1589544024.0357687,-0.864653890865537,-4.005346109134463,8.867326945432767,0.5949721899304454,0.268448703044821,-0.7462264808225988,0.00043215144185560785,-0.001598491523947144,0.001090830782496456
1589544024.0457687,-0.850242488139167,-4.02036373220875,8.859151291512914,0.6055555555555555,0.2733333333333333,-0.7511111111111111,-0.004376548806315512,1.3225676329688185e-05,0.0010643794298370796
1589544024.0557687,-0.867107337780473,-4.044214675560946,8.781322013341418,0.6055555555555555,0.2733333333333333,-0.7511111111111111,-0.004191991915512457,0.001090830782496456,-0.0007752902832540002
1589544024.0657687,-0.8568743860752033,-4.023748772150407,8.772502455699186,0.6055555555555555,0.2733333333333333,-0.7511111111111111,0.0009548787475242048,0.001090830782496456,0.0
1589544024.0757687,-0.8546266086298259,-4.01,8.818506434519303,0.6055555555555555,0.2733333333333333,-0.7511111111111111,0.003940099778888931,0.0005861460712986729,0.0010093694223955662
1589544024.0857687,-0.8522513867444387,-4.017748613255561,8.84387430662778,0.5999593348709835,0.27591620441852044,-0.754124460710496,-0.00035406619325498287,-0.0008452425860826316,0.0013364189789102803
1589544024.0957687,-0.8550945293151222,-4.040063019543415,8.865094529315122,0.5911111111111111,0.28,-0.7588888888888888,-0.006009880852408872,-0.0005351038425698634,0.0021954102965640646
1589544024.1057687,-0.87,-4.05,8.797878888310214,0.5911111111111111,0.28,-0.7588888888888888,-0.006516062520924571,0.001090830782496456,0.0026836936951598923
1589544024.1157687,-0.859416685227807,-4.023541713069518,8.783499888633157,0.5911111111111111,0.28,-0.7588888888888888,-0.0014135419754571464,0.001090830782496456,0.001668061059214332
1589544024.1257687,-0.8544955766099767,-4.008991153219953,8.844495576609976,0.5911111111111111,0.28,-0.7588888888888888,0.0046336182406097135,0.00011004811224973551,0.0031624442352396324
1589544024.1357687,-0.86,-4.02396458660574,8.85,0.589349072619671,0.27735694226283975,-0.7474356386945277,0.0041760609899433795,-0.00022589216061350286,0.002200976575278441
