time,acc_x,acc_y,acc_z,mag_x,mag_y,mag_z,gyr_x,gyr_y,gyr_z
1589541830.3323104,-0.18,-4.0,8.73,0.4066666666666667,0.3322222222222222,-0.6177777777777778,-0.0643590161672909,-0.09708393964218458,-0.011999138607461015
1589541830.3423104,-0.232937167378363,-4.379383032878268,8.782937167378362,0.4066666666666667,0.3322222222222222,-0.6177777777777778,0.06460591532839363,0.039580390748764696,0.020723306697414155
1589541830.3523104,-0.09150623972138919,-4.4047112314985,8.699614975331334,0.4388888888888889,0.3511111111111111,-0.6177777777777778,0.0654634599101184,0.04250040084130165,-0.05480715014151464
1589541830.3623104,-0.05347978990637132,-4.323040420187257,8.591300525234072,0.4388888888888889,0.3511111111111111,-0.6177777777777778,-0.006109798264967017,0.030495334108450137,-0.04710318917858418
1589541830.3723104,-0.0754215000234819,-4.285933874982389,8.552710750011741,0.4388888888888889,0.3511111111111111,-0.6177777777777778,0.06980051638122076,0.015035411505455658,-0.11803687632897521
1589541830.3823104,-0.10903111245442697,-4.263875550182292,8.583564425638023,0.4388888888888889,0.3511111111111111,-0.6177777777777778,-0.010790996688240672,-0.04168913869592095,-0.031769846384429
1589541830.3923104,-0.10110792073596918,-4.295568317056123,8.694489109696432,0.4388888888888889,0.3511111111111111,-0.6177777777777778,0.07045190067963798,0.0188108912588823,0.0028015993040299975
1589541830.4023104,-0.12340416219883144,-4.3151062432982465,8.785106243298246,0.4188888888888889,0.3511111111111111,-0.6255555555555555,0.006336376466687239,-0.029406073743339537,-0.00823893888930869
1589541830.4123104,-0.13920101659915815,-4.337603049797474,8.804407116194108,0.4188888888888889,0.3511111111111111,-0.6255555555555555,-0.04027635572767253,-0.010177188694356378,-0.0689782613155036
1589541830.4223104,-0.13087304423794774,-4.312619132713843,8.746111309665634,0.4188888888888889,0.3511111111111111,-0.6255555555555555,-0.01665689334846377,0.07703313393656828,-0.11712562693465993
1589541830.4323103,-0.10465505602808155,-4.191723594797714,8.824483146573062,0.4188888888888889,0.3511111111111111,-0.6255555555555555,-0.004965118484048379,0.11382267688243664,-0.19221222847148522
1589541830.4423103,-0.08250099860195725,-4.065005991611743,8.84,0.4188888888888889,0.3511111111111111,-0.6255555555555555,-0.010907872102662782,0.06736174194469315,-0.10677067276147599
1589541830.4523103,-0.1314094253330682,-3.8517065022867367,8.84734420361901,0.41480877576721675,0.3511111111111111,-0.5937306732065133,-0.0007833418747082311,0.031155072867369352,0.005017040730361189
1589541830.4623103,-0.10983502808789021,-4.120371186802247,8.749381355329588,0.4133333333333333,0.3511111111111111,-0.5822222222222222,0.01657840946541883,0.07499738933229048,-0.20418990164244868
1589541830.4723103,-0.08000995520159283,-4.1874776007964165,8.637537332005973,0.4133333333333333,0.3511111111111111,-0.5822222222222222,0.05561933857890715,0.02619622794043007,-0.04395942173917369
1589541830.4823103,-0.05410158970175683,-4.167906726885657,8.64,0.4133333333333333,0.3511111111111111,-0.5822222222222222,-0.14966052489512097,-0.020693446914229988,0.19361201374247186
1589541830.4923103,-0.29610771771353533,-3.617134159686437,8.64,0.4133333333333333,0.3511111111111111,-0.5822222222222222,0.015104233214646878,0.09218406692892592,0.03430907081866316
1589541830.5023103,-0.40746791011390615,-3.508605595512578,8.746330224715235,0.4133333333333333,0.3588888888888889,-0.6111111111111112,-0.0852909999227876,-0.042818608676541685,0.27772144805202187
1589541830.5123103,-0.3930341718572559,-3.443653773357652,8.78241457035686,0.4133333333333333,0.3588888888888889,-0.6111111111111112,-0.055375944528771016,-0.04439308527622677,0.3249557460425744
1589541830.5223103,-0.3542991667231218,-2.979172142808753,8.803471309531876,0.4133333333333333,0.3588888888888889,-0.6111111111111112,0.029524261458722417,-0.1687072784108847,0.45073991079121667
1589541830.5323102,-0.5034765598536685,-2.8513058058397127,8.824782365693382,0.4133333333333333,0.3588888888888889,-0.6111111111111112,0.0031779379144425447,0.00099404088903568,0.5793719610368183
1589541830.5423102,-0.5803305490475705,-2.811933890190486,8.934859427523683,0.4133333333333333,0.3588888888888889,-0.6111111111111112,-0.0067919966975752135,0.03550339181719009,0.663657803449303
1589541830.5523102,-0.5823410185515518,-2.8559538886906886,8.929364074206207,0.4175883230269156,0.3529319033178737,-0.6060051234788124,-0.04606721801954296,-0.03302146755490163,1.025539569117027
1589541830.5623102,-0.5185061176470589,-2.9824082352941175,8.790579529411765,0.4188888888888889,0.3511111111111111,-0.6044444444444445,-0.028221820005108426,0.012857481266949161,1.127229957712684
1589541830.5723102,-0.5087928555053042,-3.1136214334840875,8.678792855505304,0.4188888888888889,0.3511111111111111,-0.6044444444444445,-0.06273990054511061,-0.11890055529211367,1.4129476721682044
1589541830.5823102,-0.5000512702944916,-3.1398461891165255,8.670051270294492,0.4188888888888889,0.3511111111111111,-0.6044444444444445,-0.00361924108333557,-0.11890055529211367,1.4863717169836344
1589541830.5923102,-0.5422025869921662,-3.249726726179632,8.712202586992166,0.4188888888888889,0.3511111111111111,-0.6044444444444445,0.00041037813187378,-0.07286467430007433,1.5567768956505692
1589541830.6023102,-0.5718486092493297,-3.2673944369973187,8.79630278150134,0.4188888888888889,0.34444444444444444,-0.5966666666666667,-0.0911439109093988,-0.07138032542982757,1.5390423076033093
1589541830.6123102,-0.589418565683646,-3.337674262734584,8.761162868632708,0.4188888888888889,0.34444444444444444,-0.5966666666666667,-0.09689366570710099,-0.11737836381144502,1.6415796014956652
1589541830.6223102,-0.5723887503017623,-3.3923887503017625,8.713981250502938,0.4188888888888889,0.34444444444444444,-0.5966666666666667,-0.12664368071017001,-0.08679385996569693,1.7828339226140284
1589541830.6323102,-0.5977023819103564,-3.4177023819103565,8.756170636517261,0.4188888888888889,0.34444444444444444,-0.5966666666666667,-0.08154262937030132,-0.07022612682043904,1.729449004701531
1589541830.6423101,-0.6468846815834768,-3.4590705679862306,8.822512908777968,0.4188888888888889,0.34444444444444444,-0.5966666666666667,-0.05869645912768795,-0.11901320563109782,1.8874094920380804
1589541830.6523101,-0.6999195864445721,-3.450040206777714,8.810060310166572,0.43884868211117495,0.32004914161720593,-0.6177353372901908,-0.12203489244859764,-0.0862699282174301,1.964522644029464
1589541830.6623101,-0.7,-3.3962200289849753,8.848414265010732,0.4388888888888889,0.32,-0.6177777777777778,-0.04590874541516042,-0.09455632436935657,1.9729669318282537
1589541830.67231,-0.6338905177691143,-3.502774752714502,8.671115765054612,0.4388888888888889,0.32,-0.6177777777777778,-0.05999477923763549,-0.02290927403176475,1.9713737323449474
1589541830.68231,-0.6941503615482774,-3.51,8.617233092301149,0.4388888888888889,0.32,-0.6177777777777778,-0.041961722199924806,-0.0823011178022321,1.8405071376788384
1589541830.69231,-0.8124793388429752,-3.5628453364817,8.718902007083825,0.4388888888888889,0.32,-0.6177777777777778,-0.010757626359141553,-0.07196392262613573,1.934867217863026
1589541830.70231,-0.9602082000581564,-3.640104100029078,8.738246583309103,0.47136376853736556,0.28103014442182805,-0.6298398759329262,-0.059029773322603646,-0.07895641917479304,1.9384385908636517
1589541830.71231,-0.9107751374909204,-3.5510335166545604,8.71,0.4777777777777778,0.2733333333333333,-0.6322222222222222,-0.013295639155631027,-0.024485794925849937,1.999650500696622
1589541830.72231,-0.936888865829615,-3.585851821106153,8.71,0.4777777777777778,0.2733333333333333,-0.6322222222222222,-0.05697364918928148,-0.07765902453203309,2.078460823148643
1589541830.73231,-0.9300711342747474,-3.450320104236363,8.730426805648484,0.4777777777777778,0.2733333333333333,-0.6322222222222222,0.01848204693717179,-0.12431979124913271,2.0038794260829644
1589541830.74231,-0.9448413564813184,-3.516786104165933,8.819048138887911,0.4777777777777778,0.2733333333333333,-0.6322222222222222,0.00559259649937939,-0.11706947537787452,2.008712969997137
1589541830.75231,-1.1105125276064276,-3.5835041758688093,8.86,0.5044444444444445,0.2344444444444445,-0.6177777777777778,-0.07668449297625271,-0.12943572715906188,2.0429043893194665
1589541830.76231,-1.22,-3.62,8.86,0.5044444444444445,0.2344444444444445,-0.6177777777777778,-0.06872233929727672,-0.20507618710933373,2.1314833489980747
1589541830.77231,-1.2435324160307637,-3.634119449618458,8.779989785495403,0.5044444444444445,0.2344444444444445,-0.6177777777777778,-0.04305245550440663,-0.17940630331646365,2.1078670559086343
1589541830.78231,-1.3495565660364457,-3.5916585182399396,8.716518855345482,0.5044444444444445,0.2344444444444445,-0.6177777777777778,-0.006081076728775671,-0.1094574790915712,1.9164179057569306
1589541830.79231,-1.4108461925392266,-3.475923347774587,8.74,0.5044444444444445,0.2344444444444445,-0.6177777777777778,-0.07030374214759307,-0.05111810152569654,1.7943829718843654
1589541830.80231,-1.4033859175077485,-3.4304732575697368,8.753543670030995,0.5067017227829435,0.21638621773645222,-0.6275593172446069,-0.1301517687167099,-0.03764688234853421,1.8789188758271538
1589541830.81231,-1.4908733736133755,-3.506174674722675,8.78,0.5111111111111111,0.1811111111111111,-0.6466666666666666,0.016993156585189267,-0.12657734536021686,1.904776309340323
1589541830.82231,-1.5997188307568513,-3.4288753230274054,8.65224935394519,0.5111111111111111,0.1811111111111111,-0.6466666666666666,0.06829294800555172,0.008997433865202107,1.8854503593585206
1589541830.83231,-1.5932284171270292,-3.4029136685081163,8.704172662983767,0.5111111111111111,0.1811111111111111,-0.6466666666666666,0.05838102783558925,-0.11065360247220188,1.8465106729765255
1589541830.84231,-1.5961213229956153,-3.3777573540087698,8.803455875947382,0.5111111111111111,0.1811111111111111,-0.6466666666666666,0.054786173852970424,-0.08403207663290323,1.813786905575123
1589541830.85231,-1.7662131361056843,-3.4830249325518654,8.856648525444227,0.5199758117034143,0.14565230874189844,-0.6510990169628182,0.02952367154133235,-0.02220001491463017,1.8945296644487568
1589541830.86231,-1.883469849246231,-3.5309463225216993,8.808422795797169,0.5244444444444445,0.12777777777777774,-0.6533333333333333,0.014641998842714533,-0.08778621431563415,1.8255653874410438
1589541830.87231,-1.9888542713567838,-3.55968752855185,8.760520785746916,0.5244444444444445,0.12777777777777774,-0.6533333333333333,-0.03761098826355415,-0.004181434945604287,1.9102152265531993
1589541830.88231,-2.01776535938964,-3.56,8.778510239593093,0.5244444444444445,0.12777777777777774,-0.6533333333333333,-0.0038534608501735387,-0.06586626368003497,2.0514667279535304
1589541830.89231,-2.0343840822714063,-3.5168477531857816,8.78,0.5244444444444445,0.12777777777777774,-0.6533333333333333,0.04127378846045443,-0.058351521086580475,1.9050704825187035
1589541830.90231,-1.9605763688760807,-3.4205763688760804,8.83956772334294,0.5112071725904579,0.10130323406980468,-0.6676737111751522,-0.08513824231225221,-0.10326740981270485,1.9128142157691022
1589541830.91231,-2.037457738929661,-3.428606415436629,8.788361507380225,0.5111111111111111,0.10111111111111112,-0.6677777777777778,-0.1143400604729028,-0.058565838488070836,1.8907856495742374
1589541830.9223099,-2.16319621271315,-3.486598106356575,8.739572781173875,0.5111111111111111,0.10111111111111112,-0.6677777777777778,0.0028133878075564667,-0.05303301696718371,1.7768891168532255
1589541830.9323099,-2.254296884340403,-3.419628894574496,8.601406231319194,0.5111111111111111,0.10111111111111112,-0.6677777777777778,0.008839560978831245,-0.11394388865909759,1.7507834059068117
1589541830.9423099,-2.3481977022152036,-3.4342114947191518,8.750832186372659,0.5111111111111111,0.10111111111111112,-0.6677777777777778,-0.0031250422047732884,-0.1111248123158595,1.8035630659629787
1589541830.9523098,-2.4240871728795486,-3.452261518638646,8.937043586439774,0.5206373325829494,0.08534357212324067,-0.6713911721291648,-0.009817477042468105,-0.06176112610627099,1.8197537956748226
1589541830.9623098,-2.4639272426622574,-3.290161682972762,8.822145514675485,0.5433333333333333,0.04777777777777778,-0.68,-0.02681150931013257,-0.050748057457761606,1.8150233731586092
1589541830.9723098,-2.6044392324093817,-3.276461329715061,9.129779026943206,0.5433333333333333,0.04777777777777778,-0.68,-0.0008943586051179536,-0.13104102192729725,1.8429766853436964
1589541830.9823098,-2.6519168655880705,-3.238083134411929,8.802688827984557,0.5433333333333333,0.04777777777777778,-0.68,-0.10015562821509273,-0.2238765670817605,1.8609184496922608
1589541830.9923098,-2.7033246687377166,-3.163350662524567,8.854560958600139,0.5433333333333333,0.04777777777777778,-0.68,-0.05247550991057699,-0.13510042632584854,1.9335845282913944
1589541831.0023098,-2.9024669269139016,-3.2280036868358275,8.934915419648666,0.5503933829730837,0.012477529579026002,-0.6880686281597147,-0.015425638944411485,-0.0788622631748224,2.02543855739766
1589541831.0123098,-2.936069352371239,-3.2480346761856196,8.660925038245793,0.5511111111111111,0.008888888888888889,-0.6888888888888889,-0.018077530308886446,-0.13874355155586363,1.9445919396095939
1589541831.0223098,-2.9850589247111876,-3.2199607168592084,8.71264731177797,0.5511111111111111,0.008888888888888889,-0.6888888888888889,-0.09008995488917726,0.019038586264469082,2.0299015738412285
1589541831.0323098,-3.0535478524276285,-3.1296782213585574,8.794623210356358,0.5511111111111111,0.008888888888888889,-0.6888888888888889,-0.04639031210338748,-0.09607350358400607,2.0834396924245926
1589541831.0423098,-3.0304540617926445,-3.046135154481611,8.80738648455184,0.5511111111111111,0.008888888888888889,-0.6888888888888889,-0.020452786995499097,-0.07159742727507058,2.0840569751885076
1589541831.0523098,-3.01113708621657,-2.8959192070319806,8.83658874135029,0.5255071379589802,-0.0364104482264198,-0.7066147164557488,0.07863141593229034,-0.036296491552164196,1.9916413723812447
1589541831.0623097,-3.0979925815293208,-2.854859262420194,8.953133319109126,0.5222222222222223,-0.042222222222222223,-0.7088888888888889,0.028834301442090704,-0.06809611731578744,2.1224641805540005
1589541831.0723097,-3.2013771476357005,-2.869358370077543,8.895226927170443,0.5222222222222223,-0.042222222222222223,-0.7088888888888889,-0.03966082928198192,-0.13399293805363502,2.104270628815909
1589541831.0823097,-3.2510378824887862,-2.8489621175112134,8.741367411289248,0.5222222222222223,-0.042222222222222223,-0.7088888888888889,-0.030954800191967974,-0.18608457950890045,2.2465668443348457
1589541831.0923097,-3.2127503708412797,-2.799500317863954,8.750499682136045,0.5222222222222223,-0.042222222222222223,-0.7088888888888889,0.013198751963859324,-0.18015083086574454,2.267455648751308
1589541831.1023097,-3.2466965712702707,-2.6666068574594584,8.974107656572976,0.5152926412891892,-0.07120046976036065,-0.7126686603069069,0.0687419118145666,-0.11236028938693288,2.2327747289900244
1589541831.1123097,-3.4068931061481673,-2.6122463741098394,9.10984601618135,0.51,-0.09333333333333334,-0.7155555555555555,0.006947137290979066,0.009525989617757913,2.3152705423858686
1589541831.1223097,-3.5489712320200124,-2.6565523591133346,8.817979292613439,0.51,-0.09333333333333334,-0.7155555555555555,-0.11186927882553424,0.010853580577034436,2.459071255968275
1589541831.1323097,-3.4444914601143433,-2.6127657400935536,8.526856999480259,0.51,-0.09333333333333334,-0.7155555555555555,-0.04157252552193821,-0.2124464550749597,2.411158680547284
1589541831.1423097,-3.443586956521739,-2.5070108695652173,8.80586956521739,0.51,-0.09333333333333334,-0.7155555555555555,0.04243568881037844,-0.1920810725700281,2.408097878783413
1589541831.1523097,-3.5433516136537375,-2.3517306477880813,8.863241931731313,0.4998259861217285,-0.1349542991989896,-0.7275793901389673,-0.07726951893135155,-0.054436505828818135,2.503114970378366
1589541831.1623096,-3.547213707627947,-2.318358877116159,8.930495953395628,0.4977777777777778,-0.14333333333333334,-0.73,-0.05037000807478718,-0.13557484442394702,2.6501768619600665
1589541831.1723096,-3.586141275973687,-2.2304891928578887,8.856032682468413,0.4977777777777778,-0.14333333333333334,-0.73,-0.05880998264304925,-0.0659064194872873,2.5807990199621167
1589541831.1823096,-3.507928576677199,-2.1002559580669655,8.635857153354397,0.4977777777777778,-0.14333333333333334,-0.73,0.0010739447743514097,-0.13138212073987052,2.535166057599233
1589541831.1923096,-3.402066784112748,-2.011550088084561,8.7813274743754,0.4977777777777778,-0.14333333333333334,-0.73,0.05974595847555321,-0.08782229451649423,2.4894249963264445
1589541831.2023096,-3.41291556871097,-1.9711807385481717,9.154577843554849,0.4546613884577282,-0.18938947647065904,-0.7486184408427486,0.027680909021332203,-0.07384262488485602,2.651783014134999
1589541831.2123096,-3.4915042625557664,-1.9393553160475285,9.026561685586818,0.4488888888888889,-0.1955555555555556,-0.7511111111111111,0.003640278528981279,-0.07447759315056117,2.687670037720544
1589541831.2223096,-3.5540155654258876,-1.8420077827129437,8.71,0.4488888888888889,-0.1955555555555556,-0.7511111111111111,-0.0859186277800248,-0.12829676695829834,2.609069440669864
1589541831.2323096,-3.339220680189111,-1.7128137867927404,8.75359310660363,0.4488888888888889,-0.1955555555555556,-0.7511111111111111,-0.06830593706323852,-0.16722134781789882,2.628278164729812
1589541831.2423096,-3.158879685496247,-1.5488796854962474,8.90767633022894,0.4488888888888889,-0.1955555555555556,-0.7511111111111111,-0.06678509244163794,-0.15850993343220274,2.5574686273947593
1589541831.2523096,-3.0790687878204714,-1.4636031817307076,9.061984091346464,0.43856496627488994,-0.22956377122519916,-0.7590058754629926,-0.029346256651343765,-0.13600929391039474,2.507846512578367
1589541831.2623096,-3.2598992673992675,-1.3993601953601955,9.047710317460318,0.43,-0.2577777777777778,-0.7655555555555555,-0.07489282540218412,-0.15331503446708833,2.4572743800700314
1589541831.2723095,-3.3487192678821214,-1.3061578036463644,8.829754143056972,0.43,-0.2577777777777778,-0.7655555555555555,-0.09481101128965688,-0.21012723095740543,2.4580124321557126
1589541831.2823095,-2.931821451237571,-1.193654537761794,9.066133911571821,0.43,-0.2577777777777778,-0.7655555555555555,0.026076094089387464,-0.16648565398148998,2.405269067892853
1589541831.2923095,-3.071062221545257,-1.112062564258787,8.944000228475687,0.43,-0.2577777777777778,-0.7655555555555555,-0.004758682308532006,-0.17862350948025568,2.419039942822352
1589541831.3023095,-3.2171091526668505,-1.0515633893325989,9.021947122004956,0.37391668451707005,-0.32333996348317473,-0.7860931077042341,-0.008710523634801182,-0.050702551804728796,2.3229191943700176
1589541831.3123095,-3.282279121468818,-1.0337720878531182,9.050176702824945,0.3511111111111111,-0.35,-0.7944444444444444,-0.006238545245213834,-0.03176705454943807,2.271128964445702
1589541831.3223095,-3.311684658772552,-0.9510042583392477,8.849535504837323,0.3511111111111111,-0.35,-0.7944444444444444,-0.00474263446517164,-0.10688143041223797,2.168967327871439
1589541831.3323095,-3.3191418312387793,-0.8476567324955117,8.786104847396768,0.3511111111111111,-0.35,-0.7944444444444444,0.00545415391248228,-0.15175159995622242,1.9853518189038735
1589541831.3423095,-3.4232191859605305,-0.8233904070197348,9.004916279146196,0.3511111111111111,-0.35,-0.7944444444444444,0.007229037066150701,-0.12440991663858206,1.966119966320419
1589541831.3523095,-3.5424044342507646,-0.7278249235474006,8.91,0.33346924906557934,-0.36130181787291876,-0.7925148657832144,0.021724879116232935,-0.11669012181427971,1.9635629599411604
1589541831.3623095,-3.6022912949918156,-0.5821669640065477,8.950124330985268,0.28,-0.3955555555555556,-0.7866666666666666,0.027662153331423203,-0.00030031903005627025,1.8104458369086927
1589541831.3723094,-3.7073691916467597,-0.5099375818756261,8.94083532403483,0.28,-0.3955555555555556,-0.7866666666666666,0.005076057521970679,-0.000726351914275402,1.790784877635293
1589541831.3823094,-3.8194962481591435,-0.4175062530680942,8.81151125552257,0.28,-0.3955555555555556,-0.7866666666666666,-0.019626768837941618,-0.07700392231412223,1.6993385930623952
1589541831.3923094,-3.8242280112164737,-0.31919215703063125,8.90698375323758,0.28,-0.3955555555555556,-0.7866666666666666,0.07771622357136898,-0.0435216427922582,1.6111826103857492
1589541831.4023094,-3.8017668163891325,-0.2296113606485539,8.933144993426819,0.2455595420683611,-0.42189237632680887,-0.7826148480864739,0.032547848703644355,-0.04882519385204284,1.4898860328695251
1589541831.4123094,-3.763766412612484,-0.20344160315312107,8.975259159009426,0.22333333333333333,-0.4388888888888889,-0.78,-0.09995236591094733,-0.06102998409479288,1.440017249248673
1589541831.4223094,-3.5722608695652176,-0.1111304347826087,8.937478260869565,0.22333333333333333,-0.4388888888888889,-0.78,-0.12712447084363043,-0.0678876166115403,1.3449943548181302
1589541831.4323094,-3.576795987646443,-0.01995150463258378,8.910024247683708,0.22333333333333333,-0.4388888888888889,-0.78,-0.06682934598703566,-0.045412489094989204,1.1506466147191685
1589541831.4423094,-3.606678160224225,-0.0058304599439437015,8.925830459943944,0.22333333333333333,-0.4388888888888889,-0.78,0.016154954677941022,0.004891812860613982,1.019409575677305
1589541831.4523094,-3.4558655817327404,-0.03682688365345192,9.023894092787081,0.1853285814909431,-0.4664609637549367,-0.7844711472755753,0.024187117854689997,0.0045783792129134235,0.9814015709480847
1589541831.4623094,-3.493718947039165,0.02778921027937377,8.976652947664752,0.16666666666666666,-0.48,-0.7866666666666666,-0.020730274400310923,-0.017818399291734864,0.9873641278356444
1589541831.4723094,-3.5469150920994608,0.08276603683978426,8.859840564469623,0.16666666666666666,-0.48,-0.7866666666666666,0.001670826090507227,-0.02821073643839006,0.9572563903160572
1589541831.4823093,-3.494789866382428,0.06957973276485592,8.949326392325554,0.16666666666666666,-0.48,-0.7866666666666666,0.1005944348306606,-0.024227497433406953,0.981426152297202
1589541831.4923093,-3.6593878371137705,0.15806751205572422,9.03795499196285,0.16666666666666666,-0.48,-0.7866666666666666,0.1136185788584725,-0.06786505618409937,0.9839206960547358
1589541831.5023093,-3.831105204951661,0.28654846420034963,8.93,0.12206461893379947,-0.4827876279833042,-0.7927065272971591,0.040442616443945076,-0.07027832295848534,0.793077174699852
1589541831.5123093,-3.618326322457001,0.23583683877149958,9.042405353169512,0.06,-0.4866666666666667,-0.8011111111111111,-0.012533082479135638,0.04056625188990373,0.6821802649353547
1589541831.5223093,-3.550610787942887,0.24360957920979073,9.102464682329833,0.06,-0.4866666666666667,-0.8011111111111111,-0.0449952658373744,-0.0028680353345338187,0.5859093834585327
1589541831.5323093,-3.42795590398689,0.29,8.89796186290758,0.06,-0.4866666666666667,-0.8011111111111111,-0.04342910551945736,-0.025958912546803006,0.5155300078983672
1589541831.5423093,-3.676636692619805,0.3139730233578243,9.066026976642176,0.06,-0.4866666666666667,-0.8011111111111111,0.038312096778771516,-0.006074512333145363,0.4473708889145808
1589541831.5523093,-3.715120606478291,0.3887198483804273,8.969480530668504,0.04692022742935906,-0.47746238226510457,-0.7584807412512443,-0.012128632475334897,0.03223720709298839,0.3678750696383682
1589541831.5623093,-3.5283820167640334,0.3206939293878588,9.020635509271019,0.03,-0.4655555555555556,-0.7033333333333334,-0.024030140445805204,-0.041596588996119746,0.2525942389327842
1589541831.5723093,-3.514078961191772,0.33839913432647656,9.001147647763327,0.03,-0.4655555555555556,-0.7033333333333334,0.07199164576703687,-0.03456051620655156,0.06257923359585361
1589541831.5823092,-3.662708231401878,0.4413541157009389,8.902083362456606,0.03,-0.4655555555555556,-0.7033333333333334,0.006954189196946903,0.03722449561643476,-0.009112926567121152
1589541831.5923092,-3.704676388978512,0.46037577165472887,8.958496913381085,0.03,-0.4655555555555556,-0.7033333333333334,-0.07661547643252736,0.06705532104783471,-0.08509165230891619
1589541831.6023092,-3.686868629100084,0.4161742640874685,9.103042893187553,0.03716890010279413,-0.46197110550415854,-0.6869472759555182,-0.019075795510238195,0.02436734315872579,-0.20229529338799482
1589541831.6123092,-3.735426393919725,0.4108527878394506,9.092015242561924,0.045555555555555564,-0.4577777777777778,-0.6677777777777778,0.06897647288151569,0.054888172126350165,-0.34978510759621056
1589541831.6223092,-3.814951521479714,0.44498384049323786,8.890109884645984,0.045555555555555564,-0.4577777777777778,-0.6677777777777778,0.09001574993808928,-0.008690686593663212,-0.4406758935666734
1589541831.6323092,-3.906939440993789,0.44882569875776396,8.830106366459628,0.045555555555555564,-0.4577777777777778,-0.6677777777777778,0.06949091766304966,-0.014468244246661467,-0.4966462355906414
1589541831.6423092,-3.974285379868057,0.42,8.956554798893382,0.045555555555555564,-0.4577777777777778,-0.6677777777777778,0.03351366911219698,0.029012616698692276,-0.5272562970872755
1589541831.6523092,-3.8173044605158646,0.35082981480707326,8.754667028970362,0.05524606459224578,-0.4530996010014446,-0.6651045339055874,-0.04868841867598914,-0.027238483780294954,-0.5185874111552384
1589541831.6623092,-3.191829197048705,0.1844425211502261,8.490522534997943,0.07777777777777778,-0.44222222222222224,-0.6588888888888889,0.11947258235671297,0.007571192185559332,-0.5263429524723607
1589541831.6723092,-3.763568816669191,0.08461496851807776,9.398045740744747,0.07777777777777778,-0.44222222222222224,-0.6588888888888889,0.07096482417244757,0.08478762358092057,-0.5560415799321151
1589541831.6823092,-3.6573065957042385,0.30346702147880633,8.854085915225243,0.07777777777777778,-0.44222222222222224,-0.6588888888888889,-0.021414660782993623,0.036801325556254025,-0.6959769108672973
1589541831.6923091,-3.693344698261166,0.49,9.175585748380499,0.07777777777777778,-0.44222222222222224,-0.6588888888888889,-0.046887202210945174,-0.011343524388782271,-0.7696653933060448
1589541831.7023091,-4.346229824324585,0.475245964864917,9.176558034595137,0.09154821057052193,-0.4441894269069,-0.6447905886486984,-0.02380157554210786,0.03682010884171383,-0.9284936975772983
1589541831.7123091,-4.094038378695908,0.3809187389857059,8.852200900724496,0.12444444444444445,-0.4488888888888889,-0.6111111111111112,-0.009217274477593414,-0.01762344247125261,-0.9706984235774269
1589541831.722309,-3.7678443577029928,0.11784435770299259,8.987006013292541,0.12444444444444445,-0.4488888888888889,-0.6111111111111112,0.049701368315503244,0.043927103882222956,-1.1709382005789128
1589541831.732309,-3.7128260219714524,0.006391525297063008,8.983347657125774,0.12444444444444445,-0.4488888888888889,-0.6111111111111112,0.04056959542533471,0.11701779000273721,-1.2904668780436537
1589541831.742309,-3.6793250862735483,-0.08258386920364329,9.042583869203643,0.12444444444444445,-0.4488888888888889,-0.6111111111111112,-0.040041855722621755,0.06325598710358944,-1.5445322959853593
1589541831.752309,-3.640142674227181,-0.09014267422718127,9.002028534845437,0.1400369896144544,-0.45779891470032313,-0.6169026278885434,0.02299045093316063,0.10020778210254025,-1.8010394386210877
1589541831.762309,-3.73,-0.18,9.02,0.16333333333333333,-0.4711111111111111,-0.6255555555555555,0.07526732399225547,0.14398966328953214,-1.8500490071139888
1589541831.772309,-3.6502169532824142,-0.27573965606110307,8.966811302188276,0.16333333333333333,-0.4711111111111111,-0.6255555555555555,0.05438017120484054,0.18112237935604755,-2.0055422556425224
1589541831.782309,-3.893552157185375,-0.43971665013187505,8.978458876763375,0.16333333333333333,-0.4711111111111111,-0.6255555555555555,0.008171055553151209,0.13554119511209084,-2.0148541722557267
1589541831.792309,-4.135599385033034,-0.5193819859000818,8.954944112799346,0.16333333333333333,-0.4711111111111111,-0.6255555555555555,-0.023185234417951412,0.06381156866008197,-1.8887633393128098
1589541831.802309,-4.071696422388121,-0.5368100666214214,8.81551946702863,0.16333333333333333,-0.4711111111111111,-0.6255555555555555,-0.03585929237173162,0.0587419454785699,-1.8634152234052495
1589541831.812309,-4.3357227443422275,-0.632861372171114,9.149773887818156,0.23555555555555555,-0.43,-0.6255555555555555,0.05345716719454244,0.09828957760652218,-1.8287729627161464
1589541831.822309,-4.235717578334559,-0.5828587891672793,9.008099902640625,0.23555555555555555,-0.43,-0.6255555555555555,-0.022904932248341447,-0.0307987333564482,-1.8860445372983092
1589541831.832309,-3.5796445924550966,-0.8024703827045914,9.16799475896708,0.23555555555555555,-0.43,-0.6255555555555555,0.06169009263459663,0.04762369361588925,-1.924980333547974
1589541831.842309,-3.6735299923913716,-0.7860720968969134,8.893206934133953,0.23555555555555555,-0.43,-0.6255555555555555,0.08189095420170978,0.0500148011137889,-1.7505163117422766
1589541831.852309,-4.0401896483603315,-0.812701172132227,8.940379296720664,0.25081610255059483,-0.4234597655735546,-0.627735633697704,0.07740761070338838,0.10891255064016009,-1.6549250526475427
1589541831.862309,-4.076442249119369,-0.8973668458828826,8.978150806472971,0.2822222222222222,-0.41,-0.6322222222222222,0.031609939964845596,0.11345847774340724,-1.5356912906957372
1589541831.872309,-4.286399940346982,-0.9165900014913255,9.008390031317834,0.2822222222222222,-0.41,-0.6322222222222222,-0.01000947367160326,0.07438050996301156,-1.5132833587621322
1589541831.882309,-4.48432173394313,-0.9091358122887254,8.833704116126466,0.2822222222222222,-0.41,-0.6322222222222222,0.033546441173367934,-0.049841704784662974,-1.5303952863194836
1589541831.892309,-3.979197446916535,-0.9447193965439084,8.78023554370886,0.2822222222222222,-0.41,-0.6322222222222222,0.015891111440127025,0.13702534891334572,-1.3953127693403444
1589541831.902309,-4.331965716674796,-1.0279914291686991,9.315597170928855,0.28869428378974754,-0.40620603287420926,-0.6369088874952578,0.012353196846250546,0.16149376901957224,-1.2835578393365625
1589541831.912309,-4.564225311601151,-1.0701116970278044,8.967333652924257,0.3144444444444445,-0.3911111111111111,-0.6555555555555556,-0.0524324601641494,0.01042355224712457,-1.039390633210957
1589541831.922309,-4.69732335827099,-1.1208661679135494,8.862992518703242,0.3144444444444445,-0.3911111111111111,-0.6555555555555556,-0.04415715650860841,0.013373422176830616,-0.874056137982883
1589541831.932309,-4.437944939043953,-1.1138231873596407,8.826165182868142,0.3144444444444445,-0.3911111111111111,-0.6555555555555556,-0.01039863227768889,0.05360720686351581,-0.8364117380954675
1589541831.942309,-4.341104926770595,-1.1278804745171105,9.024746350321927,0.3144444444444445,-0.3911111111111111,-0.6555555555555556,0.07167872971734612,0.11031414437082245,-0.7426419753797316
1589541831.952309,-4.4517838494902895,-1.1795052076138905,8.998197916954444,0.3223124998081487,-0.3816038775466352,-0.6509658565933948,0.09483296540487787,0.08731844710395181,-0.49264900993325
1589541831.962309,-4.845197256615684,-1.2400303471716436,8.982462066035446,0.3411111111111111,-0.3588888888888889,-0.64,0.050155043454543594,0.10070776080415061,-0.3339332546856758
1589541831.9723089,-4.679726571983491,-1.214573318766691,9.014283351541636,0.3411111111111111,-0.3588888888888889,-0.64,0.0695935606050499,0.0347556490435042,-0.21730215178263795
1589541831.9823089,-4.1424841704761635,-1.1198733638093075,8.66694596666572,0.3411111111111111,-0.3588888888888889,-0.64,0.028882841471533617,-0.05133811610482618,-0.13344903348549428
1589541831.9923089,-4.200624297077889,-1.192656074269472,8.955312148538944,0.3411111111111111,-0.3588888888888889,-0.64,0.050024683731460025,0.00423517510541796,-0.035205597097211605
1589541832.0023088,-4.242935016524479,-1.221635731304281,9.01,0.34656354879204776,-0.3576166534300037,-0.6401817479226979,0.04628057725355122,0.04916837380167965,0.07249342288783014
1589541832.0123088,-3.9125101836907232,-1.229694873568519,9.01,0.3734273563395077,-0.3513484316689297,-0.6410772081742798,-0.07503743712686425,0.028069588692042187,0.03732878103843435
1589541832.0223088,-3.769030137540453,-1.1826978829557713,8.96,0.3744444444444445,-0.3511111111111111,-0.6411111111111111,0.022044019154478678,0.0037589240354229947,0.06824807943340615
1589541832.0323088,-4.002329591423948,-1.1897675633764833,8.96,0.3744444444444445,-0.3511111111111111,-0.6411111111111111,-0.008803280946821791,-0.01783418603548733,0.15847643222971003
1589541832.0423088,-3.8127651817249633,-1.1659667312293494,8.935634043522843,0.3744444444444445,-0.3511111111111111,-0.6411111111111111,-0.06995149691820528,-0.03985503193926894,0.204847133773098
1589541832.0523088,-3.525302912948308,-1.1816810910927764,9.073189089072235,0.3744444444444445,-0.3559675964902434,-0.6435393538006772,-0.09445999477625693,0.0009020154862502267,0.19880355194866814
1589541832.0623088,-3.5499529544599175,-1.1413360933383516,8.844008280015055,0.3744444444444445,-0.38,-0.6555555555555556,-0.054395793950646566,-0.056677629663524014,0.19527410568385606
1589541832.0723088,-3.33,-1.07,8.63,0.3744444444444445,-0.38,-0.6555555555555556,-0.062177354602297986,0.01854412330243975,0.2672535417116317
1589541832.0823088,-3.6694270761603085,-1.2698677868062251,9.089647431483266,0.3744444444444445,-0.38,-0.6555555555555556,0.04238856348096509,0.17398728446096343,0.4751334989481835
1589541832.0923088,-3.454872213587267,-1.2203551262124461,8.957613669899857,0.3744444444444445,-0.38,-0.6555555555555556,-0.01522203310462774,-0.030350300303561117,0.29960121247645544
1589541832.1023088,-3.48503635734072,-1.2182600415512466,8.692875692520776,0.3746377731609727,-0.38019332871652817,-0.6560582102185288,-0.05314702830453992,-0.08638337313660127,0.15951115039497477
1589541832.1123087,-3.1380932594644504,-1.1779178208679593,8.9914081255771,0.3791202421257823,-0.3846757976813378,-0.667712629527034,-0.04610598251964475,-0.04061657553478264,0.3170545498320043
1589541832.1223087,-3.4589581169955,-1.2477916233991,9.21206588208146,0.38,-0.3855555555555555,-0.67,-0.01926681285512172,-0.03587696756360272,0.3239320620128716
1589541832.1323087,-2.695683938451597,-1.1562703444933564,8.430757239206818,0.38,-0.3855555555555555,-0.67,-0.001286256062216753,-0.05693461771357083,0.03163761704369972
1589541832.1423087,-2.867391780821918,-1.1679599578503688,9.235719704952581,0.38,-0.3855555555555555,-0.67,-0.04234524635949688,0.007993525213526718,-0.16234077046447268
1589541832.1523087,-2.6412064212745254,-1.1204021404248419,8.914332414464084,0.374454570023242,-0.39579327243572415,-0.6659475704015999,-0.0814332861153624,-0.02822179287766524,-0.09380387674864513
1589541832.1623087,-2.52,-1.08,8.68,0.3511111111111111,-0.4388888888888889,-0.6488888888888888,0.011999138607461015,0.13308135546456762,-0.4014257279586957
1589541832.1723087,-2.522129075526207,-1.0821290755262072,8.68638722657862,0.3511111111111111,-0.4388888888888889,-0.6488888888888888,-0.009831995941657335,0.11380492814992056,-0.404677173529841
1589541832.1823087,-2.529341725134131,-1.0893417251341313,8.708025175402394,0.3511111111111111,-0.4388888888888889,-0.6488888888888888,-0.08378912996909219,0.04850235235973871,-0.41569206583179946
1589541832.1923087,-2.7420386372580894,-1.235533957324481,8.859902807960164,0.3511111111111111,-0.4388888888888889,-0.6488888888888888,-0.0061531024157823995,-0.019221867791966735,-0.6386230467845311
1589541832.2023087,-2.620029944730583,-1.2211799934977157,8.79530997073972,0.3511111111111111,-0.4388888888888889,-0.6488888888888888,0.01263619229590926,0.013659397953493673,-0.5595514315394953
1589541832.2123086,-3.002054757814101,-1.3086561165140362,9.10849786422458,0.32666666666666666,-0.5311111111111111,-0.6555555555555556,-0.046802147766103676,-0.1732305582172446,-0.8160666482726711
1589541832.2223086,-2.6186091452169666,-1.3020449852623615,9.002719764197785,0.32666666666666666,-0.5311111111111111,-0.6555555555555556,0.018102481521956426,0.004896591051098104,-0.9401066064676303
1589541832.2323086,-2.7437938054778903,-1.3224123890442194,9.083010396590568,0.32666666666666666,-0.5311111111111111,-0.6555555555555556,0.12723586574977058,0.05138150844328313,-0.9361734580273445
1589541832.2423086,-2.790510381864021,-1.1966810830754093,8.474809682907331,0.32666666666666666,-0.5311111111111111,-0.6555555555555556,0.03938156924613837,0.026820659605200747,-1.0258961550461472
1589541832.2523086,-2.6100357964714904,-1.359986576323191,9.29989559362482,0.32665655747795863,-0.5311445874409311,-0.6555427947763668,0.22030209948955534,0.13089269781874432,-1.0090345810650871
1589541832.2623086,-2.824523139861928,-1.279553822551777,8.674307508736044,0.266083742909363,-0.7317299733893955,-0.5790820288455164,-0.05363706906025989,0.088973180923221,-1.105546957173385
1589541832.2723086,-2.59,-1.34,8.82,0.2588888888888889,-0.7555555555555555,-0.57,-0.062177354602297986,0.14398966328953214,-1.294816138823293
1589541832.2823086,-2.6696634854584107,-1.3873001944909313,8.832447419602877,0.2588888888888889,-0.7555555555555555,-0.57,-0.030676328562413,0.1111308344031004,-1.2937298965460557
1589541832.2923086,-2.840965862994321,-1.5100164340246718,8.83548293149716,0.2588888888888889,-0.7555555555555555,-0.57,0.05484686100659122,0.021114953969798213,-1.3465348971615991
1589541832.3023086,-2.5564380167756187,-1.436329363302588,8.743762275752962,0.2706391185669416,-0.7978045431479658,-0.5240358662593819,0.018445593289967456,0.0707443535882605,-1.5897427104324593
1589541832.3123085,-2.8377856235289216,-1.6046887042012956,9.30671374117353,0.41,-1.2988888888888892,0.021111111111111112,0.08887820376400621,0.15101600044190824,-1.480585741246525
1589541832.3223085,-2.733646679844791,-1.5309400395343729,8.68005673914635,0.41,-1.2988888888888892,0.021111111111111112,0.07051239908015006,0.06869139289357093,-1.4907740778905356
1589541832.3323085,-2.764353905849623,-1.6230617175488689,8.848946482172927,0.41,-1.2988888888888892,0.021111111111111112,0.08558577339716593,-0.023423672377081622,-1.5058474522075518
1589541832.3423085,-2.817168174494981,-1.7561946957491634,9.037551741231875,0.41,-1.2988888888888892,0.021111111111111112,0.016085732203208365,0.04177656133247612,-1.8012833689907977
1589541832.3523085,-2.7002122319990085,-1.7367020386665013,8.615210837774198,0.41,-1.2988888888888892,0.021111111111111112,0.014668186177980675,0.06020465966043606,-1.9146870510090124
1589541832.3623085,-2.918852802087297,-1.9803823993042344,9.481760069576561,0.94,-0.8355555555555556,-0.4922222222222222,0.15287916038084187,0.13096654782724035,-1.905207677661556
1589541832.3723085,-2.8688042775428997,-2.0046739617010694,8.544456602835115,0.94,-0.8355555555555556,-0.4922222222222222,-0.004434453652535083,0.018994670868609887,-2.1473241326468027
1589541832.3823085,-2.7216922454795784,-2.0768076871232983,8.725865475342282,0.94,-0.8355555555555556,-0.4922222222222222,-0.0012334993749502123,-4.614883651662244e-05,-2.203866297189185
1589541832.3923085,-2.5278519574050184,-2.0606543297837514,9.008549228784348,0.94,-0.8355555555555556,-0.4922222222222222,-0.06819170119619211,0.005240024991476158,-2.30518462889238
1589541832.4023085,-2.397172371695544,-2.154482791003428,9.218413861107198,0.94,-0.8355555555555556,-0.4922222222222222,0.16923683598126368,0.2105529802294914,-2.263940282334201
1589541832.4123085,-2.7014525845115616,-2.356706895480986,9.016900863228932,0.677724139358685,-0.5077107297539118,-0.6388417137612906,-0.008962913518904325,0.14564048563795343,-2.440103826048464
1589541832.4223084,-2.6525181311615946,-2.401297728246892,8.444352336048006,0.62,-0.4355555555555555,-0.6711111111111111,-0.030601258759562513,0.02007676626796087,-2.482647821293279
1589541832.4323084,-2.2785728246892414,-2.4084889841405914,8.911783969138448,0.62,-0.4355555555555555,-0.6711111111111111,0.0839276133278157,0.20991229397443698,-2.572858919170324
1589541832.4423084,-2.21195613134941,-2.5095613134940997,8.56564905079528,0.62,-0.4355555555555555,-0.6711111111111111,0.0757897921992644,0.031571337740376994,-2.6957241064775292
1589541832.4523084,-2.229889687018984,-2.688896870189841,8.709117496151874,0.62,-0.4355555555555555,-0.6711111111111111,0.04057733798409084,0.1910055054368573,-2.848311408076615
1589541832.4623084,-2.3,-2.75,9.34,0.5755555555555556,-0.2611111111111111,-0.6822222222222222,0.007635815477475192,0.3217950808364545,-2.8732482810956648
1589541832.4723084,-2.3307897445494525,-2.7854082062318706,9.275341536446149,0.5755555555555556,-0.2611111111111111,-0.6822222222222222,0.007635815477475192,0.3071849963406652,-2.8925604617510183
1589541832.4823084,-2.4562685793982864,-2.9776983462841202,8.92460330743176,0.5755555555555556,-0.2611111111111111,-0.6822222222222222,0.008640101367046744,0.2226245877285837,-2.994425606052078
1589541832.4923084,-2.138708507670851,-2.960984658298466,8.958030683403068,0.5755555555555556,-0.2611111111111111,-0.6822222222222222,0.015932823504563993,0.19163051864413536,-2.9634315369676303
1589541832.5023084,-2.288208221333508,-2.9988172818461942,8.82413951353832,0.5755555555555556,-0.2611111111111111,-0.6822222222222222,-0.02739206039091163,0.20391891813127314,-2.93831687721601
1589541832.5123084,-2.486893945063992,-3.2872348626599805,9.315010852481102,0.5704653676953655,-0.19069684571181467,-0.6890091393691423,0.13279744228096368,0.3240599773376614,-2.8048405527122684
1589541832.5223083,-2.4523185840707966,-3.3837817109144543,8.754395280235988,0.5688888888888889,-0.1688888888888889,-0.6911111111111111,0.04924827470828395,0.06482623926351062,-2.976639088978832
1589541832.5323083,-2.259856440511308,-3.227979023271059,8.112854801704358,0.5688888888888889,-0.1688888888888889,-0.6911111111111111,-0.11070877722310064,-0.14211819667271822,-2.806684721301736
1589541832.5423083,-2.151398155850132,-3.3960747216961935,9.235050174327027,0.5688888888888889,-0.1688888888888889,-0.6911111111111111,0.0754719838709388,0.13845836374218354,-2.7411289100754814
1589541832.5523083,-2.2809167259304415,-3.435816654813912,8.668862135527787,0.5688888888888889,-0.1688888888888889,-0.6911111111111111,0.1309778610551087,0.10409792727036712,-2.7564121366352436
1589541832.5623083,-2.2958051502469554,-3.5506562229008787,8.355148927346077,0.5878153552262816,-0.10028044841584034,-0.7053059608641556,0.07621278881310603,0.1571925077344442,-2.8180432077390662
1589541832.5723083,-2.125214343095012,-3.619386547871175,9.269327393558754,0.5955555555555555,-0.07222222222222223,-0.7111111111111111,-0.1135471755664318,0.03437084875037452,-2.695663371808872
1589541832.5823083,-2.007333479524149,-3.650044405460227,8.946978235842334,0.5955555555555555,-0.07222222222222223,-0.7111111111111111,-0.03696714949756327,0.11548250721168223,-2.803328306357291
1589541832.5923083,-2.136790773051586,-3.819598846631448,8.82518615957738,0.5955555555555555,-0.07222222222222223,-0.7111111111111111,0.11409964171920946,0.127061479301091,-2.5987965143494764
1589541832.6023083,-2.0661692589396585,-3.810771157367457,8.719253888409488,0.5955555555555555,-0.07222222222222223,-0.7111111111111111,0.10447012653173471,0.1386168975260607,-2.6084260295369512
1589541832.6123083,-1.89,-3.81,8.69,0.5811111111111111,-0.004444444444444445,-0.7055555555555556,-0.022907446432425576,-0.01854412330243975,-2.6998061866787286
1589541832.6223083,-1.89,-3.81,8.69,0.5811111111111111,-0.004444444444444445,-0.7055555555555556,-0.022907446432425576,-0.01854412330243975,-2.6998061866787286
1589541832.6323082,-1.9837763402447561,-4.1771710637476165,8.588118467739989,0.5811111111111111,-0.004444444444444445,-0.7055555555555556,0.002612238112487771,0.15286417953609535,-2.679386094572038
1589541832.6423082,-1.8818919634582285,-4.1366218721038,8.433515159539256,0.5811111111111111,-0.004444444444444445,-0.7055555555555556,0.06884780722290809,0.02343863610778927,-2.7939272057703635
1589541832.6523082,-1.9096577518866675,-4.233802131603336,9.072128293393353,0.5811111111111111,-0.004444444444444445,-0.7055555555555556,0.13472372158461288,0.2233379624467555,-2.7984703722780666
1589541832.6623082,-1.9126943681128041,-4.255388736225608,8.69632692147556,0.5794876373584009,0.05156540002405604,-0.6933795024102294,0.04848930098532597,0.10334812480689787,-2.7411904783721606
1589541832.6723082,-1.709366003062787,-4.0907132465543645,8.66388323124043,0.5788888888888889,0.07222222222222223,-0.6888888888888889,0.19821998989555084,0.09089339142695496,-2.5648127451737084
1589541832.6823082,-1.645134762633997,-4.162973392036753,9.057299578866768,0.5788888888888889,0.07222222222222223,-0.6888888888888889,0.16669055347960599,0.12680191623400328,-2.4816100657427436
1589541832.6923082,-10.942816486751717,-15.619662414131502,10.710526005888127,0.5788888888888889,0.07222222222222223,-0.6888888888888889,-0.6342160821869767,1.3042007091253867,-2.2334341709459924
1589541832.7023082,-11.585155619308136,-18.345700370283886,5.454745971911799,0.5788888888888889,0.07222222222222223,-0.6888888888888889,-0.6252587316327601,0.8604681138645256,-3.6020204022310667
1589541832.7123082,-0.5203892766058402,0.431463988454162,0.7129627725825904,0.5535032697829005,0.14222499005994785,-0.6842733217787091,0.36143398358311474,-0.6057073366818707,-3.9221188377445655
1589541832.7223082,-0.2142942576338237,-0.7449698664853505,7.399030318951662,0.5422222222222223,0.17333333333333334,-0.6822222222222222,1.3471453203320827,-0.667326468910226,-3.4859784940322616
1589541832.7323081,0.9718179008530103,-0.051450735566819006,11.968478798368153,0.5422222222222223,0.17333333333333334,-0.6822222222222222,0.28873551814945,-0.15190846904974553,-3.1190348151192446
1589541832.7423081,0.429010931259197,1.6680053955574243,10.944432065026977,0.5422222222222223,0.17333333333333334,-0.6822222222222222,-0.4348193977384077,0.17428446710550086,-2.6445671991988577
1589541832.7523081,0.4934760710188048,0.5795717869435857,8.435605273904674,0.5422222222222223,0.17333333333333334,-0.6822222222222222,0.108587396494505,0.30933685272050915,-2.491179215231248
1589541832.7623081,-0.006799255247122545,-0.030809072444143534,8.044993229519296,0.5222222222222223,0.2788888888888889,-0.6466666666666666,-0.02010891525938922,-0.2465292339339519,-2.2049879510064962
1589541832.772308,-0.2836741706161137,-0.4709691943127962,8.655537914691944,0.5222222222222223,0.2788888888888889,-0.6466666666666666,-0.172669594939806,-0.11332904659876566,-1.600166170141493
1589541832.782308,-0.9066469813185263,-1.787130252693991,9.928998164792244,0.5222222222222223,0.2788888888888889,-0.6466666666666666,0.1079395307378835,0.06981894479451747,-1.076554840690415
1589541832.792308,0.10980612677050494,-2.3298964754599787,8.330304926826972,0.5222222222222223,0.2788888888888889,-0.6466666666666666,-0.06214491353813452,-0.178848818672319,-0.9032409449408016
1589541832.802308,-0.3982837771296541,-2.6635612287413357,9.203612741941592,0.5222222222222223,0.2788888888888889,-0.6466666666666666,-0.050048726063684976,0.045483379634921994,-0.7264764434872759
1589541832.812308,-0.5054546890632405,-2.848181243747038,9.029093254699594,0.4976769112854627,0.31979774045015474,-0.6639392928814234,0.07447328235478343,0.11255385124908471,-0.5744717780259239
1589541832.822308,-0.4033275391110008,-2.9280034765333998,8.504973925999504,0.4922222222222222,0.3288888888888889,-0.6677777777777778,0.04450248284717165,0.047047122621388604,-0.24189138741951333
1589541832.832308,-0.5329970617042116,-3.2054939135301526,8.708495172799777,0.4922222222222222,0.3288888888888889,-0.6677777777777778,-0.09009969218072694,-0.07341030172688057,-0.04369191668335759
1589541832.842308,-0.3047444525281921,-3.201903419425246,8.828579483448527,0.4922222222222222,0.3288888888888889,-0.6677777777777778,0.08847494755718939,0.06644762577939352,-0.06737427641046839
1589541832.852308,-0.21713453213453215,-3.1057017982017983,8.847858183483183,0.4922222222222222,0.3288888888888889,-0.6677777777777778,-0.046302824416162625,-0.11962847960486726,0.09110582461520772
1589541832.862308,-0.26281065088757394,-3.1542307692307694,8.787189349112426,0.47762984878369497,0.341577909270217,-0.6595299145299145,0.007564814657312693,-0.09791981293409754,0.07609028804413888
1589541832.872308,-0.36042126448747314,-3.1343681032687902,8.790421264487474,0.4666666666666667,0.3511111111111111,-0.6533333333333333,0.07688059375247473,-0.06648624596515113,0.07288489323889552
1589541832.882308,-0.427200801712131,-3.1856592044026226,8.734969596086557,0.4666666666666667,0.3511111111111111,-0.6533333333333333,0.0717890571658721,-0.036594839944250356,0.12664920766644325
1589541832.892308,0.25634035709867625,-5.5019034266628175,8.2278277184446,0.4666666666666667,0.3511111111111111,-0.6533333333333333,-0.04235357087631933,-0.04968230203759714,-0.3548747683368131
1589541832.902308,0.061957921854873366,-0.666557591918826,5.206801880183498,0.4666666666666667,0.3511111111111111,-0.6533333333333333,0.32352153729354977,0.1453059273392075,-0.5616795448534158
1589541832.912308,0.33851523991550153,-1.5309264661502866,12.068223518760687,0.45669416222378695,0.3621916716031996,-0.6588736135793776,-0.25863904001052856,-0.015675622035414227,-0.20808265617676752
1589541832.922308,-0.060424073335990425,-2.761293423674771,10.06785842965325,0.4566666666666666,0.3622222222222222,-0.6588888888888889,-0.1471418816522986,0.06662857025958135,-0.19706596755188457
1589541832.932308,-0.3171047641162584,-4.316307519640853,8.35026936026936,0.4566666666666666,0.3622222222222222,-0.6588888888888889,0.12214248293173792,0.05459941787410886,0.03137378607817559
1589541832.942308,-0.3932374700250004,-4.4288200479599995,8.423978639092502,0.4566666666666666,0.3622222222222222,-0.6588888888888889,0.038415168350454415,-0.018161212923849514,0.08319193626544354
1589541832.952308,-0.24456196109590653,-4.023051411082664,8.954803566699038,0.4566666666666666,0.3622222222222222,-0.6588888888888889,-0.07472025538935076,-0.0038591096253605267,0.0239620349632685
1589541832.962308,-0.28073295454545455,-4.349071146245059,8.821661808300396,0.4574431543697848,0.36377519762845856,-0.6588888888888889,0.05319740277524465,0.026403171047755865,-0.06819988309147036
1589541832.972308,-0.37392922252010724,-4.398566219839142,8.71381126005362,0.4577777777777778,0.3644444444444445,-0.6588888888888889,0.03711199337687379,-0.007974353202359345,0.13655481803021563
1589541832.982308,-0.2449388897069651,-4.265586806066853,8.721558680606686,0.4577777777777778,0.3644444444444445,-0.6588888888888889,0.073452378179941,0.0038952505485994778,-0.03511259158951868
1589541832.992308,-0.25532091200039697,-4.461925472002382,8.658188403999306,0.4577777777777778,0.3644444444444445,-0.6588888888888889,0.045464832176345636,0.007635815477475192,-0.05818441651930763
1589541833.002308,-0.29993135256891557,-4.432955210615835,8.655704478938416,0.4577777777777778,0.3644444444444445,-0.6588888888888889,0.041605263197194355,-0.004809426970779679,0.03521789996494132
1589541833.012308,-0.30084713082114267,-4.349185983149599,8.747458607536572,0.4623126685389334,0.3683314936682921,-0.6634237796500444,-0.031235564750902507,-0.03962147785116575,0.012042484693800745
1589541833.0223079,-0.28,-4.407615694558542,8.722384305441459,0.4655555555555556,0.3711111111111111,-0.6666666666666666,0.0033878781173861117,0.015914403089548987,-0.07256548767317922
1589541833.0323079,-0.3002049456194424,-4.451918021752223,8.625549119637228,0.4655555555555556,0.3711111111111111,-0.6666666666666666,0.1098512044425917,0.0793910484808172,-0.04608486643081708
1589541833.0423079,-0.30927091136079904,-4.425193508114857,8.613303370786518,0.4655555555555556,0.3711111111111111,-0.6666666666666666,0.11647730398827572,0.057599950824361576,-0.02313133230089301
1589541833.0523078,-0.26741284648632413,-4.386293576756838,8.732587153513677,0.4655555555555556,0.3711111111111111,-0.6666666666666666,0.009705413989933201,-0.022555165049603094,-0.09902141443220948
1589541833.0623078,-0.2814592245066924,-4.377081550986615,8.728755347040154,0.46652837189335056,0.3711111111111111,-0.6645588979347776,0.11846517126584473,0.019414966615829185,-0.09044533044786641
1589541833.0723078,-0.29388941698352344,-4.356110583016477,8.776110583016475,0.4722222222222222,0.3711111111111111,-0.6522222222222223,0.02289915114130392,-0.0790784918069567,0.00012995956090579297
1589541833.0823078,-0.29418023210530414,-4.39073837526287,8.65942441000078,0.4722222222222222,0.3711111111111111,-0.6522222222222223,-0.007062489975466782,0.009066580363933664,0.03669376671367838
1589541833.0923078,-0.30053077338372247,-4.409469226616277,8.632653866918613,0.4722222222222222,0.3711111111111111,-0.6522222222222223,-0.025116824139246652,0.04048577445541045,0.04761898180982622
1589541833.1023078,-0.3019599154285052,-4.387939873142758,8.704120253714484,0.4722222222222222,0.3711111111111111,-0.6522222222222223,-0.10109619515392669,0.012186235658868436,0.10452782425385428
1589541833.1123078,-0.2953699127540471,-4.3753699127540475,8.761479651016188,0.4686422803861908,0.37588436689248633,-0.6623653907576446,-0.012311881206608324,-0.01883062522967973,0.00574604700501978
1589541833.1223078,-0.3,-4.387363539845116,8.735818760929304,0.4655555555555556,0.38,-0.6711111111111111,0.004245397319062691,-0.04089545858838028,0.027884106405704906
1589541833.1323078,-0.30562155994093165,-4.395621559940932,8.652541280708821,0.4655555555555556,0.38,-0.6711111111111111,0.06382736612623124,-0.010667121316873314,0.03192931552197339
1589541833.1423078,-0.2989543918330372,-4.422091216333926,8.611045608166963,0.4655555555555556,0.38,-0.6711111111111111,0.05657090777509276,-0.0006697923723889415,-0.012391063872403123
1589541833.1523077,-0.28412832001291677,-4.398898240090418,8.690460159845,0.4655555555555556,0.38,-0.6711111111111111,0.0099178683472268,0.06906452834329962,-0.050709145096933625
1589541833.1623077,-0.2842861132165796,-4.36571388678342,8.74857222643316,0.472222842781346,0.38,-0.6692061719037424,0.01137493639961288,0.05998868686361129,-0.0612416605230209
1589541833.1723077,-0.2957260356558436,-4.354273964344157,8.76,0.4811111111111111,0.38,-0.6666666666666666,-0.05855528156910805,0.0008637583510698807,-0.02128759419301434
1589541833.1823077,-0.29311292751129275,-4.391322434932244,8.663580985158099,0.4811111111111111,0.38,-0.6666666666666666,-0.0158032731117541,0.02562398815482415,0.026633775067182026
1589541833.1923077,-0.2954628432795752,-4.41,8.647314216397875,0.4811111111111111,0.38,-0.6666666666666666,0.028866484041740137,-0.011654971701598887,0.02030196455943227
1589541833.2023077,-0.30310634358657873,-4.403787312826842,8.688638061519473,0.4811111111111111,0.38,-0.6666666666666666,0.022294870559538278,-0.0573032149786216,0.035272911718687086
1589541833.2123077,-0.3099181472699516,-4.390163705460097,8.72950888361971,0.4811111111111111,0.38,-0.6666666666666666,-0.002968914923757608,-0.09445584068935084,0.10066153296957055
1589541833.2223077,-0.2833691682314343,-4.356845841157171,8.733261663537132,0.4744444444444445,0.38,-0.6444444444444445,-0.04002441653006604,-0.03533273899661658,-0.06272476199825601
1589541833.2323077,-0.2822457208364628,-4.393877139581768,8.681228604182314,0.4744444444444445,0.38,-0.6444444444444445,-0.09374663650028907,-0.027450928909735994,-0.058211692913438876
1589541833.2423077,-0.2789686737184703,-4.39103132628153,8.62,0.4744444444444445,0.38,-0.6444444444444445,-0.04968405811187936,-0.030969076448470887,-0.07917066091147743
1589541833.2523077,-0.29282059740882915,-4.385641194817659,8.645385376679462,0.4744444444444445,0.38,-0.6444444444444445,-0.024865144839519897,-0.04908666549433384,-0.009704415886508784
1589541833.2623076,-0.2963684040664838,-4.381842020332419,8.735421171534615,0.47686550840012193,0.3824210639556775,-0.6541287002671544,-0.057154023400830714,0.015960595241329457,0.07310854575818468
1589541833.2723076,-0.2986425,-4.3586425,8.771357499999999,0.4811111111111111,0.38666666666666666,-0.6711111111111111,-0.08978150932260984,0.037048703989014005,0.018973637923047734
1589541833.2823076,-0.30356690068843295,-4.382866198623134,8.676369708949629,0.4811111111111111,0.38666666666666666,-0.6711111111111111,0.06426146521734642,0.044404493497856724,0.039929789786303196
1589541833.2923076,-0.3,-4.396589168696177,8.656356674784705,0.4811111111111111,0.38666666666666666,-0.6711111111111111,0.1338932135801503,0.06117961513089912,-0.08006238923113868
1589541833.3023076,-0.3,-4.394619996205654,8.702280022766079,0.4811111111111111,0.38666666666666666,-0.6711111111111111,0.034079656252047605,0.057827110680328433,-0.06728892432253124
1589541833.3123076,-0.29431043405136165,-4.384310434051361,8.758447829743192,0.47289284918530017,0.3828736227009078,-0.6685824151339385,-0.0336281276935336,0.027346271790063326,0.09360325166601574
1589541833.3223076,-0.27160373719624564,-4.367735824797498,8.78,0.4666666666666667,0.38,-0.6666666666666666,0.005392443175204802,-0.07077038776595218,0.04403435109216182
1589541833.3323076,-0.2778550255324449,-4.377855025532445,8.70262822269274,0.4666666666666667,0.38,-0.6666666666666666,0.013765553541040032,-0.027619878888442376,-0.028569223660614804
1589541833.3423076,-0.29,-4.39,8.660180701406777,0.4666666666666667,0.38,-0.6666666666666666,0.02088347659299427,-0.005132070292098646,-0.06832140981411229
1589541833.3523076,-0.29,-4.39,8.683759820426488,0.4666666666666667,0.38,-0.6666666666666666,0.03665705625516542,-0.018087223136303187,-0.08659825222812662
1589541833.3623075,-0.29,-4.39,8.717384159050827,0.4666666666666667,0.38,-0.6666666666666666,0.0542627187891717,0.05233542699972198,-0.039649818804109824
1589541833.3723075,-0.28721345153708056,-4.37,8.768853806148321,0.4744444444444445,0.36777777777777776,-0.6577777777777778,-0.058529771193973144,0.0077391426775051154,-0.010753317024919676
1589541833.3823075,-0.282430595364835,-4.371215297682418,8.724201130128574,0.4744444444444445,0.36777777777777776,-0.6577777777777778,-0.04564060649545875,0.07548672292778992,0.10531801027897339
1589541833.3923075,-0.2963809305118875,-4.3836190694881125,8.617238138976225,0.4744444444444445,0.36777777777777776,-0.6577777777777778,-0.03493783751328909,-0.04277091736973766,0.011064069227545216
1589541833.4023075,-0.2881874824760896,-4.39,8.644500140191283,0.4744444444444445,0.36777777777777776,-0.6577777777777778,-0.03508360418521897,-0.020562053202581178,-0.00507231726111837
1589541833.4123075,-0.2768373652114212,-4.39,8.722650539154316,0.47057900192507035,0.369534797104766,-0.6619946241625495,0.03605019298313709,0.02324261224128762,0.014292522108741275
1589541833.4223075,-0.27618557489955997,-4.383814425100439,8.76237114979912,0.4622222222222222,0.37333333333333335,-0.6711111111111111,-0.0197136308029391,-0.00097838777013581,0.017239634101133296
1589541833.4323075,-0.29815698726484346,-4.378156987264844,8.716587114616408,0.4622222222222222,0.37333333333333335,-0.6711111111111111,0.008473538062428336,-0.017970793756680235,0.07875011290205032
1589541833.4423075,-0.3043858563193934,-4.39,8.626842431041819,0.4622222222222222,0.37333333333333335,-0.6711111111111111,-0.0281504731676542,-0.031519730379713354,0.07264412262002586
1589541833.4523075,-0.2806994343981518,-4.39,8.683950848402771,0.4622222222222222,0.37333333333333335,-0.6711111111111111,-0.00742135117641559,-0.028804954017519743,-0.04727278086277538
1589541833.4623075,-0.27469579026030644,-4.375912629219081,8.704695790260306,0.4710920482694676,0.37333333333333335,-0.6690240932176416,-0.05286188524961995,0.02218588680036197,0.06094529594604327
1589541833.4723074,-0.28446291949615665,-4.364462919496157,8.714462919496157,0.4811111111111111,0.37333333333333335,-0.6666666666666666,-0.03385202993659877,0.025937247449778253,0.13990675350523946
1589541833.4823074,-0.29735215769845497,-4.37,8.69059136920618,0.4811111111111111,0.37333333333333335,-0.6666666666666666,-0.0342981141665388,0.012453603003791454,0.11424026118191707
1589541833.4923074,-0.30508754280821915,-4.384737371575342,8.644912457191781,0.4811111111111111,0.37333333333333335,-0.6666666666666666,-0.011003802214956223,0.009437694219092935,-0.017357798129951633
1589541833.5023074,-0.29620100754614437,-4.396201007546145,8.665195969815423,0.4811111111111111,0.37333333333333335,-0.6666666666666666,0.009464454567612648,0.05263288738358937,0.02101956742563171
1589541833.5123074,-0.29,-4.38686056917845,8.7025577232862,0.4790181572300778,0.3775192410954,-0.6666666666666666,0.029021331365859264,-0.002664110618787208,0.09614520429186367
1589541833.5223074,-0.2943315753267599,-4.37566842467324,8.74299472598028,0.4744444444444445,0.38666666666666666,-0.6666666666666666,0.029884160989956218,0.06034587948433444,0.07433382697774576
1589541833.5323074,-0.28941201757737867,-4.380587982422621,8.712354079098203,0.4744444444444445,0.38666666666666666,-0.6666666666666666,0.07244333524505886,0.023936013994388827,0.033687476392157696
1589541833.5423074,-0.2874689326257809,-4.39,8.68120339893867,0.4744444444444445,0.38666666666666666,-0.6666666666666666,0.07264191478040297,-0.015131091327031512,0.06544556041786179
1589541833.5523074,-0.29862770652528065,-4.391372293474719,8.7,0.4744444444444445,0.38666666666666666,-0.6666666666666666,0.031035316706460068,0.030394989570192935,0.12816080749897463
1589541833.5623074,-0.29,-4.395247631232501,8.7047523687675,0.4744444444444445,0.3821783183862507,-0.6666666666666666,0.03660202381686459,0.025779334406212898,0.12044601520253609
1589541833.5723073,-0.29,-4.38,8.72056663240836,0.4744444444444445,0.36777777777777776,-0.6666666666666666,0.0641300874460311,0.16227051482552152,-0.022554897696486158
1589541833.5823073,-0.2926978703115067,-4.377302129688493,8.71571916719644,0.4744444444444445,0.36777777777777776,-0.6666666666666666,0.0020563165783837357,-0.010272394393591868,0.051998752238796804
1589541833.5923073,-0.29800653343581857,-4.371993466564182,8.653986933128364,0.4744444444444445,0.36777777777777776,-0.6666666666666666,0.0630329147333198,0.028661012852540038,0.01941393717927436
1589541833.6023073,-0.29,-4.384080725290445,8.682242175871334,0.4744444444444445,0.36777777777777776,-0.6666666666666666,0.03591905802555412,-0.058440134729428495,0.0024310949284722695
1589541833.6123073,-0.2829659542743539,-4.39,8.714068091451292,0.47170898221780433,0.36973167936823503,-0.6615865225314778,-0.03151386817648341,-0.05187016935690249,-0.009622976275459851
1589541833.6223073,-0.2810784193463594,-4.386307193551214,8.736307193551214,0.4666666666666667,0.37333333333333335,-0.6522222222222223,-0.03613286884831435,-0.05616710924508419,0.0019606663021095073
1589541833.6323073,-0.3,-4.373379440777275,8.712345175406067,0.4666666666666667,0.37333333333333335,-0.6522222222222223,-0.05752803526849069,-0.019085938458590367,-0.01600171009025024
1589541833.6423073,-0.3048315825926353,-4.369326330370541,8.654831582592635,0.4666666666666667,0.37333333333333335,-0.6522222222222223,-0.046953925196873136,-0.0017774888020173681,0.018445352938155992
1589541833.6523073,-0.2986271469003218,-4.386209048966774,8.675163804132904,0.4666666666666667,0.37333333333333335,-0.6522222222222223,-0.006209738092689377,-0.04560897439549996,-0.008690909741877223
1589541833.6623073,-0.28,-4.382273050377198,8.709092201508794,0.46994996165595326,0.3748487002514656,-0.6555055172115088,-0.011108684917867248,-0.09212491299895816,-0.006247908333425219
1589541833.6723073,-0.2856406923445304,-4.3928203461722655,8.742820346172266,0.4811111111111111,0.38,-0.6666666666666666,-0.03292231332367955,-0.06357654638864445,0.030092996634796965
1589541833.6823072,-0.3,-4.39071517192485,8.703575859624246,0.4811111111111111,0.38,-0.6666666666666666,0.014728245645803568,-0.06217464782616276,0.08403906707605152
1589541833.6923072,-0.3,-4.373844100928879,8.665389747677803,0.4811111111111111,0.38,-0.6666666666666666,0.0015980980987571978,-0.08953024271661505,-0.0022696025188292755
1589541833.7023072,-0.3,-4.361137947711303,8.70056897385565,0.4811111111111111,0.38,-0.6666666666666666,0.02888447047247984,-0.07633180800412406,-0.03218330959059706
1589541833.7123072,-0.30309250791417514,-4.38,8.716185015828351,0.47904943916832765,0.38,-0.6621997107906359,0.05360832821058154,-0.054440628644415984,-0.06530473537682212
1589541833.7223072,-0.31,-4.38,8.712081458868894,0.4744444444444445,0.38,-0.6522222222222223,0.005108668665053592,-0.033223456277080565,-0.013746457083327671
1589541833.7323072,-0.30072307519532815,-4.38,8.676084612792993,0.4744444444444445,0.38,-0.6522222222222223,-0.020752630809585837,-0.01130268416552636,-0.005394581821811215
1589541833.7423072,-0.27380677351558613,-4.38,8.63571016027338,0.4744444444444445,0.38,-0.6522222222222223,0.061458534375440424,0.0033778810460854715,-0.06852101223174209
1589541833.7523072,-0.29,-4.37,8.678032377152553,0.4744444444444445,0.38,-0.6522222222222223,0.0659973008796789,0.06704873659023405,-0.009510470621510968
1589541833.7623072,-0.29,-4.373738357027803,8.721869178513902,0.4744444444444445,0.3812461190092677,-0.6522222222222223,0.04403086238206946,0.04119664275670225,0.037261431938860834
1589541833.7723072,-0.2930386587899247,-4.386961341210075,8.73,0.4744444444444445,0.38666666666666666,-0.6522222222222223,0.05005170540064521,0.00973313664634026,0.001729580046201865
1589541833.7823071,-0.29984581926772264,-4.380154180732277,8.73,0.4744444444444445,0.38666666666666666,-0.6522222222222223,0.02777532482891927,-0.005117783734810366,0.037371788960963374
1589541833.7923071,-0.29,-4.382708756236022,8.654582487527955,0.4744444444444445,0.38666666666666666,-0.6522222222222223,-0.1211673740924579,0.08819733739408289,0.1190627255935473
1589541833.8023071,-0.29,-4.361062618269396,8.697874763461208,0.4744444444444445,0.38666666666666666,-0.6522222222222223,-0.02750535541501742,0.13306065726478966,-0.03913950763473448
1589541833.8123071,-0.3,-4.364737126882496,8.72684191541167,0.47742707988897914,0.38561397180388973,-0.6545030610915723,0.03496314809335719,-0.06665459080344721,0.1304964731062252
1589541833.822307,-0.3,-4.391359732259211,8.715438929036845,0.4933333333333334,0.38,-0.6666666666666666,-0.03353784505258518,0.002908192859767827,0.02178850811584631
1589541833.832307,-0.296718826280223,-4.396718826280223,8.713907089082454,0.4933333333333334,0.38,-0.6666666666666666,-0.016668642149790205,-0.08518668366003188,0.0811306060152262
1589541833.842307,-0.29257747605137324,-4.384845047897254,8.658042332359614,0.4933333333333334,0.38,-0.6666666666666666,-0.06640545651349303,-0.08853538093787156,0.08032818638462916
1589541833.852307,-0.29942229547791177,-4.371155409044176,8.705956068345383,0.4933333333333334,0.38,-0.6666666666666666,-0.05445899294373631,-0.007896751842013813,0.09376795790060544
1589541833.862307,-0.29193058198653676,-4.37579174595961,8.73,0.4881851147025687,0.37764039979423286,-0.6666666666666666,0.06373665362779574,0.08585616250150664,0.03757329093981239
1589541833.872307,-0.2919682282187228,-4.389290970958298,8.721968228218723,0.4666666666666667,0.36777777777777776,-0.6666666666666666,0.10040587199368399,0.09198859801546176,0.0717788580262011
1589541833.882307,-0.27542029862237744,-4.3681304479335665,8.695934776033216,0.4666666666666667,0.36777777777777776,-0.6666666666666666,-0.05589794627458143,-0.06424677460796234,-0.020471246686657098
1589541833.892307,-0.3051249622908593,-4.410249924581718,8.66756248114543,0.4666666666666667,0.36777777777777776,-0.6666666666666666,0.00242702444933,-0.06628151903942886,-0.011658521360825309
1589541833.902307,-0.29,-4.38,8.671536516680714,0.4666666666666667,0.36777777777777776,-0.6666666666666666,-0.01468638204430597,-0.019469184758228647,-0.07128962251528148
1589541833.912307,-0.29,-4.38,8.722800634584877,0.4666666666666667,0.36777777777777776,-0.6653182129776524,0.03797540949299552,0.02409838060032088,0.10101919869884171
1589541833.922307,-0.29529128825553147,-4.38,8.747354355872234,0.4666666666666667,0.36777777777777776,-0.6522222222222223,0.02329923558435252,-0.04504705513660354,-0.10189968426561355
1589541833.932307,-0.3089688738158517,-4.38,8.740515563092075,0.4666666666666667,0.36777777777777776,-0.6522222222222223,-0.00952461340638542,-0.03460310318500509,0.0689335297998181
1589541833.942307,-0.29,-4.385737765280846,8.644917821517039,0.4666666666666667,0.36777777777777776,-0.6522222222222223,-0.036855978592311385,0.07984599071666362,-0.007170476135835813
1589541833.952307,-0.29,-4.3716977974158135,8.694057709044653,0.4666666666666667,0.36777777777777776,-0.6522222222222223,0.010621231718250121,-0.09551338284976513,-0.09906185093047097
1589541833.962307,-0.29831226866480093,-4.371687731335199,8.7316877313352,0.4673230066303552,0.3688091691492883,-0.6527847993339553,-0.05066200934382221,0.09379766050138028,0.04220176824538785
1589541833.972307,-0.2809382041652441,-4.390938204165244,8.746716285421646,0.4744444444444445,0.38,-0.6588888888888889,0.2263200886666295,0.07710456756214673,0.05961879964301132
1589541833.982307,-0.29491139286426876,-4.402367089296403,8.674911392864269,0.4744444444444445,0.38,-0.6588888888888889,-0.06403590817581302,-0.004112019112854127,0.024288243388535528
1589541833.992307,-0.2794533133511436,-4.38,8.661093373297714,0.4744444444444445,0.38,-0.6588888888888889,-0.09900225800986534,0.037224929187452044,0.06986541225251931
1589541834.002307,-0.26222951787229337,-4.382229517872293,8.704459035744586,0.4744444444444445,0.38,-0.6588888888888889,-0.018808813438087015,0.003272492347489368,-0.04326484604722055
1589541834.012307,-0.26996550960935484,-4.389965509609355,8.719931019218711,0.4744444444444445,0.38,-0.6588888888888889,-0.04243705561387674,0.003272492347489368,-0.038201651295265614
1589541834.022307,-0.28549975502204805,-4.4,8.741750367466928,0.4666666666666667,0.38666666666666666,-0.6877777777777778,0.028386586302321725,-0.003653294372246218,-0.025472047858103797
1589541834.032307,-0.3,-4.396618540433925,8.704783431952663,0.4666666666666667,0.38666666666666666,-0.6877777777777778,0.13393138588971298,-0.05664445432563549,0.05711237124590636
1589541834.042307,-0.2952496384546519,-4.377624819227326,8.646626265408718,0.4666666666666667,0.38666666666666666,-0.6877777777777778,-0.016144611088783543,-0.006134148419965096,0.0885587676717698
1589541834.052307,-0.2835333414308272,-4.371766670715414,8.703533341430827,0.4666666666666667,0.38666666666666666,-0.6877777777777778,-0.019045881613300203,0.043669534911470534,-0.0384336001534607
1589541834.062307,-0.2992117493957985,-4.38,8.721576501208403,0.4666666666666667,0.3864039164652662,-0.6865954018714755,0.027474780673620074,-0.07428944966000078,-0.022960578550851693
1589541834.0723069,-0.28,-4.38184876647516,8.756302467049679,0.4666666666666667,0.38,-0.6577777777777778,-0.020322446591282146,-0.08830206984344377,0.09714754993333691
1589541834.0823069,-0.28,-4.388936127069956,8.742127745860088,0.4666666666666667,0.38,-0.6577777777777778,-0.018776224370591073,-0.029545625457182992,-0.0489704499219695
1589541834.0923069,-0.2864971732568417,-4.386497173256841,8.638757066857897,0.4666666666666667,0.38,-0.6577777777777778,-0.06116662201260929,0.032238058170756916,-0.012060772193023744
1589541834.1023068,-0.27250754632023083,-4.3725075463202305,8.673731134199423,0.4666666666666667,0.38,-0.6577777777777778,0.08228034554950041,0.05207646857828272,-0.04715949829864632
1589541834.1123068,-0.27,-4.39947345890411,8.72912243150685,0.4666666666666667,0.38,-0.6577777777777778,-0.018466607073889058,-0.05153615089017073,-0.017013411271179744
1589541834.1223068,-0.2881773399014778,-4.390911330049261,8.748177339901478,0.48686371100164205,0.3739408866995074,-0.652728516694034,-0.008828743722372795,-0.023708105479676663,-0.014379621546603525
1589541834.1323068,-0.3,-4.382029787137578,8.687672341486637,0.4888888888888889,0.37333333333333335,-0.6522222222222223,0.09740097864344015,-0.05405600283360891,-0.05528701722878128
1589541834.1423068,-0.3,-4.38837236084453,8.609765834932821,0.4888888888888889,0.37333333333333335,-0.6522222222222223,-0.05197923833476682,-0.08151081227134266,-0.08211631757325816
1589541834.1523068,-0.29854545079260236,-4.3814545492073975,8.671636393659181,0.4888888888888889,0.37333333333333335,-0.6522222222222223,-0.047381701246876476,-0.007001193688434463,-0.05825026922022474
1589541834.1623068,-0.2903229747042874,-4.389838512647856,8.739838512647857,0.4887632876149993,0.37344099156809585,-0.6523119374178576,0.0020420698058884732,-0.1042251875298362,0.15364460287279627
1589541834.1723068,-0.3047543361097501,-4.381748554630083,8.73524566389025,0.4811111111111111,0.38,-0.6577777777777778,0.03138503480673169,-0.016409750668184363,-0.021871793195242656
1589541834.1823068,-0.28009407153356203,-4.389968642822145,8.759905928466438,0.4811111111111111,0.38,-0.6577777777777778,-0.10311584371433304,-0.057656686747977554,0.13683924345961368
1589541834.1923068,-0.30794399857321203,-4.40485999643303,8.662056001426787,0.4811111111111111,0.38,-0.6577777777777778,-0.03542668973293564,0.028779606233845238,0.15704951664504516
1589541834.2023067,-0.2929830568931692,-4.367457642232924,8.67701694310683,0.4811111111111111,0.38,-0.6577777777777778,0.00047699285045921247,0.023883649517927756,0.06157836068465426
1589541834.2123067,-0.29,-4.368729106553329,8.723645532766644,0.4811111111111111,0.38,-0.6577777777777778,0.007635815477475192,-0.0875474998994987,-0.06219935893532503
1589541834.2223067,-0.29,-4.393246894474884,8.737748964824961,0.4664741775528508,0.38,-0.653472797319466,-0.004198117631494892,-0.0309347638106328,-0.025041567503238
1589541834.2323067,-0.3034816448307173,-4.379777532753924,8.719777532753925,0.4622222222222222,0.38,-0.6522222222222223,-0.039989440473542734,0.009300574091571806,0.02841862522561172
1589541834.2423067,-0.29897669203043653,-4.38,8.612558269923909,0.4622222222222222,0.38,-0.6522222222222223,-0.04187264701745751,-0.039254408499803134,0.027260844181803343
1589541834.2523067,-0.2855388065678815,-4.38,8.646152983580297,0.4622222222222222,0.38,-0.6522222222222223,-0.033077571548927494,0.03257204115985865,0.08442883472724846
1589541834.2623067,-0.26226896799712335,-4.388865516001438,8.695462064005753,0.4622222222222222,0.38,-0.6522222222222223,-0.03912320888448814,0.06797982125654828,-0.05834512995469268
1589541834.2723067,-0.2892091902388807,-4.37,8.739209190238881,0.4744444444444445,0.38,-0.6666666666666666,0.01757015722018548,0.08741129928324441,0.04126242706321326
1589541834.2823067,-0.2814290194631492,-4.3709526796421,8.724760261968454,0.4744444444444445,0.38,-0.6666666666666666,0.036570351019831145,-0.09479630418362785,-0.07505948153636352
1589541834.2923067,-0.3046425606493866,-4.3864283737662575,8.639643944285583,0.4744444444444445,0.38,-0.6666666666666666,0.11675682779270524,0.01324442241561305,-0.07168320883013723
1589541834.3023067,-0.3073882154987069,-4.378258810332471,8.67609416383635,0.4744444444444445,0.38,-0.6666666666666666,-0.006208724796208369,0.0808678034747576,0.07127870308849471
1589541834.3123066,-0.2877844078147883,-4.365189605209859,8.721836381765494,0.4744444444444445,0.38,-0.6666666666666666,0.020878228579753,0.10652912772566836,0.04134049146243214
1589541834.3223066,-0.28,-4.379845399254464,8.74,0.456804089551588,0.38,-0.6666666666666666,0.0597764568094084,-0.015333737898854727,-0.10909459221788148
1589541834.3323066,-0.2886341261633919,-4.38,8.757268252326783,0.4566666666666666,0.38,-0.6666666666666666,0.03550792947994162,-0.04273389941460749,-0.049896337198632
1589541834.3423066,-0.2990083349580815,-4.4,8.643966660167674,0.4566666666666666,0.38,-0.6666666666666666,-0.0021916840646273687,-0.07516008058767877,0.00722223450449563
1589541834.3523066,-0.28706027036067766,-4.399020090120226,8.683919639519097,0.4566666666666666,0.38,-0.6666666666666666,0.1189470681569859,0.0331797707843107,-0.11313645870830955
1589541834.3623066,-0.2623010172959997,-4.3907670057653325,8.716931976938668,0.4566666666666666,0.38,-0.6666666666666666,0.05502776705650246,-0.06404958863614298,0.07321981351422668
1589541834.3723066,-0.26757853429214556,-4.39,8.742735602876436,0.48108638827469125,0.38,-0.6700349041298425,0.05404752430758694,-0.06977890303043159,0.039284184296326075
1589541834.3823066,-0.3,-4.380906519615823,8.710934803841772,0.4888888888888889,0.38,-0.6711111111111111,-0.023309160894040844,-0.014990399756549151,-0.0919727235367504
1589541834.3923066,-0.3,-4.389441233924792,8.625587660752075,0.4888888888888889,0.38,-0.6711111111111111,-0.006551288535574313,0.03900718895406523,0.058848127689448415
1589541834.4023066,-0.30963849995906,-4.39927699991812,8.643615000409401,0.4888888888888889,0.38,-0.6711111111111111,-0.030345602979116794,0.09910786705816506,-0.1085965675420178
1589541834.4123065,-0.30105277163678046,-4.3821055432735605,8.729472283632196,0.4888888888888889,0.38,-0.6711111111111111,0.052071472368911915,0.09536163636052739,-0.07113426056564112
1589541834.4223065,-0.29118935441165017,-4.3711893544116505,8.7376212911767,0.4566666666666666,0.37333333333333335,-0.6444444444444445,0.04436901751764446,0.0691457253746821,-0.023494741706531118
1589541834.4323065,-0.2993551904057316,-4.3793551904057315,8.721289619188537,0.4566666666666666,0.37333333333333335,-0.6444444444444445,-0.017983799352486736,0.012137435664847832,0.09230334676656972
1589541834.4423065,-0.31419344171948194,-4.38,8.670322953981813,0.4566666666666666,0.37333333333333335,-0.6444444444444445,-0.056969261334222324,-0.017136413542013354,0.14866932434057042
1589541834.4523065,-0.28,-4.37,8.710261799685842,0.4566666666666666,0.37333333333333335,-0.6444444444444445,0.10691830665188858,-0.002004684082216727,-0.1146514638245929
1589541834.4623065,-0.28,-4.37,8.718105131273843,0.4566666666666666,0.37333333333333335,-0.6444444444444445,0.009382784769766339,-0.029383076189479104,-0.11807376283800068
1589541834.4723065,-0.3279113348599138,-4.361253199084052,8.737911334859914,0.4744444444444445,0.36777777777777776,-0.6588888888888889,-0.0632653936573069,0.06744086291398702,0.10225631274470827
1589541834.4823065,-0.29260102370689656,-4.382439385775862,8.702601023706896,0.4744444444444445,0.36777777777777776,-0.6588888888888889,-0.04477695797159213,0.00889414990922352,0.04216889676613522
1589541834.4923065,-0.27,-4.389763358602733,8.650473282794534,0.4744444444444445,0.36777777777777776,-0.6588888888888889,-0.021152123532671607,-0.02685775240952811,0.03912168749371901
1589541834.5023065,-0.27,-4.380098850203922,8.669802299592156,0.4744444444444445,0.36777777777777776,-0.6588888888888889,0.05053581062933493,-0.00999000319493834,-0.011481560150050314
1589541834.5123065,-0.3043972160079543,-4.388599304001988,8.704397216007955,0.4744444444444445,0.36777777777777776,-0.6588888888888889,-0.07255204199973259,-0.006065322837102467,0.01801809503546408
1589541834.5223064,-0.31,-4.39,8.732239711739048,0.4744444444444445,0.3718962429146385,-0.6588888888888889,-0.0215586475130482,-0.03456586850304386,0.06657501831826797
1589541834.5323064,-0.29830234804723693,-4.384151174023618,8.73415117402362,0.4744444444444445,0.37333333333333335,-0.6588888888888889,0.0019964764641889968,-0.011547649116545045,0.02439159393871751
