time,acc_x,acc_y,acc_z,mag_x,mag_y,mag_z,gyr_x,gyr_y,gyr_z
1589543864.0896904,0.4,-4.14,8.82,0.4811111111111111,0.4088888888888889,-0.6888888888888889,0.002181661564992912,-0.00545415391248228,0.030543261909900768
1589543864.0996904,0.4994104791361843,-4.127352619784046,8.70676309892023,0.4811111111111111,0.4088888888888889,-0.6888888888888889,0.0032081855969719633,-0.005518460662999684,0.03381575425739013
1589543864.1096904,0.4708583559652679,-4.120858355965268,8.676008491756875,0.4811111111111111,0.4088888888888889,-0.6888888888888889,-0.0002808963327761214,-0.008726646259971648,0.03390938636831551
1589543864.1196904,0.49777453800386146,-4.1335549076007725,8.76843926080618,0.4811111111111111,0.4088888888888889,-0.6888888888888889,-0.00249693181951876,-0.006012184412074521,0.03490658503988659
1589543864.1296904,0.53,-4.143064585754607,8.816935414245393,0.489283339790064,0.4044622650211227,-0.6916129651152065,-0.0007565363348238745,-8.794743947871135e-05,0.034572290592214006
1589543864.1396904,0.5394998984908981,-4.140500101509102,8.805250050754552,0.5077777777777778,0.3944444444444444,-0.6977777777777778,-0.0010362781704463186,0.0016635224797697527,0.03070691974605118
1589543864.1496904,0.5412954889847302,-4.13870451101527,8.786943233477096,0.5077777777777778,0.3944444444444444,-0.6977777777777778,-0.0036059338492982857,-0.00033344150180891785,0.023947467565698863
1589543864.1596904,0.5089579324924582,-4.137374759495475,8.77,0.5077777777777778,0.3944444444444444,-0.6977777777777778,-0.00545415391248228,-0.004017928362160513,0.01688055388918481
1589543864.1696904,0.4741201680812951,-4.12,8.778819747878057,0.5077777777777778,0.3944444444444444,-0.6977777777777778,-0.006416239160406556,-0.008148460108185863,0.013731359555240321
1589543864.1796904,0.46007667453501416,-4.12,8.79988498819748,0.5077777777777778,0.3944444444444444,-0.6977777777777778,-0.008714100418517593,-0.011978228871704256,0.01526326706064768
1589543864.1896904,0.4249550536162446,-4.122432580424367,8.834955053616245,0.5011111111111111,0.3944444444444444,-0.6977777777777778,-0.010092636183040335,-0.01909444158358421,0.016372267517239303
1589543864.1996903,0.4121957563312799,-4.10329363449692,8.822195756331281,0.5011111111111111,0.3944444444444444,-0.6977777777777778,-0.010788547895113477,-0.020486265007730497,0.01915591436553188
1589543864.2096903,0.40969900978989593,-4.092725742657578,8.69212376223737,0.5011111111111111,0.3944444444444444,-0.6977777777777778,-0.006015985773051087,-0.011205640224569543,0.026940604224165256
1589543864.2196903,0.4489411623870234,-4.078941162387023,8.744901937311706,0.5011111111111111,0.3944444444444444,-0.6977777777777778,-0.005663762485061107,-0.007426206904896366,0.03370025299120014
1589543864.2296903,0.4672063806926192,-4.098603190346309,8.78,0.4994038993121562,0.3970828626791929,-0.6935873488167067,-0.008269541369711541,-0.004210954833232455,0.035997415822383035
1589543864.2396903,0.45,-4.09023332699981,8.780349990499714,0.4888888888888889,0.4133333333333333,-0.6677777777777778,-0.0055177839809273516,-0.003310670388556411,0.03598468980869402
1589543864.2496903,0.4578852307590803,-4.112628410253027,8.80211476924092,0.4888888888888889,0.4133333333333333,-0.6677777777777778,-0.010621592743661472,-0.007691845020191088,0.03490658503988659
1589543864.2596903,0.4786401873783525,-4.119546729126117,8.781359812621647,0.4888888888888889,0.4133333333333333,-0.6677777777777778,-0.009866921224672115,-0.010710531096148522,0.03490658503988659
1589543864.2696903,0.4874541076674987,-4.097454107667499,8.770183569330005,0.4888888888888889,0.4133333333333333,-0.6677777777777778,-0.0019039477924715032,-0.00029773808011058817,0.029174717354882904
1589543864.2796903,0.5084038222812437,-4.101834925950518,8.814201911140623,0.4933598609146402,0.41044035143431773,-0.6711967563857053,-0.0028982169974512495,-0.006428907375648445,0.027587006252784367
1589543864.2896903,0.6067233341284125,-4.133276665871588,8.856638332935793,0.5077777777777778,0.4011111111111111,-0.6822222222222222,-0.012393656174112325,-0.011256464432887133,0.023255603040348148
1589543864.2996902,0.6065476869003514,-4.079643060701055,8.817714448560844,0.5077777777777778,0.4011111111111111,-0.6822222222222222,-0.02168934169641898,-0.00969020308895796,0.018754502251443594
1589543864.3096902,0.5987783878534787,-3.9181989018637386,8.732877838785349,0.5077777777777778,0.4011111111111111,-0.6822222222222222,-0.028840387129471234,-0.01558555446836235,0.017618155791094707
1589543864.3196902,0.6853435523635975,-3.738854825454675,8.745114517454532,0.5077777777777778,0.4011111111111111,-0.6822222222222222,-0.03272492347489368,-0.017478276352850722,0.02546799698289918
1589543864.3296902,0.729916440297626,-3.587827447738278,8.760083559702373,0.5076756492526541,0.4011111111111111,-0.6823429195700956,-0.0326884636766834,-0.02077135961519552,0.03941574736271357
1589543864.3396902,0.7149783705839942,-3.3124242970439797,8.759956741167988,0.4955555555555556,0.4011111111111111,-0.6966666666666667,-0.02781382555038097,-0.02617993877991494,0.05617542589528882
1589543864.3496902,0.6326057677071779,-3.253260576770718,8.662605767707179,0.4955555555555556,0.4011111111111111,-0.6966666666666667,-0.029855723937301293,-0.029488145421562653,0.0556442746720387
1589543864.3596902,0.4382948749089143,-3.255997625023615,8.55056837503036,0.4955555555555556,0.4011111111111111,-0.6966666666666667,-0.044317823074240134,-0.0454706539546487,0.0573154399916666
1589543864.3696902,0.11052896081771721,-3.281554514480409,8.659823679727428,0.4955555555555556,0.4011111111111111,-0.6966666666666667,-0.08082373167612933,-0.08644745681331827,0.05935587525465852
1589543864.3796902,-0.24402485776805252,-3.096109759299781,8.761460131291027,0.4955555555555556,0.4011111111111111,-0.6945575881351811,-0.09262949275737908,-0.09156276050350426,0.0908616499037644
1589543864.3896902,-0.5156906783369803,-2.523408840262582,8.768802450765865,0.4955555555555556,0.4011111111111111,-0.6839520155604182,0.00107847599008902,-0.0034612514246880888,0.20218992046699574
1589543864.3996902,-0.29853971728226175,-2.629264021887825,8.556331782945737,0.4955555555555556,0.4011111111111111,-0.6822222222222222,0.06510704852659299,0.010458465724436289,0.48299336822582306
1589543864.4096901,-0.2143859553123575,-2.744019151846785,8.816443410852713,0.4955555555555556,0.4011111111111111,-0.6822222222222222,-0.017510714091093046,-0.055468839798767725,0.6231932078194721
1589543864.4196901,-0.053903710890128555,-2.8220120361387337,8.869819457918991,0.4955555555555556,0.4011111111111111,-0.6822222222222222,-0.003665497671397828,-0.04034104486641881,0.8139238811252733
1589543864.4296901,-0.003039049235993213,-2.828370118845501,8.774448217317488,0.4955555555555556,0.4011111111111111,-0.6822222222222222,0.01922195703146131,-0.029937656365119206,0.90061878530277
1589543864.43969,0.03693155788254839,-2.890951997382133,8.88,0.4955555555555556,0.4088888888888889,-0.7111111111111111,0.0035033606541631716,-0.05126904677733343,1.0503550487214954
1589543864.44969,0.09278391595725413,-2.8488643361709833,8.853541025176598,0.4955555555555556,0.4088888888888889,-0.7111111111111111,0.008036702211343207,-0.051531430997430384,1.1495584168556119
1589543864.45969,0.06016717787819898,-2.9596656442436022,8.77393312884872,0.4955555555555556,0.4088888888888889,-0.7111111111111111,0.017704283976067128,-0.05386150986672806,1.2214934047876316
1589543864.46969,0.03603369323194555,-3.031983153384027,8.799620215939166,0.4955555555555556,0.4088888888888889,-0.7111111111111111,0.008068472429016975,-0.062094498573446434,1.2880732024598276
1589543864.47969,0.12229331098228213,-2.99,8.850458662196456,0.4966767298135602,0.4073090524344279,-0.7091235749264666,-0.0007406047926329807,-0.07298559785873013,1.339950338651138
1589543864.48969,0.16886803553568278,-2.990848973348238,8.859151026651762,0.52,0.3744444444444445,-0.6677777777777778,0.00666846286321567,-0.07071878360991424,1.3713595108504002
1589543864.49969,0.11200561378001253,-3.041593263463985,8.803008420670018,0.52,0.3744444444444445,-0.6677777777777778,0.010515731216946711,-0.06416272786328198,1.3792895847250954
1589543864.50969,0.03,-3.142346349048024,8.684301639921378,0.52,0.3744444444444445,-0.6677777777777778,0.008470699283165045,-0.06365210585000436,1.3871284498244798
1589543864.51969,0.03549110610919666,-3.179865944266279,8.780848156484671,0.52,0.3744444444444445,-0.6677777777777778,0.003179972827303923,-0.07108903990264054,1.406894150859872
1589543864.52969,0.05911553291759889,-3.091547817394202,8.742211167706003,0.5201719797104669,0.3738547997228438,-0.6685639707399121,0.007635815477475192,-0.06227383499425678,1.4201893185164165
1589543864.53969,0.01842119790229092,-3.161578802097709,8.842105069463612,0.5277777777777778,0.3477777777777778,-0.7033333333333334,0.007635815477475192,-0.06648327086802877,1.4168169658701315
1589543864.54969,-0.0511229229666116,-3.239067867942763,8.888220220095395,0.5277777777777778,0.3477777777777778,-0.7033333333333334,0.009022469964711389,-0.0629723616800547,1.4097508745242995
1589543864.55969,-0.09688795710322039,-3.317522212176949,8.757462979705085,0.5277777777777778,0.3477777777777778,-0.7033333333333334,0.014727830878792987,-0.0572670007659731,1.4068981940672585
1589543864.56969,-0.1307546631424023,-3.3247173580031837,8.86698134743039,0.5277777777777778,0.3477777777777778,-0.7033333333333334,0.009817477042468105,-0.06989549105838798,1.3996182149215675
1589543864.57969,-0.13705373501937346,-3.280623854864386,8.841785059922506,0.5277777777777778,0.3477777777777778,-0.7033333333333334,0.009817477042468105,-0.07058261320884376,1.4003053370720235
1589543864.58969,-0.14875696242253078,-3.3212987369577154,8.92632658664784,0.5443187067981137,0.33123684875744186,-0.6906843876119,0.0126831862939665,-0.06230687310777445,1.3939400698052864
1589543864.59969,-0.2460132714001327,-3.305581420039814,8.708338951559389,0.5466666666666666,0.3288888888888889,-0.6888888888888889,0.010386446271581251,-0.06047044691495855,1.3761536936328742
1589543864.60969,-0.21160972494640334,-3.366682935729599,8.900097614377595,0.5466666666666666,0.3288888888888889,-0.6888888888888889,0.006172501036822075,-0.0740168715726542,1.3551896395571497
1589543864.61969,-0.2733435742013161,-3.3410838021298237,8.8,0.5466666666666666,0.3288888888888889,-0.6888888888888889,0.015271630954950384,-0.05139062256607865,1.3384426674907304
1589543864.62969,-0.29946380752703794,-3.2714298465945655,8.8,0.5466666666666666,0.3288888888888889,-0.6888888888888889,0.015271630954950384,-0.052340381051334886,1.321347014756118
1589543864.63969,-0.4275937572792919,-3.3497460982995575,8.887720708129514,0.5581855475321583,0.2916740430157621,-0.7066102440665684,0.007442576062127287,-0.05757924748837862,1.3114272327342023
1589543864.64969,-0.5097034419661167,-3.39982206517967,8.85035586964066,0.5611111111111111,0.2822222222222222,-0.7111111111111111,0.00979159747189558,-0.062157944924368595,1.3100812998856004
1589543864.65969,-0.51,-3.31993288590604,8.66317673378076,0.5611111111111111,0.2822222222222222,-0.7111111111111111,0.017581003506410068,-0.058295591370327006,1.3236739410901421
1589543864.66969,-0.5832746217346094,-3.344955966300957,8.818494790229824,0.5611111111111111,0.2822222222222222,-0.7111111111111111,0.012549357330147564,-0.0688961388752956,1.3395690208942779
1589543864.67969,-0.5521357383856735,-3.3164404360238775,8.912135738385674,0.5629304438100182,0.2811939037402313,-0.7141169651353924,0.014883342759208393,-0.06412604324984571,1.3566015813954304
1589543864.6896899,-0.5786109481474795,-3.2519423259172346,8.903884651834469,0.5866666666666667,0.2677777777777778,-0.7533333333333333,0.010423565250153305,-0.060328913560195034,1.3664777499451695
1589543864.6996899,-0.5787590733590733,-3.150510888030888,8.679416061776061,0.5866666666666667,0.2677777777777778,-0.7533333333333333,0.014117102393479113,-0.05633304547604218,1.3713653869349693
1589543864.7096899,-0.6759243243243243,-3.2671091891891892,8.672938378378378,0.5866666666666667,0.2677777777777778,-0.7533333333333333,0.013410496748533186,-0.06410570757044741,1.3734852038698073
1589543864.7196898,-0.7280861649200804,-3.336172329840161,8.87215412300201,0.5866666666666667,0.2677777777777778,-0.7533333333333333,0.013972033150674143,-0.05528261586474682,1.3850315510741344
1589543864.7296898,-0.7471515123050911,-3.2542424384745448,8.559818241593087,0.5866666666666667,0.2677777777777778,-0.7533333333333333,0.012309860413577914,-0.06358551611308597,1.394085044491558
1589543864.7396898,-0.8343137674832375,-3.318274493006705,8.936352613630747,0.5911111111111111,0.2411111111111111,-0.7533333333333333,-0.0047183494547415935,-0.08863529789952271,1.400759347436357
1589543864.7496898,-0.8688626217031021,-3.304454951318759,8.666871550715804,0.5911111111111111,0.2411111111111111,-0.7533333333333333,0.018647561828725144,-0.04717964884821074,1.4105579553939402
1589543864.7596898,-0.9323896187561834,-3.36,8.888848445804477,0.5911111111111111,0.2411111111111111,-0.7533333333333333,0.016188683757601786,-0.06318129639487192,1.424663728026868
1589543864.7696898,-0.960800428653862,-3.353996785096035,8.752796142115242,0.5911111111111111,0.2411111111111111,-0.7533333333333333,0.014137143561712681,-0.06222101121303923,1.4383698204914475
1589543864.7796898,-0.9780879564751463,-3.2243403264364026,8.597208391723683,0.5911111111111111,0.2411111111111111,-0.7533333333333333,0.013194255186676641,-0.06316389958807528,1.4525131461169882
1589543864.7896898,-0.9934031943170324,-3.2807644720438454,9.081319361136593,0.6044444444444445,0.20777777777777776,-0.7533333333333333,0.004878474016071993,-0.08086539787884031,1.4622889284416611
1589543864.7996898,-0.955624407031904,-3.2125007906241283,9.05719095898056,0.6044444444444445,0.20777777777777776,-0.7533333333333333,0.002624649863419061,-0.07915368894696835,1.4656675532536574
1589543864.8096898,-1.0024401451027811,-3.150079806529625,8.78409915356711,0.6044444444444445,0.20777777777777776,-0.7533333333333333,0.015391661911670063,-0.05702420139666659,1.462263016707457
1589543864.8196898,-1.0697229691192047,-3.1391689073576146,8.791939216165567,0.6044444444444445,0.20777777777777776,-0.7533333333333333,0.01516586312058464,-0.06558583416540045,1.453926336161539
1589543864.8296897,-1.0526354599527419,-3.0879063798582256,8.911551780330807,0.6044444444444445,0.20777777777777776,-0.7533333333333333,0.008642009772345784,-0.07397364561313613,1.4446065456640549
1589543864.8396897,-1.0815736021007105,-3.0776395968489343,8.873705591597158,0.6166666666666667,0.17555555555555555,-0.7677777777777778,0.014180800172453925,-0.0662831976906554,1.4357658737424044
1589543864.8496897,-1.0977703120173001,-3.0533445319740498,8.8089187519308,0.6166666666666667,0.17555555555555555,-0.7677777777777778,0.014180800172453925,-0.06363301722782819,1.4269319388663138
1589543864.8596897,-1.1501184660169599,-3.06011846601696,8.77003948867232,0.6166666666666667,0.17555555555555555,-0.7677777777777778,0.00981532326950178,-0.06218381592119696,1.4049717407852216
1589543864.8696897,-1.2696496166577078,-3.1768465499193708,8.81490536679209,0.6166666666666667,0.17555555555555555,-0.7677777777777778,0.007635815477475192,-0.06860767661664285,1.3857197275756477
1589543864.8796897,-1.2637165813223188,-3.1234492319008687,8.897967861487537,0.6166666666666667,0.17555555555555555,-0.7677777777777778,0.007635815477475192,-0.06666609534339835,1.3734230461784325
1589543864.8896897,-1.3041860371429723,-3.0710631269387263,8.874252507754905,0.6040420846258174,0.15451458548747354,-0.781103725487563,0.011078636154052754,-0.05925276973194774,1.352637421114568
1589543864.8996897,-1.3984880016988743,-3.0751616054363984,9.10062561053302,0.5966666666666667,0.14222222222222222,-0.7888888888888889,-0.003239505661690367,-0.07037621388948563,1.3122364446574375
1589543864.9096897,-1.3539530685920578,-2.9326498194945847,8.824509025270759,0.5966666666666667,0.14222222222222222,-0.7888888888888889,-0.002267904143103643,-0.05483058959209802,1.311264843138851
1589543864.9196897,-1.5607106193680849,-3.0943812022356565,8.858127067411885,0.5966666666666667,0.14222222222222222,-0.7888888888888889,0.008121942529740923,-0.0471100288994132,1.3167266950732892
1589543864.9296896,-1.5816733682014694,-3.085008616259032,8.888332375971219,0.5966666666666667,0.14222222222222222,-0.7888888888888889,0.015634823487756667,-0.05290435306301991,1.332448234339324
1589543864.9396896,-1.6425709732045024,-3.1425709732045024,8.904514194640901,0.6095681730141338,0.11722555367400471,-0.7993713627962059,0.011612702648215036,-0.05374991260995082,1.3470512754987416
1589543864.9496896,-1.5547303472482836,-3.0187099052959225,8.871829400207512,0.6144444444444445,0.10777777777777778,-0.8033333333333333,0.007635815477475192,-0.05155050178044208,1.355621207639986
1589543864.9596896,-1.6565809399765998,-2.9909324709154728,8.695905649131326,0.6144444444444445,0.10777777777777778,-0.8033333333333333,0.007635815477475192,-0.0576105978766361,1.349561111543792
1589543864.9696896,-1.5334271456704205,-2.8520562874022524,8.913152974016787,0.6144444444444445,0.10777777777777778,-0.8033333333333333,-0.003242584859542216,-0.0676165547708067,1.3371641406689985
1589543864.9796896,-1.7339079976291991,-2.9723447985775193,9.097595357818864,0.6144444444444445,0.10777777777777778,-0.8033333333333333,-0.00149305938260021,-0.06674179203233568,1.3257922250688754
1589543864.9896896,-1.7096197008789042,-2.819619700878904,8.911140897363287,0.6055555555555555,0.07444444444444444,-0.8388888888888889,0.01089645519674034,-0.039382508138002495,1.3286555983371318
1589543864.9996896,-1.648033268307008,-2.7580332683070083,9.095900195078976,0.6055555555555555,0.07444444444444444,-0.8388888888888889,0.00897701587006701,-0.05761718174139913,1.3324944769904783
1589543865.0096896,-1.651576172738178,-2.705398699412842,8.822482164278048,0.6055555555555555,0.07444444444444444,-0.8388888888888889,0.010724528423291992,-0.03538481781680781,1.3302622164406586
1589543865.0196896,-1.5522730286002904,-2.5332732495738366,8.498091893427615,0.6055555555555555,0.07444444444444444,-0.8388888888888889,0.008558069894806189,-0.028163289388521806,1.323762840855201
1589543865.0296896,-1.60800450676014,-2.542926890335503,8.948027040560842,0.6055555555555555,0.07444444444444444,-0.8388888888888889,-0.013745451081993397,-0.07936463080222336,1.3037265930744064
1589543865.0396895,-1.7762807273411587,-2.642148620357084,9.091900919761944,0.5743802257716303,0.02278246937393981,-0.8433425074294496,-0.017227921045203428,-0.08309248435326765,1.28584610779298
1589543865.0496895,-1.8815874923228924,-2.633154690378915,8.874185959571683,0.5666666666666667,0.01,-0.8444444444444444,0.009016736349503604,-0.029848373951684645,1.2935543532526188
1589543865.0596895,-1.800875300463153,-2.5557294170526275,8.679177659221043,0.5666666666666667,0.01,-0.8444444444444444,0.01767030327536754,-0.021567778071533518,1.2996771371100702
1589543865.0696895,-1.8792283917145645,-2.584614195857282,9.0179034269602,0.5666666666666667,0.01,-0.8444444444444444,0.0009114310556061107,-0.046257861725610055,1.2954036389180306
1589543865.0796895,-1.8563273584264317,-2.5079897573024543,8.784961589884203,0.5666666666666667,0.01,-0.8444444444444444,-0.00519971983864793,-0.04006836100373263,1.2912161179148103
1589543865.0896895,-1.8630265551109495,-2.5145398326664243,8.78937613677701,0.5852158360615982,-0.036692736752758574,-0.8194990097409159,-0.0029423463994948055,-0.03788127145712365,1.286685104423826
1589543865.0996895,-1.8606222237645753,-2.462488895058301,8.966888881177123,0.5988888888888889,-0.07111111111111111,-0.8011111111111111,-0.015182747325116205,-0.04842965392257524,1.2740434894184949
1589543865.1096895,-1.8614361893781077,-2.391409526554731,8.716940981480146,0.5988888888888889,-0.07111111111111111,-0.8011111111111111,-0.009808751653921796,-0.02226333982207924,1.2748736737474275
1589543865.1196895,-1.921279725916969,-2.43593107617896,8.848958081418782,0.5988888888888889,-0.07111111111111111,-0.8011111111111111,0.006392857548366977,-0.010895777120691627,1.2827409366425264
1589543865.1296895,-1.797997127262281,-2.284186919467586,8.628373838935172,0.5988888888888889,-0.07111111111111111,-0.8011111111111111,-0.004550591293048129,-0.027073619890967966,1.2743187149878143
1589543865.1396894,-2.0787930781639536,-2.530435547734272,9.570630590995748,0.5631936908311744,-0.12006452559026251,-0.808250150722654,-0.05195947435575471,-0.10281228096648662,1.2396895919009063
1589543865.1496894,-2.0390485721433933,-2.4110020015011258,8.953390578648271,0.56,-0.12444444444444445,-0.8088888888888889,-0.023900009264413352,-0.06109755727744643,1.2447417075077873
1589543865.1596894,-2.1310512197774316,-2.29413020625657,8.20373001776199,0.56,-0.12444444444444445,-0.8088888888888889,0.020579679102350396,0.007304022926783643,1.2753354360481233
1589543865.1696894,-1.8146175879090742,-2.167981595465903,8.649939057834116,0.56,-0.12444444444444445,-0.8088888888888889,-0.034769840636230356,-0.06451583680327781,1.2755881605473913
1589543865.1796894,-1.9205867126833476,-2.2185159620362382,8.736445211389128,0.56,-0.12444444444444445,-0.8088888888888889,-0.0051727402766182234,-0.03641906568481481,1.2991625206641635
1589543865.1896894,-2.2659213268496003,-2.4404628343174717,9.188200764154221,0.5239379028211957,-0.15414264212110687,-0.8470722859017406,0.025288215873834563,-0.04898925212006313,1.323426387206066
1589543865.1996894,-2.21892521415509,-2.3291831627578685,8.898538291250922,0.5222222222222223,-0.15555555555555556,-0.8488888888888889,-0.007614712106759245,-0.04795434768841216,1.349420988060264
1589543865.2096894,-1.8825092239083705,-2.0735070101703617,8.441012544515385,0.5222222222222223,-0.15555555555555556,-0.8488888888888889,-0.0010091995848265601,-0.0347433226445468,1.369237525626062
1589543865.2196894,-1.7650182147643405,-1.9786479548500349,8.400072859057364,0.5222222222222223,-0.15555555555555556,-0.8488888888888889,0.008878105351990068,-0.02702231158750842,1.3877387007915167
1589543865.2296894,-1.8935771872200657,-2.065412276585761,9.12774644883334,0.5222222222222223,-0.15555555555555556,-0.8488888888888889,-0.002261462562816629,-0.06917713518808082,1.3941869005290606
1589543865.2396894,-2.0151613970101865,-1.998709705869383,9.017096176742955,0.4311111111111111,-0.2433333333333333,-0.7655555555555555,0.007495090273339134,-0.049579983555514434,1.366353559438789
1589543865.2496893,-1.8764426511443313,-1.961718040305155,9.793921153591745,0.4311111111111111,-0.2433333333333333,-0.7655555555555555,-0.02781260128327572,-0.09497558698544781,1.3219667471961878
1589543865.2596893,-1.861058373761989,-1.7185760915736994,8.157915893491918,0.4311111111111111,-0.2433333333333333,-0.7655555555555555,0.025168855290198643,-0.021979670817980523,1.3003976445287104
1589543865.2696893,-1.930428240193063,-1.7164105900723985,8.303337670941183,0.4311111111111111,-0.2433333333333333,-0.7655555555555555,0.02683251191991927,-0.023653447089408964,1.2692791465359152
1589543865.2796893,-2.0920413841429486,-1.7808165536571794,8.813726221635994,0.4311111111111111,-0.2433333333333333,-0.7655555555555555,-0.036014344483771304,-0.10967333323603178,1.2421445086107794
1589543865.2896893,-2.130878776935115,-1.78175755387023,8.695484531118334,0.46556906491178796,-0.22813129489185827,-0.7158955633134038,0.010035721987756305,-0.04282656541604028,1.2378053590539462
1589543865.2996893,-2.2851635016063874,-1.854478480771066,8.80654388141362,0.4688888888888889,-0.22666666666666666,-0.7111111111111111,0.01839354722391307,-0.046002267176187495,1.2326767101695675
1589543865.3096893,-2.4080779079692713,-1.9140389539846356,9.0865453557849,0.4688888888888889,-0.22666666666666666,-0.7111111111111111,-0.01175899839407214,-0.07259336229294118,1.2163492871870878
1589543865.3196893,-2.7139252846669786,-1.9534006005303384,9.069798198408984,0.4688888888888889,-0.22666666666666666,-0.7111111111111111,-0.0032284660700020833,-0.05521739565608527,1.2326828104984824
1589543865.3296893,-2.4716774669838406,-1.8337464796434528,9.238005632570475,0.4688888888888889,-0.22666666666666666,-0.7111111111111111,0.02918709794059742,-0.04105610517507749,1.2658415221802242
1589543865.3396893,-1.817216569564854,-1.4660677947202632,8.166483985169904,0.47451726306073594,-0.22854279139061567,-0.6989163004054426,0.0328233241777108,-0.017337224694648812,1.2716673126693094
1589543865.3496892,-2.3550363589898478,-1.7563039286295101,9.698412517714843,0.4755555555555556,-0.2288888888888889,-0.6966666666666667,-0.008905895989883526,-0.08864176647966253,1.2063224250683788
1589543865.3596892,-2.3898326435945245,-1.6596652871890492,8.80947291827732,0.4755555555555556,-0.2288888888888889,-0.6966666666666667,0.0037508128897982863,-0.08155032872623716,1.16210356938979
1589543865.3696892,-2.291710133542812,-1.5330112594920136,8.066357423409269,0.4755555555555556,-0.2288888888888889,-0.6966666666666667,0.04763154456942189,0.031816440524695136,1.1465077682111138
1589543865.3796892,-2.4002430943718367,-1.625212707575357,8.901823207788775,0.4755555555555556,-0.2288888888888889,-0.6966666666666667,0.010002345577691488,-0.05037709711272542,1.0888074719843013
1589543865.3896892,-2.1408314087759814,-1.3432332563510392,7.897736720554272,0.4755555555555556,-0.2288888888888889,-0.6976443418013857,-0.01588128695810083,-0.09730059425487439,1.0048365359363716
1589543865.3996892,-2.611176607425328,-1.617282032195031,9.491491346422258,0.4755555555555556,-0.2288888888888889,-0.6977777777777778,-0.004955200584199321,-0.06273271708731049,0.9247855195542601
1589543865.4096892,-2.697384862212156,-1.5991529822574557,9.547458946772366,0.4755555555555556,-0.2288888888888889,-0.6977777777777778,-0.04120037804844674,-0.12892881716160723,0.8346102693999922
1589543865.4196892,-2.4877946406016207,-1.3919416645615126,8.826795825965293,0.4755555555555556,-0.2288888888888889,-0.6977777777777778,0.012507511834887845,-0.04086148117609001,0.8062828003253544
1589543865.4296892,-2.893611654707545,-1.4983518156120896,9.085570776255707,0.4755555555555556,-0.2288888888888889,-0.6977777777777778,0.04629852060251374,-0.008501791382431607,0.7499851805057178
1589543865.4396892,-2.860112951807229,-1.5200301204819278,9.366671686746988,0.47481509370816605,-0.25258366800535476,-0.6977777777777778,0.009106137089424482,-0.05161814548408117,0.6650650712945863
1589543865.4496891,-2.635264452644526,-1.3678966789667897,8.730086100861008,0.4744444444444445,-0.2644444444444444,-0.6977777777777778,0.000811749844293181,-0.034218274841337167,0.6114971955148122
1589543865.4596891,-2.57,-1.2885542254779347,8.59437770234054,0.4744444444444445,-0.2644444444444444,-0.6977777777777778,0.011324487930903978,-0.0392874487756299,0.5422392552950331
1589543865.4696891,-2.818713576702924,-1.4676113234302317,8.833779549345461,0.4744444444444445,-0.2644444444444444,-0.6977777777777778,0.004420593302321571,-0.05038151001567437,0.4743539728668076
1589543865.4796891,-3.0048824297844545,-1.544694317439582,8.870235140431092,0.4744444444444445,-0.2644444444444444,-0.6977777777777778,-0.009310536414286374,-0.04912842495961145,0.407263703257547
1589543865.489689,-2.1416249226609225,-1.9940401934049818,9.024031943903388,0.48600354932259887,-0.2501655501831949,-0.6977777777777778,-0.01945590275710967,-0.05981664170947854,0.34369251080201435
1589543865.499689,-1.3892674315975286,-2.5483440362784187,8.800764220714004,0.4933333333333334,-0.2411111111111111,-0.6977777777777778,-0.016574373137899556,-0.03368720640488301,0.07100117533651762
1589543865.509689,-1.2799532523667458,-2.2595792713007117,8.958289835326177,0.4933333333333334,-0.2411111111111111,-0.6977777777777778,0.013559957582815356,0.01597406355636909,-0.3311162271822613
1589543865.519689,-1.326222072904418,-1.9049530848791725,8.73085791077728,0.4933333333333334,-0.2411111111111111,-0.6977777777777778,-0.002929596990528388,0.043702443859886086,-0.8852269674143833
1589543865.529689,-1.0672455022277367,-1.9478331735378713,9.01521515988946,0.4933333333333334,-0.2411111111111111,-0.6977777777777778,-0.02602484406429407,0.04799655442984406,-1.4193071172841765
1589543865.539689,-0.426991591744622,-2.091865831907691,8.892536672369236,0.49060447226974363,-0.24747845359282045,-0.7259760087682048,-0.040462504296362556,0.050675607514231766,-2.1371158999806172
1589543865.549689,-1.123034472769409,-1.8066314213982233,8.986555298055878,0.49,-0.2488888888888889,-0.7322222222222222,-0.02717642611215493,0.10123204945681982,-2.6327190577785746
1589543865.559689,-2.5051306899347514,-1.7359515076637968,9.333059727423652,0.49,-0.2488888888888889,-0.7322222222222222,-0.02663377425005825,0.1585673168060062,-3.3368819394316516
1589543865.569689,-2.9923883042782964,-2.5937969635347775,9.291580817752857,0.49,-0.2488888888888889,-0.7322222222222222,-0.008316187554643029,0.21718963994145946,-3.7135309262919303
1589543865.579689,-3.3816308092610883,-3.054840388368227,9.049024983737683,0.49,-0.2488888888888889,-0.7322222222222222,0.009430652210811626,0.20542629787822617,-3.8714328213087144
1589543865.589689,-3.4643341513292434,-3.054910020449898,8.814550102249488,0.5028237673256079,-0.2421982276755283,-0.7283193365144285,-0.004973519146844884,0.19203333090163868,-3.9970395529783267
1589543865.599689,-3.1729945222154594,-3.0752715482934594,8.533607378622595,0.5155555555555555,-0.23555555555555555,-0.7244444444444444,-0.03682464235918188,0.19115899118257743,-4.07123267009858
1589543865.609689,-2.7757267441860467,-3.1464282435740514,8.907826652386781,0.5155555555555555,-0.23555555555555555,-0.7244444444444444,-0.026571059027586365,0.16845558246475947,-4.05602194579489
1589543865.619689,-2.56768289770013,-3.144437145976933,9.340131372415206,0.5155555555555555,-0.23555555555555555,-0.7244444444444444,-0.036517259632809086,0.13109512852127325,-4.041044031607562
1589543865.629689,-2.6972672840715144,-3.229174897176912,8.99641923840967,0.5155555555555555,-0.23555555555555555,-0.7244444444444444,-0.04760018557132635,0.1438798507729428,-4.031800576862716
1589543865.639689,-3.149105037061995,-3.5078251347708895,8.81031207884097,0.5487061994609165,-0.22985778863432166,-0.7244444444444444,-0.028295766428494552,0.19322461203259117,-3.9963193061052835
1589543865.649689,-3.331039689686223,-3.694253307473852,9.10805291958163,0.5866666666666667,-0.22333333333333333,-0.7244444444444444,-0.03953179218262663,0.16080577523256945,-3.9049659257224376
1589543865.659689,-2.945397552471457,-3.5835355848772816,8.827071169754563,0.5866666666666667,-0.22333333333333333,-0.7244444444444444,-0.043496308806068425,0.15236106428851923,-3.768694095474065
1589543865.669689,-2.8285509554140127,-3.6071652167158614,8.853983998757185,0.5866666666666667,-0.22333333333333333,-0.7244444444444444,-0.02882198787455633,0.16081251255662748,-3.584433982845637
1589543865.679689,-2.864813338847325,-3.6584191135005075,8.782664009925185,0.5866666666666667,-0.22333333333333333,-0.7244444444444444,-0.028202726761262183,0.14697926715483572,-3.362833551166481
1589543865.689689,-2.7832204445610125,-3.7478345682250347,8.729228247328043,0.723331511959143,-0.31991858457368916,-0.69093527564677,-0.03227914268334499,0.1131792905306882,-2.9910615818651425
1589543865.699689,-3.053048722640103,-4.036438978112082,9.099707257572678,0.8177777777777778,-0.38666666666666666,-0.6677777777777778,-0.03272492347489368,0.09490227807719166,-2.8056167725808847
1589543865.709689,-2.931866680425137,-4.017937261376535,8.862800020637707,0.8177777777777778,-0.38666666666666666,-0.6677777777777778,-0.03654496987681025,0.09795831519872492,-2.6474668515415387
1589543865.719689,-3.0926035725713854,-4.261147439155232,8.932642159354002,0.8177777777777778,-0.38666666666666666,-0.6677777777777778,-0.026347196625346007,0.09677467894148696,-2.2566176366307737
1589543865.729689,-3.191956265683413,-4.460391253136683,8.94803221180929,0.8177777777777778,-0.38666666666666666,-0.6677777777777778,-0.009966853880302667,0.09704126054566041,-1.8361380796055513
1589543865.7396889,-3.0062724745505087,-4.42237315253695,8.908981220375592,1.144364090495968,-0.4400368437075703,-0.5958014839703206,-0.015160499337461995,0.07090443718585615,-1.4981752399063886
1589543865.7496889,-2.9,-4.439912768056494,9.085399034217769,1.5588888888888892,-0.5077777777777778,-0.5044444444444445,-0.02965508923736705,0.028573773983790025,-1.1879689833095024
1589543865.7596889,-2.708196075961326,-4.372997197115233,8.850514282115075,1.5588888888888892,-0.5077777777777778,-0.5044444444444445,-0.010039676315015171,0.02582231750174318,-0.8325843844258018
1589543865.7696888,-2.5044649298597195,-4.28602004008016,8.769615230460921,1.5588888888888892,-0.5077777777777778,-0.5044444444444445,-0.001694613271725957,0.017114020100216946,-0.5436534481406285
1589543865.7796888,-2.260450163798622,-4.070238543510186,8.860211620288435,1.5588888888888892,-0.5077777777777778,-0.5044444444444445,-0.006034195592454555,0.0009292414351175704,-0.3317657473733429
1589543865.7896888,-1.9737693331967632,-3.8336648571135923,8.91356038103042,1.2473111634629612,-0.2718257138629975,-0.6387556192882424,-0.001102227355252233,-0.008326872364675907,-0.10817459263124155
1589543865.7996888,-1.672313111970228,-3.556477580662644,8.908663149907865,0.9866666666666668,-0.07444444444444444,-0.7511111111111111,0.007745186269881438,-0.011508408612415911,0.040711395507337655
1589543865.8096888,-1.4594117282612062,-3.347646913044825,8.851176543477587,0.9866666666666668,-0.07444444444444444,-0.7511111111111111,0.003208355647102817,-0.015656620115911384,0.10998136376406904
1589543865.8196888,-1.3928347434603743,-3.2742521151905613,8.759265181505343,0.9866666666666668,-0.07444444444444444,-0.7511111111111111,0.0036647217812225364,-0.010126699585173767,0.12817404225717136
1589543865.8296888,-1.344731788575279,-3.167854308602231,8.783218537096653,0.9866666666666668,-0.07444444444444444,-0.7511111111111111,0.0075773008218145855,-0.012350226541424649,0.12802633030418206
1589543865.8396888,-1.4770533708753837,-3.319766205827454,8.998138504856213,0.8478562012928808,0.0011106189868567706,-0.7628250744337934,0.0036699455450600496,-0.01049401368266743,0.12889558696699488
1589543865.8496888,-1.5241213435322933,-3.49,8.782286333795097,0.7233333333333334,0.06888888888888889,-0.7733333333333333,0.009959128019223048,0.007369464336582543,0.14913589933974258
1589543865.8596888,-1.3961131652393788,-3.4443665465995563,8.66709715894182,0.7233333333333334,0.06888888888888889,-0.7733333333333333,0.004510914842929694,-0.004544456048498215,0.15615786102234516
1589543865.8696887,-1.3481571145034428,-3.3946928524172404,8.89,0.7233333333333334,0.06888888888888889,-0.7733333333333333,-0.010396397037520681,-0.02689287719018492,0.13446438595092458
1589543865.8796887,-1.396971928209848,-3.404242982052462,8.92818683847216,0.7233333333333334,0.06888888888888889,-0.7733333333333333,-0.002874913893859735,-0.015667201436591987,0.11027179766655844
1589543865.8896887,-1.4927642440511029,-3.4827642440511033,9.012016267382485,0.7010189651576617,0.08344173769910948,-0.7772140930160588,0.003052551694833514,-0.00912573176654749,0.0920040370965188
1589543865.8996887,-1.640344942296374,-3.612900790706006,9.109188566749404,0.6466666666666666,0.11888888888888888,-0.7866666666666666,-0.0033610059842583808,-0.016349202835691783,0.083626656803396
1589543865.9096887,-1.5269120545868082,-3.407125852918878,9.036081122062168,0.6466666666666666,0.11888888888888888,-0.7866666666666666,0.010548143453639915,0.008900236389801827,0.11641571058469227
1589543865.9196887,-1.5683248112091712,-3.4446459830770633,8.608963515603675,0.6466666666666666,0.11888888888888888,-0.7866666666666666,0.013097532059926194,0.006637344546329041,0.17026753963801844
1589543865.9296887,-1.4233121644982258,-3.3912202711309254,8.883724319898098,0.6466666666666666,0.11888888888888888,-0.7866666666666666,-0.021036965909689,-0.0499759691593742,0.2085647812624648
1589543865.9396887,-1.787672010458236,-3.854156460712811,9.145890670152745,0.6456215311224256,0.12045659220525051,-0.7803958534012201,-0.019515693722105133,-0.05012886817321241,0.2909125385803122
1589543865.9496887,-1.6927015362686093,-3.6696369179600885,9.224596927462782,0.6444444444444445,0.12222222222222222,-0.7733333333333333,0.027055289883369787,0.020032354070276325,0.372020288591323
1589543865.9596887,-1.5553011413520632,-3.506867427568042,9.098505882352942,0.6444444444444445,0.12222222222222222,-0.7733333333333333,0.046219678236694824,0.05299334473522449,0.43133027444676814
1589543865.9696887,-1.3109950171887674,-3.3218173741743597,8.535604310711113,0.6444444444444445,0.12222222222222222,-0.7733333333333333,0.022784538888969197,0.03203058223093837,0.46814581615379663
1589543865.9796886,-1.106460397608434,-3.175074261086346,8.622258677878014,0.6444444444444445,0.12222222222222222,-0.7733333333333333,-0.029635023658824658,-0.07933870187573958,0.43471935468966166
1589543865.9896886,-1.282805582290664,-3.4584483706860993,9.546959989000412,0.6428822738591747,0.11649426340956659,-0.7764576745038728,0.005483175740670521,-0.05585134597530285,0.3931453579249469
1589543865.9996886,-1.4358607716760479,-3.496550643063373,9.209722797398582,0.6411111111111111,0.11,-0.78,0.014188530694783149,-0.008515663444797199,0.34937459409929833
1589543866.0096886,-1.6193438128845987,-3.649453177403832,9.399321939980751,0.6411111111111111,0.11,-0.78,-0.01516664855294863,-0.05655141130472191,0.306676151557143
1589543866.0196886,-1.3329831988947816,-3.285420027630465,8.904159276260083,0.6411111111111111,0.11,-0.78,0.017434965357190888,0.00964791432713553,0.2414127283623819
1589543866.0296886,-1.2065108676218936,-3.1687352182463666,8.577517176206165,0.6411111111111111,0.11,-0.78,0.011110158743647337,0.010443423845787083,0.16730591007114098
1589543866.0396886,-0.9002794804879529,-3.4023353765855435,9.154670753171086,0.6384320230894243,0.10196273593493961,-0.7826790880216868,-0.02639404005748935,-0.05496974167997161,0.045112310982272794
1589543866.0496886,-1.1059804369090316,-3.447177263340941,9.08004890772742,0.6344444444444445,0.09,-0.7866666666666666,-0.00031324780931552346,-0.012823930451154937,-0.0946567729816158
1589543866.0596886,-1.2077959722358,-3.38,8.77888161110568,0.6344444444444445,0.09,-0.7866666666666666,0.018429270946124503,0.023639430252061482,-0.18807873154117274
1589543866.0696886,-1.18,-3.38,8.79435641991558,0.6344444444444445,0.09,-0.7866666666666666,0.0034993176200354362,0.012560768181129594,-0.2751160091803141
1589543866.0796885,-1.1837707597173144,-3.3536046819787986,8.947059628975266,0.6344444444444445,0.09,-0.7866666666666666,-0.0028611662701849404,0.015862337023563745,-0.3687750522857379
1589543866.0896885,-15.233863064110013,-16.826165020337015,10.9637749370521,0.6201557018959692,0.09344900682204575,-0.7901156734887124,-0.08054463781855732,0.4135277591849977,0.17074871637795425
1589543866.0996885,-32.86,-33.79,13.19,0.6022222222222222,0.09777777777777777,-0.7944444444444444,-0.17889624832941878,0.8955720724295902,0.9272061651219876
1589543866.1096885,9.886348355183962,7.511050581102673,20.123860010068068,0.6022222222222222,0.09777777777777777,-0.7944444444444444,-1.6359864123379213,-1.1707475730433334,-0.9918459766849522
1589543866.1196885,0.8347608833636109,0.6626892687517785,4.049489154938829,0.6022222222222222,0.09777777777777777,-0.7944444444444444,-0.2790967995999063,-0.16334465760831995,-0.6293411502560506
1589543866.1296885,2.691832756487276,0.1902426340046267,12.269164320427524,0.6022222222222222,0.09777777777777777,-0.7944444444444444,0.9555883837199439,0.10475508392896321,-0.7116686011434789
1589543866.1396885,1.3680216272438714,0.6716284991840467,11.2311760486344,0.6022222222222222,0.09777777777777777,-0.7944444444444444,1.3346525403423453,0.5806364926757009,-0.8544330237675003
1589543866.1496885,1.0054743238288137,-0.9040730910932233,10.093342005552548,0.6022222222222222,0.14333333333333334,-0.7655555555555555,-0.2915257122871079,-0.1308503245261007,-0.4311287962718812
1589543866.1596885,1.1665935639328804,-2.442029473904768,13.081371549300693,0.6022222222222222,0.14333333333333334,-0.7655555555555555,-0.39298360318828995,-0.31619072365266976,-0.19625777324079807
1589543866.1696885,-0.8550906843518981,-2.352545342175949,7.4957852575530675,0.6022222222222222,0.14333333333333334,-0.7655555555555555,0.20710159712816856,0.21337027640066794,0.0549767927680039
1589543866.1796885,-0.8778122846736883,-2.383436854021065,9.617501722610493,0.6022222222222222,0.14333333333333334,-0.7655555555555555,-0.00024868235970683383,-0.06180170035556466,0.12596824539600993
1589543866.1896884,-0.8964375393281995,-2.4535624606718005,9.265439427081771,0.5978681036233549,0.1381875568073992,-0.7663472134826224,-0.07354993475622848,-0.07758594001080846,0.14572793889687774
1589543866.1996884,-0.89,-2.46,8.95,0.59,0.1288888888888889,-0.7677777777777778,0.035997415822383035,0.02072578486743266,0.18435040224190105
1589543866.2096884,-0.6679766612641815,-2.1446951917882227,8.841413722312264,0.59,0.1288888888888889,-0.7677777777777778,0.050802164130588426,0.029144004764180463,0.20717013432874765
1589543866.2196884,-0.5934653279886112,-2.258712771138501,9.100990147229611,0.59,0.1288888888888889,-0.7677777777777778,-0.04953020701427854,-0.028091600008491792,0.15420676698400765
1589543866.2296884,-2.108114087588228,-4.182803070953894,9.057640648862838,0.59,0.1288888888888889,-0.7677777777777778,0.0065422831699467505,0.007506052225105737,0.11447316099345274
1589543866.2396884,-6.976402995192901,-12.408760322938495,8.609401885862196,0.5921753153375241,0.1288888888888889,-0.7699530931153019,0.02596407179836705,0.009015421289320449,0.02123617481570786
1589543866.2496884,-7.358266051768374,-15.462585170991524,8.658409600207852,0.5966666666666667,0.1288888888888889,-0.7744444444444445,-0.05212304849351217,-0.048826784672051336,-0.33940503126683264
1589543866.2596884,1.1018052535909042,0.2074637345403999,11.223886730584168,0.5966666666666667,0.1288888888888889,-0.7744444444444445,-0.03737739043812704,-0.03572075217879162,-0.6952642119880856
1589543866.2696884,-2.35296294689344,-2.237158321763277,7.896484727525165,0.5966666666666667,0.1288888888888889,-0.7744444444444445,0.07621143595204544,0.12652219583816937,-0.5329751495995978
1589543866.2796884,-4.122848004450007,-4.09972233810782,8.453840448709034,0.5966666666666667,0.1288888888888889,-0.7744444444444445,-0.07948785260456781,-0.02403609955883838,-0.17317212985253894
1589543866.2896883,-2.163721882001494,-6.521263032113517,8.802083943241225,0.5951778275661771,0.13097326362957432,-0.772657837523857,-0.03413506869615586,-0.05090352477920758,0.10749139402048832
1589543866.2996883,-1.79831554047745,-4.143355691120171,8.604839553051761,0.5911111111111111,0.13666666666666666,-0.7677777777777778,0.03143138469691355,0.018997665678734652,0.007358736514047958
1589543866.3096883,-1.289187649786797,-2.9488633321921007,8.905094462946247,0.5911111111111111,0.13666666666666666,-0.7677777777777778,0.03356743229457837,-0.008770953090908126,-0.0510265644887907
1589543866.3196883,-1.60419125621751,-3.798860652978795,9.05455738808482,0.5911111111111111,0.13666666666666666,-0.7677777777777778,-0.001860968166541039,0.00890308678259019,-0.001267271305114997
1589543866.3296883,-1.6198773327349565,-3.869447997307304,8.772208010770784,0.5911111111111111,0.13666666666666666,-0.7677777777777778,-0.029238336361461628,0.005480915758225115,0.0021548997192500766
1589543866.3396883,-1.5566133010254857,-3.7452533425641468,8.953893384102809,0.590320001538469,0.13811703421651064,-0.76856888735042,-0.0019038681086135738,-0.00992801858946333,-0.0008319407802467454
1589543866.3496883,-1.6756309624441492,-3.7109708972346334,8.768252626494384,0.5844444444444444,0.14888888888888888,-0.7744444444444445,0.015727010983339496,0.0046598404698481016,0.0010378765529875107
1589543866.3596883,-1.601055460493206,-3.7226296930045293,8.859982083543029,0.5844444444444444,0.14888888888888888,-0.7744444444444445,0.0016645407980677175,-0.006486441064055021,0.0008039757747108253
1589543866.3696883,-1.617286978832585,-3.72085208466966,8.75085208466966,0.5844444444444444,0.14888888888888888,-0.7744444444444445,-0.00316244368458299,0.001090830782496456,0.0018857168646948357
1589543866.3796883,-1.6178026389075615,-3.7552017592717077,8.774798240728291,0.5844444444444444,0.14888888888888888,-0.7744444444444445,-0.009010358216807398,0.0008071188256607057,0.0008071188256607057
1589543866.3896883,-1.6378442131819615,-3.764610532954904,8.775090507726269,0.5857618697221346,0.14829005921721153,-0.7728874872980833,-0.008171358007336588,-0.00011757993108082266,-0.00011757993108082266
1589543866.3996882,-1.61018995831936,-3.71018995831936,8.903270013893547,0.5966666666666667,0.14333333333333334,-0.76,0.007594373001045368,-0.0007341276010692744,-0.0003774244196420929
1589543866.4096882,-1.59,-3.69917896597437,8.89164206805126,0.5966666666666667,0.14333333333333334,-0.76,0.007994059152928733,0.000667513242422047,0.0007570741612854324
1589543866.4196882,-1.597537576943265,-3.72,8.847487474352246,0.5966666666666667,0.14333333333333334,-0.76,-0.002735274973526209,0.003552031724184373,0.0005481480636765843
1589543866.4296882,-1.6236528416756029,-3.729132104189007,8.830867895810993,0.5966666666666667,0.14333333333333334,-0.76,-0.007635815477475192,0.006639657441641838,0.0015839667434928992
1589543866.4396882,-1.6381614722058873,-3.765403680514719,8.794596319485281,0.5966666666666667,0.14333333333333334,-0.76,-0.007635815477475192,0.002683042243066233,-0.0007900023756524633
1589543866.4496882,-1.616680361291911,-3.7500410838757325,8.8549383741864,0.6111111111111112,0.13666666666666666,-0.7744444444444445,0.001629523840297642,-0.002910375938534337,0.0009097725780189402
1589543866.4596882,-1.6037726384465065,-3.711317915339519,8.913023126990721,0.6111111111111112,0.13666666666666666,-0.7744444444444445,0.007965587475562683,-0.0015023617973643276,0.0002057655074339359
1589543866.4696882,-1.585877497580691,-3.7150378550691636,8.854962144930836,0.6111111111111112,0.13666666666666666,-0.7744444444444445,0.004538246014615671,0.00018318157957332188,-0.0029061291883427246
1589543866.4796882,-1.6443465415363225,-3.7718844861545593,8.807537944618238,0.6111111111111112,0.13666666666666666,-0.7744444444444445,-0.005248588361824131,0.0019760960143347626,0.0008852652318383068
1589543866.4896882,-1.6200486618004868,-3.7799837793998377,8.839935117599351,0.6111111111111112,0.13666666666666666,-0.7744444444444445,-0.004365092522982574,0.0010926001754932061,1.7693929967501493e-06
1589543866.4996881,-1.611382959013525,-3.76276591802705,8.848617040986476,0.6111111111111112,0.1529432996411196,-0.7562529134729971,0.0012765170072625643,0.00015085742628839142,0.0009399733562080645
1589543866.5096881,-1.6117727806678974,-3.7064544386642053,8.887590535324719,0.6111111111111112,0.15555555555555556,-0.7533333333333333,0.008657194808573906,0.001090830782496456,-0.000510689665549356
1589543866.5196881,-1.6188113777479445,-3.692377244504111,8.83832035576439,0.6111111111111112,0.15555555555555556,-0.7533333333333333,0.004050443792270949,0.001090830782496456,0.001792685842602122
1589543866.5296881,-1.63,-3.7419434413122765,8.848056558687723,0.6111111111111112,0.15555555555555556,-0.7533333333333333,-0.006756981255719391,0.0013028273432371118,0.0013028273432371118
1589543866.539688,-1.63,-3.7494791498230295,8.84052085017697,0.6111111111111112,0.15555555555555556,-0.7533333333333333,-0.007578999536864379,0.002124845624382099,0.002124845624382099
1589543866.549688,-1.6119053856229295,-3.73,8.839526928114648,0.5911111111111111,0.13666666666666666,-0.7744444444444445,0.001454917303012262,0.00046729479549120073,0.002648956360484113
1589543866.559688,-1.6154227130030077,-3.73,8.875422713003008,0.5911111111111111,0.13666666666666666,-0.7744444444444445,0.007635815477475192,-0.0024313138428249145,-0.0002496522778320027
1589543866.569688,-1.6032145046446928,-3.733214504644693,8.85517824303296,0.5911111111111111,0.13666666666666666,-0.7744444444444445,0.006583871292402573,-0.002395872193262186,-0.001090830782496456
1589543866.579688,-1.6187450313445528,-3.75,8.83,0.5911111111111111,0.13666666666666666,-0.7744444444444445,0.00026945571823844077,0.0019078698769069069,-0.0008170390944104509
1589543866.589688,-1.6104504914272155,-3.75,8.83,0.5911111111111111,0.13666666666666666,-0.7744444444444445,-0.005159307962847902,9.828198321145927e-05,0.0009925487992849967
1589543866.599688,-1.6352886976450502,-3.7405773952901007,8.85528869764505,0.5911111111111111,0.16333333333333333,-0.76,0.00019397762611031194,0.0011538148381074977,0.0003199457373323952
1589543866.609688,-1.6162229114802271,-3.7118885442598866,8.838111455740114,0.5911111111111111,0.16333333333333333,-0.76,0.004981347793823193,-0.002593678007551158,-0.00135762867987642
1589543866.619688,-1.6,-3.72,8.83190421034343,0.5911111111111111,0.16333333333333333,-0.76,0.0071511421837175725,-0.0042940840880204495,0.0021124225230275376
1589543866.629688,-1.6017262707445565,-3.7269050829782264,8.853094917021773,0.5911111111111111,0.16333333333333333,-0.76,-0.0015064554136682631,-0.001954343860529638,0.0009025238557879231
1589543866.639688,-1.6092676699570276,-3.75707067982811,8.82292932017189,0.5911111111111111,0.16333333333333333,-0.76,-0.008087567736914587,0.0038041294223108953,7.988481538213259e-05
1589543866.649688,-1.6174784257193073,-3.7450431485613858,8.842435277157922,0.5952657920662818,0.13757431141127502,-0.765816553337239,-0.006279337166201581,0.002731783734139113,0.0016315393958467107
1589543866.659688,-1.6107931728696396,-3.738413654260721,8.864447789912523,0.5966666666666667,0.1288888888888889,-0.7677777777777778,0.002527748517810473,-0.0020951398267885215,0.0028398836564674165
1589543866.669688,-1.6182657806125178,-3.723468438774965,8.812139535712378,0.5966666666666667,0.1288888888888889,-0.7677777777777778,0.005788288738391552,-0.0012800047716432519,-0.0012357916192589332
1589543866.679688,-1.6022162419449326,-3.731108120972466,8.858891879027533,0.5966666666666667,0.1288888888888889,-0.7677777777777778,0.004487135938485348,-0.0008490762889972231,0.0
1589543866.689688,-1.6175732278851789,-3.7387866139425894,8.85121338605741,0.5966666666666667,0.1288888888888889,-0.7677777777777778,-0.0022136132575089184,0.0008261110100013435,0.0
1589543866.699688,-1.6312491462396599,-3.75875085376034,8.85875085376034,0.5966666666666667,0.14888888888888888,-0.76,-0.004636589610445777,-0.0019091401309807442,-0.0005457879144721207
1589543866.709688,-1.6347004109885355,-3.746466940659024,8.84116735164756,0.5966666666666667,0.14888888888888888,-0.76,0.001668926265324991,-0.0011561909656570698,0.0026943968646608333
1589543866.719688,-1.61,-3.7263450473156117,8.807309905368777,0.5966666666666667,0.14888888888888888,-0.76,0.0041639763851508875,-0.006345637950143799,-0.00019934674483493652
1589543866.729688,-1.608743006093208,-3.711256993906792,8.845027975627168,0.5966666666666667,0.14888888888888888,-0.76,0.00272402528871361,-0.004631453324318643,-0.0009537140178025164
1589543866.739688,-1.601779316298916,-3.7182206837010843,8.872882734804337,0.5966666666666667,0.14888888888888888,-0.76,-0.0003144575862344297,-7.372901189658249e-05,-0.00019409329906550652
1589543866.749688,-1.638318812124187,-3.7583188121241866,8.860840593937906,0.5966666666666667,0.14356683164941847,-0.7674508801352586,-0.008405715249904739,0.002135814277840496,-0.00104498349534404
1589543866.759688,-1.6176494929006087,-3.74,8.824123732251522,0.5966666666666667,0.14333333333333334,-0.7677777777777778,-0.002503290697941563,0.0008344302326471876,0.0028878915227154656
1589543866.769688,-1.6006340770791077,-3.74,8.781585192697769,0.5966666666666667,0.14333333333333334,-0.7677777777777778,0.0030649911085795963,-0.0010216637028598655,0.00010375061945488593
