time,acc_x,acc_y,acc_z,mag_x,mag_y,mag_z,gyr_x,gyr_y,gyr_z
1589543979.058503,0.21,-4.19,8.83,0.4977777777777778,0.2877777777777778,-0.6888888888888889,0.001090830782496456,-0.002181661564992912,-0.003272492347489368
1589543979.068503,0.21507097366687297,-4.172535486833437,8.829716105332508,0.4844444444444445,0.29444444444444445,-0.6822222222222222,-0.000276578708652698,-0.001090830782496456,-0.002166177512878576
1589543979.078503,0.23,-4.180824641460235,8.765052151238592,0.4844444444444445,0.29444444444444445,-0.6822222222222222,-0.0011807852114311375,-0.0009109219246270926,0.0010008763535617744
1589543979.088503,0.23,-4.188419708822251,8.719481747066494,0.4844444444444445,0.29444444444444445,-0.6822222222222222,-0.0020092785387933144,0.0007460647300972609,0.00017238302619959752
1589543979.0985029,0.2,-4.18,8.792148979695344,0.4844444444444445,0.29444444444444445,-0.6822222222222222,-0.003272492347489368,0.002181661564992912,-0.003272492347489368
1589543979.1085029,0.2,-4.18,8.813422204940066,0.4844444444444445,0.29444444444444445,-0.6822222222222222,-0.003272492347489368,0.002181661564992912,-0.003272492347489368
1589543979.1185029,0.20087900942399528,-4.179560495288002,8.868241981152009,0.4922222222222222,0.29444444444444445,-0.6888888888888889,-0.0022296040918828378,-0.0031286647668195906,-0.0010428882556065301
1589543979.1285028,0.2186041499387229,-4.170697925030638,8.832791700122554,0.4922222222222222,0.29444444444444445,-0.6888888888888889,-0.0031963605367598368,-0.0002283954321885941,-7.613181072953115e-05
1589543979.1385028,0.23605457646389993,-4.1860545764639,8.761972711768049,0.4922222222222222,0.29444444444444445,-0.6888888888888889,-0.0034876818196475663,0.00066045183818006,-0.000875641310338258
1589543979.1485028,0.22115157760090962,-4.171151577600909,8.769424211199544,0.4922222222222222,0.29444444444444445,-0.6888888888888889,-0.0043005143152105435,-0.0009652131529458939,-6.280881477528102e-05
1589543979.1585028,0.19157324731917802,-4.141048831546119,8.81052441577306,0.4922222222222222,0.29368695499446984,-0.688539278373516,-0.00740699593024327,-0.0010336258956884755,0.001090830782496456
1589543979.1685028,0.21845174520442603,-4.158967830136284,8.819483915068142,0.4922222222222222,0.2807454560126838,-0.6825662788434609,-0.003497676879510681,-5.629613300532827e-05,0.001090830782496456
1589543979.1785028,0.19802190670966727,-4.183956186580665,8.80824097380634,0.4922222222222222,0.28,-0.6822222222222222,-0.00261321457534184,0.0006592777721475277,0.003272492347489368
1589543979.1885028,0.1838566324997496,-4.196928316249875,8.717696237187408,0.4922222222222222,0.28,-0.6822222222222222,-0.00453085748942236,-0.001174597962214724,0.003272492347489368
1589543979.1985028,0.10833255722986941,-4.149374708961201,8.748124126883603,0.4922222222222222,0.28,-0.6822222222222222,-0.009794740818696733,-0.0062097523839833545,0.005141657825258269
1589543979.2085028,0.34375693779904304,-4.236878468899522,9.008851674641148,0.4915780967570441,0.28034683678894207,-0.6822222222222222,-0.012457600693271965,-0.014444687274669339,0.010762376587267905
1589543979.2185028,0.22580050072473318,-4.175266833574911,8.796334167874555,0.4777777777777778,0.2877777777777778,-0.6822222222222222,-0.0009199976839331353,0.0012616638810597765,0.007635815477475192
1589543979.2285028,0.259492644851396,-4.185797057940559,8.838477934554188,0.4777777777777778,0.2877777777777778,-0.6822222222222222,-0.00608651483742994,-0.004363323129985824,0.008094285335023987
1589543979.2385027,0.2134110546378653,-4.1678036848792885,8.724392630241423,0.4777777777777778,0.2877777777777778,-0.6822222222222222,-0.0036445806874654462,-0.003404999873291987,0.009577896228294646
1589543979.2485027,0.18889441128594683,-4.157788822571893,8.751055887140533,0.4777777777777778,0.2877777777777778,-0.6822222222222222,-0.001332032822910431,-0.00048240408082794977,0.008967848300385623
1589543979.2585027,0.17715704237839114,-4.137725633902712,8.838009929664874,0.4781884272120102,0.2881252503759744,-0.6818115727879898,-0.003520587202448075,-0.0044253468437255,0.010970331538704236
1589543979.2685027,0.10113372025266298,-4.055773255949467,8.818607556581124,0.4922222222222222,0.3,-0.6677777777777778,-0.013382337363477428,-0.007467117198989678,0.016086900027993033
1589543979.2785027,0.17503470662692416,-4.011863337552571,8.963587848597443,0.4922222222222222,0.3,-0.6677777777777778,-0.017099778007645946,-0.0083807035590754,0.03286760757973739
1589543979.2885027,0.14820620486119443,-3.8630810758931786,8.78307507738081,0.4922222222222222,0.3,-0.6677777777777778,-0.009957243253532507,0.00405583746564414,0.06226055999274251
1589543979.2985027,0.08034078426363521,-3.597614510154554,8.89931843147273,0.4922222222222222,0.3,-0.6677777777777778,-0.015792064105899516,-0.008379291407402525,0.10861141132348555
1589543979.3085027,0.0843929436851798,-3.5195868954153338,8.871188911505284,0.49159921596502,0.2995549955305698,-0.6666207661572593,-0.02958212125416695,-0.028491290471670497,0.16109894814892198
1589543979.3185027,0.027476979742173113,-3.4138858195211785,8.781749539594843,0.48527521997135264,0.2950378555350931,-0.6548762021690199,-0.019825799249461366,-0.018734968466964916,0.20189811289587262
1589543979.3285027,-0.019963914818642313,-3.3182735019567318,8.884676165144764,0.4844444444444445,0.29444444444444445,-0.6533333333333333,-0.020466803340573676,-0.033811817974728445,0.26839927716918865
1589543979.3385026,-0.14076134650244804,-3.190370338997408,8.984156403002016,0.4844444444444445,0.29444444444444445,-0.6533333333333333,-0.028217953748056503,-0.04698877366744924,0.29940387879911995
1589543979.3485026,-0.07679301901728677,-3.263206980982713,8.778775566560503,0.4844444444444445,0.29444444444444445,-0.6533333333333333,-0.026046373811222885,-0.035730285884998936,0.33891758367600444
1589543979.3585026,-0.061349803936007655,-3.278650196063992,8.724724313776028,0.4844444444444445,0.29444444444444445,-0.6533333333333333,-0.020150296774242422,-0.023938131811037995,0.3793478262152991
1589543979.3685026,-0.05891312570924222,-2.959619215735721,8.976902030008826,0.4844444444444445,0.29444444444444445,-0.6677777777777778,-0.021537959343619975,-0.03546087176961307,0.4279851399612696
1589543979.3785026,-0.11403685092127303,-2.7149078726968177,8.840184254606365,0.4844444444444445,0.29444444444444445,-0.6677777777777778,-0.0021542537563874736,-0.018496616434190327,0.48764338508244415
1589543979.3885026,-0.08693676716917922,-2.813873534338358,8.725494137353433,0.4844444444444445,0.29444444444444445,-0.6677777777777778,0.017358431049047805,-0.018557065878725652,0.6314854268695154
1589543979.3985026,-0.10867486745696074,-2.8626502650860783,8.903374337284804,0.4844444444444445,0.29444444444444445,-0.6677777777777778,6.556551257156859e-05,-0.040505288489252375,0.7522112272422931
1589543979.4085026,-0.10242851611365938,-2.875142967772681,8.872142580568296,0.4844444444444445,0.29444444444444445,-0.6677777777777778,0.005516535371420541,-0.041186659721608496,0.8271620628014664
1589543979.4185026,-0.11102058919650777,-2.8925514729912694,8.851530883794762,0.5044444444444445,0.2877777777777778,-0.7033333333333334,0.012755982356407269,-0.037867549683163304,0.9611674212023195
1589543979.4285026,-0.12973715821406032,-2.9394743164281207,8.875268847853086,0.5044444444444445,0.2877777777777778,-0.7033333333333334,0.006487641512772863,-0.05247456392424163,1.0468795430532956
1589543979.4385026,-0.121197752305719,-2.922395504611438,8.721559541502941,0.5044444444444445,0.2877777777777778,-0.7033333333333334,0.004624632146962702,-0.05620058265586195,1.1074273474421257
1589543979.4485025,-0.20140721587006585,-3.08,8.818443295220396,0.5044444444444445,0.2877777777777778,-0.7033333333333334,0.012399203915049055,-0.04922458194079236,1.1834094204475536
1589543979.4585025,-0.2183531978505919,-3.08,8.920119187103552,0.5044444444444445,0.2877777777777778,-0.7033333333333334,0.0040808644622544275,-0.0640127409679828,1.234243717103521
1589543979.4685025,-0.2416292220402879,-3.08,8.850692852518945,0.49803578606213694,0.2789658725021049,-0.6776986998041032,0.005631874467789049,-0.060731082709188,1.2871578720287342
1589543979.4785025,-0.35250485238533047,-3.17749514761467,8.835616508325671,0.4955555555555556,0.27555555555555555,-0.6677777777777778,0.004773178643115047,-0.06728996225383926,1.3705700965909253
1589543979.4885025,-0.3810695678823169,-3.1489304321176834,8.785628256205944,0.4955555555555556,0.27555555555555555,-0.6677777777777778,0.009447069286719997,-0.06339505338416845,1.4258778025402505
1589543979.4985025,-0.36741587954736743,-3.1922476386421024,8.813230150565792,0.4955555555555556,0.27555555555555555,-0.6677777777777778,0.011787725747305244,-0.0745288479766853,1.5297734587602427
1589543979.5085025,-0.3360360983821192,-3.0981082951463574,8.852454877022351,0.4955555555555556,0.27555555555555555,-0.6677777777777778,0.009220473404076094,-0.07880760188206722,1.5879645118734367
1589543979.5185025,-0.47310392022680614,-3.2391727441587643,8.916068823931958,0.5222222222222223,0.2411111111111111,-0.6822222222222222,0.016076578546351278,-0.08385102865667932,1.676170878978852
1589543979.5285025,-0.555111936650699,-3.2965783556554893,8.891466419004791,0.5222222222222223,0.2411111111111111,-0.6822222222222222,0.01428744117181813,-0.08295645996941275,1.7280558628403135
1589543979.5385025,-0.5376478166843051,-3.2739203055261585,8.757056549947086,0.5222222222222223,0.2411111111111111,-0.6822222222222222,0.00731473488502915,-0.08517032883361807,1.8083604791992056
1589543979.5485024,-0.5111570983533601,-3.32028927458834,8.84,0.5222222222222223,0.2411111111111111,-0.6822222222222222,0.016362461737446838,-0.08611252189210898,1.8708830497760351
1589543979.5585024,-0.5369036109448614,-3.3267259027362153,8.84,0.5222222222222223,0.2411111111111111,-0.6822222222222222,0.016362461737446838,-0.08470826746827186,1.8975638838289404
1589543979.5685024,-0.6088463735008567,-3.3814905768132495,8.928269560251286,0.5222222222222223,0.21250523510375025,-0.6977511263405038,0.012350497009133203,-0.08720354203487801,1.93440492635801
1589543979.5785024,-0.7336402725945157,-3.375760181729677,8.861520363459354,0.5222222222222223,0.20222222222222225,-0.7033333333333334,0.015618500276059816,-0.08531604724879653,1.9687988939485985
1589543979.5885024,-0.6825981664773649,-3.3417321109849096,8.793464221969819,0.5222222222222223,0.20222222222222225,-0.7033333333333334,0.018402415303861747,-0.08717199060066447,1.9938541291988159
1589543979.5985024,-0.78,-3.3794081850605515,8.91783001188869,0.5222222222222223,0.20222222222222225,-0.7033333333333334,0.012149771596609023,-0.10016276100362649,2.008327065568224
1589543979.6085024,-0.78,-3.3540532371491327,8.824861869546819,0.5222222222222223,0.20222222222222225,-0.7033333333333334,0.018603295053028757,-0.09186537370251541,2.0129367251799524
1589543979.6185024,-0.8543160317054461,-3.3767629762209155,8.883237023779085,0.5611111111111111,0.1688888888888889,-0.6822222222222222,0.016009357219256986,-0.0961108103657514,2.015619883041324
1589543979.6285024,-0.8873140845347443,-3.352014436598942,8.90798556340106,0.5611111111111111,0.1688888888888889,-0.6822222222222222,0.013309710335108794,-0.09701069266046747,2.013820118451892
1589543979.6385024,-0.9301804150589217,-3.329909792470539,8.869819584941078,0.5611111111111111,0.1688888888888889,-0.6822222222222222,0.015281471069945266,-0.09708393964218458,2.010021121688478
1589543979.6485023,-1.0262932850437931,-3.3454310950145976,8.88390812668613,0.5611111111111111,0.1688888888888889,-0.6822222222222222,0.020061264574048887,-0.09061103467813099,2.0008218649027714
1589543979.6585023,-1.0660110379450853,-3.2719668861647437,8.909508278458814,0.5611111111111111,0.1688888888888889,-0.6822222222222222,0.022853807933071346,-0.08661076007719115,2.0016208473816426
1589543979.6685023,-1.06283580310675,-3.2128358031067497,8.92,0.5611111111111111,0.12407126366762455,-0.7184577489968614,0.02025363034932457,-0.09163793304951913,1.9952760229322979
1589543979.6785023,-1.06,-3.17451976774289,8.955480232257111,0.5611111111111111,0.11666666666666667,-0.7244444444444444,0.01731277831396544,-0.0896243821509044,1.9901683774519034
1589543979.6885023,-1.1299659881562818,-3.129659881562818,8.91942179865679,0.5611111111111111,0.11666666666666667,-0.7244444444444444,0.022900026199206128,-0.07419504379280763,1.9677696888249732
1589543979.6985023,-1.122724573125464,-3.05724573125464,8.796317743132889,0.5611111111111111,0.11666666666666667,-0.7244444444444444,0.021320194514316403,-0.07814462300503193,1.9488117086062968
1589543979.7085023,-1.12,-2.9916036397436527,8.845990900640869,0.5611111111111111,0.11666666666666667,-0.7244444444444444,0.02351804698099582,-0.07614031948028734,1.9207368269919678
1589543979.7185023,-1.1911945080091533,-3.032295194508009,9.015691075514873,0.5798985507246377,0.06920366132723113,-0.7313661327231121,0.017322991909310994,-0.08097184478685307,1.86721099539522
1589543979.7285023,-1.1616857255979691,-2.841685725597969,8.788581875771479,0.5822222222222222,0.06333333333333334,-0.7322222222222222,0.016011410202580963,-0.0782346723257577,1.8154141326085789
1589543979.7385023,-1.2691392039499731,-2.9491392039499735,9.3356177655635,0.5822222222222222,0.06333333333333334,-0.7322222222222222,-0.00636572433674935,-0.12831683058044935,1.7632008186834747
1589543979.7485023,-1.3086996860830136,-2.8339009417509593,8.778854551796302,0.5822222222222222,0.06333333333333334,-0.7322222222222222,-0.0002127633671335956,-0.09389081503143354,1.7195123654406643
1589543979.7585022,-1.3854030983243755,-2.8827821688270627,8.72983876067025,0.5822222222222222,0.06333333333333334,-0.7322222222222222,0.023030565809394034,-0.06310988904297785,1.697495477244959
1589543979.7685022,-1.4469057767686937,-2.863094223231306,8.830717330306081,0.5815387819116908,0.04351356432792379,-0.7452075881223181,0.016452976836969002,-0.07357968701794315,1.6666329384587666
1589543979.7785022,-1.525533763175167,-2.8492556271958613,8.881488745608278,0.5811111111111111,0.031111111111111114,-0.7533333333333333,0.015712873922720562,-0.06800225031541793,1.6222384678356199
1589543979.7885022,-1.5428970396274153,-2.8242059207451695,8.834860361304047,0.5811111111111111,0.031111111111111114,-0.7533333333333333,0.0170658861288799,-0.06865095090658299,1.5952638583070797
1589543979.7985022,-1.650187780703113,-2.802293247638222,8.894774275979557,0.5811111111111111,0.031111111111111114,-0.7533333333333333,0.00904652981063868,-0.07653858024721687,1.5489182600535731
1589543979.8085022,-1.711486013986014,-2.787405594405594,8.907405594405594,0.5811111111111111,0.031111111111111114,-0.7533333333333333,0.007918821225941055,-0.07304447021589555,1.512372421748734
1589543979.8185022,-1.7732094397735787,-2.805925663864147,8.925925663864147,0.5667079645199182,-0.012098328662467506,-0.7475720746968562,0.014382748699905199,-0.06792780259979535,1.46833932138547
1589543979.8285022,-1.78,-2.7695482116711982,9.043265007320644,0.5644444444444444,-0.01888888888888889,-0.7466666666666667,0.006446419771732872,-0.07027907186974552,1.4347717132056261
1589543979.8385022,-1.8696383106594547,-2.7241446757362184,8.917614871878927,0.5644444444444444,-0.01888888888888889,-0.7466666666666667,0.010230136843484628,-0.0611259780064383,1.4073636462906152
1589543979.8485022,-1.9380934977919901,-2.7448972133394243,8.850205573321151,0.5644444444444444,-0.01888888888888889,-0.7466666666666667,0.012718884272232927,-0.06090098126093926,1.3823578422645808
1589543979.8585021,-1.861168188819229,-2.6981814434778837,8.965845065839426,0.5644444444444444,-0.01888888888888889,-0.7466666666666667,0.012282465439116656,-0.061894027770642346,1.368836734833775
1589543979.8685021,-1.8941234113569259,-2.6415259531858446,9.11259745817108,0.5601695503539827,-0.043825771083248935,-0.7644787253769239,0.012698616517329191,-0.057980487143088934,1.3531295373079357
1589543979.8785021,-1.9394327250927348,-2.5445381992581213,8.679498295177789,0.5577777777777778,-0.057777777777777775,-0.7744444444444445,0.018234722836948415,-0.0412270602557446,1.3183035169868755
1589543979.8885021,-2.074154668633054,-2.6219834086090885,8.873591114388422,0.5577777777777778,-0.057777777777777775,-0.7744444444444445,0.02179612423934079,-0.03792173824969309,1.3011857500229425
1589543979.898502,-2.0556361556064076,-2.5936816361556065,8.845408752860411,0.5577777777777778,-0.057777777777777775,-0.7744444444444445,0.005354930746339869,-0.0616617685653995,1.2844978344098337
1589543979.908502,-2.0258527248917093,-2.502189986904402,8.812926362445856,0.5577777777777778,-0.057777777777777775,-0.7744444444444445,0.003405673258981833,-0.06223020940298106,1.2786397127980218
1589543979.918502,-2.1141493413248424,-2.538472248236249,9.135243179122183,0.5625327950164062,-0.08060186052319411,-0.7925135099512324,0.0006287413238438714,-0.06466392029498251,1.2670927463364599
1589543979.928502,-2.26960158398416,-2.5828474315256846,9.083245847541525,0.5633333333333334,-0.08444444444444445,-0.7955555555555556,-0.005374648415124216,-0.07261604483661965,1.2581975098090568
1589543979.938502,-2.3087327617375135,-2.5376034295749186,8.972672382624864,0.5633333333333334,-0.08444444444444445,-0.7955555555555556,0.015364735539841422,-0.04655119378324663,1.260447447563712
1589543979.948502,-2.1891332158475296,-2.4574799295085175,8.984173356830494,0.5633333333333334,-0.08444444444444445,-0.7955555555555556,0.02205999553536961,-0.03287375187680468,1.279458713788785
1589543979.958502,-2.073436227298946,-2.3476653091188755,8.857268881858383,0.5633333333333334,-0.08444444444444445,-0.7955555555555556,0.01724186075774541,-0.03998590470103438,1.2870553785953731
1589543979.968502,-2.243854532677442,-2.404722417427969,9.071806043569923,0.5425462637620051,-0.11562504880143673,-0.8232716483173265,-0.0005151358298226411,-0.05710955256218269,1.2766071987672671
1589543979.978502,-2.178196558073122,-2.3151335813324314,8.958826325480029,0.5366666666666666,-0.12444444444444445,-0.8311111111111111,-0.0005797638749115517,-0.056968845633245654,1.2692159639182898
1589543979.988502,-2.0704413375426842,-2.2269608916951227,8.836960891695123,0.5366666666666666,-0.12444444444444445,-0.8311111111111111,0.00829884605553534,-0.04031533745211162,1.2765553883521803
1589543979.998502,-2.1511474183088053,-2.2382294836617613,8.921147418308806,0.5366666666666666,-0.12444444444444445,-0.8311111111111111,0.013794533427921134,-0.04106530299033253,1.2724880925076667
1589543980.008502,-2.128444055944056,-2.1956293706293706,8.909318181818183,0.5366666666666666,-0.12444444444444445,-0.8311111111111111,0.009245362995704227,-0.04719178067072954,1.2561812772453287
1589543980.018502,-1.9740588449552794,-2.0694301671455744,8.952055121615604,0.5229399544025793,-0.14234885174542788,-0.8311111111111111,-0.0049303926755427845,-0.05896702137665713,1.2263933817709483
1589543980.028502,-2.034733182105537,-2.021273660332453,9.13218586144063,0.5111111111111111,-0.15777777777777774,-0.8311111111111111,-0.021281524026266527,-0.07659659526932312,1.185751842123322
1589543980.038502,-2.098216384126373,-2.03,9.063187006357156,0.5111111111111111,-0.15777777777777774,-0.8311111111111111,-0.01433388632638355,-0.051144618309391654,1.1714342411682483
1589543980.048502,-2.2781518054532057,-2.03,8.844881355932204,0.5111111111111111,-0.15777777777777774,-0.8311111111111111,0.01761358114045162,-0.024365317255664754,1.2019249443508548
1589543980.058502,-2.358749872227333,-2.0360937340284164,8.858749872227333,0.5111111111111111,-0.15777777777777774,-0.8311111111111111,0.026895786027551383,-0.012749105677181056,1.22350303460408
1589543980.068502,-2.4048320917352473,-2.0696641834704943,9.045736963220094,0.49133498879744836,-0.202274052983519,-0.8212230499542797,0.004374512665295177,-0.031904768827903385,1.2288758243334061
1589543980.078502,-2.3446235364894257,-2.006451478550604,9.173548521449396,0.4844444444444445,-0.21777777777777774,-0.8177777777777778,-0.006146189601188092,-0.037686439245565466,1.2182702979525017
1589543980.088502,-2.5784044364450063,-2.039680887289001,8.867074232621492,0.4844444444444445,-0.21777777777777774,-0.8177777777777778,0.010616271671271448,-0.01089475004586606,1.2090505303293382
1589543980.098502,-2.5798665388762427,-2.016577692584162,9.000533844495028,0.4844444444444445,-0.21777777777777774,-0.8177777777777778,0.003243375647077218,-0.01821448252542177,1.1820290189976979
1589543980.108502,-2.577328180488824,-1.9587027365782326,8.98137455608941,0.4844444444444445,-0.21777777777777774,-0.8177777777777778,-0.006103593588712674,-0.03271649215278121,1.1650157070283274
1589543980.118502,-2.654835416543254,-1.9342434294966728,9.052105128053235,0.46909358976890525,-0.24847948712885623,-0.8177777777777778,0.005088131214637319,-0.01824991368495818,1.1512247861162683
1589543980.128502,-2.677918875678389,-1.8979188756783887,8.940345703798977,0.4577777777777778,-0.27111111111111114,-0.8177777777777778,0.015271630954950384,-0.004363323129985824,1.1442814908387822
1589543980.138502,-2.7070017197566676,-1.8564991401216664,8.816499140121667,0.4577777777777778,-0.27111111111111114,-0.8177777777777778,-0.006091253520401487,-0.023162661468295462,1.129754729395543
1589543980.1485019,-2.7473030283274116,-1.85,8.897369690647718,0.4577777777777778,-0.27111111111111114,-0.8177777777777778,-0.011999138607461015,-0.0307442390453009,1.1352679223379147
1589543980.1585019,-2.859805629314923,-1.8350323951141796,8.900151177199504,0.4577777777777778,-0.27111111111111114,-0.8177777777777778,-0.002747101589299184,-0.02619407381501474,1.1638716839792358
1589543980.1685019,-2.9992832441698933,-1.803572251943369,8.780716755830106,0.43769941904189535,-0.31400578659231454,-0.8287296098155319,-0.004206951265382986,-0.0429308153323866,1.208834085701965
1589543980.1785018,-3.085967581522314,-1.8531773070656201,9.14224114945934,0.43333333333333335,-0.3233333333333333,-0.8311111111111111,-0.013174406806686677,-0.06291275418118694,1.2389549938374602
1589543980.1885018,-2.7903970741901776,-1.7296865203761755,8.971577847439917,0.43333333333333335,-0.3233333333333333,-0.8311111111111111,-0.005067746770093253,-0.0438224454167803,1.2638260580348777
1589543980.1985018,-2.912279413381412,-1.7119599393153184,8.999799696576591,0.43333333333333335,-0.3233333333333333,-0.8311111111111111,-0.004577119343683267,-0.052259479203251746,1.2790165170843695
1589543980.2085018,-2.9322323808179043,-1.6989935930246924,9.018993593024693,0.43333333333333335,-0.3233333333333333,-0.8311111111111111,-0.004881293028524436,-0.05552258793648078,1.2954199396629047
1589543980.2185018,-2.8381039045452434,-1.6311212219694509,8.930173174242073,0.3852304089223167,-0.356695038973232,-0.8062837952860702,-0.009695170698639285,-0.06944625104828672,1.3113854324896002
1589543980.2285018,-2.628762274738319,-1.5105563828639257,8.915299018020935,0.3644444444444445,-0.3711111111111111,-0.7955555555555556,0.001351773231901672,-0.06968269885507059,1.318366854065494
1589543980.2385018,-2.73073598268276,-1.494612362062069,8.912693818968966,0.3644444444444445,-0.3711111111111111,-0.7955555555555556,0.007048115346711119,-0.052488874889606296,1.305559593912652
1589543980.2485018,-2.978512054781492,-1.5,8.953502781872652,0.3644444444444445,-0.3711111111111111,-0.7955555555555556,-0.00027321345434442104,-0.048487529433711526,1.3058066129880492
1589543980.2585018,-3.025959799790294,-1.5180301501572795,8.988030150157279,0.3644444444444445,-0.3711111111111111,-0.7955555555555556,-0.0006501133068768819,-0.054987738053718614,1.325607166737385
1589543980.2685018,-3.01,-1.4786196319018405,9.025690184049079,0.34303595773687806,-0.3739655760054533,-0.7708168598045899,0.005761438043952395,-0.05563543717178947,1.34529857168513
1589543980.2785017,-3.1136422240128927,-1.4288440407296168,9.064711010182405,0.3144444444444445,-0.37777777777777777,-0.7377777777777778,0.007888006668564403,-0.053324612746781734,1.3677221669674224
1589543980.2885017,-3.109135818426223,-1.3860130803432944,8.799833005893909,0.3144444444444445,-0.37777777777777777,-0.7377777777777778,0.003272492347489368,-0.06648997682888891,1.4081357879444374
1589543980.2985017,-3.2591206047576113,-1.3528885498300853,9.024238157985991,0.3144444444444445,-0.37777777777777777,-0.7377777777777778,0.004823970098195888,-0.07245547861297616,1.4439944920391936
1589543980.3085017,-3.3063995435960822,-1.2995993153941239,9.01999809831701,0.3144444444444445,-0.37777777777777777,-0.7377777777777778,0.011562889271036169,-0.06086819171015477,1.4772906274302806
1589543980.3185017,-3.1529821193700895,-1.219889090327397,8.943425758060503,0.32410077455081193,-0.37554939390707764,-0.7140083498236426,0.006153144907657749,-0.06731225893843058,1.5152183995458057
1589543980.3285017,-3.0644912802064597,-1.1808684601548447,9.042903339329007,0.3288888888888889,-0.3744444444444445,-0.7022222222222222,-0.0023873813141123456,-0.08222374818547307,1.5368073550585153
1589543980.3385017,-3.152025160569144,-1.1566923703605463,8.99241071597734,0.3288888888888889,-0.3744444444444445,-0.7022222222222222,0.0009593466226995124,-0.0774658085855531,1.561912961832671
1589543980.3485017,-3.245459227467811,-1.1054592274678112,8.865682403433476,0.3288888888888889,-0.3744444444444445,-0.7022222222222222,0.0057519085810092095,-0.07219239842168176,1.6061710795525928
1589543980.3585017,-3.0732884231536928,-1.021435607046776,8.970183979866354,0.3288888888888889,-0.3744444444444445,-0.7022222222222222,-0.0015351907315581895,-0.09044793405009828,1.6599058087295715
1589543980.3685017,-2.579126034958602,-0.8643619398081219,8.8645630174793,0.31958236591171274,-0.3891797724916401,-0.7029977658036536,-0.007738318304322998,-0.09926560120717748,1.703811879745446
1589543980.3785017,-2.247471033723866,-0.81,9.182789177293028,0.31555555555555553,-0.3955555555555556,-0.7033333333333334,-0.007955813218835405,-0.11159892986535735,1.6874868359033002
1589543980.3885016,-2.646757533781135,-0.787773450772327,9.194414155406289,0.31555555555555553,-0.3955555555555556,-0.7033333333333334,0.018225948881158017,-0.08196714787020741,1.6467042476573832
1589543980.3985016,-2.667301580566458,-0.7086507902832291,8.851205579717831,0.31555555555555553,-0.3955555555555556,-0.7033333333333334,0.02541767636560547,-0.06203017865318828,1.6369874110234064
1589543980.4085016,-2.4804334358756766,-0.615216717937838,8.47302004879601,0.31555555555555553,-0.3955555555555556,-0.7033333333333334,0.02299099155016849,-0.05183810242835296,1.6379580849495812
1589543980.4185016,-2.39,-0.5567265591463789,9.192593978046238,0.31555555555555553,-0.3911310752710152,-0.7033333333333334,-0.005693632308345242,-0.10988971239392312,1.6065738639895697
1589543980.4285016,-2.4166423079850805,-0.5382773844865647,9.597781076349243,0.31555555555555553,-0.3888888888888889,-0.7033333333333334,-0.01579873712890848,-0.13529805779915888,1.5849675779424601
1589543980.4385016,-2.5763357462943812,-0.44,8.954027414481821,0.31555555555555553,-0.3888888888888889,-0.7033333333333334,0.01717948441611452,-0.0754108304933978,1.5175111331178057
1589543980.4485016,-2.4849243836353505,-0.4442641096101001,8.808281096869655,0.31555555555555553,-0.3888888888888889,-0.7033333333333334,0.01272984577414454,-0.07561095067642434,1.4601842324271925
1589543980.4585016,-2.5355048933218343,-0.4573778544377367,9.523143349956879,0.31555555555555553,-0.3888888888888889,-0.7033333333333334,-0.007173902693841292,-0.10605931446297069,1.3808976129120154
1589543980.4685016,-1.5336271354295619,0.012896756622926442,8.347518834223465,0.3104394062651057,-0.40807444872807586,-0.7033333333333334,-0.004945835178729555,-0.0955411199438693,1.2368083867921826
1589543980.4785016,-0.88,0.5163067663687763,8.164070764180194,0.30666666666666664,-0.4222222222222222,-0.7033333333333334,-0.039343916751139726,-0.10470463508692773,0.8273536679074484
1589543980.4885015,-0.6744225287880516,0.386603865009691,8.612001767187323,0.30666666666666664,-0.4222222222222222,-0.7033333333333334,-0.02401133584360315,-0.03439055156317089,0.21196818931552674
1589543980.4985015,-0.4542422879755374,-0.1169322780825614,9.232349132116198,0.30666666666666664,-0.4222222222222222,-0.7033333333333334,-0.013810992938474216,-0.0033282651058173865,-0.5199695239972302
1589543980.5085015,-0.03240718049258673,-0.25610832005881634,8.968786300698444,0.30666666666666664,-0.4222222222222222,-0.7033333333333334,-0.014180800172453925,0.04069663623902659,-1.2844626028599575
1589543980.5185015,-0.4839037869748163,-0.32592036676505687,8.882683539534007,0.3059743766878101,-0.42152993224336566,-0.6901798237350583,-0.028453536218179865,0.09728473252188671,-2.2765406878352556
1589543980.5285015,-0.9057742212060589,-0.4798426693340955,8.978766218919692,0.3055555555555556,-0.4211111111111111,-0.6822222222222222,-0.02775461333904315,0.1383322762855639,-2.92103918633269
1589543980.5385015,-0.8414633780643227,-0.627804932903516,8.841407151960416,0.3055555555555556,-0.4211111111111111,-0.6822222222222222,-0.01636041729861616,0.17507731837126583,-3.3612324415982373
1589543980.5485015,-0.7318088169428626,-1.1657450892571501,8.99,0.3055555555555556,-0.4211111111111111,-0.6822222222222222,-0.03254022183942458,0.19614746018357487,-4.182451744391457
1589543980.5585015,-1.0175064690661022,-1.556259703599153,8.943275993883791,0.3055555555555556,-0.4211111111111111,-0.6822222222222222,-0.034821231572695836,0.232893783394281,-4.795912175425358
1589543980.5685015,-1.223622344071282,-1.7488583790267307,8.954987148732007,0.30795422092757596,-0.408638051176605,-0.6946952821567284,-0.03225394663044621,0.26420296314867264,-5.392070248580758
1589543980.5785015,-2.037013785646709,-2.01351973239627,9.163324773618056,0.3111111111111111,-0.3922222222222223,-0.7111111111111111,-0.024817100591862876,0.2930226682229392,-5.833634281990558
1589543980.5885015,-2.75445818115827,-2.7011825420230022,8.969219880679628,0.3111111111111111,-0.3922222222222223,-0.7111111111111111,-0.001371141358095209,0.3155743042242348,-6.021918826209188
1589543980.5985014,-2.79241552083095,-3.04275343750715,8.75724656249285,0.3111111111111111,-0.3922222222222223,-0.7111111111111111,-0.011733824323246786,0.3036286766283222,-6.0958591223564484
1589543980.6085014,-2.803562764234067,-3.202526374017148,8.932064878106603,0.3111111111111111,-0.3922222222222223,-0.7111111111111111,-0.04520015030486273,0.2758927370388251,-6.135872810148044
1589543980.6185014,-3.1897671662600207,-3.488139421401185,9.143546531892644,0.3769508539560822,-0.37164730258316875,-0.7034689981023198,-0.04057004614852233,0.2741726939120321,-6.096044446492618
1589543980.6285014,-2.93337041063812,-3.6675570795350008,8.911937777034373,0.4355555555555555,-0.3533333333333333,-0.6966666666666667,-0.022640965148184363,0.28517940289038,-5.99701624698984
1589543980.6385014,-3.3592553655346156,-4.005855336466256,8.922927668233129,0.4355555555555555,-0.3533333333333333,-0.6966666666666667,-0.03749974575162184,0.27180114500917557,-5.922169519445412
1589543980.6485014,-3.5370305152963484,-4.071386443236131,8.744625670001355,0.4355555555555555,-0.3533333333333333,-0.6966666666666667,-0.042496892067758224,0.261910478230626,-5.784184397395207
1589543980.6585014,-3.0376811901106464,-3.975511673460744,8.637457250251469,0.4355555555555555,-0.3533333333333333,-0.6966666666666667,-0.0378662482090826,0.24631552733889572,-5.582199798092446
1589543980.6685014,-3.1138780559780264,-4.175960547522303,8.951849363266973,0.4831537516678142,-0.3141871533531579,-0.70511868279875,-0.03359250203086781,0.23432297163721852,-5.35611045378755
1589543980.6785014,-3.0436590089847746,-4.176829504492387,8.816951632861677,0.5544444444444444,-0.25555555555555554,-0.7177777777777777,-0.028126594692388526,0.24705318902775156,-5.137087721297798
1589543980.6885014,-3.392531945627616,-4.362026741731175,9.098478462165264,0.5544444444444444,-0.25555555555555554,-0.7177777777777777,-0.03537598287058564,0.22538768334223475,-4.924767095583575
1589543980.6985013,-3.240531461519178,-4.530366006517924,8.844226623213837,0.5544444444444444,-0.25555555555555554,-0.7177777777777777,-0.027581146333064063,0.21260125140432934,-4.517140661786797
1589543980.7085013,-2.7471345975255383,-4.473661364249123,8.895209849914622,0.5544444444444444,-0.25555555555555554,-0.7177777777777777,-0.027900641745168632,0.1976503290261109,-4.267109018502427
1589543980.7185013,-2.3861398017736044,-4.354559207094418,8.636747522170058,0.6274398655306324,-0.2780681620587724,-0.7157311771865762,-0.025155400008978653,0.17608467039706877,-4.027887827611956
1589543980.7285013,-2.312430002366117,-4.345782001735153,8.774972000946446,0.7922222222222223,-0.3288888888888889,-0.7111111111111111,-0.04317922751097632,0.13940239248805505,-3.847311302297806
1589543980.7385013,-2.0915357924204288,-4.127929144416477,8.763356465689618,0.7922222222222223,-0.3288888888888889,-0.7111111111111111,-0.039184251176012916,0.14267293720537452,-3.5494322889742542
1589543980.7485013,-2.076735514832153,-4.01939377543579,8.891625538121339,0.7922222222222223,-0.3288888888888889,-0.7111111111111111,-0.029497492146342973,0.13083356505800017,-3.2878897951731654
1589543980.7585013,-2.085688226108146,-4.013142621797402,8.93823383041889,0.7922222222222223,-0.3288888888888889,-0.7111111111111111,-0.02294995800222719,0.1267290299842072,-3.0405144234407264
1589543980.7685013,-2.11,-4.0772308279930405,8.969845096125281,0.9974486365158182,-0.3636573818651652,-0.6914192212838396,-0.022353582345433786,0.1196559381329232,-2.7488787577396283
1589543980.7785013,-2.1931552587646075,-4.153155258764608,9.022388425153034,1.5333333333333334,-0.4544444444444444,-0.64,-0.03489493008661785,0.08268922251494391,-2.313218064071486
1589543980.7885013,-2.275080136656501,-4.2803205466260055,8.944919863343499,1.5333333333333334,-0.4544444444444444,-0.64,-0.022820030900707396,0.07747812406782109,-1.9569747850941765
1589543980.7985013,-2.1359276370720846,-4.261084887280823,8.866116337322572,1.5333333333333334,-0.4544444444444444,-0.64,0.002473237931124166,0.08290313946973066,-1.6092086288433116
1589543980.8085012,-1.865799853372434,-4.121885630498533,8.749857038123167,1.5333333333333334,-0.4544444444444444,-0.64,0.012806305402749633,0.0753794460418933,-1.293422290604222
1589543980.8185012,-1.7706737149926892,-4.100487009335283,8.786030817680802,1.3903021782326699,-0.36122658368637445,-0.6790349791924418,-0.008600030877277199,0.03494731789555961,-0.9452509428744599
1589543980.8285012,-1.6544564277266869,-4.127228213863344,9.0,0.9877777777777778,-0.09888888888888887,-0.7888888888888889,-0.013522677987472923,0.004665678094022007,-0.6410870830911259
1589543980.8385012,-1.6235641379310344,-4.106645862068966,8.996575862068966,0.9877777777777778,-0.09888888888888887,-0.7888888888888889,-0.003347195448663091,0.005043286856026804,-0.4354146233916663
1589543980.8485012,-1.1747875143690865,-3.678243699708197,8.892606242815457,0.9877777777777778,-0.09888888888888887,-0.7888888888888889,-0.0014214849448802077,-0.005738450901458321,-0.14550700707530417
1589543980.8585012,-1.2192933062162878,-3.5224734282429924,8.870353346891855,0.9877777777777778,-0.09888888888888887,-0.7888888888888889,0.01071558699169655,-0.0033110365141429702,0.0009469942927220476
1589543980.8685012,-1.0018308616792546,-3.371297204917581,8.826412150614697,0.8697773979944993,-0.023544051797538754,-0.7761320910744803,0.01672875813174564,-0.001898655353932307,0.21830856166456777
1589543980.8785012,-0.8711971349810333,-3.35961289258535,8.811197134981034,0.6588888888888889,0.1111111111111111,-0.7533333333333333,-0.004847351500429847,-0.026533379981547513,0.3398708020228563
1589543980.8885012,-0.8407288979966788,-3.4035762993322263,8.896355510016607,0.6588888888888889,0.1111111111111111,-0.7533333333333333,-0.017572558175754878,-0.04608574094894096,0.40188047524353043
1589543980.8985012,-0.8103216342098508,-3.453220009535336,9.04194080756959,0.6588888888888889,0.1111111111111111,-0.7533333333333333,-0.0065453847502772635,-0.04606168697851311,0.44023793286152224
1589543980.9085011,-0.8726828875930022,-3.81414598833702,8.785366579529459,0.6588888888888889,0.1111111111111111,-0.7533333333333333,0.013728455262004663,-0.018890039277504482,0.4488635085427061
1589543980.9185011,-0.8536643126750274,-3.665153719712651,8.988321563375136,0.6261545043765304,0.11920671158190943,-0.7554452291083242,0.0005828035399481853,-0.030651574646187858,0.4215480893569239
1589543980.9285011,-0.8530456309380436,-3.5986970872920288,8.850423301663767,0.5555555555555556,0.13666666666666666,-0.76,0.009391099855839956,-0.019539003404572094,0.3938360875297325
1589543980.9385011,-0.9184075999805628,-3.827834199912532,8.792271733320375,0.5555555555555556,0.13666666666666666,-0.76,0.005609331866501347,-0.01794890784704091,0.3756117229125368
1589543980.948501,-1.081541026348116,-4.411545789566046,8.805127228057861,0.5555555555555556,0.13666666666666666,-0.76,-0.003076635593390754,-0.025033074698179714,0.3508835553120439
1589543980.958501,-1.227879331050924,-4.662877090465862,8.798334080195021,0.5555555555555556,0.13666666666666666,-0.76,0.0019007270316098242,-0.018825057835822837,0.32652185128732875
1589543980.968501,-1.2837621011115095,-4.543891179634278,8.863729831480818,0.5547195330863313,0.1384780486833194,-0.7606966853910203,0.00531736005583899,-0.015545218668236964,0.30828768973526743
1589543980.978501,-1.298248121678578,-4.773078614623419,8.82,0.5488888888888889,0.1511111111111111,-0.7655555555555555,0.00424678394248437,-0.017220214144940387,0.28922867464404567
1589543980.988501,-1.1930166110316325,-4.199833889683675,8.73619933237959,0.5488888888888889,0.1511111111111111,-0.7655555555555555,0.009366648869762526,-0.01146278312852966,0.29476530927655814
1589543980.998501,-1.2139792899408284,-4.497064842209073,8.645126972386588,0.5488888888888889,0.1511111111111111,-0.7655555555555555,0.013003773318510204,-0.011467573754994487,0.32424662620081507
1589543981.008501,-1.3644105648235048,-5.123966788607765,8.827891823562085,0.5488888888888889,0.1511111111111111,-0.7655555555555555,-0.012009731226003576,-0.031013787279125696,0.3246560489089284
1589543981.018501,-1.401431016775077,-5.139058541595344,8.865237932214995,0.5517988512305527,0.1482011487694473,-0.7699204990680513,-0.014674493528996314,-0.02924479609999314,0.28891480453529633
1589543981.028501,-1.1947110573042776,-4.234588579499596,8.850577885391445,0.56,0.14,-0.7822222222222223,0.013076609134005587,-0.012350643199802992,0.23821565269394365
1589543981.038501,-1.2520102577640337,-4.472029491071597,8.773991665566722,0.56,0.14,-0.7822222222222223,0.020942272601216817,-0.007200042638714987,0.22296490279663822
1589543981.048501,-1.378551845077593,-4.83583655459808,8.671176625874455,0.56,0.14,-0.7822222222222223,0.0002369537950777656,-0.014101815574094671,0.21174952177664624
1589543981.058501,-1.1099096745416024,-3.9466644895098213,8.859729023624807,0.56,0.14,-0.7822222222222223,-0.0037440103958900958,-0.0231333524775796,0.16496106016021153
1589543981.068501,-1.0831828971054436,-3.699441798225352,8.77954869131633,0.56,0.14,-0.7822222222222223,0.018121783262330243,-0.009285016494040055,0.15694360248553074
1589543981.078501,-0.9260043926338908,-3.6183369938615755,8.955680576673988,0.5422222222222223,0.11333333333333333,-0.7822222222222223,0.006980837845950879,-0.01399939434372655,0.16304268123646146
1589543981.088501,-0.883674575817409,-3.5759579666008503,8.81,0.5422222222222223,0.11333333333333333,-0.7822222222222223,0.011638387970178797,-0.010098060871465387,0.16391378007411547
1589543981.098501,-1.0105627162730209,-3.5280691609187396,8.843618987900323,0.5422222222222223,0.11333333333333333,-0.7822222222222223,0.002181661564992912,-0.015119579900431149,0.13423075706313348
1589543981.108501,-1.0773988164658115,-3.6834106518076974,8.84716686104272,0.5422222222222223,0.11333333333333333,-0.7822222222222223,0.0058703479560134955,-0.004710065116439603,0.11652344791113896
1589543981.118501,-1.065066655254317,-3.75,8.690977895705391,0.5392987586692249,0.113698766277458,-0.7833185210545962,0.013671739582817798,0.004436032733210023,0.12576067717910844
1589543981.128501,-3.925213583282114,-6.24820528580209,8.98558696988322,0.5244444444444445,0.11555555555555555,-0.7888888888888889,0.0026203069487964197,-0.01834617137340959,0.1513653421083665
1589543981.138501,-25.052718558527783,-23.662138938109774,6.11803697615337,0.5244444444444445,0.11555555555555555,-0.7888888888888889,-0.015225218074151173,0.19389801854041472,-0.16203186144402157
1589543981.148501,-0.8286671339290929,-0.08680100461421647,-0.6584405116523566,0.5244444444444445,0.11555555555555555,-0.7888888888888889,-0.40403675163123176,0.30501873925769596,-2.089204401858765
1589543981.158501,0.7581733381271972,0.9974316874400768,8.054977029402366,0.5244444444444445,0.11555555555555555,-0.7888888888888889,-0.9498599036279314,-0.5661986765637872,-4.600178631646881
1589543981.168501,-0.494357358470582,-1.3442477360588891,8.554382248583382,0.5207479979052293,0.12048415094117577,-0.778415623694446,0.2542661102996932,0.43954466898825895,-3.35762659782504
1589543981.178501,-0.514094461200987,0.21287565122018098,7.292583630381135,0.5044444444444445,0.14222222222222222,-0.7322222222222222,1.1211681115865737,0.5447150401988132,-3.0097753846606046
1589543981.188501,0.15410097290777217,-1.331867887695018,8.649732569397052,0.5044444444444445,0.14222222222222222,-0.7322222222222222,0.2192747329537298,0.12151432829711056,-2.4647721024536757
1589543981.1985009,0.846416429920485,-1.7445944101449045,11.299170568349549,0.5044444444444445,0.14222222222222222,-0.7322222222222222,-0.36382604243201816,-0.1950883343033703,-1.9332281826748865
1589543981.2085009,0.37573236379039515,-2.1447522900157083,7.123461232990346,0.5044444444444445,0.14222222222222222,-0.7322222222222222,0.151732388231262,0.20684636371493276,-1.2380033559729917
1589543981.2185009,0.30170528953917297,-2.574109320672797,8.744654159092113,0.5044444444444445,0.14222222222222222,-0.7322222222222222,0.0968217005259209,0.10510008943738894,-0.8390933599959549
1589543981.2285008,0.15428527424292013,-2.54428527424292,9.782627688042663,0.5111111111111111,0.22,-0.76,-0.13955201926665886,-0.0972229421824565,-0.22143797682966487
1589543981.2385008,0.000863831507614099,-2.390863831507614,8.426059141751535,0.5111111111111111,0.22,-0.76,0.03661306750248752,0.0516365561374722,0.012861588573299831
1589543981.2485008,-0.23266443003904622,-2.8600987527957846,8.907434322756737,0.5111111111111111,0.22,-0.76,0.050483292157612936,0.0037102885298423757,0.21803688939189197
1589543981.2585008,-0.2883149474961143,-2.772647939648963,8.764332992152848,0.5111111111111111,0.22,-0.76,-0.044043528241513724,-0.032712889972573406,0.3325097361137701
1589543981.2685008,-0.18591250977796497,-2.7219708365926554,9.042262470666106,0.5089212926748278,0.22284676396716832,-0.759343054469115,-0.01578113165559412,-0.02610425866124243,0.4916822225612754
1589543981.2785008,-0.23638847102713761,-2.738796157009046,8.890834586918588,0.49022649221217124,0.24715000456862182,-0.753734614330318,0.026432096446205974,-0.006833002353898915,0.591709219585106
1589543981.2885008,0.6904544611389353,-10.271603598590243,8.574396772398442,0.4888888888888889,0.2488888888888889,-0.7533333333333333,0.01081945904058426,-0.049140722810980114,0.6059759245988958
1589543981.2985008,-2.188215544425895,-24.0814394360972,7.430708959376739,0.4888888888888889,0.2488888888888889,-0.7533333333333333,-0.023976707457657304,-0.12212780375851122,0.38956074271958857
1589543981.3085008,-0.1594289693593315,-0.862933844011142,8.541913997214484,0.4888888888888889,0.2488888888888889,-0.7533333333333333,-0.09588596284167204,0.0007232451170020027,-1.270696358555683
1589543981.3185008,-1.0356754874651812,-1.9874502089136488,7.906635271587744,0.4888888888888889,0.2488888888888889,-0.7533333333333333,0.21396442597251322,0.3973954652441595,-1.3734488011187418
1589543981.3285007,-0.8254674048130155,-3.1135449101796406,9.332451474409671,0.4811111111111111,0.2288888888888889,-0.7388888888888889,-0.02314599711173867,0.012139587230185343,-0.7729950316474019
1589543981.3385007,-0.3323974049487025,-4.203105009052504,9.558321514785757,0.4811111111111111,0.2288888888888889,-0.7388888888888889,-0.1341048733638352,-0.08452440893840485,-0.4431437513804745
1589543981.3485007,-0.5981798430899216,-4.177792395896198,8.81792757996379,0.4811111111111111,0.2288888888888889,-0.7388888888888889,-0.005710107447928631,-0.022397909301675872,-0.3920619627902751
1589543981.3585007,-1.0241492841170778,-2.8217099422621232,9.314335180055402,0.4811111111111111,0.2288888888888889,-0.7388888888888889,-0.003416295758057769,0.05143374718984266,-0.6879221319244228
1589543981.3685007,-0.8071761839602176,-4.368518172412642,8.733407202216066,0.4811111111111111,0.2288888888888889,-0.7388888888888889,0.031704101289491665,0.05754164232854691,-0.5520214650882532
1589543981.3785007,-0.59779,-4.922691666666666,8.535601666666667,0.49,0.2488888888888889,-0.76,-0.04324416832076783,-0.0033655765742623992,-0.276772676535087
1589543981.3885007,-0.44807458325349686,-4.363809398352175,8.719875694577505,0.49,0.2488888888888889,-0.76,-0.007572537259540572,-0.008243307270793062,-0.1960626726276766
1589543981.3985007,-0.5093586698337292,-4.18,8.634964370546317,0.49,0.2488888888888889,-0.76,0.04565683899850367,0.032279263392733605,-0.11969341567084034
1589543981.4085007,-0.45731467366256606,-4.18,8.805966072251568,0.49,0.2488888888888889,-0.76,0.007539037938807579,0.008759769121857289,-0.07022137599761774
1589543981.4185007,-0.38338542766631467,-4.189516367476241,8.801450897571279,0.49,0.2488888888888889,-0.76,-0.022732130228522766,-0.010116965958465018,-0.023821348378394627
1589543981.4285007,-0.4060173834079263,-4.146637694320122,8.713275388640245,0.48421835924268297,0.2671974179537259,-0.735909830177846,-0.0022398458105317917,0.00895808606600044,-0.004788278029101974
1589543981.4385006,-0.34887821972321764,-4.128878219723218,8.835512878892871,0.4833333333333333,0.27,-0.7322222222222222,0.012845234898535153,0.008349070093934199,0.0007237290453629795
1589543981.4485006,-0.34057415510107114,-4.120574155101071,8.802296620404285,0.4833333333333333,0.27,-0.7322222222222222,0.011033569036599702,-0.0025209250776785097,-0.0019937697475401975
1589543981.4585006,-0.3440851719438245,-4.11272344796255,8.834553104074901,0.4833333333333333,0.27,-0.7322222222222222,0.0028268692166779096,0.0002970820872076389,0.0
1589543981.4685006,-0.39379343038299724,-4.145862286921998,8.768275426156004,0.4833333333333333,0.27,-0.7322222222222222,-0.002595460628295981,0.003911968650523566,0.0
1589543981.4785006,-0.36909280952944423,-4.160907190470556,8.800453595235279,0.49,0.25,-0.7466666666666667,-0.011801220349287083,0.001884784177732014,-0.001041351217952973
1589543981.4885006,-0.35254920522226163,-4.177450794777738,8.80872539738887,0.49,0.25,-0.7466666666666667,-0.008191965782943941,-0.0035290976717827012,-0.0001390375763671871
1589543981.4985006,-0.3600612196844831,-4.1,8.750061219684483,0.49,0.25,-0.7466666666666667,0.010918324872413903,-0.0021649664859106727,-0.0021683055017271205
1589543981.5085006,-0.377742243928272,-4.101693317053796,8.775079951161388,0.49,0.25,-0.7466666666666667,0.0133188097346107,0.0030262093652484467,0.002058520073872451
1589543981.5185006,-0.35306226923020345,-4.120203298077347,8.830609894232042,0.49,0.25,-0.7466666666666667,0.0038962230954503133,0.0003340417540597645,0.0007124362682781101
1589543981.5285006,-0.3642644709352341,-4.194705255827291,8.819559215107944,0.4846078953477257,0.2562907887609866,-0.7466666666666667,-0.008149079267068177,-0.001090830782496456,-0.0008822810605714648
1589543981.5385005,-0.3495385431723785,-4.1827180575631715,8.796359028781586,0.4833333333333333,0.2577777777777778,-0.7466666666666667,-0.006841478780829189,-0.0025788299133159137,-0.00034683121708672753
1589543981.5485005,-0.34878109808407204,-4.12609450957964,8.74609450957964,0.4833333333333333,0.2577777777777778,-0.7466666666666667,0.00604027660058947,-0.0013567539286440762,0.0009578692094226456
1589543981.5585005,-0.35,-4.104786402400505,8.79324759159823,0.4833333333333333,0.2577777777777778,-0.7466666666666667,0.010125134563581632,0.003058034361014277,0.001090830782496456
1589543981.5685005,-0.35829185551817144,-4.1331674220726855,8.859751133109029,0.4833333333333333,0.2577777777777778,-0.7466666666666667,0.003672298830376941,0.002554320881338919,0.001090830782496456
