time,acc_x,acc_y,acc_z,mag_x,mag_y,mag_z,gyr_x,gyr_y,gyr_z
1589543968.55576,0.5,-4.16,8.78,0.5111111111111111,0.36777777777777776,-0.7022222222222222,0.0,0.001090830782496456,0.001090830782496456
1589543968.56576,0.5026506547224571,-4.177349345277543,8.792650654722456,0.5166666666666667,0.3944444444444444,-0.6588888888888889,0.0018925199884903322,0.0005125476294912962,-0.0008016892059938761
1589543968.57576,0.5052458936728546,-4.17,8.780983574691419,0.5166666666666667,0.3944444444444444,-0.6588888888888889,0.000312941953759735,-0.001090830782496456,-0.0002592962762455736
1589543968.5857599,0.49249239548209106,-4.167507604517909,8.734954372892547,0.5166666666666667,0.3944444444444444,-0.6588888888888889,-0.0016379052221889062,-0.0008189526110944531,-0.0008189526110944531
1589543968.5957599,0.5,-4.16,8.793956902675822,0.5166666666666667,0.3944444444444444,-0.6588888888888889,-0.0002174945581013535,0.000434989116202707,-0.0002174945581013535
1589543968.6057599,0.5,-4.160421327596804,8.851685310387216,0.5161517107150174,0.3936017892508365,-0.660106057501878,-0.0010448710712855573,0.0022735809874147093,-0.0009989113600746588
1589543968.6157598,0.49757101632248174,-4.167571016322482,8.875426097934891,0.5044444444444445,0.3744444444444445,-0.6877777777777778,0.0002649610165618364,0.004363323129985824,3.098671624911036e-05
1589543968.6257598,0.49,-4.16,8.806249612643322,0.5044444444444445,0.3744444444444445,-0.6877777777777778,0.0013263549063589927,0.003892274882260751,-0.002565919975901758
1589543968.6357598,0.48756256709255086,-4.16,8.729749731629797,0.5044444444444445,0.3744444444444445,-0.6877777777777778,0.002181661564992912,0.001649896195849846,-0.000265882684571533
1589543968.6457598,0.48085037187862334,-4.1591496281213765,8.762551115635869,0.5044444444444445,0.3744444444444445,-0.6877777777777778,0.002181661564992912,9.276118217716816e-05,-0.001183591964673624
1589543968.6557598,0.4867810582279913,-4.153218941772009,8.780343174683972,0.5044444444444445,0.3744444444444445,-0.6877777777777778,0.002181661564992912,0.000739698705299377,-0.0018305294877958328
1589543968.6657598,0.49,-4.157955035672806,8.821820142691223,0.4991410873292407,0.3744444444444445,-0.68159052781004,0.0013139017862175248,-0.0015124485538297058,-0.0004461420074421377
1589543968.6757598,0.497611771480278,-4.167611771480278,8.837611771480278,0.4977777777777778,0.3744444444444445,-0.68,-0.003060746537511495,0.0019699157550150397,-0.0016606309280031803
1589543968.6857598,0.48,-4.169614765851782,8.752696639037527,0.4977777777777778,0.3744444444444445,-0.68,-0.008642601206502627,-0.001132853309230966,-0.003188447294020348
1589543968.6957598,0.48,-4.162280278389816,8.80403805127129,0.4977777777777778,0.3744444444444445,-0.68,-0.007042464267033217,-0.0019329217789656713,-0.0015883103545509371
1589543968.7057598,0.480134893012336,-4.179730213975327,8.850134893012335,0.49803257568996806,0.374549361231817,-0.68,-0.006530270149958755,0.0010466871474365154,-0.0021669470199729315
1589543968.7157598,0.4887727825030377,-4.162454434993925,8.858772782503037,0.5143485891724046,0.3812677197245849,-0.68,-0.005588022574732756,-0.0017800555782414827,-0.0012246994447469325
1589543968.7257597,0.5053998003770656,-4.16,8.80549850282799,0.5166666666666667,0.38222222222222224,-0.68,-0.0013417327502127307,0.003523394315205643,-0.0036106172268369997
1589543968.7357597,0.49,-4.163596198815862,8.693596198815861,0.5166666666666667,0.38222222222222224,-0.68,-0.0017893771281610106,0.004755607566817725,-0.0012869730009124067
1589543968.7457597,0.48850673989016474,-4.175520219670494,8.720452820768847,0.5166666666666667,0.38222222222222224,-0.68,0.00016288940940823265,0.006056316466754037,-0.002181661564992912
1589543968.7557597,0.48152670993509733,-4.154580129805292,8.769313030454319,0.5166666666666667,0.38222222222222224,-0.68,0.00092429256318172,0.003772107005433576,-0.002181661564992912
1589543968.7657597,0.4810289805659734,-4.158971019434027,8.811028980565974,0.5433333333333333,0.38222222222222224,-0.6533333333333333,-0.004026590027199499,0.006544984694978735,0.0
1589543968.7757597,0.4913700525878771,-4.152055078881816,8.815889842236368,0.5433333333333333,0.38222222222222224,-0.6533333333333333,-0.001090830782496456,0.006694434248628264,0.0
1589543968.7857597,0.5046322402366098,-4.176421493491073,8.767157013017854,0.5433333333333333,0.38222222222222224,-0.6533333333333333,-0.0014811852880265881,0.009507355271031913,-0.00019517725276506608
1589543968.7957597,0.479203990228013,-4.158407980456026,8.802388029315962,0.5433333333333333,0.38222222222222224,-0.6533333333333333,-0.0033593235437345053,0.01308996938995747,-0.0010039995862513188
1589543968.8057597,0.47066510586319216,-4.141330211726384,8.828004682410423,0.5433333333333333,0.38222222222222224,-0.6533333333333333,-0.004290771335066933,0.01308996938995747,-7.255179491889104e-05
1589543968.8157597,0.4615521383950024,-4.165343584814993,8.846895723209995,0.5161124459394522,0.38222222222222224,-0.6758609642799936,-0.006206360626986082,0.009403894395956954,0.0
1589543968.8257596,0.6882118806173518,-4.270413227471635,9.224267484212456,0.5111111111111111,0.38222222222222224,-0.68,-0.025464466062448583,-0.03409112736114432,0.00199152435447051
1589543968.8357596,0.6009905977895034,-4.196146613684233,8.974898486526394,0.5111111111111111,0.38222222222222224,-0.68,-0.0135502913109406,-0.019885106385414898,-0.0014771326353993004
1589543968.8457596,0.47486184373393253,-4.1471443261668535,8.630870070268315,0.5111111111111111,0.38222222222222224,-0.68,-0.0008731133138440202,0.015893520619726324,-0.0014648619570557307
1589543968.8557596,0.39118685551498616,-4.091582474019981,8.595252577940055,0.5111111111111111,0.38222222222222224,-0.68,-0.0019227298589683953,0.0002469830319635491,-4.315528433741951e-05
1589543968.8657596,0.5856861214132344,-4.219869217255515,9.049215303533085,0.5244444444444445,0.38222222222222224,-0.68,-0.018722344142757832,-0.033936910360306494,0.0015328695692352111
1589543968.8757596,0.4890073923388488,-4.178808870806618,8.805831047823165,0.5244444444444445,0.38222222222222224,-0.68,-0.006371741976302654,-0.004060148372302681,0.0031858709881513276
1589543968.8857596,0.4509168679731914,-4.1331002415678295,8.645850845487404,0.5244444444444445,0.38222222222222224,-0.68,0.0002763086636158093,0.00757394024755463,-0.0001381543318079042
1589543968.8957596,0.5703137999209174,-4.238431000395414,8.96502079873468,0.5244444444444445,0.38222222222222224,-0.68,-0.013226890435270115,-0.018886425915721358,0.0010223702598401343
1589543968.9057596,0.5769477263740609,-4.205261368129696,9.071163621984974,0.5244444444444445,0.38222222222222224,-0.68,-0.016121486908832715,-0.026122917099627864,-0.00042492797694116606
1589543968.9157596,0.5045585785674624,-4.139705719044975,8.82661669442902,0.5076796841261028,0.38222222222222224,-0.6744117465605528,-0.0009945275651633452,0.008951353767082244,0.0016522967099668695
1589543968.9257596,0.4462867447452106,-4.13,8.733572287287675,0.5044444444444445,0.38222222222222224,-0.6733333333333333,-0.0009972560640103718,0.009209897072189449,-0.00020252665675955144
1589543968.9357595,0.6473747759326276,-4.08274461392769,8.86176615821693,0.5044444444444445,0.38222222222222224,-0.6733333333333333,-0.024862618662222294,-0.038816929499480034,-0.0031527359731536734
1589543968.9457595,0.2657818253985755,-3.8537363558182096,8.505781825398575,0.5044444444444445,0.38222222222222224,-0.6733333333333333,-0.038875227989952195,-0.05394951885494248,-0.005861727106568587
1589543968.9557595,0.37676905775210034,-3.7335001874352245,8.6167690577521,0.5044444444444445,0.38222222222222224,-0.6733333333333333,-0.07317791001929047,-0.10540354189894988,0.0072540042575901615
1589543968.9657595,-0.17861426646130152,-2.6715729688101657,8.894407008086255,0.524044945022034,0.38222222222222224,-0.6733333333333333,-0.09555732259213322,-0.1400417022273327,0.039707059551036525
1589543968.9757595,0.10391621728265159,-3.036990332763383,9.229903327633828,0.5244444444444445,0.38222222222222224,-0.6733333333333333,-0.117357925728336,-0.12858750710712208,0.13541111778915965
1589543968.9857595,-0.0753745232145206,-3.0163029396290937,9.023029396290939,0.5244444444444445,0.38222222222222224,-0.6733333333333333,-0.08426047270895304,-0.08270240178479571,0.21890696517896663
1589543968.9957595,-0.1499200846965609,-2.721158771899867,8.78071923773095,0.5244444444444445,0.38222222222222224,-0.6733333333333333,-0.008988168478923364,-0.013312263276066424,0.44425695778710206
1589543969.0057595,0.008555468837105562,-2.72,8.78,0.5244444444444445,0.38222222222222224,-0.6733333333333333,0.024847395755570628,-0.01308996938995747,0.653624977839953
1589543969.0157595,0.2111691457919473,-2.846753718687921,8.82373443480789,0.5044444444444445,0.3888888888888889,-0.68,0.001901831942534097,-0.0402864542164418,0.8639739197019247
1589543969.0257595,0.28,-2.95,8.97,0.5044444444444445,0.3888888888888889,-0.68,-0.006544984694978735,-0.05999569303730508,0.978475211899321
1589543969.0357594,0.25692729129909925,-2.9653818058006007,8.870018262296098,0.5044444444444445,0.3888888888888889,-0.68,0.007717120474047187,-0.05244516677135017,1.0447520535671473
1589543969.0457594,0.2502977466361655,-3.0908932399084965,8.965831547093684,0.5044444444444445,0.3888888888888889,-0.68,0.009655081444411056,-0.06300835242790317,1.1375035917554952
1589543969.0557594,0.2578527297944774,-3.1135581893834323,8.860061782877317,0.5044444444444445,0.3888888888888889,-0.68,0.005534477349246614,-0.05641538587564006,1.1869508408974685
1589543969.0657594,0.26,-3.1293786510886883,8.905029208709506,0.5409169764560099,0.3753419484274504,-0.68,0.009478583782903354,-0.0565876433859898,1.2460189852742722
1589543969.0757594,0.2464727789815818,-3.123236389490791,8.882945557963163,0.5433333333333333,0.3744444444444445,-0.68,0.008341886133615741,-0.0611499734163728,1.27261070050008
1589543969.0857594,0.1676860322363471,-3.1380784919409135,8.698254326561324,0.5433333333333333,0.3744444444444445,-0.68,0.00960787302850142,-0.05537995518068954,1.304614435284104
1589543969.0957594,0.15002624870649403,-3.23973751293506,8.749816259054542,0.5433333333333333,0.3744444444444445,-0.68,0.008729509549676088,-0.0610693440815749,1.3372783672289306
1589543969.1057594,0.11588609401117045,-3.265585429491622,8.801170858983244,0.5433333333333333,0.3744444444444445,-0.68,0.0050053963835911,-0.06666839863437236,1.365267913413509
1589543969.1157594,0.045988693621727916,-3.355348408504363,8.817112367375364,0.5433333333333333,0.35547813144347495,-0.68,0.008242517764720876,-0.06530399173393923,1.3910311138431177
1589543969.1257594,0.02,-3.4512612754188012,8.863758053870571,0.5433333333333333,0.3477777777777778,-0.68,0.0069535191138185935,-0.07199623731035626,1.4253115153007985
1589543969.1357594,-0.017580910152615852,-3.46,8.824902907816861,0.5433333333333333,0.3477777777777778,-0.68,0.008184761240127014,-0.07390555069983669,1.4503054201572847
1589543969.1457593,-0.17598715359401385,-3.5183948614376055,8.907324769062676,0.5433333333333333,0.3477777777777778,-0.68,0.01084994333983016,-0.07417649320975901,1.484952787453426
1589543969.1557593,-0.19588070649551204,-3.432656114274684,8.91,0.5433333333333333,0.3477777777777778,-0.68,0.009175991475654968,-0.07244417686044939,1.5177593782224004
1589543969.1657593,-0.1800961048879837,-3.4597597377800406,8.919951947556008,0.569871860149355,0.31571039120841815,-0.68,0.01306900255592527,-0.07090924257077769,1.5727525948940435
1589543969.1757593,-0.23301759133964817,-3.5041813261163735,8.866982408660352,0.57,0.31555555555555553,-0.68,0.015981630422312758,-0.06994011385148455,1.6076779207481526
1589543969.1857593,-0.21073877780454509,-3.51,8.811231296340909,0.57,0.31555555555555553,-0.68,0.005722781102689924,-0.0804528507145301,1.6431029703705569
1589543969.1957593,-0.21951566885481663,-3.4814529934355503,8.771937324580733,0.57,0.31555555555555553,-0.68,0.007530150813057637,-0.07968347945445006,1.6542619737250357
1589543969.2057593,-0.2962162472271093,-3.5028648741681327,8.78524324944542,0.57,0.31555555555555553,-0.68,0.010961376621542831,-0.07713647626419055,1.650633345617039
1589543969.2157593,-0.37560425360075383,-3.557660788800646,8.869434648001077,0.57,0.2890773395551966,-0.6976521440002393,0.00939964583037066,-0.07982414514420573,1.6458701527651876
1589543969.2257593,-0.4329075834465013,-3.594518619112286,8.859351726109642,0.57,0.2822222222222222,-0.7022222222222222,0.010063929483571047,-0.08072147790473774,1.646310103228255
1589543969.2357593,-0.44390238095238094,-3.5939023809523807,8.791707142857142,0.57,0.2822222222222222,-0.7022222222222222,0.011786296744066766,-0.07896550006653333,1.6427645369741375
1589543969.2457592,-0.4534439562833594,-3.5563901092916015,8.813609890708399,0.57,0.2822222222222222,-0.7022222222222222,0.012732392675082266,-0.07707330820450232,1.6343677869809536
1589543969.2557592,-0.4999983255190891,-3.4866688993078814,8.896663875865148,0.57,0.2822222222222222,-0.7022222222222222,0.014544349547442001,-0.0749037746172674,1.6140666480211296
1589543969.2657592,-0.4756727842302804,-3.486596329461832,8.921134556846056,0.5985664279404859,0.24774549884577365,-0.7081325176581849,0.01237042146711204,-0.07514356303903846,1.5776578867856794
1589543969.2757592,-0.5354659696144123,-3.555465969614412,8.957409125493951,0.6022222222222222,0.2433333333333333,-0.7088888888888889,0.008938611684830506,-0.07220679706962493,1.5393828473525735
1589543969.2857592,-0.5199011352401732,-3.5733992431732178,8.859505676200866,0.6022222222222222,0.2433333333333333,-0.7088888888888889,0.010188276951521802,-0.06395586284124023,1.504824697323403
1589543969.2957592,-0.5970039300300531,-3.475595283963936,8.923105109039069,0.6022222222222222,0.2433333333333333,-0.7088888888888889,0.009959242174215063,-0.06758821824330107,1.4253966195074461
1589543969.3057592,-0.6328472702142364,-3.3609951624049756,8.909536973047684,0.6022222222222222,0.2433333333333333,-0.7088888888888889,0.004002225725137308,-0.07204534005003718,1.3677148447653733
1589543969.3157592,-0.6755878585684073,-3.3477939292842036,8.75764856572637,0.6081535319836234,0.20181416500352484,-0.7276713697999927,0.020621319079528636,-0.050763971751771934,1.311868822105579
1589543969.3257592,-0.7249723626955192,-3.3230165823826883,8.982850758555804,0.6088888888888889,0.19666666666666666,-0.73,0.016039433169844103,-0.05584571244422288,1.2685506321106574
1589543969.3357592,-0.755204978364634,-3.261188383815854,8.67393362180488,0.6088888888888889,0.19666666666666666,-0.73,0.01435515207920705,-0.049391369683869056,1.2404444261440657
1589543969.3457592,-0.8034669033096691,-3.302160283971603,8.79256099390061,0.6088888888888889,0.19666666666666666,-0.73,0.019870604510452014,-0.03756524647684756,1.204617352709495
1589543969.3557591,-0.8573157879664366,-3.3625730977404853,8.95669005412526,0.6088888888888889,0.19666666666666666,-0.73,0.015564433066246218,-0.04287921822396497,1.1786949700078906
1589543969.3657591,-0.9172157383192162,-3.361795932706195,8.914728912135525,0.6115668926274337,0.19666666666666666,-0.7277045682241046,0.013161842701205139,-0.04157560229153858,1.1520413388729307
1589543969.3757591,-0.9455952422660546,-3.274404757733945,8.798214098027538,0.6166666666666667,0.19666666666666666,-0.7233333333333334,0.009765539998940349,-0.04649015086491877,1.1305292381553633
1589543969.385759,-0.9856104883146495,-3.3370131103933116,8.99678776363291,0.6166666666666667,0.19666666666666666,-0.7233333333333334,-0.005804554543470027,-0.07670855540573966,1.1122526015523324
1589543969.395759,-1.0501776304443635,-3.380888152221818,8.82650985877709,0.6166666666666667,0.19666666666666666,-0.7233333333333334,-0.0072357236536921676,-0.0743896344420413,1.0871969512765076
1589543969.405759,-1.0306604346242565,-3.2973115211848976,8.79136760956659,0.6166666666666667,0.19666666666666666,-0.7233333333333334,0.0056753792156460925,-0.05300825773599871,1.0695184625391028
1589543969.415759,-1.02,-3.2448210098159254,8.814582356237159,0.6183532211315639,0.1758658282662682,-0.7340148449443488,0.009252536850964554,-0.046957789781361794,1.0459244889450516
1589543969.425759,-1.100341085271318,-3.294272868217054,9.069227906976744,0.62,0.15555555555555556,-0.7444444444444445,0.0006247331644251026,-0.06090928495777731,1.004543530785213
1589543969.435759,-1.1019432854024909,-3.2076786172807807,8.706638849659777,0.62,0.15555555555555556,-0.7444444444444445,0.006131336592532838,-0.04160168325970656,0.9836658312341986
1589543969.445759,-1.197389448121891,-3.254101288629509,8.7153209823352,0.62,0.15555555555555556,-0.7444444444444445,0.01603334538800615,-0.02507432489253643,0.9558081831870436
1589543969.455759,-1.2154130067219266,-3.2754130067219265,8.943008783867375,0.62,0.15555555555555556,-0.7444444444444445,0.0019435582480827815,-0.054935693907132745,0.9204311293477196
1589543969.465759,-1.423911672971,-3.4391293383768,9.033738801513039,0.63791293383768,0.14460876265475112,-0.7255363476157822,-0.0035001559489859077,-0.05895234947979486,0.8871680642210877
1589543969.475759,-1.3716705515279435,-3.317582820959897,8.833495090391851,0.64,0.14333333333333334,-0.7233333333333334,0.006048690223705823,-0.04305549240125311,0.8745658168191643
1589543969.485759,-1.3476664330763841,-3.321331464611072,8.811331464611072,0.64,0.14333333333333334,-0.7233333333333334,0.012326311399968712,-0.028725465413210804,0.8646290175980038
1589543969.495759,-1.3807771104815862,-3.301528611898017,8.822305722379603,0.64,0.14333333333333334,-0.7233333333333334,0.007214760975775936,-0.03793035560827801,0.8460608391998923
1589543969.505759,-1.459584930456686,-3.330591209433067,8.92437739568503,0.64,0.14333333333333334,-0.7233333333333334,0.0029239744411480037,-0.0420841146026989,0.8252169116089284
1589543969.515759,-1.520686617730096,-3.36,8.962596837944664,0.6275322793148881,0.11899159294811469,-0.7536120835686053,-0.0006577629546177105,-0.043125265096399835,0.8090968471100517
1589543969.525759,-1.5500828598484848,-3.3265285669191917,8.896528566919192,0.6166666666666667,0.09777777777777777,-0.78,0.0014695053888886525,-0.03706113078287142,0.8043028840916081
1589543969.535759,-1.56605528415064,-3.3402764207532,8.958718693958321,0.6166666666666667,0.09777777777777777,-0.78,0.005914608486801791,-0.03381575425739013,0.8013001705605756
1589543969.545759,-1.5447916436387754,-3.2591665745551013,8.776822703658672,0.6166666666666667,0.09777777777777777,-0.78,0.01176052314171983,-0.02212908254203032,0.7954542559056575
1589543969.555759,-1.6160400662750414,-3.2860400662750413,8.947285950982291,0.6166666666666667,0.09777777777777777,-0.78,0.0021137090954874514,-0.03672423731400189,0.7742629483107534
1589543969.565759,-1.6370917698612986,-3.2835858911907976,9.121195297063599,0.6140549023699444,0.0909871906062997,-0.7768658828439332,-0.009556703676227778,-0.05376794703811428,0.7532599799965953
1589543969.575759,-1.6932716000941694,-3.2841242250647413,8.989239974888173,0.6111111111111112,0.08333333333333333,-0.7733333333333333,0.0023525238613017006,-0.033014045421678725,0.7409480716454223
1589543969.585759,-1.7439503177748923,-3.3086004236998567,8.920699788150072,0.6111111111111112,0.08333333333333333,-0.7733333333333333,0.008344971032309386,-0.026359706321225,0.7296623609943514
1589543969.595759,-1.6956933172834232,-3.1985155127557956,8.815644390944744,0.6111111111111112,0.08333333333333333,-0.7733333333333333,-0.0010934993003117507,-0.034126276544753996,0.7160494424898133
1589543969.605759,-1.7184779583276162,-3.136059744790952,8.845135151028089,0.6111111111111112,0.08333333333333333,-0.7733333333333333,-0.002380276284372914,-0.036691017166119506,0.7090074228941642
1589543969.615759,-1.6709470953731071,-2.9753064486939738,8.92,0.6184308245024901,0.07967347663764386,-0.7952924735074701,-0.0046838866913619165,-0.042862964078737874,0.7068583470577035
1589543969.625759,-1.647354107648725,-2.9594164305949007,8.960492917847025,0.6222222222222222,0.07777777777777778,-0.8066666666666666,-0.00023485308631651745,-0.03462785150849514,0.7131684786663657
1589543969.6357589,-1.7595189277304837,-3.066867958703133,8.847830103242165,0.6222222222222222,0.07777777777777778,-0.8066666666666666,0.008240405623180527,-0.02416910356785564,0.7231945703731406
1589543969.6457589,-1.779285757853004,-3.0347620209413435,8.865952221205653,0.6222222222222222,0.07777777777777778,-0.8066666666666666,2.5992755455644945e-05,-0.02441382863042749,0.73067480805315
1589543969.6557589,-1.7649875246224558,-3.01,8.945112278397898,0.6222222222222222,0.07777777777777778,-0.8066666666666666,-0.0054568756176520015,-0.03219719916724864,0.736318943300617
1589543969.6657588,-1.7945450455516816,-3.004242492408053,8.995757507591946,0.6145455454329597,0.06434359339656831,-0.8239391894425074,-0.005288891392628188,-0.037385768216346586,0.7483759236490509
1589543969.6757588,-1.8475738819239687,-3.006893470480992,8.917278354228095,0.6088888888888889,0.054444444444444434,-0.8366666666666667,0.003908247648800747,-0.02471800112403772,0.768390199125562
1589543969.6857588,-1.884561740382727,-3.0284213052870452,8.91070217547841,0.6088888888888889,0.054444444444444434,-0.8366666666666667,0.0056263627913878175,-0.023653859457110956,0.7878862068130662
1589543969.6957588,-1.9067008315606264,-3.04,8.983606652485012,0.6088888888888889,0.054444444444444434,-0.8366666666666667,-0.003677097538134929,-0.03348941211457017,0.8006921552232059
1589543969.7057588,-1.886211865918687,-2.992423731837374,8.879165262552778,0.6088888888888889,0.054444444444444434,-0.8366666666666667,-0.000499887526111624,-0.0254112735935573,0.8125822667601601
1589543969.7157588,-1.9102716373173474,-2.9801358186586735,8.79,0.6021769493359976,0.03207131260147371,-0.8293953988177012,0.003814203859394631,-0.019100650331716873,0.8285489452548886
1589543969.7257588,-1.981008493838976,-2.9875966024644094,8.864420385213542,0.5955555555555555,0.01,-0.8222222222222222,-0.008904514707937034,-0.037638294666636,0.8404640425251507
1589543969.7357588,-2.0295587863676947,-2.975073535605384,8.776985461345374,0.5955555555555555,0.01,-0.8222222222222222,-0.009376341023771235,-0.03509910080459679,0.8523318482072515
1589543969.7457588,-2.0364533726208487,-2.951162698096679,8.790698415226567,0.5955555555555555,0.01,-0.8222222222222222,-0.004750200161908096,-0.02849481600190859,0.8756898419392726
1589543969.7557588,-2.041429668220455,-2.9038086098162874,8.93904688785303,0.5955555555555555,0.01,-0.8222222222222222,-0.0110642604353275,-0.03885445328725997,0.9066887358133942
1589543969.7657588,-2.1128657291465998,-2.9044947023694854,9.042473511847428,0.5996380059504698,-0.021979194760161823,-0.8399128406001841,-0.00750090633427297,-0.03543966528050247,0.9444636502593204
1589543969.7757587,-2.0693426709808964,-2.842276938078986,8.908028012942689,0.6022222222222222,-0.042222222222222223,-0.8511111111111112,0.001352019022691742,-0.02392657374209537,0.9873580779305016
1589543969.7857587,-2.0805514610657188,-2.8708271915985777,8.867310037910006,0.6022222222222222,-0.042222222222222223,-0.8511111111111112,0.0025352459807278294,-0.017776799400386508,1.0242673732366459
1589543969.7957587,-2.112648755414899,-2.8494049783404036,8.978541287904294,0.6022222222222222,-0.042222222222222223,-0.8511111111111112,-0.001957633965059292,-0.02395117020920921,1.053536308080184
1589543969.8057587,-2.1515447254781,-2.82525745424635,9.0930894509562,0.6022222222222222,-0.042222222222222223,-0.8511111111111112,-0.011818813938316679,-0.043846081254518096,1.0756034980859637
1589543969.8157587,-2.139265195413636,-2.7776266798175318,8.981241523856491,0.6093346484198414,-0.07325826381183304,-0.8291272483184702,-0.014100645426261361,-0.04194446762881793,1.106780501086143
1589543969.8257587,-2.2121366188396756,-2.7468091079226453,8.866809107922645,0.6144444444444445,-0.09555555555555556,-0.8133333333333334,-0.0012524479445943405,-0.021630160481866716,1.1495988655951312
1589543969.8357587,-2.2342970590214684,-2.7242970590214686,8.927831617201695,0.6144444444444445,-0.09555555555555556,-0.8133333333333334,-0.005839714399033957,-0.034275828051986354,1.1810500276342684
1589543969.8457587,-2.2382453761077468,-2.7160817920359155,8.935672831856339,0.6144444444444445,-0.09555555555555556,-0.8133333333333334,-0.012235149018068252,-0.04429665189641008,1.2150703559619962
1589543969.8557587,-2.2346479874839997,-2.7046479874839995,8.899530649978667,0.6144444444444445,-0.09555555555555556,-0.8133333333333334,-0.004158530549571184,-0.03411797845939597,1.2583678690322095
1589543969.8657587,-2.3143307791558048,-2.7135826947889514,8.950748084366854,0.5992467078026759,-0.11075329219732409,-0.8175258124069247,0.0017908501889851497,-0.0250272663913223,1.307121929073431
1589543969.8757586,-2.3678045806383206,-2.711002544799067,8.966205598557947,0.5822222222222222,-0.12777777777777774,-0.8222222222222222,-0.01437598381633716,-0.04832186050298278,1.3578420651609096
1589543969.8857586,-2.4122574544537603,-2.714677236336128,8.928225745445376,0.5822222222222222,-0.12777777777777774,-0.8222222222222222,-0.016819960142285074,-0.06525630580137051,1.396817464277319
1589543969.8957586,-2.5225307285307284,-2.7275921855921856,8.89518437118437,0.5822222222222222,-0.12777777777777774,-0.8222222222222222,-0.005933906351865947,-0.066948063294359,1.4332524656212589
1589543969.9057586,-2.5276165292795203,-2.63470206615994,8.79874338935874,0.5822222222222222,-0.12777777777777774,-0.8222222222222222,-0.0007079130931906129,-0.05692527472750245,1.4860802898587673
1589543969.9157586,-2.5811320388349515,-2.634433980582524,8.98792427184466,0.5469707659115426,-0.17230593311758358,-0.8333542610571737,-0.003889923751562605,-0.06245514578118033,1.5468699596868984
1589543969.9257586,-2.5837372214214436,-2.598686107107218,9.037474442842887,0.5188888888888888,-0.20777777777777776,-0.8422222222222222,-0.008726646259971648,-0.07744898555724837,1.577341311489875
1589543969.9357586,-2.531999234742682,-2.471998278171035,8.897997895542376,0.5188888888888888,-0.20777777777777776,-0.8422222222222222,-0.0034905750273647833,-0.07090389651648979,1.6002491231325302
1589543969.9457586,-2.473459514454112,-2.3690361001964635,8.85423414257648,0.5188888888888888,-0.20777777777777776,-0.8422222222222222,-0.0009650392871952402,-0.07281343309905287,1.6357862139083512
1589543969.9557586,-2.4866558411716047,-2.3331103894114404,8.965987009405925,0.5188888888888888,-0.20777777777777776,-0.8422222222222222,-0.0038781158227679698,-0.08106076875629276,1.6687996804763126
1589543969.9657586,-2.6164091526081052,-2.3324545278262554,9.040954430870661,0.4945757007734901,-0.223287915023808,-0.8162322625126581,-0.0014626904907820417,-0.07769689202943876,1.7067337255775608
1589543969.9757586,-2.7127873254564987,-2.3094425349087,8.945923379878268,0.4544444444444444,-0.2488888888888889,-0.7733333333333333,0.009878287050643792,-0.07359116270717131,1.7597152517704795
1589543969.9857585,-2.6887505848369577,-2.217250350902175,8.934549929819564,0.4544444444444444,-0.2488888888888889,-0.7733333333333333,0.006179584453001291,-0.08594652162723902,1.8081064869720216
1589543969.9957585,-2.4608911805907425,-2.0706238264135197,8.945044559029537,0.4544444444444444,-0.2488888888888889,-0.7733333333333333,0.0037838832859975126,-0.08570312596755769,1.8309060014231384
1589543970.0057585,-2.518689952638701,-2.0,8.934710334912044,0.4544444444444444,-0.2488888888888889,-0.7733333333333333,0.00821282842817919,-0.07860301145865636,1.842152154280368
1589543970.0157585,-2.5267559826295853,-1.9454910838030122,8.95422618497644,0.456463293192481,-0.2657126284558605,-0.7383399550340324,0.004101979304889888,-0.08954064774027362,1.8560258486766636
1589543970.0257585,-2.581739188113558,-1.9422134518439904,9.092411117007163,0.4577777777777778,-0.2766666666666667,-0.7155555555555555,0.006713138763599177,-0.09107358937622324,1.876806704171845
1589543970.0357585,-2.6557982155336335,-1.930587508735434,9.054955388340836,0.4577777777777778,-0.2766666666666667,-0.7155555555555555,0.012109194961132143,-0.08102379604248801,1.894580807412265
1589543970.0457585,-2.717578768970033,-1.9093082197057236,8.982405823896464,0.4577777777777778,-0.2766666666666667,-0.7155555555555555,0.012375605898546766,-0.07801242600071488,1.9112856136529603
1589543970.0557585,-2.908957009758328,-1.9384355146374914,9.118813708952754,0.4577777777777778,-0.2766666666666667,-0.7155555555555555,0.009776222442382833,-0.09040955066807216,1.9300778582877414
1589543970.0657585,-2.871359066427289,-1.8789807001795331,8.942864901256732,0.4573247556353481,-0.276930929583084,-0.7148382704967084,0.02122361105219137,-0.07281021296665548,1.945581352576277
1589543970.0757585,-2.9434958054084457,-1.8404297698833014,8.88355345175048,0.4444444444444444,-0.28444444444444444,-0.6944444444444444,0.008539123772733657,-0.09338323345797073,1.9728909599398032
1589543970.0857584,-2.857240640841443,-1.7392648214915014,8.778469191357857,0.4444444444444444,-0.28444444444444444,-0.6944444444444444,0.017165481627643746,-0.08238793047183329,1.9813837144766915
1589543970.0957584,-2.6953007397330158,-1.647377093784542,8.77300467647309,0.4444444444444444,-0.28444444444444444,-0.6944444444444444,0.009251239313776591,-0.10005234238815258,1.9642524882780958
1589543970.1057584,-2.6392665933259996,-1.6203667033370004,9.09204162082875,0.4444444444444444,-0.28444444444444444,-0.6944444444444444,-0.012849962617130969,-0.13285864917994902,1.9296342529550379
1589543970.1157584,-2.5254497130310853,-1.5241319671815416,9.21892184430492,0.44883564663234166,-0.28956751366365785,-0.6970059790540512,-0.04350255514202287,-0.14308820789075405,1.8842762862234177
1589543970.1257584,-2.1229380232045822,-1.3716981201351153,9.483665736525188,0.4577777777777778,-0.3,-0.7022222222222222,-0.046056000270880984,-0.14982017705159295,1.8836442402123093
1589543970.1357584,-2.1318239810986412,-1.2856184288245718,9.182787950383934,0.4577777777777778,-0.3,-0.7022222222222222,0.031698137925581,-0.05804727467565754,1.9191235307619527
1589543970.1457584,-2.266873830682881,-1.2475894527595883,8.633173234331151,0.4577777777777778,-0.3,-0.7022222222222222,0.05927977155993639,-0.03976704486009458,1.9429596452770563
1589543970.1557584,-1.9384046027056447,-1.0667236821645156,8.57384621365262,0.4577777777777778,-0.3,-0.7022222222222222,0.048392279544999445,-0.06695090541809748,1.9174629770688953
1589543970.1657584,-1.8718725099601596,-0.8640239043824701,8.815258964143426,0.44844178840194776,-0.3054050464807437,-0.6987826471890216,0.01032595194905012,-0.10546725669172906,1.807810822352702
1589543970.1757584,-2.24,-0.97,9.73,0.43666666666666665,-0.31222222222222223,-0.6944444444444444,-0.02617993877991494,-0.16144295580947549,1.7311484518218756
1589543970.1857584,-2.663308875957403,-0.9301591646157739,9.490954987694643,0.43666666666666665,-0.31222222222222223,-0.6944444444444444,-0.007709604683982588,-0.12341579737667357,1.615437241162064
1589543970.1957583,-2.9393579710144926,-0.8608434782608696,9.162530434782608,0.43666666666666665,-0.31222222222222223,-0.6944444444444444,0.016209113062226322,-0.06494174113312887,1.4717673884400955
1589543970.2057583,-2.625345243979945,-0.7599676576512958,8.789870630605183,0.43666666666666665,-0.31222222222222223,-0.6944444444444444,0.018315249888065523,-0.05159088075863914,1.4122934453427411
1589543970.2157583,-2.3113873314031497,-0.6177980368618035,8.221192147447214,0.43666666666666665,-0.31222222222222223,-0.6944444444444444,0.011207279114635153,-0.06774535978916271,1.3496140667043097
1589543970.2257583,-2.424732370433305,-0.6566001699235344,9.1999683942226,0.4088888888888889,-0.3322222222222222,-0.7022222222222222,-0.01806223003679247,-0.11791845540800508,1.1688703922177395
1589543970.2357583,-1.4239737274220032,-0.25120197044334974,8.333099069512864,0.4088888888888889,-0.3322222222222222,-0.7022222222222222,0.006208719836356947,-0.05887811391378188,1.0153529347308514
1589543970.2457583,-0.5771655357828703,-0.2615651004992959,9.264655613877865,0.4088888888888889,-0.3322222222222222,-0.7022222222222222,-0.04281619052492603,-0.11715160902344203,0.725004389045906
1589543970.2557583,-0.16,0.03152915433131677,9.042870382288582,0.4088888888888889,-0.3322222222222222,-0.7022222222222222,-0.022992533760806688,-0.03916951635503332,0.1370195227689132
1589543970.2657583,-0.15039576997236964,-0.7372296101934125,9.237546067147713,0.401418932200732,-0.33515684806399815,-0.7038229272268273,-0.021684216326615793,0.00773081079936115,-0.7253508203129547
1589543970.2757583,-0.2641898302426785,-0.9237836672286038,8.864564629317442,0.37777777777777777,-0.34444444444444444,-0.7088888888888889,-0.011226058744866887,0.06851107556318285,-1.4096830963679845
1589543970.2857583,-1.0046528206834275,-0.7843655244522599,9.00746209780904,0.37777777777777777,-0.34444444444444444,-0.7088888888888889,-0.023014528366803524,0.11023485060263892,-2.3770448021991513
1589543970.2957582,-0.6665747112437326,-0.9259306172989872,8.988754440452267,0.37777777777777777,-0.34444444444444444,-0.7088888888888889,-0.026725741673724802,0.1421137080311618,-2.9322766127381117
1589543970.3057582,-0.41934025774187345,-1.1893402577418735,8.891360838622811,0.37777777777777777,-0.34444444444444444,-0.7088888888888889,-0.017028206317724056,0.1749220280434683,-3.4632641530969748
1589543970.3157582,-0.7233549942034292,-1.509271767649033,8.868374519494783,0.39369455122338154,-0.34444444444444444,-0.6973934414003973,-0.0333022537700535,0.18412769678102894,-4.131664124193808
1589543970.3257582,-0.8090201204956236,-1.9760561230289548,8.922289092060605,0.4177777777777778,-0.34444444444444444,-0.68,-0.05681256948920665,0.19448942981886755,-4.713203733320109
1589543970.3357582,-0.695246067985794,-2.4340151426452796,9.155795574288726,0.4177777777777778,-0.34444444444444444,-0.68,-0.05408703694186483,0.21863304722994878,-5.144016965899082
1589543970.3457582,-1.6518145198374015,-2.490849412327331,8.722123530818328,0.4177777777777778,-0.34444444444444444,-0.68,-0.02417516327040585,0.29238897796473445,-5.77495497233861
1589543970.3557582,-2.468971029781709,-2.6524701777164648,8.916226568205794,0.4177777777777778,-0.34444444444444444,-0.68,-0.046988047158483016,0.294142613446069,-6.05939849082755
1589543970.3657582,-3.1837931935706685,-3.3303927791364085,9.10726996098344,0.4355779159225311,-0.3304416691039052,-0.690680082886852,-0.018447985528732697,0.3088858814141305,-6.084207932636039
1589543970.3757582,-3.747553717774003,-3.6984031213246964,8.144179065469412,0.5008279765942132,-0.2791116213755152,-0.7298301192898613,0.0498817182220823,0.3695284934929788,-5.970609800150309
1589543970.3857582,-4.071636528223808,-3.9775345388710477,9.079250813630193,0.5011111111111111,-0.2788888888888889,-0.73,-0.0735267486248705,0.2204295416196855,-5.72735832086674
1589543970.3957582,-3.6830817901885515,-3.99,9.155611000970177,0.5011111111111111,-0.2788888888888889,-0.73,-0.0665058918854214,0.21389789627885264,-5.492025760902063
1589543970.4057581,-3.593667239896819,-4.0567569504155925,8.836698194325022,0.5011111111111111,-0.2788888888888889,-0.73,-0.020011851909040385,0.2475285448449933,-5.257688691670315
1589543970.4157581,-4.11456234426393,-4.369124688527858,8.711476726801555,0.5168258524646444,-0.2689193217936366,-0.7278033157247749,-0.03462014003046118,0.2343675323314907,-4.984084822549182
1589543970.4257581,-4.139645370278082,-4.419290740556165,9.104444134356623,0.6032229420689502,-0.21410826494789414,-0.7157263031994417,-0.051036942167099864,0.1915014378636008,-4.708647364478911
1589543970.435758,-3.9364535969748053,-4.496578431819217,9.036173857578932,0.6044444444444445,-0.21333333333333332,-0.7155555555555555,-0.03398030575043518,0.19082073989895962,-4.241889495548735
1589543970.445758,-3.5834938308757147,-4.487474796870298,8.791455762864882,0.6044444444444445,-0.21333333333333332,-0.7155555555555555,-0.03172937214909887,0.17973300056071081,-3.9336478842989218
1589543970.455758,-3.90375407717398,-4.729428272509078,8.93748292202597,0.6044444444444445,-0.21333333333333332,-0.7155555555555555,-0.04134174148942474,0.15270885787759436,-3.6775106540267632
1589543970.465758,-3.2842501076989357,-4.548739614745523,8.894461813034649,0.6044444444444445,-0.21333333333333332,-0.7155555555555555,-0.039464591490029954,0.1339373578836465,-3.384675254121177
1589543970.475758,-2.9239534124306084,-4.322093175138783,8.976478719930336,0.7466666666666667,-0.20777777777777776,-0.7022222222222222,-0.03731657659233359,0.12069442396109777,-3.0085146227428274
1589543970.485758,-2.8706895613366714,-4.428620877326657,9.197143245890931,0.7466666666666667,-0.20777777777777776,-0.7022222222222222,-0.04893694626584841,0.10492392226132763,-2.79851794221431
1589543970.495758,-2.9654485714285714,-4.742757142857143,8.66048142857143,0.7466666666666667,-0.20777777777777776,-0.7022222222222222,-0.007191847348999134,0.12494188783151691,-2.4456162785853053
1589543970.505758,-2.950468928571429,-4.817655357142858,8.727889821428573,0.7466666666666667,-0.20777777777777776,-0.7022222222222222,-0.01291093678778024,0.10533358118426742,-2.255252301551591
1589543970.515758,-2.5289665338645415,-4.3315023904382475,8.970985657370518,0.8144411686586985,-0.2426666223992917,-0.6800202301903496,-0.0355005445739256,0.07123177160974328,-1.9522531152278797
1589543970.525758,-2.4119940239043824,-4.339857569721115,8.920854581673307,1.1913525896414343,-0.43669245241257193,-0.5565492474546259,-0.014538145037357397,0.0730545889607492,-1.7380720764846829
1589543970.535758,-2.4126043101636743,-4.487818534170772,8.801307758761586,1.1977777777777778,-0.44,-0.5544444444444444,-0.011429743735446942,0.0676321197814169,-1.4186549135171365
1589543970.545758,-2.5007820646506778,-4.732203684393466,8.817132429614182,1.1977777777777778,-0.44,-0.5544444444444444,-0.02066891152110855,0.04170749979332383,-1.1874263696715375
1589543970.555758,-2.3684465335873437,-4.700744222645573,8.947245506502112,1.1977777777777778,-0.44,-0.5544444444444444,-0.02017467724233226,0.026731046405015342,-0.9639640814576045
1589543970.565758,-2.16613415657595,-4.400926747392399,8.728658434240499,1.25211435479359,-0.3912474190411488,-0.5769951977514021,-0.006966682795705246,0.03508951269328749,-0.7399279395803455
1589543970.575758,-2.165057814472656,-4.602277509468748,8.908069377367188,1.4788888888888894,-0.18777777777777774,-0.6711111111111111,-0.0080696251582159,0.010461884982934488,-0.47009378912862154
1589543970.585758,-2.1180361128017857,-4.681888821261919,8.917214445120713,1.4788888888888894,-0.18777777777777774,-0.6711111111111111,-0.0043097664147567424,0.0034692358178970263,-0.2618458626346788
1589543970.595758,-1.7938374636342402,-4.3708126818288,8.79616253636576,1.4788888888888894,-0.18777777777777774,-0.6711111111111111,0.0030188662567808737,-0.003361142183012375,-0.04095902689380818
1589543970.605758,-1.7697593524392912,-4.423614963902867,8.816144388536426,1.4788888888888894,-0.18777777777777774,-0.6711111111111111,-0.0017873301747069472,-0.013365886815186613,0.09827919999160742
1589543970.615758,-1.7086653956148714,-4.349332697807436,8.853334127740705,1.3996249073191402,-0.16362819086961122,-0.6825191981781591,-0.007417571330214521,-0.021889277042614477,0.20027728557704266
1589543970.625758,-1.5647026534217174,-4.270464776159091,8.924107960265152,0.8844444444444445,-0.006666666666666667,-0.7566666666666667,0.0017842518280736064,-0.015040490606424668,0.28818811120546217
1589543970.635758,-1.5248699880339607,-4.19876597846113,8.804609964101882,0.8844444444444445,-0.006666666666666667,-0.7566666666666667,0.006998335534535137,-0.013302462704270823,0.3307697948082313
1589543970.645758,-1.444398299188249,-4.148710011596444,8.729740239659836,0.8844444444444445,-0.006666666666666667,-0.7566666666666667,0.0012976627559909133,-0.023537387505412975,0.36151643356333196
1589543970.655758,-1.2952388094317742,-3.8828170081175104,8.827018167761885,0.8844444444444445,-0.006666666666666667,-0.7566666666666667,0.005542213093238584,-0.03273391323611626,0.3558570331136684
1589543970.665758,-0.9725548079908912,-3.2888322119863367,8.857372114687921,0.8608680030822666,0.0018815167511989786,-0.757631784149329,0.004379266128276735,-0.025901252459931735,0.33218587351717993
1589543970.675758,-0.9204570955387641,-3.210685643308146,8.978933443742884,0.6958919136505308,0.06169740882586344,-0.7643851913190491,-0.010775344122504377,-0.031584231303974655,0.30566530557831295
1589543970.6857579,-1.1133381138420455,-3.432781761535038,8.950413678848722,0.6944444444444444,0.06222222222222223,-0.7644444444444445,0.007408624248530836,-0.010559739351540849,0.2538445659504615
1589543970.6957579,-1.2635494773435048,-3.538854742534341,8.863511575694663,0.6944444444444444,0.06222222222222223,-0.7644444444444445,0.006290993846967286,-0.01103323603470705,0.21643828138250285
1589543970.7057579,-1.2062862330802244,-3.435809177946517,8.913713766919775,0.6944444444444444,0.06222222222222223,-0.7644444444444445,-0.0008102182550216331,-0.020673746224953053,0.19974652979688742
1589543970.7157578,-1.22705694948828,-3.42196203367448,8.89294305051172,0.6944444444444444,0.06222222222222223,-0.7644444444444445,0.0037212491114605914,-0.0168975234195512,0.19294932874716408
1589543970.7257578,-1.3283971417973097,-3.5535389781534916,8.897028367271236,0.6421221547585734,0.07471709737108695,-0.7644444444444445,0.0020632953189392367,-0.009462378304307077,0.19581959740445387
1589543970.7357578,-1.37,-3.5805011775095674,8.890167059169857,0.62,0.08,-0.7644444444444445,0.003236045690493976,-0.008690199602976255,0.2274733803438238
1589543970.7457578,-1.3427448907004018,-3.4319600869013516,8.821176244400439,0.62,0.08,-0.7644444444444445,-0.0005774924812416589,-0.019057461603694547,0.2785683341121129
1589543970.7557578,-1.254041489627593,-3.1335941014746314,8.724408897775557,0.62,0.08,-0.7644444444444445,0.0020614275297314933,-0.0216963816146677,0.3199114142840256
1589543970.7657578,-1.2912445909746548,-3.2849783638986194,8.85060787141974,0.62,0.08,-0.7644444444444445,-0.00231742537966999,-0.030064941715144438,0.3810330589411827
1589543970.7757578,-1.3205814150783328,-3.490726768847916,8.772471014082914,0.5866666666666667,0.11555555555555555,-0.7422222222222222,-0.002229228474856877,-0.028599434894227675,0.4971524991401961
1589543970.7857578,-1.3522108478027262,-3.5302635597534078,8.906896103161586,0.5866666666666667,0.11555555555555555,-0.7422222222222222,-0.004816905388507058,-0.04153781946247858,0.542005565643466
1589543970.7957578,-1.343391615576943,-3.6788182005000514,8.922713292461554,0.5866666666666667,0.11555555555555555,-0.7422222222222222,-0.005361087519387144,-0.04433502139536166,0.6006419453539417
1589543970.8057578,-1.3793054080898721,-3.7721940610336677,8.951444326471899,0.5866666666666667,0.11555555555555555,-0.7422222222222222,0.0071751910051869846,-0.028664673239644,0.6194463631408028
1589543970.8157578,-1.5306370804985123,-4.078407298753719,8.703503942741817,0.5874453206092929,0.11520162194527091,-0.7433548097751331,0.01689733490497891,-0.01265933827523122,0.6237603863858641
1589543970.8257577,-1.548090422986497,-4.034773942533758,8.799497326425733,0.6087771836501629,0.10550532056305728,-0.7743829741982167,0.0016664203103014738,-0.030746049356410683,0.5885388963856726
1589543970.8357577,-1.4242341801979348,-3.74846836039587,9.116966282507176,0.6111111111111112,0.10444444444444444,-0.7777777777777778,-0.00033737660849329125,-0.040321388473860575,0.5330427502366835
1589543970.8457577,-1.3989546083176922,-3.7020907833646155,8.82777165859923,0.6111111111111112,0.10444444444444444,-0.7777777777777778,0.009832482296489899,-0.024439410131630996,0.4986041980072763
1589543970.8557577,-1.4245301691195202,-3.758985674812362,8.967747359344687,0.6111111111111112,0.10444444444444444,-0.7777777777777778,-0.007147080362536305,-0.044232612128610876,0.44917112773405804
1589543970.8657577,-1.6793329283348684,-4.046666209410335,8.877333477042466,0.6111111111111112,0.10444444444444444,-0.7777777777777778,0.0045087487078596476,-0.024507362932556183,0.4231696628847133
1589543970.8757577,-1.396329485339787,-3.703179199417447,9.089508684757234,0.5988888888888889,0.07777777777777778,-0.8044444444444444,0.002612003665474476,-0.025319254578951813,0.369220999772039
1589543970.8857577,-1.2411366667573969,-3.466062222706116,8.694546667029586,0.5988888888888889,0.07777777777777778,-0.8044444444444444,0.005330162803641397,-0.019676284454549837,0.3276536904205437
1589543970.8957577,-1.260977273171399,-3.6148441560979423,8.838357141461318,0.5988888888888889,0.07777777777777778,-0.8044444444444444,0.00105683091737067,-0.02128820019124378,0.27535437728799034
1589543970.9057577,-1.2036030719324644,-3.5820588982471224,9.018676059640825,0.5988888888888889,0.07777777777777778,-0.8044444444444444,-0.006095802777780891,-0.02486451703881956,0.22975633748139906
1589543970.9157577,-1.1596330750469448,-3.509926615009389,8.801614469793444,0.5988970427767346,0.07755762280594466,-0.804305828351068,0.019514878174838608,0.011823027272651202,0.18292335891113132
1589543970.9257576,-1.1143685653234336,-3.5008737130646868,9.000778312576893,0.5999029207705904,0.05039891697183792,-0.7872059024555194,0.004702102006533742,-0.009902377774195937,0.1414475856398777
1589543970.9357576,-1.1993556817511937,-3.537231534062997,8.945536931874004,0.6,0.04777777777777778,-0.7855555555555556,-0.0016011040647685793,-0.02093406536326725,0.09764364122778021
1589543970.9457576,-1.2298457010501385,-3.5104628968495843,8.771311541073823,0.6,0.04777777777777778,-0.7855555555555556,0.0011076621869180415,-0.013064722283325093,0.04007460507720192
1589543970.9557576,-1.2152367600703575,-3.5542897197889274,8.89548753940196,0.6,0.04777777777777778,-0.7855555555555556,0.0027012504389599375,-0.01067433990526225,0.012983604792489684
1589543970.9657576,-1.0870575692963753,-3.5044307036247337,8.702311300639659,0.6,0.04777777777777778,-0.7855555555555556,-0.0029859457538783584,-0.011605602214287454,-0.024443447815710565
1589543970.9757576,-1.0376239284383153,-3.4154130947943844,8.925971549260778,0.5908838226970914,0.06601013238359493,-0.7706381745144324,-0.016567576955400422,-0.033966795493207295,-0.06634240646445025
1589543970.9857576,-23.215674836446382,-25.421595477386933,0.7387626813311843,0.5877777777777777,0.07222222222222223,-0.7655555555555555,0.015975985779686938,0.36859435358943554,0.24442353526672805
1589543970.9957576,4.1754072476872786,5.929882451137233,2.625919872017806,0.5877777777777777,0.07222222222222223,-0.7655555555555555,-0.33383769485870096,0.4687708146744969,-0.2545792063918221
1589543971.0057576,1.2001967814734356,0.5839761246915404,11.814426844958135,0.5877777777777777,0.07222222222222223,-0.7655555555555555,-0.683955755101795,-0.7591309820822112,-1.0762518462286041
1589543971.0157576,0.20056398034294398,1.9640001687300952,6.409332672473795,0.5877777777777777,0.07222222222222223,-0.7655555555555555,0.5666615713968977,-0.4667412830628411,-0.6468346314971858
1589543971.0257576,0.99,1.01,6.55,0.5755555555555556,0.07222222222222223,-0.7511111111111111,0.6239552075879727,0.7352199474026113,-0.7777623479199731
1589543971.0357575,0.6208630083492943,0.039424289194265216,7.090976625694999,0.5755555555555556,0.07222222222222223,-0.7511111111111111,0.40804292489284155,0.5078525114455198,-0.7024360370761733
1589543971.0457575,-0.29684575187794526,-2.136057948024075,8.38792936126534,0.5755555555555556,0.07222222222222223,-0.7511111111111111,-0.027405437516056973,0.035771544175263216,-0.5229165546668393
1589543971.0557575,-1.1912921797537182,-2.809550615704462,9.371741564049255,0.5755555555555556,0.07222222222222223,-0.7511111111111111,0.14177442025554352,0.12409129092831744,-0.37897184941920015
1589543971.0657575,-1.1074464257156567,-2.708935710858788,9.388510714856869,0.5755555555555556,0.07222222222222223,-0.7511111111111111,-0.08962324934490745,-0.057002537454644175,-0.2362918634205031
1589543971.0757575,-0.9776093831311796,-2.5699599695768782,8.556213922581163,0.5602567284469531,0.0926206583670256,-0.7511111111111111,-0.0275661728786753,0.00201227953043448,-0.0684178970325329
1589543971.0857575,-0.8676227631018321,-2.586293406476353,9.072023860247125,0.5555555555555556,0.09888888888888887,-0.7511111111111111,0.04431189234511454,0.00228094947547898,0.08454263907998043
1589543971.0957575,-0.7636466796786346,-2.3644909445780944,8.788981889156188,0.5555555555555556,0.09888888888888887,-0.7511111111111111,-0.002598416260479852,-0.011835843254518648,0.13586396175322987
1589543971.1057575,-0.7883731996431151,-2.5119293027998473,9.287774355270425,0.5555555555555556,0.09888888888888887,-0.7511111111111111,-0.017445043045529206,-0.007724543672788506,0.1440543150693504
1589543971.1157575,-1.3407940689127755,-3.1712703403152482,8.619523303734546,0.5555555555555556,0.09888888888888887,-0.7511111111111111,0.015600636678914453,0.0224053407818513,0.14599817858255304
1589543971.1257575,-0.1194889567910096,-2.625512171113344,7.872679080450341,0.5822222222222222,0.10666666666666667,-0.7377777777777778,-0.01401550786779945,-0.02570061570347273,0.020949015603411426
1589543971.1357574,1.1707208334187806,0.6258165002153273,11.270231528002789,0.5822222222222222,0.10666666666666667,-0.7377777777777778,-0.07406459821613583,-0.1007619786388932,-0.4069007531284852
1589543971.1457574,-0.3007368060315283,-1.0690631651094837,8.853311568846724,0.5822222222222222,0.10666666666666667,-0.7377777777777778,0.08476620100476495,0.08527549278364958,-0.5335688729354862
1589543971.1557574,-1.61911939624346,-2.975165430797606,8.845266119622087,0.5822222222222222,0.10666666666666667,-0.7377777777777778,-0.010675869346411753,0.038943525292992665,-0.35384486106760255
1589543971.1657574,-2.7321474009109044,-6.037965897542064,8.284805209470395,0.5822222222222222,0.10666666666666667,-0.7377777777777778,-0.07956240604268736,-0.01788786748143472,-0.19023933641394802
1589543971.1757574,-1.213023478472113,-3.5507660869689475,9.119233913031051,0.5511111111111111,0.09333333333333334,-0.7588888888888888,0.010397988755567042,0.0014340156023344359,-0.06327264354515388
1589543971.1857574,-1.3149156175424057,-3.556759742208377,9.113240257791622,0.5511111111111111,0.09333333333333334,-0.7588888888888888,0.02347411602524762,-0.012949724394314195,-0.05477316081986151
1589543971.1957574,-1.3771532521532521,-3.76029106029106,9.124306504306505,0.5511111111111111,0.09333333333333334,-0.7588888888888888,0.015717585386820408,0.0050240743568648015,-0.016625369126813
1589543971.2057574,-1.50874313975084,-3.7970856200830534,8.893970910456794,0.5511111111111111,0.09333333333333334,-0.7588888888888888,-0.009687659051345688,-0.0034532996951108577,-0.003272492347489368
1589543971.2157574,-1.5751637104120895,-3.734508868763732,8.70143588232142,0.5511111111111111,0.09333333333333334,-0.7588888888888888,-0.002566354635011087,0.008113890583559926,3.5716071384455945e-05
1589543971.2257574,-1.4927976900050333,-3.82464277199396,8.95776762298339,0.5743650604431022,0.1049603079993289,-0.7521064870003914,-0.011135553401630223,-0.0038925629965346122,-0.0008116284984497062
1589543971.2357574,-1.5034856347297811,-3.7773716407205837,8.94520018563051,0.5777777777777777,0.10666666666666667,-0.7511111111111111,-0.0036963898430627078,-0.005691022917988302,-0.00023686900550602273
1589543971.2457573,-1.5278319294588276,-3.7332521058117587,8.814092458517623,0.5777777777777777,0.10666666666666667,-0.7511111111111111,0.008634978000000751,-0.006426734790732,-0.0019451617564994412
1589543971.2557573,-1.5106008911521325,-3.778497772119669,8.867896880967535,0.5777777777777777,0.10666666666666667,-0.7511111111111111,-0.0028792100080838982,-0.0033708129323407354,-0.002181661564992912
1589543971.2657573,-1.547647308729543,-3.802588385237726,8.794705382540913,0.5777777777777777,0.10666666666666667,-0.7511111111111111,-0.005736502941909352,-0.000808481753069384,-0.0013603247001862506
1589543971.2757573,-1.5032329855936413,-3.828922338135453,8.93083987415135,0.5588554396423249,0.09405177457636474,-0.7511111111111111,-0.008609091586474596,0.0,-0.0041869911197402465
1589543971.2857573,-1.5403458559333907,-3.765446630506575,8.867377459319897,0.5577777777777778,0.09333333333333334,-0.7511111111111111,-0.001684966004242069,-0.0035208401278647894,3.772702984516322e-05
1589543971.2957573,-1.516967372404623,-3.75,8.874774470696533,0.5577777777777778,0.09333333333333334,-0.7511111111111111,0.005404951051166852,-0.004363323129985824,-0.0016116447430869704
1589543971.3057573,-1.5350542005420054,-3.783405600722674,8.846594399277325,0.5577777777777778,0.09333333333333334,-0.7511111111111111,0.001990002497968918,-0.002541330251181897,-0.002181661564992912
1589543971.3157573,-1.5105400458628742,-3.79,8.898919908274252,0.5577777777777778,0.09333333333333334,-0.7511111111111111,-0.007746521044023966,0.00022852529678538515,0.00022852529678538515
1589543971.3257573,-1.562870489100568,-3.798981498442938,8.767314526470049,0.5577777777777778,0.10530866459058436,-0.7580967210111742,-0.006989389835164139,0.001090830782496456,-0.0018483577098538596
1589543971.3357573,-1.5314642910615361,-3.819267854469232,8.85918450865898,0.5577777777777778,0.10666666666666667,-0.7588888888888888,-0.004443187818208726,-0.0017115650531968898,-0.002181661564992912
1589543971.3457572,-1.5266563442262244,-3.7633746230951024,8.803405590416428,0.5577777777777778,0.10666666666666667,-0.7588888888888888,0.003995208854839722,-0.0023640296971982316,-0.0003647362644106395
1589543971.3557572,-1.503438158079461,-3.7433595395198656,8.886247367682156,0.5577777777777778,0.10666666666666667,-0.7588888888888888,0.004005430172145838,-0.0007329378246564702,-0.0014487237403364417
1589543971.3657572,-1.5193559435517099,-3.757613566131026,8.887159301606921,0.5577777777777778,0.10666666666666667,-0.7588888888888888,-0.0018510863525799974,-0.0012808946750173414,-0.0015412142274842412
1589543971.3757572,-1.5342798481102085,-3.781440303779583,8.832839544330625,0.5647690745319675,0.09903979748027789,-0.7671513305074767,-0.00545415391248228,0.0003142255397830659,-0.001090830782496456
1589543971.3857572,-1.522221187668115,-3.797778812331885,8.85111524932754,0.57,0.09333333333333334,-0.7733333333333333,-0.00206000673532902,-0.0003639488178720329,0.0014547796003684889
1589543971.3957572,-1.5005653078354804,-3.7805653078354804,8.86,0.57,0.09333333333333334,-0.7733333333333333,0.001029165263643604,-0.003210826828636516,0.0007683308675662057
1589543971.4057572,-1.522908945570816,-3.745318290821888,8.810636581643776,0.57,0.09333333333333334,-0.7733333333333333,0.004874018378603905,0.0010213904972361625,0.0
1589543971.4157572,-1.523003624282694,-3.760989127151918,8.841978254303836,0.57,0.09333333333333334,-0.7733333333333333,-0.002940894285700578,0.0006552891653233014,-0.0007631861998348053
1589543971.4257572,-1.5275,-3.7925,8.86,0.5808333333333333,0.10333333333333333,-0.7408333333333333,-0.009817477042468103,-0.000818123086872342,0.0005454153912482281
1589543971.4357572,-1.5234610999724811,-3.8,8.879616700082558,0.5844444444444444,0.10666666666666667,-0.73,-0.008768457794859175,-0.0018041141258649173,0.001090830782496456
1589543971.4457572,-1.5141935099021713,-3.7883870198043423,8.866774039608686,0.5844444444444444,0.10666666666666667,-0.73,-0.003835476595291762,-0.0015482717512956736,0.00045744096879921765
1589543971.4557571,-1.515916860916861,-3.768166278166278,8.86183372183372,0.5844444444444444,0.10666666666666667,-0.73,0.003427175034207008,-0.004317977794427502,0.0006454294023862092
1589543971.4657571,-1.528539192197244,-3.7685391921972435,8.878539192197243,0.5844444444444444,0.10666666666666667,-0.73,0.00421628126837694,-0.005613503324338017,0.0006250900971760969
1589543971.4757571,-1.536756127402613,-3.783243872597387,8.89,0.5797588506926629,0.10882924839825815,-0.7415337692351546,-0.001386130476112243,-0.003655619913240481,-0.0003538516083726712
1589543971.485757,-1.5254697251724516,-3.7945302748275482,8.867348625862258,0.57,0.11333333333333333,-0.7655555555555555,-0.005556632047967001,-0.0006991325944753098,-0.001090830782496456
1589543971.495757,-1.5247809242321364,-3.790438151535727,8.806533530375045,0.57,0.11333333333333333,-0.7655555555555555,-0.003320287265746292,-0.0015167588781023731,0.00047372301386284176
1589543971.505757,-1.5130317513172586,-3.7743439171057527,8.843529077625213,0.57,0.11333333333333333,-0.7655555555555555,0.00028627016676566544,-0.0037463401970461796,0.0009476956991136232
1589543971.515757,-1.505093017263592,-3.764906982736408,8.910186034527184,0.57,0.11333333333333333,-0.7655555555555555,0.0016260995643017253,-0.0038280543481805547,0.0005555620006911865
1589543971.525757,-1.51,-3.7880831493745397,8.92,0.5801411372741394,0.10865280843757666,-0.7460533684899027,-0.003504263788582709,0.00023177144109334195,0.001090830782496456
1589543971.535757,-1.526013317101046,-3.791993341449477,8.847940073045294,0.5844444444444444,0.10666666666666667,-0.7377777777777778,-0.007200935834852068,-0.0004385113185617698,-0.0006559511398733318
1589543971.545757,-1.5184725833035972,-3.79,8.806945166607195,0.5844444444444444,0.10666666666666667,-0.7377777777777778,-0.004492200233700253,-0.0017195538312514437,-0.0017195538312514437
1589543971.555757,-1.52366261093041,-3.769506083604385,8.878806971047664,0.5844444444444444,0.10666666666666667,-0.7377777777777778,5.38779208316526e-05,-0.002181661564992912,-0.002181661564992912
1589543971.565757,-1.5240762646997426,-3.7659237353002575,8.908152529399485,0.5844444444444444,0.10666666666666667,-0.7377777777777778,0.002383189345072802,-0.002827840846281085,-0.002181661564992912
1589543971.575757,-1.52,-3.794110713122761,8.91205535656138,0.5844444444444444,0.11068511885379355,-0.7505028763703462,0.0006424215412644384,-0.0006424215412644384,-0.0015241438634366795
1589543971.585757,-1.5354030190828825,-3.81,8.904596980917118,0.5844444444444444,0.11333333333333333,-0.7588888888888888,-0.006131456990192982,0.001090830782496456,-0.0027710395183952984
1589543971.595757,-1.5252666755781312,-3.81,8.811600053468787,0.5844444444444444,0.11333333333333333,-0.7588888888888888,-0.002814346335110827,-0.0013199037886857266,-0.0016653359667012462
1589543971.605757,-1.52,-3.795335183291953,8.853324083540237,0.5844444444444444,0.11333333333333333,-0.7588888888888888,-0.00029098910825613796,-0.003781344913473548,-0.001890672456736774
1589543971.615757,-1.513868925122685,-3.765475700490739,8.90452429950926,0.5844444444444444,0.11333333333333333,-0.7588888888888888,0.0026751860823864327,-0.003694526609389216,-0.0008440685237996956
1589543971.625757,-1.524516672789748,-3.7790333455794958,8.910322218140168,0.5747666625846125,0.10634382421234365,-0.7621148161754995,-0.0009150880495093772,-0.0011611278756912878,0.0
1589543971.635757,-1.5364169658975937,-3.8028339317951874,8.885667863590374,0.5644444444444444,0.09888888888888887,-0.7655555555555555,-0.006544984694978735,0.001090830782496456,0.0
1589543971.645757,-1.53,-3.7937904340613766,8.822095659386232,0.5644444444444444,0.09888888888888887,-0.7655555555555555,-0.0032372069724404084,-0.0005630580787727075,-0.00041347221531729087
1589543971.655757,-1.53,-3.7854160332233304,8.784306611294449,0.5644444444444444,0.09888888888888887,-0.7655555555555555,0.002181661564992912,-0.00221191635476292,-0.0016211187788596798
1589543971.665757,-1.526193508682739,-3.762387017365478,8.840451930538089,0.5644444444444444,0.09888888888888887,-0.7655555555555555,0.0013512139845581284,-0.001090830782496456,-0.0013512139845581284
1589543971.675757,-1.5240064799420217,-3.7620194398260645,8.898012959884044,0.5724574043284876,0.10200503995490566,-0.7597684178615244,-0.001311117495063524,-0.0006537916174752813,0.0
1589543971.685757,-1.5248542822049354,-3.790291435590129,8.89970856440987,0.5844444444444444,0.10666666666666667,-0.7511111111111111,-0.004395113821268614,0.0005613107368896231,0.0
1589543971.695757,-1.5249160557247103,-3.7950839442752895,8.845755498477606,0.5844444444444444,0.10666666666666667,-0.7511111111111111,-0.00223660296469306,-0.0010542031826963575,-0.0010725169825964067
1589543971.705757,-1.5249267738405858,-3.7697070953623433,8.825366130797072,0.5844444444444444,0.10666666666666667,-0.7511111111111111,0.0021976370347475105,-0.002719089221363841,-0.0016282584388673848
1589543971.715757,-1.5149515795097843,-3.7550484204902155,8.880290522941294,0.5844444444444444,0.10666666666666667,-0.7511111111111111,0.0021710978527467364,-0.0010802670702502804,-0.0005401335351251402
1589543971.725757,-1.5142785012883906,-3.76,8.91,0.5782643870278803,0.10666666666666667,-0.7544388343354148,-0.0007760175808344105,0.0004667120908327166,0.0
1589543971.7357569,-1.52,-3.791498629528113,8.865901918660642,0.57,0.10666666666666667,-0.7588888888888888,-0.0067084598170611374,-0.00028355620533225155,0.0006871934939143538
1589543971.7457569,-1.5130784635924823,-3.8030784635924824,8.77770617233234,0.57,0.10666666666666667,-0.7588888888888888,-0.005706556269775544,0.001174236710150622,-0.00041921421260159583
1589543971.7557569,-1.5303581866376674,-3.8067860622125558,8.790716373275336,0.57,0.10666666666666667,-0.7588888888888888,0.0008183887573884807,-3.907210102464722e-05,-0.001090830782496456
1589543971.7657568,-1.5263090657985598,-3.8008727105323734,8.841945513136695,0.57,0.10666666666666667,-0.7588888888888888,0.00177904310068291,-0.002584280029302914,-0.0005930143668943032
1589543971.7757568,-1.5069519689635047,-3.780855906890514,8.889144093109486,0.5642426080421754,0.10869868735766357,-0.7565181980827258,-0.0006649772161227409,-0.003698345913863083,-0.00033248860806137044
1589543971.7857568,-1.512406733133805,-3.76,8.897593266866195,0.5511111111111111,0.11333333333333333,-0.7511111111111111,-0.003535026206250215,7.394617043592674e-05,-0.00018858768832492065
1589543971.7957568,-1.53,-3.7776598349326695,8.82702049520199,0.5511111111111111,0.11333333333333333,-0.7511111111111111,-0.00545415391248228,0.001827700480612176,0.000609233493537392
1589543971.8057568,-1.53,-3.78686634856144,8.812534605754239,0.5511111111111111,0.11333333333333333,-0.7511111111111111,-0.0011561765297542397,0.0,0.0
1589543971.8157568,-1.53,-3.7692969131343106,8.872109260597068,0.5511111111111111,0.11333333333333333,-0.7511111111111111,0.0016745936135378165,0.0005837628310413605,0.0
1589543971.8257568,-1.5224909941617324,-3.76,8.907509005838268,0.5536141130572003,0.11583633527942251,-0.7565342819943043,0.0009530033578437321,0.0002717253110636694,-0.0004095527357163933
1589543971.8357568,-1.51,-3.76,8.92,0.5577777777777778,0.12,-0.7655555555555555,-0.0020777789054789208,-0.00010388265951399162,0.00038959140197724067
1589543971.8457568,-1.5192577236859703,-3.7877731710579106,8.845938210512237,0.5577777777777778,0.12,-0.7655555555555555,-0.0037774228461145165,0.001090830782496456,0.0006668700691174669
1589543971.8557568,-1.5264088397790057,-3.8092265193370163,8.777955801104973,0.5577777777777778,0.12,-0.7655555555555555,-0.0027963838844108045,0.001090830782496456,-0.001090830782496456
1589543971.8657568,-1.52,-3.779939870680779,8.840180387957663,0.5577777777777778,0.12,-0.7655555555555555,0.0010973898737301152,-6.559091233659248e-06,-0.0016395257193615137
1589543971.8757567,-1.5252161687170476,-3.780432337434095,8.885648506151142,0.5682101152118727,0.10898808826401092,-0.7510661980082015,-9.432139630725055e-05,-0.0005218350421714153,-0.0016126658246678714
1589543971.8857567,-1.53,-3.783691871921182,8.893691871921183,0.5777777777777777,0.09888888888888887,-0.7377777777777778,-0.003557881622653835,-0.0006881100288304615,0.000285389275164467
1589543971.8957567,-1.5172696358569877,-3.78,8.80725263307042,0.5777777777777777,0.09888888888888887,-0.7377777777777778,-0.004363323129985824,-0.001785164436475804,0.00039649712851710787
1589543971.9057567,-1.5159880469102391,-3.791976093820478,8.789940234551196,0.5777777777777777,0.09888888888888887,-0.7377777777777778,-0.004363323129985824,-0.002181661564992912,0.0
1589543971.9157567,-1.52,-3.790480619544012,8.852837212051945,0.5777777777777777,0.09888888888888887,-0.7377777777777778,-0.0007289114988955959,-0.0027008632265772305,-0.0010384033231686364
1589543971.9257567,-1.52,-3.7769888971713286,8.906022205657342,0.5754358089110335,0.10123085775563315,-0.7417925815493394,0.001630190520101024,-0.004257873443922374,-0.0015247408340375744
1589543971.9357567,-1.524196152696103,-3.7679019236519484,8.92,0.57,0.10666666666666667,-0.7511111111111111,-0.0028682554443375864,-0.0051717969362893865,0.0
1589543971.9457567,-1.5285297090158758,-3.7714702909841242,8.86647197540742,0.57,0.10666666666666667,-0.7511111111111111,-0.00545415391248228,-0.00041707154965581216,0.0
1589543971.9557567,-1.522822129563714,-3.79,8.792822129563714,0.57,0.10666666666666667,-0.7511111111111111,-0.004055476549956569,-0.001090830782496456,0.00046622578750857036
1589543971.9657567,-1.5352638245580867,-3.7805276491161734,8.833680877209567,0.57,0.10666666666666667,-0.7511111111111111,-0.00011511517965583171,-0.002124103975164996,5.755758982791586e-05
