time,acc_x,acc_y,acc_z,mag_x,mag_y,mag_z,gyr_x,gyr_y,gyr_z
1589542638.3008187,-0.38,-3.97,8.85,0.4866666666666667,0.26666666666666666,-0.6411111111111111,-0.004363323129985824,-0.003272492347489368,-0.002181661564992912
1589542638.3108187,-0.3924374728142671,-3.995125054371466,8.8826875815572,0.4866666666666667,0.27111111111111114,-0.6533333333333333,-0.001915774527262833,-0.0019430571588389732,-0.002447548602722991
1589542638.3208187,-0.3966642263366711,-3.983335773663329,8.82330648970338,0.4866666666666667,0.27111111111111114,-0.6533333333333333,-0.0003630778634164238,0.002181661564992912,-0.00218086296886932
1589542638.3308187,-0.38674099403956214,-3.9867409940395624,8.759777017881314,0.4866666666666667,0.27111111111111114,-0.6533333333333333,0.001090830782496456,0.002181661564992912,0.0
1589542638.3408186,-0.3863390226794482,-3.98,8.792678045358896,0.4866666666666667,0.27111111111111114,-0.6533333333333333,0.001321324151485965,0.0019511681960034028,-0.00023049336898950913
1589542638.3508186,-0.4059523030161328,-3.98,8.831904606032266,0.4866666666666667,0.27111111111111114,-0.6533333333333333,0.0020344831493855652,0.0012380091981038024,-0.0009436523668891094
1589542638.3608186,-0.41761566611483836,-3.9888078330574195,8.88,0.4988888888888889,0.2588888888888889,-0.6322222222222222,0.001090830782496456,-0.0002600904797683673,-0.001090830782496456
1589542638.3708186,-0.4,-3.9804892926670994,8.875107073329009,0.4988888888888889,0.2588888888888889,-0.6322222222222222,0.0010374572322042867,-0.0020749144644085734,-0.0009840836819121174
1589542638.3808186,-0.394416744021571,-3.984416744021571,8.799541395924502,0.4988888888888889,0.2588888888888889,-0.6322222222222222,0.00030451937439138785,-0.0015225968719569394,0.001395350156887844
1589542638.3908186,-0.37867375664685643,-3.9686737566468566,8.852652486706287,0.4988888888888889,0.2588888888888889,-0.6322222222222222,0.0009461600750274233,-0.004730800375137116,0.0016029787351167814
1589542638.4008186,-0.37271035345636533,-3.9627103534563655,8.864579293087269,0.4988888888888889,0.2588888888888889,-0.6322222222222222,0.00029565369816489796,-0.00147826849082449,-0.00099904677233332
1589542638.4108186,-0.3873629292354392,-3.977362929235439,8.87,0.49310124581040915,0.26564113914711524,-0.6322222222222222,-0.0009470008842162365,0.001894001768432473,-0.0012346606807766753
1589542638.4208186,-0.41,-3.98,8.803883401378464,0.4922222222222222,0.26666666666666666,-0.6322222222222222,-0.00043951204713782313,0.0037120043946271913,0.0008710747589275444
1589542638.4308186,-0.41,-3.977981128651787,8.742018871348213,0.4922222222222222,0.26666666666666666,-0.6322222222222222,-0.0020715492143663873,0.004903592159349655,0.0
1589542638.4408185,-0.41,-3.96275957176556,8.75724042823444,0.4922222222222222,0.26666666666666666,-0.6322222222222222,-0.0012413420739154917,0.0007525564570951783,0.0
1589542638.4508185,-0.40018577267141103,-3.9698142273285892,8.828699591300124,0.4922222222222222,0.26666666666666666,-0.6322222222222222,-0.0021613969101407383,0.0010705661276442825,0.0
1589542638.4608185,-0.39172269328682824,-4.003109226852687,8.87138653356586,0.49774042669767005,0.2602287614453109,-0.6322222222222222,-0.00037583337321444644,-0.0016179115051712424,0.0
1589542638.4708185,-0.4,-3.9714480417846403,8.865519582153597,0.4988888888888889,0.2588888888888889,-0.6322222222222222,0.0020237047096902405,-0.0034155819981697938,-0.0007749170718911126
1589542638.4808185,-0.4,-3.9788241914777625,8.791758085222376,0.4988888888888889,0.2588888888888889,-0.6322222222222222,0.0012190915955343066,0.0014120966867658081,0.0008343091564207545
1589542638.4908185,-0.40390408077408496,-3.997968026924695,8.830159865376524,0.4988888888888889,0.2588888888888889,-0.6322222222222222,-0.0008866155118986761,0.0006475230265471179,0.0
1589542638.5008185,-0.3808884051873937,-3.9902961350624646,8.868519324687677,0.4988888888888889,0.2588888888888889,-0.6322222222222222,-0.004234109833220682,-0.0010262241341138852,0.0
1589542638.5108185,-0.3917001338688086,-3.9751004016064257,8.881499330655958,0.4866666666666667,0.26666666666666666,-0.6322222222222222,0.0001854558358461177,0.0029015806757971326,-0.0012762866183425737
1589542638.5208185,-0.4,-3.999878306558763,8.839269839352578,0.4866666666666667,0.26666666666666666,-0.6322222222222222,0.0010642813921506369,0.001090830782496456,-0.0021683868698200025
1589542638.5308185,-0.4,-3.985933920704846,8.786099118942731,0.4866666666666667,0.26666666666666666,-0.6322222222222222,-0.0015343712284190238,0.0015343712284190238,-0.0006472903365738882
1589542638.5408185,-0.4,-3.9708418642634236,8.812525592790271,0.4866666666666667,0.26666666666666666,-0.6322222222222222,-0.003180659202166767,0.003088826056844166,0.001090830782496456
1589542638.5508184,-0.4,-3.9769583223962437,8.83087496718873,0.4866666666666667,0.26666666666666666,-0.6322222222222222,-0.0025134571210536794,0.0017544218946179912,0.001090830782496456
1589542638.5608184,-0.40856661114045423,-3.98,8.857133222280908,0.4866666666666667,0.26000374689075784,-0.6322222222222222,-0.002181661564992912,0.0020253030958649106,0.0029597754092333655
1589542638.5708184,-0.40871537067403124,-3.9974307413480625,8.843299818762405,0.4866666666666667,0.2588888888888889,-0.6322222222222222,0.002992229704916489,0.002181661564992912,-0.0009506994612100164
1589542638.5808184,-0.3993246866485014,-3.98,8.732025940054497,0.4866666666666667,0.2588888888888889,-0.6322222222222222,0.0009803328937496214,0.002181661564992912,3.683262958227815e-05
1589542638.5908184,-0.3810389100817439,-3.98,8.786883269754767,0.4866666666666667,0.2588888888888889,-0.6322222222222222,-0.0020116703003810943,0.002181661564992912,0.0010341670276258499
1589542638.6008184,-0.39859415759911637,-3.9892970787995585,8.827188315198233,0.4866666666666667,0.2588888888888889,-0.6322222222222222,-0.00015335361662226037,0.005224123487548889,0.001090830782496456
1589542638.6108184,-0.407464642980338,-3.982535357019662,8.852393928941014,0.4866666666666667,0.24810662680617837,-0.6322222222222222,-0.000814266234329883,0.004639887678152397,0.000276564548166573
1589542638.6208184,-0.41945336320603743,-3.9710932735879254,8.882893721678487,0.4866666666666667,0.24444444444444444,-0.6322222222222222,0.0032128635233194137,0.005513782736652234,-5.962882416995434e-05
1589542638.6308184,-0.41238785101831105,-3.985224297963378,8.791042063238043,0.4866666666666667,0.24444444444444444,-0.6322222222222222,0.0024421357044718344,0.006284510555499813,-0.0008303566430175336
1589542638.6408184,-0.39058317600167825,-3.99,8.837667295993286,0.4866666666666667,0.24444444444444444,-0.6322222222222222,6.361463342437895e-05,0.0033679142976259365,-0.0021498542482807225
1589542638.6508183,-0.39746621867054127,-3.99,8.83253378132946,0.4866666666666667,0.24444444444444444,-0.6322222222222222,-0.0008144381154676136,0.000829178001086527,-0.0005527853340576848
1589542638.6608183,-0.4098131463628396,-3.99,8.849626292725679,0.492118414646022,0.2586189891907683,-0.6322222222222222,-0.001090830782496456,-0.0010704482125728587,-0.0021408964251457174
1589542638.6708183,-0.41,-3.981823315693863,8.833646631387726,0.4922222222222222,0.2588888888888889,-0.6322222222222222,-0.001090830782496456,-0.0028747065704744293,-0.002181661564992912
1589542638.6808183,-0.41,-3.988869940029985,8.773390179910045,0.4922222222222222,0.2588888888888889,-0.6322222222222222,0.00047447868181676805,-0.004837801811802591,-0.0012141012026323935
1589542638.6908183,-0.41,-3.9817241379310344,8.794827586206898,0.4922222222222222,0.2588888888888889,-0.6322222222222222,-0.003422951765764741,-0.0009403713642210827,-0.001993587292148695
1589542638.7008183,-0.3980613757010748,-3.991938624298925,8.847754497195702,0.4922222222222222,0.2588888888888889,-0.6322222222222222,-0.0037121721856894366,0.0026046037771855503,-0.004135114397882075
1589542638.7108183,-0.39,-3.993082516063578,8.873082516063578,0.4837675196332619,0.2642691541727727,-0.617618645023109,-0.001763331464434582,0.0020995818054036454,-0.0001720908217905286
1589542638.7208183,-0.39,-4.008489133382404,8.856978266764807,0.48,0.26666666666666666,-0.6111111111111112,0.0021267249045022526,0.0011457674429871155,-0.002181661564992912
1589542638.7308183,-0.39,-3.984115949327858,8.808231898655716,0.48,0.26666666666666666,-0.6111111111111112,0.0012404909233638948,0.002032001424125473,-0.002181661564992912
1589542638.7408183,-0.4058002084938585,-3.98,8.823700312740788,0.48,0.26666666666666666,-0.6111111111111112,0.001090830782496456,0.002181661564992912,-0.0013198938752447711
1589542638.7508183,-0.4019222307369046,-3.98,8.86231107705238,0.48,0.26666666666666666,-0.6111111111111112,0.001090830782496456,0.002181661564992912,-0.001090830782496456
1589542638.7608182,-0.4,-3.986294583640383,8.87,0.4751042127241464,0.26177087939081306,-0.6202032874805535,-0.000282434337089263,0.0035549266845786307,-0.003150728461875035
1589542638.7708182,-0.4,-3.99,8.90118460054998,0.4722222222222222,0.2588888888888889,-0.6255555555555555,-0.00024040272700209385,0.0009616109080083754,-0.0009616109080083754
1589542638.7808182,-0.406875132132767,-3.983124867867233,8.793122753742962,0.4722222222222222,0.2588888888888889,-0.6255555555555555,0.001499921152830552,0.001499921152830552,0.0
1589542638.7908182,-0.40002361250846974,-3.98,8.84995277498306,0.4722222222222222,0.2588888888888889,-0.6255555555555555,-5.151450218142309e-06,0.0,-0.0032647651721621545
1589542638.8008182,-0.4086356076627723,-3.98,8.832728784674455,0.4722222222222222,0.2588888888888889,-0.6255555555555555,-0.001883997332822863,0.0,-0.00044649634825507344
1589542638.8108182,-0.39,-3.980656828208899,8.876715858955505,0.4655555555555556,0.26666666666666666,-0.6466666666666666,-0.0031291946616735437,-0.00334414119039728,-0.0010191819395885438
1589542638.8208182,-0.39,-3.987829269126851,8.840853654365745,0.4655555555555556,0.26666666666666666,-0.6466666666666666,-0.0015644107938856966,-0.004126533124291204,-0.0002367900056946204
1589542638.8308182,-0.40981293703167193,-3.99953234257918,8.760187062968328,0.4655555555555556,0.26666666666666666,-0.6466666666666666,-1.0202702205870243e-05,-0.003262289645283498,-0.0021714588627870417
1589542638.8408182,-0.39481105924852905,-3.962027648121323,8.77518894075147,0.4655555555555556,0.26666666666666666,-0.6466666666666666,-0.000828428206260967,-0.0024440641412284006,-0.0013532333587319449
1589542638.8508182,-0.4043374009309347,-3.971506101396402,8.844518304189206,0.4655555555555556,0.26666666666666666,-0.6466666666666666,-0.0018728146963193021,-0.002181661564992912,-0.001090830782496456
1589542638.8608181,-0.39360576923076923,-3.9881971153846156,8.878197115384616,0.4610016025641026,0.2448076923076923,-0.6348263888888889,0.0005008381717712092,0.0005008381717712092,-0.00019666420357508218
1589542638.8708181,-0.40985500705218614,-3.9800724964739067,8.88,0.46,0.24,-0.6322222222222222,0.001090830782496456,0.004339598714377791,-0.003248767931881335
1589542638.8808181,-0.4094393357735916,-3.979719667886796,8.751401660566021,0.46,0.24,-0.6322222222222222,0.0020899230954712924,0.001967605136109133,0.0010602512926559161
1589542638.890818,-0.3907164538880457,-3.970358226944023,8.798208865279886,0.46,0.24,-0.6322222222222222,-0.0009736012891985264,-0.005180618428120445,3.9076497765976525e-05
1589542638.900818,-0.4061639718699285,-3.9942459578048926,8.824245957804893,0.46,0.24,-0.6322222222222222,-0.0019724386866526947,-0.007217369720794758,-0.000881607904156239
1589542638.910818,-0.4276096181046676,-3.9882602545968884,8.853479490806222,0.48739273927392746,0.25565299387081564,-0.6283089737545183,-0.0041025729146507445,-0.006995511694255914,-0.0004505269992771784
1589542638.920818,-0.4186598626832436,-3.9728866208944145,8.841546483577657,0.5066666666666667,0.26666666666666666,-0.6255555555555555,-0.006230103202076251,-0.008872832563760653,0.0007759492895939719
1589542638.930818,-0.38094401133947553,-3.9893706591070166,8.762202693125444,0.5066666666666667,0.26666666666666666,-0.6255555555555555,-0.006544984694978735,-0.01404349928870384,-0.002078685902180348
1589542638.940818,-0.4051249077036672,-3.981625030765444,8.76,0.5066666666666667,0.26666666666666666,-0.6255555555555555,-0.005631417270627316,-0.00961296305069683,-0.0003545267162900739
1589542638.950818,-0.38684559190525886,-3.9877181360315808,8.837181360315803,0.5066666666666667,0.26666666666666666,-0.6255555555555555,-0.004612235875807988,-0.008726646259971648,-0.0008419180366742918
1589542638.960818,-0.41986064489878955,-3.9701393551012107,8.88972128979758,0.4722222222222222,0.24444444444444444,-0.6255555555555555,-0.004393725696805479,-0.007635815477475192,-0.003272492347489368
1589542638.970818,-0.412749974570237,-3.977250025429763,8.875499949140474,0.4722222222222222,0.24444444444444444,-0.6255555555555555,-0.005945033312519337,-0.007635815477475192,-0.003272492347489368
1589542638.980818,-0.3800160068114091,-3.999967986377182,8.810032013622818,0.4722222222222222,0.24444444444444444,-0.6255555555555555,-0.006539746478194334,-0.005445423551174943,0.0010890847102349886
1589542638.990818,-0.38715828011919967,-3.9856834397616008,8.8243165602384,0.4722222222222222,0.24444444444444444,-0.6255555555555555,-0.004202443003852119,-0.0015499177606045854,0.00030998355212091713
1589542639.000818,-0.39,-3.98,8.84377345113438,0.4722222222222222,0.24444444444444444,-0.6255555555555555,-0.003272492347489368,-0.0007512252239296465,0.0
1589542639.010818,-0.405307391435162,-3.987653695717581,8.85765369571758,0.4722222222222222,0.26145265715017996,-0.6306580193672762,-0.0024376036586295042,0.0014138352840831361,0.0
1589542639.020818,-0.41,-3.9809511246875866,8.850951124687587,0.4722222222222222,0.26666666666666666,-0.6322222222222222,-0.0031687407387681697,-0.0027537343038833762,0.0
1589542639.030818,-0.4374025943228438,-3.998268396215229,8.71298702838578,0.4722222222222222,0.26666666666666666,-0.6322222222222222,-0.010247197475934184,-0.013236356816696247,-0.000996386446920688
1589542639.040818,-0.39543192346190553,-3.9821727693847624,8.78913615307619,0.4722222222222222,0.26666666666666666,-0.6322222222222222,-0.013825281613229249,-0.02098707234507154,-0.0020631553785846863
1589542639.050818,-0.39,-3.994640717974902,8.814640717974903,0.4722222222222222,0.26666666666666666,-0.6322222222222222,-0.013382272880210296,-0.021018088357685486,-0.002181661564992912
1589542639.060818,-0.3732337954733973,-4.016766204526602,8.895447920369712,0.4787424128714566,0.27039248989480064,-0.6322222222222222,-0.009432150989307548,-0.021640239467595142,-0.0012672069648304307
1589542639.070818,-0.3846255912771587,-3.9834360218071034,8.880748817445681,0.48,0.27111111111111114,-0.6322222222222222,-0.006333539483371199,-0.013041890802394141,-0.001090830782496456
1589542639.080818,-0.39815360877764444,-3.9944608263329333,8.764003085890621,0.48,0.27111111111111114,-0.6322222222222222,-0.002785891679555924,-0.007149214809541748,0.0006880107061211145
1589542639.090818,-0.4,-3.9929676537043646,8.789226424069449,0.48,0.27111111111111114,-0.6322222222222222,-0.003715881527483765,-0.005010764732487882,0.001090830782496456
1589542639.100818,-0.404384367786195,-3.985615632213805,8.823153103358585,0.48,0.27111111111111114,-0.6322222222222222,-0.001972021458502144,-0.0014937611242054078,0.001090830782496456
1589542639.110818,-0.4015233330787443,-3.9884766669212555,8.856953333842512,0.48,0.26985530860425844,-0.6322222222222222,-0.00014205044559355826,0.000640560029880394,0.0007826104754739524
1589542639.120818,-0.38,-3.989161735922068,8.905209566019483,0.48,0.26666666666666666,-0.6322222222222222,-0.004977318840739245,-0.004409043342989286,-0.0005682754977499591
1589542639.130818,-0.3646508343553722,-3.946976251533058,8.817905006132232,0.48,0.26666666666666666,-0.6322222222222222,-0.006544984694978735,-0.0029426525568627218,-0.002765165019576162
1589542639.1408179,-0.36608332480992806,-3.8670001022808633,8.796083324809928,0.48,0.26666666666666666,-0.6322222222222222,-0.007208572491238129,-0.002845249361252305,-0.0006181411624517951
1589542639.1508179,-0.3966158682046532,-3.7933841317953467,8.8,0.48,0.26666666666666666,-0.6322222222222222,-0.008216483644285281,-0.005014496847919635,0.0022521671161166343
1589542639.1608179,-0.4342320684607589,-3.7557679315392414,8.8,0.48316268188016864,0.26666666666666666,-0.6364391313957805,-0.014419064997689003,-0.013272388657735609,0.006377448022607927
1589542639.1708179,-0.5293331435774408,-3.672000162647908,8.811333306225348,0.4866666666666667,0.26666666666666666,-0.6411111111111111,-0.02814341644627409,-0.031852232235694805,0.015380700726599179
1589542639.1808178,-0.6037878454012604,-3.5786364637962187,8.875151381605042,0.4866666666666667,0.26666666666666666,-0.6411111111111111,-0.04584791920778778,-0.0478808420463674,0.021138974703735915
1589542639.1908178,-0.5471703464947624,-3.4702433521353746,8.93590265914585,0.4866666666666667,0.26666666666666666,-0.6411111111111111,-0.03756174275791349,-0.02483353188273785,0.016921149928707715
1589542639.2008178,-0.5032684581564585,-3.46,8.793073832625835,0.4866666666666667,0.26666666666666666,-0.6411111111111111,-0.01115531997285817,-0.004186741176072758,0.0131570300149275
1589542639.2108178,-0.3836665503789921,-3.468861120801751,8.934944657638516,0.48075925279883286,0.2597746838208606,-0.627327145419499,-0.008947849901571419,-0.00941751844057024,0.014898933608851804
1589542639.2208178,-0.3117496962332928,-3.195391425099809,8.876785280333275,0.48,0.2588888888888889,-0.6255555555555555,-0.010725208820160866,-0.010000576047271798,0.005286581400329988
1589542639.2308178,-0.3,-2.7519359771135448,8.775638255894249,0.48,0.2588888888888889,-0.6255555555555555,-0.017350014938459522,-0.014418696409250222,-0.0004084831459363267
1589542639.2408178,-0.30712995413854566,-2.829729036909459,8.838429495524002,0.48,0.2588888888888889,-0.6255555555555555,-0.023988424718919266,-0.015271630954950384,-0.0026463454729191756
1589542639.2508178,-0.2922666552491865,-2.824977735913684,8.970488953587942,0.48,0.2588888888888889,-0.6255555555555555,-0.02037671528067215,-0.008823604844680616,-0.013589334123920997
1589542639.2608178,-0.2520381100048964,-2.7287365350089767,8.918831810021217,0.48,0.2625135783326986,-0.6286624322216782,-0.010262123668759093,0.00021193042152998533,-0.002933132167093403
1589542639.2708178,-0.1970946590861933,-2.712538490268498,8.838899448064074,0.48,0.26666666666666666,-0.6322222222222222,-0.00291555161959857,0.000813924449901908,0.0345864474587016
1589542639.2808177,-0.2651854792966534,-2.850393647192286,8.920404991491775,0.48,0.26666666666666666,-0.6322222222222222,-0.0006110632335754396,-0.006763398345699808,0.07216906757689939
1589542639.2908177,-0.5004995036313287,-2.9487141438946654,8.81950049636867,0.48,0.26666666666666666,-0.6322222222222222,0.0017063787448226863,-0.002321926707148917,0.10202342706394409
1589542639.3008177,-0.5097218501022351,-2.929721850102235,8.806913911020235,0.48,0.26666666666666666,-0.6322222222222222,-0.000744076881143761,-0.00586159070796102,0.16902531804054055
1589542639.3108177,-0.4540718562874252,-2.894431137724551,8.847784431137724,0.48271457085828345,0.268476380572189,-0.6322222222222222,7.838305023926632e-05,-0.0161599721909954,0.2649347098087201
1589542639.3208177,-0.44509393895767346,-2.938943636625396,8.86875575871005,0.4866666666666667,0.27111111111111114,-0.6322222222222222,0.003943386258060179,-0.020705290566091487,0.32712626894088975
1589542639.3308177,-0.3977913175932978,-3.0027303884234575,8.90506092916984,0.4866666666666667,0.27111111111111114,-0.6322222222222222,-0.0035134222232882806,-0.027695720015760168,0.4016969817671383
1589542639.3408177,-0.40427700100793423,-3.0371385005039673,8.77006099294446,0.4866666666666667,0.27111111111111114,-0.6322222222222222,0.006538331396845503,-0.019483873471817594,0.45111743562351075
1589542639.3508177,-0.3981908077195264,-3.0222862115792894,8.842187326664499,0.4866666666666667,0.27111111111111114,-0.6322222222222222,0.0025351180285904957,-0.0247356515338209,0.4816376451993379
1589542639.3608177,-0.44414293248945147,-2.9558570675105487,8.886160667194092,0.4723789483708392,0.26283927420300046,-0.6465099405180497,0.0004188062408932041,-0.02611370360384168,0.5126028374128074
1589542639.3708177,-0.41585916442048515,-2.9570704177897573,8.929554919137466,0.4655555555555556,0.2588888888888889,-0.6533333333333333,0.002772246465395053,-0.02813237151773702,0.5373629063441637
1589542639.3808177,-0.3867853594175042,-3.0087749018585788,8.941633464188563,0.4655555555555556,0.2588888888888889,-0.6533333333333333,0.004318777304511103,-0.03111095021388636,0.5547931137495417
1589542639.3908176,-0.43461012200485416,-3.0907602091511786,8.832319721131762,0.4655555555555556,0.2588888888888889,-0.6533333333333333,0.007299847201417741,-0.02962041526543304,0.5659721258629417
1589542639.4008176,-0.4311441355065516,-3.1988558644934484,8.840572067753277,0.4655555555555556,0.2588888888888889,-0.6533333333333333,0.0025036698848286084,-0.03272492347489368,0.579485754032778
1589542639.4108176,-0.5205081495685523,-3.1094918504314477,8.885254074784276,0.4655555555555556,0.2588888888888889,-0.6533333333333333,-0.0007456973613806069,-0.03272492347489368,0.585172146713644
1589542639.4208176,-0.5759267466110533,-3.148668143899896,8.842741397288842,0.5066666666666667,0.25222222222222224,-0.6411111111111111,0.00847603385939445,-0.031141342019845118,0.6105262446172505
1589542639.4308176,-0.6393709673136667,-3.205804147526619,8.86580414752662,0.5066666666666667,0.25222222222222224,-0.6411111111111111,0.004187885354844934,-0.03479976408649058,0.6366638887375548
1589542639.4408176,-0.6763634388353734,-3.18909031650612,8.834544071847613,0.5066666666666667,0.25222222222222224,-0.6411111111111111,0.0062475284846434595,-0.030840718120236046,0.6682835304518495
1589542639.4508176,-0.67,-3.1652677918914214,8.811294936488602,0.5066666666666667,0.25222222222222224,-0.6411111111111111,0.00737771356377436,-0.031259144523310134,0.71000438882797
1589542639.4608176,-0.700596421471173,-3.15,8.849403578528827,0.5019072233267065,0.24474309697371327,-0.6411111111111111,0.0032074328574796386,-0.03842326733987914,0.7750103314925615
1589542639.4708176,-0.714022760706113,-3.251613067996077,8.955522025171625,0.4988888888888889,0.24,-0.6411111111111111,0.004350909090556057,-0.04709409610921546,0.8186757902185158
1589542639.4808176,-0.7369210297106358,-3.3415368237685086,8.932315881157455,0.4988888888888889,0.24,-0.6411111111111111,0.01359289379214591,-0.046486619978857245,0.8578109374662832
1589542639.4908175,-0.7771620505892066,-3.382882734118942,8.897206835297355,0.4988888888888889,0.24,-0.6411111111111111,0.012146596855548994,-0.04644380788779014,0.8952820411872379
1589542639.5008175,-0.7697447606621545,-3.36455333115877,8.90455333115877,0.4988888888888889,0.24,-0.6411111111111111,0.005440232766150983,-0.051835343888078596,0.9235622717123911
1589542639.5108175,-0.7919772711898803,-3.353987012108503,8.881993506054252,0.507550865483626,0.24,-0.6484404759220426,0.008942333087898127,-0.05214241978292282,0.9487982391990872
1589542639.5208175,-0.8248858343746449,-3.36022833125071,8.924200840622516,0.5133333333333333,0.24,-0.6533333333333333,0.014130986021077853,-0.048604237510312384,0.9683837570242844
1589542639.5308175,-0.834048996389331,-3.3338040144426757,8.915461039717359,0.5133333333333333,0.24,-0.6533333333333333,0.015037430767537042,-0.046256569854821086,0.9886070592837726
1589542639.5408175,-0.8521059813509211,-3.31,8.807629065271776,0.5133333333333333,0.24,-0.6533333333333333,0.01308996938995747,-0.04822628135833888,1.0068946161042065
1589542639.5508175,-0.8743680243090048,-3.3435253900543445,8.83747209723602,0.5133333333333333,0.24,-0.6533333333333333,0.01100022496330149,-0.051699565745660495,1.0122450075875427
1589542639.5608175,-0.9059348843063626,-3.3831869768612726,8.88725209255491,0.5172285272748887,0.22973085233589963,-0.6558120931143231,0.01011722724532365,-0.052803312893132795,1.0137294421855456
1589542639.5708175,-0.9536752383704131,-3.3865811904073966,8.894188095926033,0.5255555555555556,0.20777777777777776,-0.6611111111111111,0.012717035115646886,-0.05132499085820402,1.0118620878015299
1589542639.5808175,-0.98,-3.3682980612697944,8.89563933698387,0.5255555555555556,0.20777777777777776,-0.6611111111111111,0.010722655109281429,-0.05563236990731925,1.0042838452478695
1589542639.5908175,-0.9989981396615092,-3.2840074413539635,8.819602976541585,0.5255555555555556,0.20777777777777776,-0.6611111111111111,0.009817477042468105,-0.05355999435202515,0.9987432131147135
1589542639.6008174,-1.03,-3.1629276201505503,8.775489287782282,0.5255555555555556,0.20777777777777776,-0.6611111111111111,0.009577961678992334,-0.050297973676574854,0.9928955274352506
1589542639.6108174,-1.0348281742986272,-3.211030954208238,8.92,0.532529585098017,0.2008037482353164,-0.6713039235193239,0.008012541380869978,-0.05029067565340593,0.9986743246519335
1589542639.6208174,-1.04,-3.1295784283658494,8.903192809455284,0.54,0.19333333333333333,-0.6822222222222222,0.014923349471303516,-0.046294596953565595,0.9968879125966931
1589542639.6308174,-1.064366320896771,-3.1289861134348333,8.89,0.54,0.19333333333333333,-0.6822222222222222,0.014767689764023774,-0.0479412554960819,0.9916757791568027
1589542639.6408174,-1.1158062127987207,-3.17,8.874516272320767,0.54,0.19333333333333333,-0.6822222222222222,0.00914893980788767,-0.05017821599483697,0.9843868370292428
1589542639.6508174,-1.15183351821039,-3.1857780242805203,8.856055493929869,0.54,0.19333333333333333,-0.6822222222222222,0.008896384826915849,-0.049317658266228574,0.9821779831111146
1589542639.6608174,-1.1767482824148516,-3.214820201724894,8.851928080689957,0.5393573064366808,0.19011986551673732,-0.6822222222222222,0.013549837242131095,-0.04820687540661834,0.9816817696570483
1589542639.6708174,-1.2147671564137323,-3.2284589455171653,8.882616421793132,0.5333333333333333,0.16,-0.6822222222222222,0.006259577351784247,-0.052586632714796126,0.9687750392333094
1589542639.6808174,-1.1616613395321806,-3.143386604678193,8.88840258608165,0.5333333333333333,0.16,-0.6822222222222222,0.005809628770122778,-0.05473322295911445,0.9632070675457386
1589542639.6908174,-1.183526254542,-3.0915612605980005,8.80254375757,0.5333333333333333,0.16,-0.6822222222222222,0.01854412330243975,-0.03926990816987242,0.9498801711245303
1589542639.7008173,-1.2828972868217055,-3.2128972868217054,8.966780523255814,0.5333333333333333,0.16,-0.6822222222222222,0.011309970322395425,-0.045599792027411205,0.928540635919373
1589542639.7108173,-1.3900084585854642,-3.290033834341857,9.063415099659487,0.5396243038535966,0.15814971455286375,-0.6922137636367579,0.0014541334804819154,-0.05599474991676464,0.9097547179791244
1589542639.7208173,-1.390404740200547,-3.2344856882406563,8.87408094804011,0.5522222222222222,0.15444444444444444,-0.7122222222222222,0.008413934806480778,-0.04911129001818484,0.9080605237184104
1589542639.7308173,-1.448609581038224,-3.3033778445445945,8.918146108050966,0.5522222222222222,0.15444444444444444,-0.7122222222222222,0.01381233449168077,-0.042708637957592006,0.9077734392775942
1589542639.7408173,-1.5011227314672408,-3.2850808981851736,8.943101814826207,0.5522222222222222,0.15444444444444444,-0.7122222222222222,0.009356650528570648,-0.048043261180051235,0.9032078879070654
1589542639.7508173,-1.5344278587947477,-3.232139293973739,8.933283576384243,0.5522222222222222,0.15444444444444444,-0.7122222222222222,0.00969265519474336,-0.04604825363678752,0.9094869459830817
1589542639.7608173,-1.5095965359144168,-3.1991930718288333,8.954343352012225,0.5522222222222222,0.13948400973566535,-0.7054658968698704,0.009486949202718286,-0.047666026590094245,0.9226003363610892
1589542639.7708173,-1.4967757306226175,-3.1039345616264296,8.954644853875477,0.5522222222222222,0.12,-0.6966666666666667,0.012893217891132349,-0.04230995792241305,0.9282195150395011
1589542639.7808173,-1.579911559455538,-3.09460858149658,8.857828370068402,0.5522222222222222,0.12,-0.6966666666666667,0.014939701239886858,-0.041280781193917565,0.9277088833779988
1589542639.7908173,-1.6648159398856868,-3.144447819657061,8.831487669371278,0.5522222222222222,0.12,-0.6966666666666667,0.007554675700256841,-0.04969386253695484,0.9303172063168496
1589542639.8008173,-1.6925309120884449,-3.2022836153808854,8.987716384619114,0.5522222222222222,0.12,-0.6966666666666667,0.0005521593627736268,-0.05944353367453145,0.9373401856749949
1589542639.8108172,-1.6400363465033319,-3.0563067914114557,8.995027259877498,0.5488909081390739,0.11541944313567118,-0.7099919229992596,0.008313867727347627,-0.04882012910085858,0.954064156151775
1589542639.8208172,-1.5938417223557297,-2.934612535800112,8.896924976133258,0.5433333333333333,0.10777777777777778,-0.7322222222222222,0.011412355172579908,-0.0380109119808371,0.9647139274992119
1589542639.8308172,-1.697877752914851,-3.022179955246732,8.872514427040395,0.5433333333333333,0.10777777777777778,-0.7322222222222222,0.0025352084161800797,-0.0462841903384655,0.9671403867974883
1589542639.8408172,-1.7906572944476362,-3.1486854111047275,8.901580548139636,0.5433333333333333,0.10777777777777778,-0.7322222222222222,0.015343330656614928,-0.05112564737400433,0.9798528414884756
1589542639.8508172,-1.7810774325012737,-3.074650195279334,8.863925680647535,0.5433333333333333,0.10777777777777778,-0.7322222222222222,0.015466834527648778,-0.04748997599802247,0.9894611936431388
1589542639.8608172,-1.54,-2.767982425713955,8.973991212856978,0.5433333333333333,0.10343809817448388,-0.7342251512698963,0.002186454208042382,-0.050393506565506584,0.9992009967667536
1589542639.8708172,-1.5851804314055058,-2.7761443451244046,8.901265439172843,0.5433333333333333,0.09333333333333334,-0.7388888888888889,0.016717265790571464,-0.038422262063311834,0.9927940500720861
1589542639.8808172,-1.7057219718568932,-2.913888531224133,8.905110824979307,0.5433333333333333,0.09333333333333334,-0.7388888888888889,0.0076783030003655835,-0.04071824612549736,0.9773389590955999
1589542639.8908172,-1.8065921262801843,-3.0288640420933945,8.958975852673118,0.5433333333333333,0.09333333333333334,-0.7388888888888889,-0.004263802629205587,-0.052483791345044405,0.966240442363648
1589542639.9008172,-1.8510021514889512,-3.0253304646813985,8.850319707236643,0.5433333333333333,0.09333333333333334,-0.7388888888888889,0.008254500533310906,-0.04286800691484755,0.9584029867372359
1589542639.9108171,-1.8896096462419067,-3.022877920615558,8.81497513371493,0.5433333333333333,0.08461793500359702,-0.7457885792332635,0.00774226795132302,-0.03727443607596527,0.9469049906912325
1589542639.9208171,-1.9573343000557724,-3.074555716675962,8.876107083100948,0.5433333333333333,0.06666666666666668,-0.76,-0.0017816375515478091,-0.055135418308672066,0.9412900377092394
1589542639.9308171,-2.0181093023788264,-3.1161405316299198,8.880546511894131,0.5433333333333333,0.06666666666666668,-0.76,0.0021901780220946196,-0.04928511187179571,0.9472961877255461
1589542639.940817,-2.030211843642806,-3.110423687285612,9.060211843642806,0.5433333333333333,0.06666666666666668,-0.76,0.0025297085007402543,-0.04015181621853554,0.9570764417170584
1589542639.950817,-1.9715227752935973,-2.9815227752935973,8.928929290943934,0.5433333333333333,0.06666666666666668,-0.76,-0.0027293013912798895,-0.034825754966671285,0.9653403786026784
1589542639.960817,-2.070341460579466,-3.076894307052977,8.585821103716835,0.5479295380353182,0.05536766344095397,-0.7624896108802418,0.008125359512059855,-0.026289906289853053,0.9815596911878761
1589542639.970817,-2.12,-3.0848470540278887,9.125974319343717,0.57,0.0011111111111111113,-0.7744444444444445,-0.0027437607736849304,-0.06647744411880724,0.981405171857137
1589542639.980817,-2.12,-3.006484875248399,8.926506955177743,0.57,0.0011111111111111113,-0.7744444444444445,-0.011291748453300695,-0.059483636017303436,0.9837364412243049
1589542639.990817,-2.2216350655124617,-3.020545021837487,8.823424170306248,0.57,0.0011111111111111113,-0.7744444444444445,2.972632987319375e-05,-0.041137503357155165,1.0088530390808774
1589542640.000817,-2.320022594838863,-3.043352162365719,8.886602647956554,0.57,0.0011111111111111113,-0.7744444444444445,0.00036566418964527206,-0.04290806470700705,1.0362744550841787
1589542640.010817,-2.266126548376297,-2.9842350184131234,8.98018078339471,0.5662563701967785,-0.010339991816389536,-0.7768667931406465,-0.003704880578649664,-0.03970229640103272,1.070900752659174
1589542640.020817,-2.237052237715221,-2.9095115320529685,8.954104475430443,0.5511111111111111,-0.05666666666666665,-0.7866666666666666,-0.0025032125489647984,-0.040915034941498514,1.1146692089495125
1589542640.030817,-2.270134609795088,-2.897335961342828,8.873606307222786,0.5511111111111111,-0.05666666666666665,-0.7866666666666666,0.007824860050666155,-0.032550562552513464,1.155800369039969
1589542640.040817,-2.142786626091768,-2.6548089159388213,8.368964944868196,0.5511111111111111,-0.05666666666666665,-0.7866666666666666,0.01025259363290152,-0.017149318767922486,1.1873545413226203
1589542640.050817,-2.082666505207072,-2.6569992734318237,8.968665536449503,0.5511111111111111,-0.05666666666666665,-0.7866666666666666,-0.004545348416771985,-0.042106490904593764,1.219985252819094
1589542640.060817,-2.1341620160752517,-2.6418447930925555,8.938582710329579,0.549561303959535,-0.07309462247337364,-0.7807773994906774,-0.02181661564992912,-0.07344150045655327,1.2304055885493286
1589542640.070817,-2.3,-2.75,9.09,0.5455555555555556,-0.11555555555555555,-0.7655555555555555,-0.02181661564992912,-0.06872233929727672,1.2359112765684843
1589542640.080817,-2.3802228305034,-2.758913647833711,8.902813395492068,0.5455555555555556,-0.11555555555555555,-0.7655555555555555,-0.012093334208584163,-0.05024810455872131,1.2456345580098294
1589542640.090817,-2.3276512107268523,-2.631476816090279,8.767820067042829,0.5455555555555556,-0.11555555555555555,-0.7655555555555555,0.0033676098664278246,-0.03673691592186637,1.2661032077953722
1589542640.100817,-2.364723374007819,-2.68,8.967900722663192,0.5455555555555556,-0.11555555555555555,-0.7655555555555555,-0.005282407186983193,-0.04920188302933991,1.2795414063473405
1589542640.110817,-2.428610015739503,-2.68,8.939506659671332,0.5455555555555556,-0.11555555555555555,-0.7655555555555555,-0.0029594233406084144,-0.0507505389269231,1.294253637374381
1589542640.120817,-2.476368085967689,-2.578180546866375,8.800020976704817,0.5066666666666667,-0.15222222222222226,-0.78,-0.00019923428305781152,-0.03827983863067135,1.3269479358560794
1589542640.130817,-2.530392485187502,-2.5627450042321422,9.054707430169653,0.5066666666666667,-0.15222222222222226,-0.78,-0.011143651565530028,-0.05764303843812221,1.349678648673522
1589542640.140817,-2.4475666766556787,-2.344638897213066,8.726122265507941,0.5066666666666667,-0.15222222222222226,-0.78,-0.0002924027974057777,-0.0694398620924759,1.4130012961029728
1589542640.150817,-2.531360503446209,-2.4144670862051743,9.089228848266906,0.5066666666666667,-0.15222222222222226,-0.78,0.003516134104522839,-0.05725254400630435,1.4564186167849589
1589542640.160817,-2.655913528591353,-2.489408647140865,8.945269177126917,0.5040384317371766,-0.15780722144738885,-0.7782916472958314,-0.003776982567120922,-0.07622336034333045,1.5432906558756965
1589542640.170817,-2.700187490111281,-2.425855967512262,8.913315225990189,0.4622222222222222,-0.2466666666666667,-0.7511111111111111,0.017709992427727653,-0.06357439005964478,1.620787799647495
1589542640.180817,-2.4901635746015156,-2.1959012281160177,9.020983015416776,0.4622222222222222,-0.2466666666666667,-0.7511111111111111,7.15439055151844e-05,-0.08765986856940595,1.6737458405615975
1589542640.1908169,-2.3878724849751762,-2.0789971256859157,8.852933368173504,0.4622222222222222,-0.2466666666666667,-0.7511111111111111,0.004056624953354994,-0.08526881994070207,1.708814553782588
1589542640.2008169,-2.811994846072431,-2.3700042949396405,8.954011166843067,0.4622222222222222,-0.2466666666666667,-0.7511111111111111,0.012654292984290562,-0.078321275379056,1.7653961344430373
1589542640.2108169,-2.850596843219364,-2.3378359639838635,8.870373506358044,0.4622222222222222,-0.2466666666666667,-0.7511111111111111,0.007741664196357166,-0.08112849182930366,1.798380927733447
1589542640.2208169,-2.932252319825129,-2.2711261599125643,8.92767996056833,0.4388888888888889,-0.2611111111111111,-0.6877777777777778,0.015755623851266665,-0.09151063427140806,1.8594905621237268
1589542640.2308168,-2.8275637322617104,-2.201100087906568,9.07518648750471,0.4388888888888889,-0.2611111111111111,-0.6877777777777778,0.015910266281837043,-0.08900236711758601,1.8915134536658276
1589542640.2408168,-2.63,-1.9941707540306493,8.893797845626716,0.4388888888888889,-0.2611111111111111,-0.6877777777777778,0.011946684727633383,-0.09949896849293088,1.9353264974378601
1589542640.2508168,-2.650857578276531,-1.9470203459604956,9.109389621185132,0.4388888888888889,-0.2611111111111111,-0.6877777777777778,0.013227904668217574,-0.10850437185838531,1.9632417319371085
1589542640.2608168,-2.7086734716669274,-1.9371088427776908,9.260731276942664,0.43647959120363133,-0.26416288817910405,-0.6827985625615788,0.004376309500785463,-0.11778375176801796,1.9821174500208583
1589542640.2708168,-2.771165926152903,-1.9188834073847096,8.894367703385935,0.4222222222222222,-0.2822222222222222,-0.6533333333333333,0.014684149973392003,-0.10143111840973909,2.0275213093068944
1589542640.2808168,-2.8286512434700173,-1.8786512434700176,8.78828677464249,0.4222222222222222,-0.2822222222222222,-0.6533333333333333,0.035890046689916015,-0.08695102176935178,2.0797914922579093
1589542640.2908168,-2.74,-1.7808205024894235,8.864478660028205,0.4222222222222222,-0.2822222222222222,-0.6533333333333333,0.01074141985075812,-0.11899005822937152,2.088851445543455
1589542640.3008168,-2.779161955437313,-1.7422381110741603,9.04650482208181,0.4222222222222222,-0.2822222222222222,-0.6533333333333333,0.009817477042468105,-0.11504836637314798,2.10026897403609
1589542640.3108168,-2.879829189025773,-1.7631909908548107,9.183276396341924,0.42390312313674117,-0.2817553053015225,-0.6514656656505345,0.011192660887380877,-0.11879956007568575,2.1198602423760247
1589542640.3208168,-2.6492375867004294,-1.563087636243532,9.076175272487063,0.44222222222222224,-0.2766666666666667,-0.6311111111111111,0.02534136937126345,-0.10664915531080771,2.1385300942357457
1589542640.3308167,-2.6234679560439558,-1.4739374065934066,8.893937406593407,0.44222222222222224,-0.2766666666666667,-0.6311111111111111,0.023088059240843492,-0.11019097873581539,2.154373725726827
1589542640.3408167,-2.748836043956044,-1.4886865934065934,8.908686593406594,0.44222222222222224,-0.2766666666666667,-0.6311111111111111,0.031936936086781734,-0.10616876198766165,2.1583959424749803
1589542640.3508167,-2.6766639377204866,-1.4276124201783242,9.241422723686757,0.44222222222222224,-0.2766666666666667,-0.6311111111111111,0.004052039925936471,-0.1306392493430596,2.138651793146702
1589542640.3608167,-2.6329609562227416,-1.3214766079695153,9.14777347762016,0.44222222222222224,-0.2766666666666667,-0.6311111111111111,0.010181368747958167,-0.11906162823479638,2.1406949027540425
1589542640.3708167,-2.6649003962139557,-1.2015006603565925,8.8758964340744,0.41,-0.3144444444444445,-0.6444444444444445,0.04472406208235469,-0.09272061651219876,2.069305994395777
1589542640.3808167,-2.7124123820629706,-1.164993957383653,9.075030213081734,0.41,-0.3144444444444445,-0.6444444444444445,0.0376422309096211,-0.09762342270870664,2.0486052571216327
1589542640.3908167,-2.9521062052505966,-1.1714976133651551,9.03230906921241,0.41,-0.3144444444444445,-0.6444444444444445,0.01803190144932238,-0.11124261078921793,1.976015230052154
1589542640.4008167,-3.055749044068955,-1.119372610172388,9.141114006792984,0.41,-0.3144444444444445,-0.6444444444444445,0.028730329251455692,-0.10465131750600133,1.9176651596916225
1589542640.4108167,-3.044237482534982,-1.0747031468312724,8.982246783308657,0.407528135187927,-0.31597464647096585,-0.643149658114311,0.037485720928958514,-0.10035643198967394,1.8829631477483684
1589542640.4208167,-3.0792242404020604,-1.0309696994974247,9.165927262110817,0.3871191930987981,-0.3286087534785218,-0.6324592598771482,0.031761026059784675,-0.10035643198967394,1.8304867781142746
1589542640.4308167,-2.24695603156708,-0.5434530520212595,8.875988081816718,0.38666666666666666,-0.3288888888888889,-0.6322222222222222,0.02611352969056341,-0.11132570265592152,1.682455129010105
1589542640.4408166,-2.087472303701728,-0.43107124675765435,9.233873360645804,0.38666666666666666,-0.3288888888888889,-0.6322222222222222,0.02251486264543999,-0.09527989470646246,1.4519694437667288
1589542640.4508166,-2.12520701230884,-0.6017381574039538,9.21172323759791,0.38666666666666666,-0.3288888888888889,-0.6322222222222222,0.017089139759654474,-0.07197896353565854,1.113275612517207
1589542640.4608166,-1.4425363670272286,-0.5377377844088027,8.166383812010443,0.38666666666666666,-0.3288888888888889,-0.6322222222222222,-0.01859335512813243,-0.06810043148263822,0.8402269559845771
1589542640.4708166,-2.6065585261313315,-0.641441900116034,9.498373629496317,0.36,-0.36,-0.6411111111111111,-0.018944973715255116,-0.028077559157943188,0.4586006667603374
1589542640.4808166,-2.4451261470958072,-0.6217037215399844,8.488326243411723,0.36,-0.36,-0.6411111111111111,0.011976520584173037,0.021257439745157945,0.27801796972393855
1589542640.4908166,-2.734854833819486,-0.6363348283829419,9.195057240535709,0.36,-0.36,-0.6411111111111111,0.01099482250170993,-0.041780247955772475,0.12118990972456067
1589542640.5008166,-2.1516371315957303,-0.5617882047904317,9.27398895963366,0.36,-0.36,-0.6411111111111111,-0.036839149113517475,-0.07717738695104073,-0.022790344837273796
1589542640.5108166,-1.605815390684067,-0.4945915650373097,9.37091712961441,0.36090697580983894,-0.3611337197622987,-0.6413945410516857,-0.0783397296967571,-0.10458657917126254,-0.1739645070158054
1589542640.5208166,-1.9,-0.58,9.76,0.37777777777777777,-0.38222222222222224,-0.6466666666666666,0.006544984694978735,0.01963495408493621,-0.4068798818711781
1589542640.5308166,-2.0299721211548456,-0.5150139394225771,9.142632424514483,0.37777777777777777,-0.38222222222222224,-0.6466666666666666,0.020722743757185184,0.060041567412224606,-0.5855196460549794
1589542640.5408165,-2.5503065581236477,-0.8787737675054081,9.05613116247296,0.37777777777777777,-0.38222222222222224,-0.6466666666666666,-0.04009321652204924,0.019869036211465893,-0.9579674255211261
1589542640.5508165,-2.619106484669286,-0.844792417675888,9.242012637206853,0.37777777777777777,-0.38222222222222224,-0.6466666666666666,-0.026057861520729166,0.03493808742345498,-1.119210100170692
1589542640.5608165,-2.9226805473176123,-0.8687955331028981,9.19397766551449,0.3777674831889136,-0.38206780338926044,-0.6469343259771337,0.0030905719457861363,0.07501465676766765,-1.2063584701789682
1589542640.5708165,-2.244976786042992,-0.7572746609944163,8.636373304972082,0.37681431334183263,-0.36777025568304483,-0.6717167420012408,-0.013753329618537577,0.05162034903944025,-1.2980641564736195
1589542640.5808165,-2.201582916855975,-0.9100372557928215,9.346983189459337,0.37666666666666665,-0.3655555555555556,-0.6755555555555556,-0.059818959617478525,0.0377260926826046,-1.5337893597212893
1589542640.5908165,-2.5170280115563375,-0.9870229870619268,9.09,0.37666666666666665,-0.3655555555555556,-0.6755555555555556,-0.02617993877991494,0.06375584607502242,-1.6702945910681057
1589542640.6008165,-3.1477729150476503,-1.1560665057875577,9.11476318049818,0.37666666666666665,-0.3655555555555556,-0.6755555555555556,-0.027175133921596595,0.08461175373743458,-1.7170632872902365
1589542640.6108165,-3.593810789807354,-1.3276195345412902,9.277738557814224,0.37666666666666665,-0.3655555555555556,-0.6755555555555556,-0.03372487028242407,0.07431931088470568,-1.710513550929409
1589542640.6208165,-3.42,-1.34,9.06,0.4011111111111111,-0.3955555555555556,-0.6611111111111111,-0.02181661564992912,0.07963064712224129,-1.624247035137223
1589542640.6308165,-3.2649683341350006,-1.3293081609748276,9.022578563411898,0.4011111111111111,-0.3955555555555556,-0.6611111111111111,-0.021233466293421373,0.07438230291367158,-1.6079188531550062
1589542640.6408165,-2.7900790070882246,-1.2605138262404394,8.939011851063233,0.4011111111111111,-0.3955555555555556,-0.6611111111111111,-0.0244337476942819,0.05683530018580083,-1.609462615241431
1589542640.6508164,-3.2764463586304577,-1.5326652310271567,9.256901331097975,0.4011111111111111,-0.3955555555555556,-0.6611111111111111,-0.042882761919326134,0.07325466859841719,-1.6916847225822107
1589542640.6608164,-3.252198696362244,-1.5508509777283173,9.099291526354584,0.4011111111111111,-0.3955555555555556,-0.6611111111111111,-0.03031896612659691,0.08185094993028458,-1.6903622177619235
1589542640.6708164,-3.7957222351031765,-1.7210789087255585,9.189132854161837,0.39574181415359244,-0.459987119045779,-0.6566366969798456,-0.013455687291995467,0.08881127929795167,-1.6273198917096945
1589542640.6808164,-3.2647937069564668,-1.6904125860870665,9.222220256523663,0.3944444444444444,-0.4755555555555556,-0.6555555555555556,-0.021338709499311163,0.07373787268155987,-1.5142081445863413
1589542640.6908164,-3.268442732573691,-1.6392692451719895,8.378730005884556,0.3944444444444444,-0.4755555555555556,-0.6555555555555556,-0.014763942097746126,0.08083060183151614,-1.4981490857911024
1589542640.7008164,-2.8271657839833093,-1.6243107045418073,9.171532659284225,0.3944444444444444,-0.4755555555555556,-0.6555555555555556,-0.04903013891706266,0.038405786721886125,-1.5071235659104472
1589542640.7108164,-3.4799471232531785,-1.8361299257207606,9.52216039279869,0.3944444444444444,-0.4755555555555556,-0.6555555555555556,-0.04045398761173122,0.0938331458045321,-1.485108636784325
1589542640.7208164,-2.297422047488089,-1.6251901847619785,9.646280938916217,0.4263140351103708,-0.8166463097097951,-0.4901782202080455,-0.025740006560549675,0.04828325824030344,-1.4843754830457627
1589542640.7308164,-2.334592253412838,-1.6504044149054313,9.016490628577287,0.4355555555555555,-0.9155555555555556,-0.44222222222222224,-0.00869675180465677,0.09325144810588844,-1.6002771986572204
1589542640.7408164,-2.520913222505083,-1.7292325172136889,8.686845837106391,0.4355555555555555,-0.9155555555555556,-0.44222222222222224,-0.041528579640950775,0.08074408512063358,-1.6831384784345338
1589542640.7508163,-2.111997136152102,-1.7730877848932023,9.224008591543694,0.4355555555555555,-0.9155555555555556,-0.44222222222222224,-0.03429320153198506,0.0771893920418084,-1.8297372788933635
1589542640.7608163,-2.2037542261644325,-1.8731864285430173,8.948737321506702,0.4355555555555555,-0.9155555555555556,-0.44222222222222224,0.012112838224243638,0.13360457762781192,-1.9079906008352387
1589542640.7708163,-1.6728504652765812,-1.7535796139927624,8.579716095123212,1.1055555555555556,-0.8311111111111111,-0.52,-0.023648099480311817,0.09339721638256722,-2.081799959072698
1589542640.7808163,-2.1197537524704875,-2.105852251482293,9.457575984188878,1.1055555555555556,-0.8311111111111111,-0.52,-0.040414461829430016,0.07551453468612179,-2.225319560091849
1589542640.7908163,-2.2317750120185886,-2.1730650072111533,8.740639923081032,1.1055555555555556,-0.8311111111111111,-0.52,-0.015975214187611282,0.1284662379100624,-2.3133008516023965
1589542640.8008163,-2.3155378625954195,-2.349594351145038,9.117830534351146,1.1055555555555556,-0.8311111111111111,-0.52,-0.03922565874408474,0.10498525167438585,-2.453236145569541
1589542640.8108163,-2.2450992366412215,-2.3431908396946564,8.925725190839694,1.1055555555555556,-0.8311111111111111,-0.52,-0.03852714400347025,0.10917634011807277,-2.5042277216343978
1589542640.8208163,-2.1929466347907125,-2.5958004781393087,9.350127638883261,0.7464874769822296,-0.40856661759210483,-0.6943232888060474,-0.07166328167517633,0.07312995159797697,-2.6114868617572378
1589542640.8308163,-2.203512800399344,-2.6390301647293732,9.072478071739285,0.6844444444444444,-0.33555555555555555,-0.7244444444444444,-0.05160517170147001,0.11556933248460971,-2.7008711916165566
1589542640.8408163,-2.053680604684067,-2.6476669024835235,8.691098037755522,0.6844444444444444,-0.33555555555555555,-0.7244444444444444,0.013792914929394719,0.16596687561496457,-2.7450317782879203
1589542640.8508162,-2.0927234985292475,-2.8350727929403883,9.339210075585509,0.6844444444444444,-0.33555555555555555,-0.7244444444444444,-0.013464166954806102,0.16767044323272712,-2.7850656173053396
1589542640.8608162,-1.5053466840052017,-2.6836161248374513,8.714464499349804,0.6844444444444444,-0.33555555555555555,-0.7244444444444444,-0.06307941066368308,0.16508346524176443,-2.831253140026791
1589542640.8708162,-1.6648812781195483,-2.839615095032596,9.400634836103205,0.6168968873381692,-0.21888250237198908,-0.7052547975392526,-0.03707216108255199,0.10970442411708614,-2.885142453156431
1589542640.8808162,-2.0597922388059704,-3.0399140298507463,8.750716417910448,0.5866666666666667,-0.16666666666666666,-0.6966666666666667,0.01088408161295926,0.1929996809215977,-2.956116253483453
1589542640.8908162,-1.8083575043799884,-2.944783920576212,8.539164395561611,0.5866666666666667,-0.16666666666666666,-0.6966666666666667,-0.037314556300508395,0.14485418437639974,-3.002148614038924
1589542640.9008162,-1.7215435384287843,-3.0025164998935487,8.952582499467745,0.5866666666666667,-0.16666666666666666,-0.6966666666666667,-0.05999569303730508,0.10668914942146304,-3.0521700758134322
1589542640.9108162,-1.641612406216506,-3.0058942926045016,8.77662580385852,0.5866666666666667,-0.16666666666666666,-0.6966666666666667,-0.016170280269201552,0.14373398155668418,-3.0387441467738685
1589542640.9208162,-2.0292598262016344,-3.3870393048065375,9.11333843581471,0.5822222222222222,-0.05333333333333334,-0.7388888888888889,-0.039177633385454755,0.13665374086141438,-2.9935807653293787
1589542640.9308162,-1.9601170430727928,-3.110468172291171,8.491053387655136,0.5822222222222222,-0.05333333333333334,-0.7388888888888889,-0.030557853245521377,0.16466802631619787,-2.923545051692419
1589542640.9408162,-2.240630459902935,-3.516430321238733,8.85772267159695,0.5822222222222222,-0.05333333333333334,-0.7388888888888889,-0.016820625792013294,0.14254811288960817,-2.836868330808443
1589542640.9508162,-2.4303202134756505,-3.7704269513008675,9.193073715810542,0.5822222222222222,-0.05333333333333334,-0.7388888888888889,-0.03439318869762425,0.11804022527703267,-2.7462834736194757
1589542640.9608161,-2.056345899377798,-3.504682845800839,8.561181902643657,0.5822222222222222,-0.05333333333333334,-0.7388888888888889,-0.03160067891691491,0.11630595105695983,-2.604254704741316
1589542640.9708161,-1.9353752641600235,-3.3834381604000585,9.294045989998537,0.6057842966310734,-0.004584213866744784,-0.7429513155111046,-0.04700085437154246,0.06835507718522789,-2.4919908144439633
1589542640.9808161,-1.6211347729458985,-2.974266427836932,8.298018708329186,0.6144444444444445,0.013333333333333334,-0.7444444444444445,0.0023516165252007518,0.1386196365395969,-2.3103532555750923
1589542640.990816,-1.870661960858377,-3.355820014636795,9.099564909464341,0.6144444444444445,0.013333333333333334,-0.7444444444444445,-0.031442214221225076,0.06703761490289299,-2.181712270765256
1589542641.000816,-1.9314454309421354,-3.377349347277448,8.343619841313071,0.6144444444444445,0.013333333333333334,-0.7444444444444445,-0.0014590359330564281,0.13731275376491114,-2.0490279339989783
1589542641.010816,-3.885167976726622,-5.689963355618339,9.582128171417382,0.6144444444444445,0.013333333333333334,-0.7444444444444445,0.013989296801983488,0.12941569534644223,-1.868432720407098
1589542641.020816,-22.252676101987895,-19.124100763468743,12.36292386920196,0.581565631102148,0.05023812381958449,-0.7357214939658759,0.08839276659586154,0.6090097887771397,-1.389732244775573
1589542641.030816,-7.319499964486109,-4.4777881951843135,-1.4906406705021666,0.56,0.07444444444444444,-0.73,-0.7444809682564375,-0.03148568113164196,-4.331012255783014
1589542641.040816,1.8249287878358864,-2.5263547300167053,21.280804145312455,0.56,0.07444444444444444,-0.73,-1.53746216025902,-0.4359401735865549,-5.6717808772900336
1589542641.050816,-1.0871867680892076,-1.9682740895806994,6.632063133459074,0.56,0.07444444444444444,-0.73,-0.023926967490214057,0.5226219635037235,-4.609349819576066
1589542641.060816,-1.6249367424577545,-1.895442802795718,6.467461735822349,0.56,0.07444444444444444,-0.73,1.3070546174591176,0.6904130813910889,-3.9389564672923467
1589542641.070816,1.0965536429233866,-0.749400574543645,11.354636612454478,0.5288888888888889,0.19333333333333333,-0.6755555555555556,0.7434918443734922,0.02833226247704411,-2.8632544560787467
1589542641.080816,0.34230258544640235,-1.0862045058698455,9.699079259879209,0.5288888888888889,0.19333333333333333,-0.6755555555555556,0.3947242828599122,0.12250985327151233,-2.1595098215706323
1589542641.090816,-0.41194847203058194,-1.4230084371960459,8.043521907303942,0.5288888888888889,0.19333333333333333,-0.6755555555555556,0.04595672134633211,0.21668744406598053,-1.4557651870625177
1589542641.100816,-0.3305508531058384,-1.8182556318315115,7.946727872567315,0.5288888888888889,0.19333333333333333,-0.6755555555555556,0.16445146478111544,0.1418116005064463,-1.0908952515844579
1589542641.110816,-0.5754459584516706,-2.551472380891598,8.953525225771452,0.5288888888888889,0.19333333333333333,-0.6755555555555556,-0.002066859257156356,-0.016683685417469743,-0.50138835809617
1589542641.120816,-0.72,-2.57,8.65,0.4955555555555556,0.2766666666666667,-0.6877777777777778,-0.04145156973486533,0.0,0.19525871006686565
1589542641.130816,-0.6288479676622502,-2.5658567258028295,8.724578935549069,0.4955555555555556,0.2766666666666667,-0.6877777777777778,0.005100423921481856,0.00316372772421777,0.32768331338055223
1589542641.140816,-0.514709376940592,-2.599225005174912,8.825096874353136,0.4955555555555556,0.2766666666666667,-0.6877777777777778,0.028651005812497535,-0.02124597860717916,0.5865417665113584
1589542641.150816,-0.4953627709783217,-2.4529589632829376,8.9169842412607,0.4955555555555556,0.2766666666666667,-0.6877777777777778,-0.025850970533373735,-0.053536048115567,0.7230081574379034
1589542641.160816,-0.6171964404894328,-2.560550611790879,8.807559510567296,0.4955555555555556,0.2766666666666667,-0.6877777777777778,0.02682567662844549,-0.04622720020622189,0.8136805541389286
1589542641.170816,-0.7210395625244127,-2.5938401874895374,9.222156687684839,0.5139643125073626,0.2795733125011625,-0.6935910694467694,0.014285738081556313,-0.06360838142538217,0.9142465159544131
1589542641.180816,-0.7147359280825416,-2.6586883236285628,8.854973950352436,0.5166666666666667,0.28,-0.6944444444444444,0.006487373139707445,-0.041564898461578875,1.0052053020300566
1589542641.190816,-0.726189130086938,-2.704283695130407,8.995215211477946,0.5166666666666667,0.28,-0.6944444444444444,0.009869054272650146,-0.04617747526586016,1.0871379633588367
1589542641.200816,0.7451449987475192,-5.398787020444342,8.650982523074552,0.5166666666666667,0.28,-0.6944444444444444,0.019685400042852685,-0.0432359904004151,1.1438022962768741
1589542641.210816,-0.31487550437948997,-18.00383623659089,8.034344060623955,0.5166666666666667,0.28,-0.6944444444444444,-0.058682423382519215,-0.21172315873900116,0.4655552198456032
1589542641.220816,-1.8197354260089686,-3.095071748878926,9.717874439461884,0.5186706527154957,0.2769940209267564,-0.6774105630293972,-0.014861713378388944,0.13770197769392256,-1.3131773156178166
1589542641.230816,-1.5585314865057833,-1.4101747822361843,8.685046694273883,0.5188888888888888,0.2766666666666667,-0.6755555555555556,0.14483765454755168,0.2558290558134076,-1.2422515844609214
1589542641.2408159,-1.53918371040724,-2.342649411764706,8.588690316742081,0.5188888888888888,0.2766666666666667,-0.6755555555555556,0.09726443511754351,0.16460168585888804,-0.832538203419939
1589542641.2508159,-0.7334760096651709,-5.938944166379013,8.973789911977908,0.5188888888888888,0.2766666666666667,-0.6755555555555556,-0.10622548378564375,-0.026527836420958375,-0.20828567993134967
1589542641.2608159,-0.8875803550011994,-6.851852962341089,9.014161069800911,0.5188888888888888,0.2766666666666667,-0.6755555555555556,-0.017688060550548945,-0.05116346984743721,-0.0841894903535033
1589542641.2708158,-1.376039249677735,-3.7322765257589903,8.808247988620705,0.5283621766852864,0.27812409555842016,-0.68794370113546,0.024876585824698483,0.021958103147076524,-0.32815556932627704
1589542641.2808158,-1.4511947668825755,-3.889558135060604,8.779357403963317,0.5333333333333333,0.2788888888888889,-0.6944444444444444,0.04181408401145717,0.03639826622857202,-0.23864772343164434
1589542641.2908158,-0.9694824339091819,-4.033471598967657,8.63233183752238,0.5333333333333333,0.2788888888888889,-0.6944444444444444,-0.044147463067979224,-0.018685369009796875,-0.05688727296147905
1589542641.3008158,-0.9795153901394151,-3.9036299928187606,8.519436148874526,0.5333333333333333,0.2788888888888889,-0.6944444444444444,-0.0031321913524100867,0.022643132755711903,-0.004521911336014022
1589542641.3108158,-0.8598095945036165,-3.89,8.848495054290597,0.5333333333333333,0.2788888888888889,-0.6944444444444444,0.010373277442546913,0.0027987740027006873,-0.001090830782496456
1589542641.3208158,-0.8749184941949103,-3.923967397677964,8.86016301161018,0.5342768721577212,0.294929048903483,-0.6887832114981172,-0.0034192242470464738,-0.007203039526122369,-0.00016451370778590858
1589542641.3308158,-0.8649863169647743,-3.879972633929549,8.838337894345075,0.5344444444444445,0.2977777777777777,-0.6877777777777778,0.0052788166616757675,-0.00017832242601092604,-0.0018190463625622317
1589542641.3408158,-0.86,-3.947464044099223,8.831392883988975,0.5344444444444445,0.2977777777777777,-0.6877777777777778,0.00012468980280002078,-0.0026647320548411294,-0.0031205522743273087
1589542641.3508158,-0.86,-3.967184976006635,8.794075119966823,0.5344444444444445,0.2977777777777777,-0.6877777777777778,-0.011279701681893437,-0.00170497374758214,-0.0009212144476285263
1589542641.3608158,-0.86,-3.96147011706716,8.801324707332101,0.5344444444444445,0.2977777777777777,-0.6877777777777778,-0.011549767405256992,-0.00155606372620813,-0.0009304658874233478
1589542641.3708158,-0.86,-3.9481220601132105,8.845023519094315,0.5354877443815498,0.29548251791614616,-0.6904903576142515,-0.0036770642043157655,-0.0027962159558492625,-0.002591364492230479
1589542641.3808157,-0.8556345383151843,-3.9356345383151843,8.944923693478525,0.54,0.2855555555555556,-0.7022222222222222,0.008250448261411077,-0.004501757915361138,-0.003410927132864682
1589542641.3908157,-0.8840234783307872,-3.901647101391011,8.808541448902469,0.54,0.2855555555555556,-0.7022222222222222,0.005161558311420273,-0.001416799472948179,-0.0015630972734791823
1589542641.4008157,-0.8677743377387334,-3.9403223746589524,8.796676986783801,0.54,0.2855555555555556,-0.7022222222222222,-0.007255748156713736,-0.007896180378152328,-0.0024068608455218446
1589542641.4108157,-0.8904661016949152,-3.959813559322034,8.763927966101695,0.54,0.2855555555555556,-0.7022222222222222,-0.008675802452312913,-0.0031809734937036475,-0.0016209930314470642
1589542641.4208157,-0.8852180487509829,-3.952641988749773,8.79327587249743,0.5264215676391325,0.2827462247222727,-0.6989446695833921,-0.0023531409821409364,-0.00035015054513450137,-0.00045967568267421576
1589542641.4308157,-0.8401171031189602,-3.9348633796945465,8.904668207829614,0.5077777777777778,0.2788888888888889,-0.6944444444444444,0.0038370686917707985,-0.006532210726289935,-0.0021859195545558463
