time,acc_x,acc_y,acc_z,mag_x,mag_y,mag_z,gyr_x,gyr_y,gyr_z
1589542846.4694586,-0.14,-4.22,8.76,0.4933333333333334,0.3022222222222222,-0.6311111111111111,-0.004363323129985824,-0.00545415391248228,0.0
1589542846.4794586,-0.13886136653614325,-4.249715341634036,8.722561925293679,0.4933333333333334,0.3022222222222222,-0.6311111111111111,-0.003272492347489368,-0.007604764066666304,-0.0011218821933053436
1589542846.4894586,-0.10195433147080822,-4.240488582867703,8.805602754190682,0.4933333333333334,0.3022222222222222,-0.6311111111111111,-0.003272492347489368,-0.006598280818167715,-0.0021283654418039325
1589542846.4994586,-0.11624920742058865,-4.223750792579411,8.866872225972061,0.4933333333333334,0.3022222222222222,-0.6311111111111111,-0.0014999787829345736,0.0005450695632404417,-0.002181661564992912
1589542846.5094585,-0.11185273572476198,-4.236294528550476,8.896294528550477,0.5150593714006347,0.3022222222222222,-0.6247743500081482,-0.003757016781865451,0.0030703902314492435,-0.0012929328985365803
1589542846.5194585,-0.11029550236916602,-4.249852248815417,8.87852248815417,0.52,0.3022222222222222,-0.6233333333333333,-0.0054058024503942405,0.0054380367584529335,0.002181661564992912
1589542846.5294585,-0.12299453502278336,-4.243502732488609,8.815027324886083,0.52,0.3022222222222222,-0.6233333333333333,-0.0033279280914202247,0.004745411972128261,0.002181661564992912
1589542846.5394585,-0.14317245727094424,-4.226827542729056,8.81293114317736,0.52,0.3022222222222222,-0.6233333333333333,0.000692122809460136,0.00651866141082561,0.000744769377766388
1589542846.5494585,-0.14370039915473115,-4.207400798309462,8.823700399154731,0.52,0.3022222222222222,-0.6233333333333333,0.0028688414169389066,0.009010175181367182,0.0013743597038919893
1589542846.5594585,-0.130931249015593,-4.236275003937628,8.810931249015594,0.4958166640415814,0.3022222222222222,-0.6233333333333333,0.0012939978009721305,0.0019034988563991547,0.0011924142917342933
1589542846.5694585,-0.137230179028133,-4.24,8.846150895140665,0.4933333333333334,0.3022222222222222,-0.6233333333333333,-0.0012752397715578778,-0.0012752397715578778,0.001090830782496456
1589542846.5794585,-0.14,-4.230516307234676,8.717744608520132,0.4933333333333334,0.3022222222222222,-0.6233333333333333,-0.003216171965008408,-0.004250682365023904,0.001090830782496456
1589542846.5894585,-0.12148410702035216,-4.257773839469472,8.793321518408415,0.4933333333333334,0.3022222222222222,-0.6233333333333333,-0.00024283644334788506,-0.0053732084313663185,0.001090830782496456
1589542846.5994585,-0.10489362532693133,-4.252446812663465,8.822659562009603,0.4933333333333334,0.3022222222222222,-0.6233333333333333,-0.0024717747757962206,-0.00545415391248228,-0.0005570190680343576
1589542846.6094584,-0.12408698738600994,-4.233942008409327,8.85408698738601,0.5049307717043752,0.3022222222222222,-0.6179806694697756,0.0011066455355545467,-0.002826671182655931,-0.00021500320588767308
1589542846.6194584,-0.12096364535352747,-4.220963645353527,8.869036354646472,0.5077777777777778,0.3022222222222222,-0.6166666666666667,0.0011959481840002001,-0.0002102348030074883,0.0
1589542846.6294584,-0.12,-4.22,8.768260974724877,0.5077777777777778,0.3022222222222222,-0.6166666666666667,8.192114112109071e-05,0.0020178192827507305,-0.0020178192827507305
1589542846.6394584,-0.12,-4.22,8.79334091640734,0.5077777777777778,0.3022222222222222,-0.6166666666666667,-0.0036369297933767446,0.0003631966683045396,-0.0012724291166487257
1589542846.6494584,-0.10008079709441217,-4.2000807970944125,8.866397343018626,0.5077777777777778,0.3022222222222222,-0.6166666666666667,-0.0036390404735788893,-0.002172847969220804,-0.00036654812608952127
1589542846.6594584,-0.10660064672594988,-4.20660064672595,8.89446645109135,0.5145410042216833,0.3126744812718944,-0.6203556992724333,-0.0002544096044868453,0.001556440041314668,0.001207233097201009
1589542846.6694584,-0.10380718114399001,-4.2523856377120195,8.92238563771202,0.52,0.3211111111111111,-0.6233333333333333,0.002181661564992912,0.007220516438834754,0.0012984803018166748
1589542846.6794584,-0.1,-4.265630303587293,8.862436356952486,0.52,0.3211111111111111,-0.6233333333333333,0.0027958324117748367,0.01009249886460289,0.0023191724760603053
1589542846.6894584,-0.1099282119597395,-4.250143576080521,8.780215364120782,0.52,0.3211111111111111,-0.6233333333333333,0.002730992386447703,0.010916138685377686,0.002189492425406038
1589542846.6994584,-0.12,-4.22501872329952,8.7749063835024,0.52,0.3211111111111111,-0.6233333333333333,0.003268407557196093,0.011447596030772876,0.0021775767746996374
1589542846.7094584,-0.13056925322497928,-4.22,8.81585387983747,0.5164769155916735,0.31465212302917933,-0.6309666828847073,0.006092713144856926,0.012513506051667104,0.0009666389943278984
1589542846.7194583,-0.21052183966608534,-4.155354980306089,8.741847700417393,0.5133333333333333,0.3088888888888889,-0.6377777777777778,0.006994753864591479,0.010717015381693592,0.0014734156690383922
1589542846.7294583,-0.21425757741547216,-4.11,8.74098989677937,0.5133333333333333,0.3088888888888889,-0.6377777777777778,-0.00925580880172322,-0.013467902847408461,0.006598975188900306
1589542846.7394583,-0.07101232684339187,-4.220560862705664,9.042544426914475,0.5133333333333333,0.3088888888888889,-0.6377777777777778,-0.010830711495267736,-0.014025607513060284,0.017016063773596525
1589542846.7494583,-0.20069264556819463,-4.123663700867215,8.77089199234148,0.5133333333333333,0.3088888888888889,-0.6377777777777778,-0.0032833035997542276,-0.0007452392754390691,0.02653634153923719
1589542846.7594583,-0.12887547094488386,-4.087753187454776,8.833597145637366,0.5133333333333333,0.3045443027797877,-0.624019921765624,-0.00815062533428101,-0.015492333737336765,0.03585036228517333
1589542846.7694583,-0.1299117920148561,-4.164358461002785,8.808295902971217,0.5133333333333333,0.3022222222222222,-0.6166666666666667,0.0010812087839507604,-0.0024712077580719936,0.04104130544161095
1589542846.7794583,-0.12882804087462915,-4.25572288759477,8.773378969344028,0.5133333333333333,0.3022222222222222,-0.6166666666666667,-0.0015872600688324433,-0.005228340793679586,0.03380081990781327
1589542846.7894583,-0.08770846513982032,-4.344583069720359,8.78,0.5133333333333333,0.3022222222222222,-0.6166666666666667,-0.000630647329523764,-0.0058745854654981226,0.020186097614546275
1589542846.7994583,-0.07310281087380202,-4.373794378252396,8.800691567378594,0.5133333333333333,0.3022222222222222,-0.6166666666666667,0.0015047332423113195,0.0013171456779186583,0.013691459414164997
1589542846.8094583,-0.0779054920795919,-4.237701142567346,8.802094507920408,0.5036710652360543,0.3171548183725625,-0.633356038834694,-0.0004054046683673179,0.002638612307745671,0.007687361551860633
1589542846.8194582,-0.23089245031031502,-4.090260036137953,8.751988765810355,0.5011111111111111,0.3211111111111111,-0.6377777777777778,-0.013061603847573438,-0.01278180476635332,0.005796811378411424
1589542846.8294582,-0.1927165734130812,-4.140131198147791,8.715695543121745,0.5011111111111111,0.3211111111111111,-0.6377777777777778,-0.013863000735531362,-0.010272708951119432,0.016376773235268517
1589542846.8394582,-0.16876617722721335,-4.161233822772787,8.747532354454426,0.5011111111111111,0.3211111111111111,-0.6377777777777778,-0.0010814192532059095,0.006419807038199201,0.029596431842764934
1589542846.8494582,-0.17167871602082127,-4.137518074031232,8.819927703875072,0.5011111111111111,0.3211111111111111,-0.6377777777777778,7.886283852634457e-06,0.006919110000947733,0.03717586321848228
1589542846.8594582,-0.16848226076239106,-4.111517739237609,8.894241130381197,0.50629471491035,0.3074452465494811,-0.6288242803063651,-0.007635815477475192,-0.00419776346196717,0.04221128118132447
1589542846.8694582,-0.2013504965876935,-4.1,8.862636630971537,0.5133333333333333,0.2888888888888889,-0.6166666666666667,-0.009382548894933312,-0.00661864285745436,0.04996426233472905
1589542846.8794582,-0.19480103903926513,-4.1,8.767002597598163,0.5133333333333333,0.2888888888888889,-0.6166666666666667,-0.01090830782496456,-0.0069486204199027905,0.0593519045278296
1589542846.8894582,-0.16367361464158617,-4.072789357735977,8.757210642264022,0.5133333333333333,0.2888888888888889,-0.6166666666666667,-0.012095596072688375,-0.007138628818840644,0.0627709987261599
1589542846.8994582,-0.15463669419450266,-4.045363305805497,8.784636694194502,0.5133333333333333,0.2888888888888889,-0.6166666666666667,-0.01056104501176442,-0.009153170104391022,0.06478554001171027
1589542846.9094582,-0.17562697688241663,-3.972283100176195,8.810835969176555,0.5133333333333333,0.29930687347716667,-0.6166666666666667,-0.011613305875638656,-0.01090830782496456,0.06710889064630716
1589542846.9194582,-0.21193945341990034,-3.873434244300166,8.866565755699835,0.5133333333333333,0.3088888888888889,-0.6166666666666667,-0.02005807718326527,-0.01170604886301704,0.06922699059088523
1589542846.9294581,-0.1884138443956682,-3.79051045767047,8.823144919912203,0.5133333333333333,0.3088888888888889,-0.6166666666666667,-0.025262130733321928,-0.014066447657496702,0.07119137611313028
1589542846.9394581,-0.06007147781285149,-3.184653314466093,8.860668335691738,0.5133333333333333,0.3088888888888889,-0.6166666666666667,-0.034979489154445514,-0.016984679753180187,0.07028178284653629
1589542846.9494581,-0.09095376863637218,-3.0638632047979844,8.954499050555567,0.5133333333333333,0.3088888888888889,-0.6166666666666667,-0.03782702712863197,-0.019669634091200688,0.056515120652228815
1589542846.959458,-0.20325325089882734,-3.1882292261684757,8.931722724370822,0.5087081527278429,0.31443910561547733,-0.6222168833932551,-0.03817907738737596,-0.018001328602732417,0.06107604105363797
1589542846.969458,-0.24079463615903976,-3.2030684546136534,8.885342273068266,0.5077777777777778,0.31555555555555553,-0.6233333333333333,-0.03969130600291559,-0.02123386405879237,0.09653721492666628
1589542846.979458,-0.25737913926387446,-3.177862582208377,8.80358774662513,0.5077777777777778,0.31555555555555553,-0.6233333333333333,-0.03150640746927011,-0.022102507206689326,0.16117097181028606
1589542846.989458,-0.25223404003876243,-3.131170200193812,8.834361719728662,0.5077777777777778,0.31555555555555553,-0.6233333333333333,-0.014807443254743187,-0.019275211195523244,0.22294725887245395
1589542846.999458,-0.3358845920012688,-3.1028230815997464,8.828528851999684,0.5077777777777778,0.31555555555555553,-0.6233333333333333,0.0026760978961197102,-0.009643995416212124,0.2749673828320303
1589542847.009458,-0.4467539848272581,-3.0806492030345485,8.800811503793186,0.5077777777777778,0.31555555555555553,-0.6233333333333333,0.02021236114315543,0.001845280504259552,0.3257620763751683
1589542847.019458,-0.36600798993859585,-3.189993341717837,8.938003994969298,0.5077777777777778,0.3088888888888889,-0.6088888888888889,0.005674789509089909,-0.021160519307419967,0.5408147274856075
1589542847.029458,-0.34246866369237305,-3.257405991077119,8.832719354153388,0.5077777777777778,0.3088888888888889,-0.6088888888888889,0.004746747716695063,-0.029041660453519677,0.6986340113397036
1589542847.039458,-0.359616512831539,-3.3136577949103865,8.837699076989233,0.5077777777777778,0.3088888888888889,-0.6088888888888889,0.01090830782496456,-0.03312392700332453,0.7905433773062444
1589542847.049458,-0.378651924303636,-3.344232050464243,8.920187823375151,0.5077777777777778,0.3088888888888889,-0.6088888888888889,0.009649936443866514,-0.03929039652180108,0.8693234010275449
1589542847.059458,-0.41265171096794107,-3.3257827630106864,8.948913815053432,0.5077777777777778,0.30607739756267976,-0.6182605266429193,0.008385101464989154,-0.04518409127485729,0.9687133684471643
1589542847.069458,-0.43,-3.3596618597712578,8.929915464942814,0.5077777777777778,0.3022222222222222,-0.6311111111111111,0.009285893667606578,-0.05014133061780577,1.056673838501527
1589542847.079458,-0.41434240740416134,-3.3895616049361075,8.861712037020807,0.5077777777777778,0.3022222222222222,-0.6311111111111111,0.006497163211919898,-0.05681884365593339,1.1343819658219818
1589542847.089458,-0.40543658735453264,-3.363690237936402,8.817182936772662,0.5077777777777778,0.3022222222222222,-0.6311111111111111,0.00486111422867676,-0.062463100357641736,1.1973387125601749
1589542847.099458,-0.43648420601011817,-3.339406317595953,8.802922111585834,0.5077777777777778,0.3022222222222222,-0.6311111111111111,0.006096710359934697,-0.06487205120647106,1.2465756933586312
1589542847.109458,-0.4713097261909068,-3.341309726190907,8.826548630954534,0.5190875039686845,0.2909124960313154,-0.6229429755287895,0.005168415983345689,-0.06929381515554991,1.2926933451111409
1589542847.119458,-0.49653987142409783,-3.3444867095253006,8.809353804778308,0.5277777777777778,0.2822222222222222,-0.6166666666666667,0.008685152613871197,-0.07128144233846861,1.3334306483225322
1589542847.129458,-0.538313369397218,-3.4022894126738796,8.861928129829984,0.5277777777777778,0.2822222222222222,-0.6166666666666667,0.01370767128785104,-0.06919546818187962,1.371305800245703
1589542847.139458,-0.5503852907408658,-3.4211558722225974,8.815008779631254,0.5277777777777778,0.2822222222222222,-0.6166666666666667,0.020473612667224292,-0.06242952680250636,1.4027023568311523
1589542847.149458,-0.5827712999808852,-3.426938849983492,8.74998939996872,0.5277777777777778,0.2822222222222222,-0.6166666666666667,0.022605144499757434,-0.06051006883645749,1.4249273038730397
1589542847.159458,-0.7431177993639981,-3.565419917632544,9.01237458077745,0.5277777777777778,0.2822222222222222,-0.6166666666666667,0.0051140547604925785,-0.07879620810932529,1.4424183936123043
1589542847.169458,-0.7811250265336447,-3.534833368711526,8.864500106134578,0.5544444444444444,0.26222222222222225,-0.6233333333333333,0.014867113574984069,-0.0713948862918796,1.5246405927260898
1589542847.179458,-0.8199030619250309,-3.5268282301249485,8.893559522174927,0.5544444444444444,0.26222222222222225,-0.6233333333333333,0.007667538388326866,-0.08614390890636835,1.5837488302378302
1589542847.189458,-0.8708699177042861,-3.4827533881971426,8.856376694098572,0.5544444444444444,0.26222222222222225,-0.6233333333333333,0.006344752654871698,-0.08697133725860204,1.6198628211310524
1589542847.199458,-0.92,-3.4382140165787494,8.838035669429791,0.5544444444444444,0.26222222222222225,-0.6233333333333333,0.01065512328765566,-0.08420824547752533,1.6565631368267648
1589542847.2094579,-0.9261686756078698,-3.3838313243921303,8.857759040235415,0.5565006696470677,0.2457724206012362,-0.6342998677473239,0.017198327054379875,-0.08710349540681339,1.7149910159821669
1589542847.2194579,-0.9599810821036701,-3.3788804809349644,8.884478076260143,0.5611111111111111,0.2088888888888889,-0.6588888888888889,0.015633865467538748,-0.09041889798379829,1.7605905648374516
1589542847.2294579,-1.0243858094188665,-3.3931574282565995,8.83859866813587,0.5611111111111111,0.2088888888888889,-0.6588888888888889,0.020113371676962453,-0.08923769776957108,1.8226640747649943
1589542847.2394578,-1.0602986383455533,-3.385756948335079,8.871215258324606,0.5611111111111111,0.2088888888888889,-0.6588888888888889,0.01837898279350702,-0.0916297857297023,1.8664417866826015
1589542847.2494578,-1.1435628623620047,-3.419216106742912,8.854869351123819,0.5611111111111111,0.2088888888888889,-0.6588888888888889,0.019577947758601312,-0.09216094953936681,1.905139816921127
1589542847.2594578,-1.216816583701744,-3.4724221116023255,8.932871862707557,0.5573740925107236,0.1939408144873387,-0.6507920152547159,0.01753633797966132,-0.10005823537551498,1.9459741455242512
1589542847.2694578,-1.1720496771643167,-3.380538279088154,8.932049677164317,0.5544444444444444,0.18222222222222226,-0.6444444444444445,0.015585555639226605,-0.10581058590215622,1.9725517906628092
1589542847.2794578,-1.171346556849749,-3.3011920658901506,8.9376158682197,0.5544444444444444,0.18222222222222226,-0.6444444444444445,0.019097964868405346,-0.10786221325037511,1.982186418362269
1589542847.2894578,-1.176842378282242,-3.2505271348467257,8.874475458834572,0.5544444444444444,0.18222222222222226,-0.6444444444444445,0.021443421807141382,-0.1026243457922671,1.9849388303007618
1589542847.2994578,-1.1383358067364229,-3.1350074202092686,8.888051020983225,0.5544444444444444,0.18222222222222226,-0.6444444444444445,0.017786916699865988,-0.10099261504291883,1.9818579964720668
1589542847.3094578,-1.1340858827865832,-3.015591596019167,8.946881680796167,0.5624730720399721,0.16884117622967607,-0.6520907564401851,0.016432824946785902,-0.09991073131794623,1.9735123149751297
1589542847.3194578,-1.1874506708760852,-2.912746645619574,8.941373322809788,0.5777777777777777,0.14333333333333334,-0.6666666666666666,0.023570382267091926,-0.09368316490590912,1.9606508110939613
1589542847.3294578,-1.2571040846790609,-2.95278735242231,8.870027140724657,0.5777777777777777,0.14333333333333334,-0.6666666666666666,0.027738691411165813,-0.08976105892847619,1.9546137751486612
1589542847.3394578,-1.3054894044006977,-3.024510595599302,8.829021191198605,0.5777777777777777,0.14333333333333334,-0.6666666666666666,0.026073167302840903,-0.08895609451199818,1.9440971133745881
1589542847.3494577,-1.3462156008322537,-3.0154730498959683,8.86979645114435,0.5777777777777777,0.14333333333333334,-0.6666666666666666,0.02262003973526682,-0.09290481973172172,1.9233854839680204
1589542847.3594577,-1.365845244639912,-2.961690489279824,8.983140461792193,0.5906603139698247,0.11864180563191008,-0.6768653411520371,0.015419153974463374,-0.10024578972503921,1.889945888116792
1589542847.3694577,-1.483339583168864,-2.9524709876055897,8.976293518591616,0.6044444444444445,0.09222222222222222,-0.6877777777777778,0.021911364727725105,-0.09378408395048284,1.8534015442402214
1589542847.3794577,-1.69894717144091,-3.0998759176623003,8.862445947891176,0.6044444444444445,0.09222222222222222,-0.6877777777777778,0.031634092692397225,-0.08223108595755492,1.830059466290456
1589542847.3894577,-1.7890815413789403,-3.1818369172421197,8.87357078965258,0.6044444444444445,0.09222222222222222,-0.6877777777777778,0.023708952781466588,-0.08458385956657292,1.8108905276851819
1589542847.3994577,-1.7673911802754738,-3.0904345179210106,8.934782550795221,0.6044444444444445,0.09222222222222222,-0.6877777777777778,0.012995110027907562,-0.08840471268702238,1.7916184001645683
1589542847.4094577,-1.651345295222199,-2.83966367619445,8.8806726476111,0.6039586433919837,0.0901669100771959,-0.6880019936481443,0.008433148371987623,-0.08053804172474772,1.7731405437992673
1589542847.4194577,-1.6581206864039224,-2.7556149349424857,8.807904205166887,0.59,0.031111111111111114,-0.6944444444444444,0.001159164553181978,-0.0787448176518014,1.7496006269139106
1589542847.4294577,-1.678335271881361,-2.715121401570224,8.821849738296017,0.59,0.031111111111111114,-0.6944444444444444,0.013038266738737085,-0.09393503407679181,1.729102985507605
1589542847.4394577,-1.8050964728183603,-2.775237966285289,8.895508090176698,0.59,0.031111111111111114,-0.6944444444444444,0.0403579326718371,-0.09275148559804829,1.7006206244548996
1589542847.4494576,-1.7388511591443612,-2.616553477433083,8.898302161496249,0.59,0.031111111111111114,-0.6944444444444444,0.01502531747934624,-0.0870670613226204,1.669778573436398
1589542847.4594576,-1.7759333593987576,-2.6203618749728483,9.311085624918546,0.5846486718700976,0.015057126721404059,-0.7104984288341515,-0.006702882438898029,-0.10209136425336818,1.6404058694420103
1589542847.4694576,-1.82,-2.5350882154882153,9.111996296296297,0.5755555555555556,-0.012222222222222223,-0.7377777777777778,0.02860062818101853,-0.07074397561919432,1.6322201266778518
1589542847.4794576,-1.886523658700451,-2.5141904213456185,9.116523658700451,0.5755555555555556,-0.012222222222222223,-0.7377777777777778,0.006893099902945024,-0.0869183473917502,1.6129543871834027
1589542847.4894576,-1.93,-2.53,9.16,0.5755555555555556,-0.012222222222222223,-0.7377777777777778,-0.01854412330243975,-0.11235557059713497,1.5991579271398042
1589542847.4994576,-1.8263469260051104,-2.3698088856442614,8.877309798195755,0.5755555555555556,-0.012222222222222223,-0.7377777777777778,0.006125250620616668,-0.07946307203305973,1.5847674590180216
1589542847.5094576,-1.8848039152965261,-2.3655991299341053,8.938398694901158,0.5735554347130702,-0.02422294727713447,-0.7297772944078362,0.03918197734101018,-0.06283209034546106,1.5668251332898135
1589542847.5194576,-1.9258329355608592,-2.2963723150357995,9.065785202863962,0.57,-0.045555555555555564,-0.7155555555555555,0.0005987853937331408,-0.08551800925001571,1.5372211280609018
1589542847.5294576,-1.862004340777156,-2.257780189320642,9.166206788347889,0.57,-0.045555555555555564,-0.7155555555555555,-0.013524881186953533,-0.0949492863175963,1.5186785930171025
1589542847.5394576,-1.9396631129094588,-2.2703368870905414,8.853819190288924,0.57,-0.045555555555555564,-0.7155555555555555,0.022184474408728304,-0.06068191638014355,1.5143059917339237
1589542847.5494576,-1.9849248473461718,-2.2519398778769375,8.958647252231094,0.57,-0.045555555555555564,-0.7155555555555555,0.0313904618623939,-0.05185468303115844,1.5064701021588784
1589542847.5594575,-1.926394025604552,-2.2000924608819346,9.389089615931722,0.5651801801801801,-0.05164374901217007,-0.7249415204678362,-0.005643458827794609,-0.07776785572197528,1.4934070809035458
1589542847.5694575,-1.7133884337583014,-2.026495871507748,8.885760337389113,0.5488888888888889,-0.07222222222222223,-0.7566666666666667,0.023270757048367806,-0.044693410172732935,1.5013590876687823
1589542847.5794575,-1.8903966005665722,-2.182979098078248,9.156421407242938,0.5488888888888889,-0.07222222222222223,-0.7566666666666667,0.06539205237804802,-0.021238669932535696,1.4992998480541315
1589542847.5894575,-1.5308163265306123,-1.7336734693877551,8.271020408163265,0.5488888888888889,-0.07222222222222223,-0.7566666666666667,0.03797872071303987,-0.02426541944737014,1.4216641755307382
1589542847.5994575,-1.5340531792606933,-1.8304897452961462,8.958484179321193,0.5488888888888889,-0.07222222222222223,-0.7566666666666667,-0.024440410485376082,-0.0643564753611244,1.350796005220735
1589542847.6094575,-1.7536061221302515,-1.968736529751679,9.80048570982352,0.5436101133149391,-0.08483263053776877,-0.7566666666666667,-0.02679648049502578,-0.12815055500575223,1.265619251374437
1589542847.6194575,-1.7415300020619973,-1.819224001649598,9.049961509382088,0.5288888888888889,-0.12,-0.7566666666666667,0.03373290540079116,-0.024166374171026028,1.2177891950884843
1589542847.6294575,-1.8878847510354682,-1.8984609958581273,9.348840456510336,0.5288888888888889,-0.12,-0.7566666666666667,0.009911764881089719,-0.04285746276782183,1.146903162317343
1589542847.6394575,-1.8942979556035355,-1.838595911207071,8.754469334053033,0.5288888888888889,-0.12,-0.7566666666666667,0.003420981052953682,-0.061123912797435176,1.088830324992357
1589542847.6494575,-1.8079597307670054,-1.7419619679466163,8.616042506412604,0.5288888888888889,-0.12,-0.7566666666666667,-0.0032810336928384178,-0.037099228334613994,1.0382410249350766
1589542847.6594574,-1.7352226589144768,-1.6681781271315814,8.645465618605256,0.5210616313523384,-0.13213224918165314,-0.7672334643410097,-0.006200519275566953,-0.047329697439641515,0.9933891260393792
1589542847.6694574,-1.7358237383530382,-1.7162249257854727,8.878832644096299,0.5066666666666667,-0.15444444444444444,-0.7866666666666666,0.006247255669353042,-0.04288389230307253,0.9410673548887731
1589542847.6794574,-1.6245018760512355,-1.7045018760512356,9.48334584034157,0.5066666666666667,-0.15444444444444444,-0.7866666666666666,-0.029417570834575142,-0.08881351158695092,0.8837769441593137
1589542847.6894574,-1.7476588760246103,-1.6865626167122048,9.155934582194877,0.5066666666666667,-0.15444444444444444,-0.7866666666666666,0.007005478117519058,-0.0339685730608193,0.8168956476155018
1589542847.6994574,-2.041700521724256,-1.7082994782757441,8.90465467841259,0.5066666666666667,-0.15444444444444444,-0.7866666666666666,0.03040651154901776,0.023490530565414565,0.781966762605699
1589542847.7094574,-1.999045608108108,-1.7442736486486485,9.321410472972973,0.503591403903904,-0.1601707957957958,-0.7871968843843844,-0.025193216002842553,-0.023323878454121857,0.7557421228081085
1589542847.7194574,-2.1071390198655022,-1.7117933060214887,9.308104081317152,0.4744444444444445,-0.21444444444444444,-0.7922222222222223,-0.009241812324233666,-0.011521283559760388,0.7863762601027864
1589542847.7294574,-2.3694315169366718,-1.7541973490427099,9.455234167893963,0.4744444444444445,-0.21444444444444444,-0.7922222222222223,0.02496508423245717,0.01692522760358603,0.8212259301320086
1589542847.7394574,-2.0225349252761533,-1.5894363222871994,8.99112573099415,0.4744444444444445,-0.21444444444444444,-0.7922222222222223,-0.026041635754291408,-0.04042213805343044,0.8637844376850434
1589542847.7494574,-1.8522011046133855,-1.4122891487979206,8.377923976608187,0.4744444444444445,-0.21444444444444444,-0.7922222222222223,-0.008947541265407009,-0.006977170575178361,0.9210124931478303
1589542847.7594573,-2.061615061162079,-1.5838061926605504,9.250379587155964,0.4664154349303432,-0.22109705232755691,-0.7883224176010873,0.01959971891631199,0.00022521319022413453,0.9986172605234751
1589542847.7694573,-2.2570723660358203,-1.5603081719962295,8.569553331883112,0.4355555555555555,-0.2466666666666667,-0.7733333333333333,0.014229524105600024,0.0007378591077164954,1.0344101289564518
1589542847.7794573,-2.1220239959185827,-1.58,9.312661189592387,0.4355555555555555,-0.2466666666666667,-0.7733333333333333,-0.04781992746571308,-0.038841428502867134,1.0633899298415745
1589542847.7894573,-2.2695988952025754,-1.58,9.688977182766568,0.4355555555555555,-0.2466666666666667,-0.7733333333333333,-0.034941588036689605,-0.08713520136170519,1.0907564011282493
1589542847.7994573,-2.036336737650297,-1.4509041358829493,9.00363990294075,0.4355555555555555,-0.2466666666666667,-0.7733333333333333,0.06177690529667814,0.019736977498517154,1.1796863017374786
1589542847.8094573,-1.8190419787493468,-1.4264135168089183,9.150315276084305,0.43244808298980036,-0.24942886450289345,-0.7748007509338288,0.013585697923581101,0.035104762449073804,1.2039382112030386
1589542847.8194573,-2.5530538309340245,-1.6077846762639012,9.808367333014942,0.3955555555555556,-0.2822222222222222,-0.7922222222222223,-0.029607456065654986,-0.07166461289727774,1.232879471043032
1589542847.8294573,-2.59,-1.46,9.08,0.3955555555555556,-0.2822222222222222,-0.7922222222222223,0.04581489286485115,-0.00545415391248228,1.2697270308258748
1589542847.8394573,-1.7389459084604715,-1.3496809986130376,9.156269070735089,0.3955555555555556,-0.2822222222222222,-0.7922222222222223,0.035979260525032204,0.00567958218792191,1.3142347422814653
1589542847.8494573,-1.850964622041232,-1.428172562993128,10.291405701196235,0.3955555555555556,-0.2822222222222222,-0.7922222222222223,-0.09216964840635394,-0.19091918031892607,1.2607307169815205
1589542847.8594573,-2.316666559557855,-1.332962951061984,8.96234568297934,0.3793964061423334,-0.2994238974040394,-0.769026023870984,-0.019311711211115246,-0.095279289609486,1.256785223182571
1589542847.8694572,-2.11,-1.31,8.97,0.32666666666666666,-0.3555555555555556,-0.6933333333333334,0.04581489286485115,0.031634092692397225,1.3035427850832648
1589542847.8794572,-2.0681048125567516,-1.254139750075669,8.71164634409997,0.32666666666666666,-0.3555555555555556,-0.6933333333333334,0.030581372830999792,0.013353868651775593,1.3675235692254406
1589542847.8894572,-2.0310950854700853,-1.3501168091168092,9.799065527065528,0.32666666666666666,-0.3555555555555556,-0.6933333333333334,-0.004388806926044145,-0.10799543294165645,1.4628104502767623
1589542847.8994572,-2.8031155444721527,-1.406884455527847,9.272688279301747,0.32666666666666666,-0.3555555555555556,-0.6933333333333334,0.0011922064113269668,-0.08054611076148352,1.4772534614434893
1589542847.9094572,-2.822074744075165,-1.3463880708643015,9.484985275557426,0.3294759448833211,-0.35395025371746736,-0.6843035104940869,0.04106901665929483,-0.03166983673851184,1.501088986626266
1589542847.9194572,-2.554712396185789,-1.302472470009228,9.221762534604737,0.3422222222222222,-0.3466666666666667,-0.6433333333333333,-0.033289699350961974,-0.1356355302054226,1.5063211477186853
1589542847.9294572,-2.115138552552455,-1.1416577548798128,9.18884054673406,0.3422222222222222,-0.3466666666666667,-0.6433333333333333,-0.011938949582666603,-0.10427986996996934,1.5522702336068062
1589542847.9394572,-1.8970014139673974,-0.9916884721025858,8.800283768629427,0.3422222222222222,-0.3466666666666667,-0.6433333333333333,0.027471636028072868,-0.07230524390842599,1.577552496074073
1589542847.9494572,-1.7499751996719326,-1.0300496006561348,9.603151203889942,0.3422222222222222,-0.3466666666666667,-0.6433333333333333,-0.003099268189172253,-0.09986651777212165,1.4965061259416186
1589542847.9594572,-1.725483390050235,-0.9334658888348728,9.068920110192837,0.3422222222222222,-0.3457039197680909,-0.6448737283710546,-0.02664794778651641,-0.12976866624137906,1.3975464491001908
1589542847.9694571,-1.4829528222409436,-0.8917017691659646,9.065796124684077,0.3422222222222222,-0.3411111111111111,-0.6522222222222223,0.03631078843976408,-0.03645277104793232,1.2986193428615085
1589542847.9794571,-1.8137550089982004,-0.79,8.5031224955009,0.3422222222222222,-0.3411111111111111,-0.6522222222222223,0.039409105244889,-0.01185994153244443,1.2212654304329202
1589542847.9894571,-1.9779427812307255,-0.7932120320728757,8.652294918631684,0.3422222222222222,-0.3411111111111111,-0.6522222222222223,0.016012083391500974,-0.04121339526691217,1.1496372075852395
1589542847.9994571,-1.7802100508187464,-0.8476662902315076,9.593629023150761,0.3422222222222222,-0.3411111111111111,-0.6522222222222223,0.005146122024099177,-0.07698185621481736,1.0809674794741924
1589542848.009457,-1.8993280156275436,-0.977447175647078,10.479104020836726,0.3427646282127806,-0.3415760305315897,-0.6507499773907067,-0.016797231408269615,-0.1293837889306644,1.0400698075138288
1589542848.019457,-1.4737454937888912,-0.8591194232049781,9.194312415329154,0.35,-0.3477777777777778,-0.6311111111111111,0.07907667811081849,0.02057577716252642,0.9594758055693172
1589542848.029457,-2.0888344479643317,-0.8954783526927138,8.705159450897572,0.35,-0.3477777777777778,-0.6311111111111111,0.01992236105492026,-0.081022553856016,0.7331016392621562
1589542848.039457,-1.5778098809496917,-0.7250525221948629,8.960672284094247,0.35,-0.3477777777777778,-0.6311111111111111,-0.05756137626611034,-0.0990289879925135,0.45399471817626774
1589542848.049457,-1.984778206364513,-0.7524505785920926,9.784396094503375,0.35,-0.3477777777777778,-0.6311111111111111,-0.06734933362817982,-0.12517677695437515,0.3455729828836494
1589542848.059457,-1.8399792449100614,-0.5339958489820122,9.160450681952955,0.3510245766620544,-0.34815345588719776,-0.6319649249961564,0.02092696002459202,-0.005740284066341302,0.25940318252421696
1589542848.069457,-2.1983436381386268,-0.6029521640091117,9.096098275301008,0.38333333333333336,-0.36,-0.6588888888888889,0.016306518056574258,0.006596384726643395,0.11032810912713602
1589542848.079457,-1.4450343844764446,-0.5179619533696787,8.271625432912986,0.38333333333333336,-0.36,-0.6588888888888889,-0.02201642746277343,-0.04001138460943038,-0.023594658799054414
1589542848.089457,-1.3199289111306278,-0.8585268530332908,9.432326213399175,0.38333333333333336,-0.36,-0.6588888888888889,-0.06674790069432897,-0.0983897479794266,-0.1691614869424216
1589542848.099457,-2.185966461801457,-1.024940372013513,9.253914282225569,0.38333333333333336,-0.36,-0.6588888888888889,0.0253468422435169,0.0985054072775139,-0.3409405840464572
1589542848.109457,-2.920041515731206,-0.8030107045463797,8.075979893361554,0.38333333333333336,-0.36,-0.6588888888888889,0.04769340035019549,0.07988327552194843,-0.3930825529620406
1589542848.119457,-2.4383475199537026,-0.799553664006173,8.795379904029321,0.3555555555555556,-0.3655555555555556,-0.6877777777777778,-0.059360148840958735,-0.058349596217855085,-0.4301136490262206
1589542848.129457,-1.94322682826057,-0.784743836937061,8.84710577055502,0.3555555555555556,-0.3655555555555556,-0.6877777777777778,-0.037552011186282416,-0.022855917034491916,-0.45882970260401107
1589542848.139457,-1.2322885803185808,-0.6765884920819207,8.767498258486974,0.3555555555555556,-0.3655555555555556,-0.6877777777777778,-0.006305420362538958,-0.013319452668864683,-0.5356894035659598
1589542848.149457,-1.6723249153866182,-0.7879067951054413,9.26391825045561,0.3555555555555556,-0.3655555555555556,-0.6877777777777778,0.004577172538790777,0.0532587266685519,-0.678152542883484
1589542848.159457,-1.0255360182644744,-0.6115098231630385,7.306751847475617,0.3555555555555556,-0.3655555555555556,-0.6877777777777778,0.03573076489952337,0.14213809310946549,-0.7542039595288019
1589542848.169457,-1.5703440974060352,-0.9585512616904888,9.20703193929769,0.34740230966805874,-0.38390035880242335,-0.6684138187949729,-0.041045227087635756,-0.022192545157290244,-0.9509634470766862
1589542848.179457,-1.7706361959034962,-1.0412723918069926,9.626287455917042,0.3466666666666667,-0.3855555555555555,-0.6666666666666666,-0.04558122166095883,0.017262447449254526,-1.2447317021243052
1589542848.189457,-1.7528548612497503,-0.821428096093698,7.942857523125041,0.3466666666666667,-0.3855555555555555,-0.6666666666666666,-0.022050722875160442,0.07425394822040142,-1.412936844837683
1589542848.199457,-2.152412852509719,-0.9476273115831526,8.090120492278615,0.3466666666666667,-0.3855555555555555,-0.6666666666666666,0.02578075548834565,0.14533931422826565,-1.5473120115395445
1589542848.209457,-2.2126234938780813,-1.227619759020493,9.303861517976033,0.34542864256871597,-0.3923646880942843,-0.6652910843356103,-0.04491618235559942,0.1070316461009255,-1.685530497293548
1589542848.219457,-1.11507418791323,-1.1035243128496561,8.652419565265463,0.32666666666666666,-0.4955555555555556,-0.6444444444444445,-0.054279848764623245,0.024621254165136212,-1.8719535202358115
1589542848.229457,-1.273354655498824,-1.2810357982904022,9.762382823704893,0.32666666666666666,-0.4955555555555556,-0.6444444444444445,-0.03251196396867858,0.07225381869045261,-2.081596192263716
1589542848.239457,-1.1590587172279274,-1.3712694337674258,9.214965435144284,0.32666666666666666,-0.4955555555555556,-0.6444444444444445,-0.04563591426133214,0.1201562372586381,-2.265331496360866
1589542848.249457,-1.0754719838465423,-1.4013679959616354,8.755567895002525,0.32666666666666666,-0.4955555555555556,-0.6444444444444445,-0.030553724194033748,0.14825001551778816,-2.612552939595812
1589542848.2594569,-1.1957928533000122,-1.4529654119157946,9.017930442026344,0.32666666666666666,-0.4955555555555556,-0.6444444444444445,-0.0402704374506159,0.1256110927403062,-2.8572991806351107
1589542848.2694569,-1.3340314078629476,-1.7596742074822462,8.99726004831979,0.3284946026632827,-1.1024303064320635,0.04651536227639885,-0.031651861917750865,0.16369441648889124,-3.2117548192416803
1589542848.2794569,-1.6742242592197827,-2.049329354082285,8.983723726284374,0.3288888888888889,-1.2333333333333334,0.1955555555555556,-0.03267469549599382,0.20558721028725188,-3.5040302151343345
1589542848.2894568,-1.3562552045064904,-2.1572018123928487,8.664568332108743,0.3288888888888889,-1.2333333333333334,0.1955555555555556,-0.04941058691185682,0.18150437049606732,-3.812229300612058
1589542848.2994568,-1.4247391623806025,-2.3455326965466567,9.152516531961792,0.3288888888888889,-1.2333333333333334,0.1955555555555556,-0.041006340859276215,0.18617339608083436,-4.000857934236644
1589542848.3094568,-2.474034623525854,-2.799079981856668,8.506986694889628,0.3288888888888889,-1.2333333333333334,0.1955555555555556,-0.041425098863896066,0.22697774044492744,-4.083467144707196
1589542848.3194568,-1.9509300126103406,-2.8261491172761666,8.829131462799495,0.6599457930503012,-0.5918545081967214,-0.5185942973238055,-0.06170991710510117,0.18658614108953822,-4.092207662143224
1589542848.3294568,-1.7647331953567893,-2.9578385674435346,8.952959596868531,0.7388888888888889,-0.4388888888888889,-0.6888888888888889,-0.072952363749801,0.19832575754548384,-4.178324099127821
1589542848.3394568,-2.1783591276374783,-3.0755741026875048,7.261697864687555,0.7388888888888889,-0.4388888888888889,-0.6888888888888889,0.007796598281582361,0.30919945156477874,-4.176987824100918
1589542848.3494568,-1.5631319494154141,-3.232967629046369,8.962585858585859,0.7388888888888889,-0.4388888888888889,-0.6888888888888889,-0.06013962752137105,0.14171204540182858,-4.201274920561073
1589542848.3594568,-1.58314769744691,-3.3797497812773405,9.809919191919192,0.7388888888888889,-0.4388888888888889,-0.6888888888888889,-0.0819734216088198,0.12715618267686277,-4.2252920940572665
1589542848.3694568,-1.4813857386981513,-3.387831805706592,8.810994510900523,0.5911111111111111,-0.17888888888888888,-0.7233333333333334,-0.03001758891202846,0.2509895942346931,-4.269262007787776
1589542848.3794568,-1.6860133290137456,-3.826676540010182,9.215313092979127,0.5911111111111111,-0.17888888888888888,-0.7233333333333334,-0.05308655957414256,0.20573133178765357,-4.29612730757522
1589542848.3894567,-1.898508390800016,-3.99104516283334,8.842985809383345,0.5911111111111111,-0.17888888888888888,-0.7233333333333334,-0.04265641009649463,0.2161961866337675,-4.278922386425897
1589542848.3994567,-1.6978801769840952,-3.907450073743373,8.68415514011241,0.5911111111111111,-0.17888888888888888,-0.7233333333333334,-0.033537600452007675,0.20798925795372925,-4.224209528558975
1589542848.4094567,-2.3718688880840273,-4.189326989562412,8.814663494781206,0.5911111111111111,-0.17888888888888888,-0.7233333333333334,-0.04438865253830468,0.19971072986859012,-4.174736855571484
1589542848.4194567,-2.038473231156834,-3.9199731261809783,8.794067604450976,0.6164624536356638,-0.07295649333986515,-0.7115630671612196,-0.060157840464138475,0.18725879574874107,-4.048874976541805
1589542848.4294567,-2.1657195813344963,-4.532799389446141,9.6598582642826,0.6222222222222222,-0.048888888888888885,-0.7088888888888889,-0.024210258984080527,0.19718885735592925,-3.9016610887500547
1589542848.4394567,-1.3234258899544034,-4.15296910462715,8.311061402253255,0.6222222222222222,-0.048888888888888885,-0.7088888888888889,0.03365552099136574,0.2797294545805818,-3.820936468645723
1589542848.4494567,-1.4520669842762794,-4.2644580530394425,9.477407324104934,0.6222222222222222,-0.048888888888888885,-0.7088888888888889,-0.05428189610564269,0.13379076237703583,-3.8527436195105986
1589542848.4594567,-1.479097003452708,-3.979798886060637,9.021403765215858,0.6222222222222222,-0.048888888888888885,-0.7088888888888889,-0.07249465256909807,0.13428531330848126,-3.831377089281273
1589542848.4694567,-1.5756168270890056,-4.052971967634313,8.776121486367298,0.59607061139446,0.022210803049089664,-0.7088888888888889,-0.05382994950787886,0.13876081192697995,-3.7590140872297946
1589542848.4794567,-19.389085576661618,-20.90571262090665,19.839026143029173,0.5866666666666667,0.04777777777777778,-0.7088888888888889,0.15232672410047798,1.3491950046243386,-2.579628482655525
1589542848.4894567,-0.2448424814512684,-5.802126791749211,6.7557689468981845,0.5866666666666667,0.04777777777777778,-0.7088888888888889,-0.6376776283178731,0.2952634388558746,-6.6282897083225745
1589542848.4994566,-1.8720044710754402,-0.20965770619170654,-2.397982335587195,0.5866666666666667,0.04777777777777778,-0.7088888888888889,-1.2927474321032217,-0.3507835595827816,-8.073142676599462
1589542848.5094566,-1.0342665787110843,-2.461558646216994,1.1681679585142835,0.5866666666666667,0.04777777777777778,-0.7088888888888889,-1.5048566623836344,0.09942456951042627,-6.548974373635865
1589542848.5194566,-0.85,-2.11,-0.13,0.5911111111111111,0.17333333333333334,-0.6666666666666666,0.9642944117268673,0.08726646259971647,-5.623232683769231
1589542848.5294566,-0.85,-2.11,-0.13,0.5911111111111111,0.17333333333333334,-0.6666666666666666,0.9642944117268673,0.08726646259971647,-5.623232683769231
1589542848.5394566,-1.275115966084967,0.19775111031357945,9.032030864474452,0.5911111111111111,0.17333333333333334,-0.6666666666666666,0.34702003497142675,0.7043010533054402,-3.9775809266923767
1589542848.5494566,1.2556513839666235,-1.8343892153784038,9.737635144228612,0.5911111111111111,0.17333333333333334,-0.6666666666666666,-0.8034172286549015,-0.16904605761873925,-2.95337362151925
1589542848.5594566,0.9609042951816966,-1.4703514907498567,8.46022526560181,0.5911111111111111,0.17333333333333334,-0.6666666666666666,-0.19343292737617634,0.08844792211635003,-2.684424756143155
1589542848.5694566,0.8867963052989791,-1.6870879922216822,8.237767784799871,0.5578100974090279,0.2684790867678568,-0.6795793046327806,0.20840162125221406,0.2141204841416512,-2.3127410311993732
1589542848.5794566,0.8633162647402528,-2.6377373844682883,10.265510039307342,0.5366666666666666,0.3288888888888889,-0.6877777777777778,-0.16272977225216081,0.0244805465641664,-1.7008747165489588
1589542848.5894566,0.24840773398491456,-2.922912355253373,8.625753957293107,0.5366666666666666,0.3288888888888889,-0.6877777777777778,-0.009135189215523865,0.12266442559391535,-1.348968140224512
1589542848.5994565,0.24184327784891166,-3.0731277848911653,9.22172752880922,0.5366666666666666,0.3288888888888889,-0.6877777777777778,-0.00444248867256188,0.06200712354497319,-1.0631775377720998
1589542848.6094565,0.2325513608428446,-2.7954725197541705,8.476581913959613,0.5366666666666666,0.3288888888888889,-0.6877777777777778,-0.03759556432402263,0.04197233369122202,-0.6532364769265732
1589542848.6194565,0.2134208784767523,-2.9365857394066595,8.774228638417759,0.5154672750917575,0.3639775370128765,-0.6826606832596963,0.0026135634801228227,0.03292546704322262,-0.3981489042166422
1589542848.6294565,0.31174552082525403,-3.171745520825254,8.62127239587373,0.5044444444444445,0.38222222222222224,-0.68,0.051568003619802294,0.039214744773441196,-0.10521977915786301
1589542848.6394565,0.2430400111919418,-3.29194180190263,9.209672635702296,0.5044444444444445,0.38222222222222224,-0.68,-0.005314519026362499,-0.007719901622012901,0.03375226998129635
1589542848.6494565,0.1817379231647014,-3.0291171548117153,8.424882464815518,0.5044444444444445,0.38222222222222224,-0.68,-0.01718396644123715,0.01993739096487598,0.2382660725373904
1589542848.6594565,0.18,-3.01,9.096695018226002,0.5044444444444445,0.38222222222222224,-0.68,0.007745826358334495,-0.016380134168106967,0.3413730413325118
1589542848.6694565,0.11186738277215452,-2.951600613804704,8.67600613804704,0.4611856398553362,0.40925897509041487,-0.7146070436712866,0.01839862340168477,-0.001731030345818365,0.4619585152092967
1589542848.6794565,0.14566670287887018,-2.9856667028788704,8.972083650190115,0.46,0.41,-0.7155555555555555,0.029243366090307053,-0.004008806088278448,0.5629324153048173
1589542848.6894565,-0.14060141030844156,-3.4680861911525973,8.747521306818182,0.46,0.41,-0.7155555555555555,0.0070241323375439535,-0.022769598447482463,0.6934860410883884
1589542848.6994565,11.048625282492667,-9.393781795451268,3.5195552243111985,0.46,0.41,-0.7155555555555555,-0.0980743260842242,-0.0074337204154489925,1.7687828219112656
1589542848.7094564,5.307180563075257,-3.936177585273417,8.073479967514889,0.46,0.41,-0.7155555555555555,-0.07161493077804121,-0.3129646373322902,1.9142525488884854
1589542848.7194564,0.8338880665679882,-2.3250082009841178,11.13277713325599,0.46882719259644495,0.4045678814791108,-0.6883949629511097,0.12647641151467232,-0.046843407915163504,1.5046781567089758
1589542848.7294564,-0.9843279092027895,-2.632031724326542,6.023453028852727,0.4744444444444445,0.4011111111111111,-0.6711111111111111,0.15141659056410733,0.18674527774378724,0.6998708248588945
1589542848.7394564,-0.07458255983762774,-3.69917774312517,10.059190366575084,0.4744444444444445,0.4011111111111111,-0.6711111111111111,-0.135493813829857,-0.25162567152140847,0.3026650825024712
1589542848.7494564,-0.01722542950546011,-3.9805780065382206,8.23196563956319,0.4744444444444445,0.4011111111111111,-0.6711111111111111,-0.04214517837389446,-0.014351085203140601,0.016816487709656547
1589542848.7594564,-0.14807280811449214,-4.241078227039044,8.718167291927191,0.4744444444444445,0.4011111111111111,-0.6711111111111111,-0.011641894178623425,-0.0017024053562595797,-0.07391776760940866
1589542848.7694564,-0.0006568845591035932,-4.355501834145168,8.837577525206967,0.4974548925014978,0.38993460776911376,-0.6796578489608738,-0.013844894175286119,-0.008481309371010392,-0.07812079755158399
1589542848.7794564,0.10739837966196397,-4.319729012431904,8.820270987568096,0.5133333333333333,0.38222222222222224,-0.6855555555555556,0.0025541347941886935,0.004153430770314239,-0.04352977074652465
1589542848.7894564,0.1183339757516294,-4.232775422244026,8.852222650501085,0.5133333333333333,0.38222222222222224,-0.6855555555555556,0.014483972236066327,0.007393361918943584,-0.023331214582616437
1589542848.7994564,0.06923926002846045,-4.1520245375177876,8.753668705049806,0.5133333333333333,0.38222222222222224,-0.6855555555555556,0.002540363276094205,0.012344457178697824,-0.007815166333025838
1589542848.8094563,0.1485058972896388,-4.251640016928257,8.844774136566876,0.5133333333333333,0.38222222222222224,-0.6855555555555556,-0.017941473768068837,-0.004444432431181257,-0.004021443712202651
1589542848.8194563,0.11670184224646754,-4.323883026292255,8.812818815954213,0.5133333333333333,0.38222222222222224,-0.6909545102247661,-0.011793107967805094,-0.008123187198933988,-0.003272492347489368
1589542848.8294563,0.08,-4.234060236192961,8.806899909156554,0.5133333333333333,0.38222222222222224,-0.6933333333333334,0.012256531070405953,0.0017911263077901793,-0.002467461211903539
1589542848.8394563,0.047292682277098486,-4.2,8.746408535123471,0.5133333333333333,0.38222222222222224,-0.6933333333333334,0.015868262128562287,0.0025794156807341807,-0.0012897078403670903
1589542848.8494563,0.11004390341249251,-4.214008780682498,8.82806146477749,0.5133333333333333,0.38222222222222224,-0.6933333333333334,0.002282603140295967,0.002181661564992912,-0.000326770322810902
1589542848.8594563,0.11741513484502886,-4.251618811216959,8.815796323628069,0.5133333333333333,0.38222222222222224,-0.6933333333333334,-0.009185196218587157,-0.00028196504796450077,-0.0014781759677744476
1589542848.8694563,0.09603358878199902,-4.286983205609,8.765083971954997,0.5096461401887783,0.3798758265847782,-0.6889757414352229,-0.01438797442574789,-0.0019561674730234017,-0.0019561674730234017
1589542848.8794563,0.09011205476797882,-4.28,8.78674136984532,0.5011111111111111,0.3744444444444445,-0.6788888888888889,0.00030656829205498275,0.00036768468717337827,0.00036768468717337827
1589542848.8894563,0.10477538582522364,-4.205673842524329,8.804775385825224,0.5011111111111111,0.3744444444444445,-0.6788888888888889,0.010859304613758338,0.001351287675319015,0.001351287675319015
1589542848.8994563,0.09639551595286001,-4.20720896809428,8.79639551595286,0.5011111111111111,0.3744444444444445,-0.6788888888888889,0.00709996327647305,0.0002505242297254002,0.0002505242297254002
1589542848.9094563,0.10297200349956255,-4.2514860017497815,8.791486001749782,0.5011111111111111,0.3744444444444445,-0.6788888888888889,-0.005335909000888832,-0.0042231518516138485,-0.0004643665686729772
1589542848.9194562,0.11211172713874658,-4.283664818583761,8.8,0.5011111111111111,0.38802980326104763,-0.6788888888888889,-0.011338546367853891,-0.005254269066310741,0.00043023854288933136
1589542848.9294562,0.1,-4.3034698419764075,8.816530158023593,0.5011111111111111,0.4088888888888889,-0.6788888888888889,-0.007791764058072466,-0.0035730191010171215,0.0004897772754409491
1589542848.9394562,0.09189292819678062,-4.2518929281967806,8.807304033279074,0.5011111111111111,0.4088888888888889,-0.6788888888888889,0.007694214086919747,-0.00082594573844152,-0.000648658608553418
1589542848.9494562,0.08,-4.22627139179161,8.760889368468877,0.5011111111111111,0.4088888888888889,-0.6788888888888889,0.012308851618135741,0.0017425951539403665,0.0003743897108636367
1589542848.9594562,0.08415852297703987,-4.220792614885199,8.82,0.5011111111111111,0.4088888888888889,-0.6788888888888889,0.0019222789503608112,-0.0014579943982598118,0.000637206295189067
1589542848.9694562,0.10087205882352941,-4.260872058823529,8.822718014705883,0.49960110294117643,0.40284885620915034,-0.6828149101307189,-0.008821773120857,0.0004978519608055517,0.00029648941084545216
1589542848.9794562,0.11161881630026364,-4.29,8.811618816300264,0.4955555555555556,0.38666666666666666,-0.6933333333333334,-0.008991524457701839,-8.829273257673041e-05,0.0005895617575365932
1589542848.9894562,0.09,-4.262950178541065,8.773770107124639,0.4955555555555556,0.38666666666666666,-0.6933333333333334,0.0028077439018809472,0.000500695224327654,0.001180271116337604
1589542848.9994562,0.10289395553339528,-4.233553022233303,8.798681866600186,0.4955555555555556,0.38666666666666666,-0.6933333333333334,0.007707708501872891,0.0028130247207936165,0.0014784053847945078
1589542849.0094562,0.1046752351605579,-4.23,8.825324764839442,0.4955555555555556,0.38666666666666666,-0.6933333333333334,0.0007365672985604919,0.0002974309524930536,0.0005099890428546316
1589542849.0194561,0.10816034575904916,-4.246320691518099,8.83,0.5055293114832823,0.38666666666666666,-0.6901598655381476,-0.006588712217432133,-0.003272492347489368,0.0008901556349785233
1589542849.0294561,0.11412209114414996,-4.2641220911441495,8.800610455720749,0.52,0.38666666666666666,-0.6855555555555556,-0.007252755475800209,-0.004554853130823315,0.00025812038999199
1589542849.0394561,0.10299786008956739,-4.245995720179135,8.758993580268703,0.52,0.38666666666666666,-0.6855555555555556,0.004475440772458654,-0.0008712640578941557,-0.00032701580673176857
1589542849.0494561,0.1,-4.211017811054609,8.807964377890782,0.52,0.38666666666666666,-0.6855555555555556,0.01267847924069182,0.0026715639747845257,0.0007903665961440348
1589542849.059456,0.11167825223435948,-4.217517378351539,8.847517378351538,0.52,0.38666666666666666,-0.6855555555555556,0.00462655240520592,0.0013616427940397668,0.001727780633646323
1589542849.069456,0.1070772857236397,-4.251537857127268,8.838462142872732,0.5142565714327287,0.38666666666666666,-0.6826838412719199,-0.0045310773193362845,-0.0009397663017373488,0.0017117784141242375
1589542849.079456,0.09536331360946745,-4.2853633136094675,8.820726627218935,0.5066666666666667,0.38666666666666666,-0.6788888888888889,-0.007050768719336264,-0.002181661564992912,0.0022609242987743114
1589542849.089456,0.09342479154050402,-4.25712395770252,8.783973540783528,0.5066666666666667,0.38666666666666666,-0.6788888888888889,-0.0008070328638192905,0.0021218023083766717,0.0011207604108045763
1589542849.099456,0.10039993891147891,-4.2244000916327815,8.796399786190175,0.5066666666666667,0.38666666666666666,-0.6788888888888889,0.005585033615210078,0.0020944084298410467,0.0011344573500723886
1589542849.109456,0.10690415200044229,-4.213095847999558,8.83,0.5066666666666667,0.38666666666666666,-0.6788888888888889,0.00636271385287831,0.0,0.001506252305823387
1589542849.119456,0.10335003739715783,-4.228375093492894,8.83167501869858,0.5066666666666667,0.3859222139117427,-0.6800055680212749,-0.0003708987836371644,-0.0007308647830668102,0.00018271619576670255
1589542849.129456,0.11625254660040746,-4.27,8.813767826202852,0.5066666666666667,0.38222222222222224,-0.6855555555555556,-0.008044599229899845,-0.0027281881202872085,0.0014996145349211098
1589542849.139456,0.10354303344090215,-4.266771516720451,8.763543033440902,0.5066666666666667,0.38222222222222224,-0.6855555555555556,-0.0055570902120752825,0.00035217289421070726,0.0018294886707822047
1589542849.149456,0.09844861057185646,-4.247327084142215,8.758448610571856,0.5066666666666667,0.38222222222222224,-0.6855555555555556,0.004316432350883559,0.0020124312306070567,0.0001692303343858554
1589542849.159456,0.1070992656025582,-4.224198531205117,8.78740440638465,0.5066666666666667,0.38222222222222224,-0.6855555555555556,0.008093804185456481,0.0029560713102317854,-0.00045798870798129034
1589542849.169456,0.1033415389839141,-4.230049233903484,8.83,0.5066666666666667,0.3863063254247839,-0.6807288881343463,0.0028999311104133106,0.002181661564992912,0.0007263254240399135
1589542849.179456,0.11,-4.277573824541284,8.826213087729357,0.5066666666666667,0.3944444444444444,-0.6711111111111111,-0.007254939462786868,0.0013554854699068992,0.00041308804754300636
1589542849.189456,0.09227999423880168,-4.29,8.755026645542273,0.5066666666666667,0.3944444444444444,-0.6711111111111111,-0.005555962690684454,0.001288635183355312,0.001090830782496456
1589542849.199456,0.09891317562433515,-4.25217364875133,8.773043918747785,0.5066666666666667,0.3944444444444444,-0.6711111111111111,0.003035384050660823,0.001493959092800032,-0.00028457416188930394
1589542849.209456,0.1001113521330441,-4.220111352133045,8.819888647866955,0.5066666666666667,0.3944444444444444,-0.6711111111111111,0.00599349598700945,0.0016301728570236262,-0.0005514887079692857
1589542849.219456,0.09845432546884453,-4.226908650937689,8.842681488203267,0.5019698191839753,0.3911566512065604,-0.6682930026214963,0.003317201231647949,0.002181661564992912,-0.000922223846665939
1589542849.229456,0.10423970565999698,-4.255760294340003,8.84271911697999,0.4955555555555556,0.38666666666666666,-0.6644444444444444,-0.004232583973654158,-0.00033174098793325004,-0.000924960288529831
1589542849.239456,0.10616220592203715,-4.266162205922037,8.756053528935555,0.4955555555555556,0.38666666666666666,-0.6644444444444444,-0.006544984694978735,-0.000837276783424898,-0.001344384781568014
1589542849.249456,0.10442073106052571,-4.253262193181577,8.760213420455269,0.4955555555555556,0.38666666666666666,-0.6644444444444444,-0.0004589463919738145,0.0,-0.0009644539043919278
1589542849.259456,0.1,-4.234009367016747,8.808985949474879,0.4955555555555556,0.38666666666666666,-0.6644444444444444,0.005997014846178537,-0.000653476686477085,0.0
1589542849.269456,0.1,-4.222103888731195,8.826844166903207,0.4955555555555556,0.38666666666666666,-0.6644444444444444,0.009243730394734374,-0.0019521629058994198,0.0
1589542849.279456,0.1167331423113658,-4.263266857688634,8.825099713467049,0.4744444444444445,0.4011111111111111,-0.6933333333333334,-0.00124725612507909,0.000912651336056586,-0.001090830782496456
1589542849.289456,0.10070907354345751,-4.279290926456543,8.801063610315188,0.4744444444444445,0.4011111111111111,-0.6933333333333334,-0.0073650977405851446,3.867396241286373e-05,-0.001090830782496456
1589542849.299456,0.0925530291753498,-4.262340912473951,8.7151060583507,0.4744444444444445,0.4011111111111111,-0.6933333333333334,-0.005407877227008704,-0.002994000066181057,0.001090830782496456
1589542849.3094559,0.1,-4.23936297279363,8.739555408095555,0.4744444444444445,0.4011111111111111,-0.6933333333333334,0.0012992974482953805,-0.0019731948991939872,0.000951853005297173
1589542849.3194559,0.09427910369984367,-4.23,8.871418655549766,0.4855684094725262,0.3957080423831857,-0.691108540327717,0.003739270151217763,0.001090830782496456,-0.001090830782496456
1589542849.3294559,0.08534208515662986,-4.238013127734945,8.847328957421684,0.5133333333333333,0.38222222222222224,-0.6855555555555556,0.00014210273894367607,0.0005080996893395314,-0.00021673414276106914
1589542849.3394558,0.1,-4.2649032986682975,8.781160415980425,0.5133333333333333,0.38222222222222224,-0.6855555555555556,-0.00545415391248228,-0.001090830782496456,0.0011119277403622526
1589542849.3494558,0.1,-4.259246268458867,8.752261194623399,0.5133333333333333,0.38222222222222224,-0.6855555555555556,-0.003694578703716621,-0.001090830782496456,-0.0005865250695885528
1589542849.3594558,0.10822964418249291,-4.237655533726261,8.800574110456232,0.5133333333333333,0.38222222222222224,-0.6855555555555556,0.0009603406561467386,-0.0019885457028220705,-0.00019311586217084166
1589542849.3694558,0.11731586733104951,-4.22,8.838052398006852,0.511543911554033,0.3801345634797052,-0.6837661337762553,0.005746947366441835,-0.0026869054395702568,0.00021245042061778907
1589542849.3794558,0.11,-4.24242000464864,8.833095994421631,0.5066666666666667,0.3744444444444445,-0.6788888888888889,0.0016536984520886455,-0.000601702158207447,-0.001203404316414894
1589542849.3894558,0.11,-4.277888338849995,8.768446644600019,0.5066666666666667,0.3744444444444445,-0.6788888888888889,-0.005654049556036509,-0.000430242142016895,0.000430242142016895
1589542849.3994558,0.10193913323605769,-4.277908699854087,8.732091300145914,0.5066666666666667,0.3744444444444445,-0.6788888888888889,-0.005877207157533018,-0.0006511787025109124,0.001090830782496456
1589542849.4094558,0.09174036970979947,-4.256519260580401,8.769144066807794,0.5066666666666667,0.3744444444444445,-0.6788888888888889,-0.0019435781508277828,0.0,0.001090830782496456
1589542849.4194558,0.09873168536329238,-4.242536629273415,8.846048538996216,0.5066666666666667,0.3744444444444445,-0.6788888888888889,0.0033948614766577904,0.0,0.001090830782496456
1589542849.4294558,0.11667729005125509,-4.23664541989749,8.85335458010251,0.5011111111111111,0.3744444444444445,-0.6711111111111111,0.0007318558476336454,0.001090830782496456,0.001090830782496456
1589542849.4394557,0.09961425757794111,-4.270771484844118,8.782878416678676,0.5011111111111111,0.3744444444444445,-0.6711111111111111,-0.003881024694952083,0.0005243764058433989,0.001090830782496456
1589542849.4494557,0.09,-4.276275718554911,8.754017492528908,0.5011111111111111,0.3744444444444445,-0.6711111111111111,-0.005079882195783567,0.0,0.0007165590657977438
1589542849.4594557,0.09,-4.250025659881401,8.79995509520755,0.5011111111111111,0.3744444444444445,-0.6711111111111111,-0.004364022894698517,0.0,6.997647126931808e-07
1589542849.4694557,0.09824750990270353,-4.228247509902704,8.837009960389185,0.5032530434522512,0.37658637678558465,-0.6724741589645639,0.0033286636514836283,0.002181661564992912,0.001090830782496456
1589542849.4794557,0.09018247894473715,-4.220182478944737,8.86927008422105,0.5131103035119879,0.38644363684532124,-0.67874696082076,0.0086072140699256,0.002181661564992912,0.001090830782496456
1589542849.4894557,0.12306629674585284,-4.252265186983411,8.80707184555806,0.5133333333333333,0.38666666666666666,-0.6788888888888889,-0.0005815746568260394,-0.002181661564992912,-0.0006689621757289982
1589542849.4994557,0.125501756241266,-4.277750878120633,8.725743853155569,0.5133333333333333,0.38666666666666666,-0.6788888888888889,-0.004608664267945804,-0.0016909792890729516,-0.0014456381511129715
1589542849.5094557,0.1065835725677831,-4.27,8.797082137161084,0.5133333333333333,0.38666666666666666,-0.6788888888888889,-0.0039634562287912695,0.0,0.0003454819406509509
1589542849.5194557,0.1,-4.269218302397676,8.831042263469763,0.5135070439116274,0.3868693290080097,-0.6794389723868199,-0.0009487141479601677,5.68466538145153e-05,-0.0010624074555891983
1589542849.5294557,0.1,-4.23656572139104,8.852828606955196,0.52,0.3944444444444444,-0.7,0.0028648364010564337,0.0025562832472252597,0.0003746216822323475
1589542849.5394557,0.1,-4.238083306501186,8.793055644996048,0.52,0.3944444444444444,-0.7,-0.0002939173185282287,0.002390740391904682,0.001090830782496456
1589542849.5494556,0.10355885680761011,-4.27067657042283,8.730676570422832,0.52,0.3944444444444444,-0.7,-0.0030318860606155422,0.0,0.00031440867124882135
1589542849.5594556,0.11242798621496847,-4.277860068925158,8.764567917289812,0.52,0.3944444444444444,-0.7,-0.0046910192230434754,-0.0007945566308293972,-0.0005611263619435244
1589542849.5694556,0.11703916515273141,-4.24,8.812960834847269,0.5211514357739377,0.3932930086705066,-0.6968746743278831,0.001413807761825332,-0.0029495153681604923,0.001090830782496456
1589542849.5794556,0.09947476392054706,-4.24,8.83157570823836,0.5277777777777778,0.38666666666666666,-0.6788888888888889,0.003272492347489368,-0.0009762420457874502,0.0012054195192054617
1589542849.5894556,0.09699063996517196,-4.2434953199825864,8.814560840226383,0.5277777777777778,0.38666666666666666,-0.6788888888888889,0.0013660910316494854,0.001090830782496456,0.0021286515579854387
