time,acc_x,acc_y,acc_z,mag_x,mag_y,mag_z,gyr_x,gyr_y,gyr_z
1589543100.358116,0.21,-4.27,8.83,0.44222222222222224,0.2888888888888889,-0.6344444444444445,0.009817477042468105,0.009817477042468105,0.0
1589543100.368116,0.21,-4.27,8.88,0.4488888888888889,0.2966666666666667,-0.6488888888888888,0.008726646259971648,0.01308996938995747,0.0002523023974286277
1589543100.378116,0.21,-4.27,8.854213129712338,0.4488888888888889,0.2966666666666667,-0.6488888888888888,0.008375032361296327,0.012386741592606828,0.0003876029851458136
1589543100.388116,0.21,-4.2643047484642205,8.8,0.4488888888888889,0.2966666666666667,-0.6488888888888888,0.007946443261939617,0.01152956339389341,-0.0007802029980320305
1589543100.3981159,0.20849711679492072,-4.251502883205079,8.80150288320508,0.4488888888888889,0.2966666666666667,-0.6488888888888888,0.007579072376153472,0.012926030263697732,-0.00032787825251947883
1589543100.4081159,0.20006992023467482,-4.259930079765325,8.809930079765326,0.4488888888888889,0.2966666666666667,-0.6488888888888888,0.0011442205835083177,0.01200676572189128,-0.00216640733613238
1589543100.4181159,0.2121934976836532,-4.275613004632694,8.841226009265387,0.4488888888888889,0.3088888888888889,-0.6411111111111111,0.0015693777414291748,0.0075020786128441735,-0.002793945388556649
1589543100.4281158,0.21883513738551208,-4.258835137385512,8.799516236469609,0.4488888888888889,0.3088888888888889,-0.6411111111111111,0.0033995591472156415,0.011035374624690833,-0.0009637639827701827
1589543100.4381158,0.21204672443112801,-4.247953275568872,8.724093448862257,0.4488888888888889,0.3088888888888889,-0.6411111111111111,0.003916797127433424,0.012222401608737214,-0.0004465260025523998
1589543100.4481158,0.22,-4.24,8.741674474297838,0.4488888888888889,0.3088888888888889,-0.6411111111111111,0.002059890357754163,0.012724655768241224,-0.0024252039794704096
1589543100.4581158,0.22,-4.24,8.768107472218137,0.4488888888888889,0.3088888888888889,-0.6411111111111111,0.00013762850407902276,0.006957870207215803,-0.00626972768682069
1589543100.4681158,0.18834662853702588,-4.27,8.831653371462973,0.4566666666666666,0.2888888888888889,-0.6344444444444445,-0.003092137498818032,0.0012798873216362315,-0.012359848304803687
1589543100.4781158,0.1820337146297411,-4.27,8.837966285370259,0.4566666666666666,0.2888888888888889,-0.6344444444444445,-0.0024035054170864116,-0.0021632730870218705,-0.013737112468266926
1589543100.4881158,0.17,-4.279686987175591,8.742191089770863,0.4566666666666666,0.2888888888888889,-0.6344444444444445,-0.0011591195873327381,-0.007635815477475192,-0.01305582498753933
1589543100.4981158,0.17,-4.271189448732754,8.801673858870723,0.4566666666666666,0.2888888888888889,-0.6344444444444445,-0.003012994889111496,-0.007635815477475192,-0.01212888733664995
1589543100.5081158,0.19075677784279305,-4.289621611078603,8.84113516676419,0.45612010489131605,0.28918319138330845,-0.634150141950025,-0.004404598958307321,-0.014982700156699908,-0.009817477042468105
1589543100.5181158,0.2089363500422599,-4.28053182497887,8.868404525063388,0.44299041385836785,0.29625302501643447,-0.627080308316899,-0.005396140806697083,-0.008041907217971565,-0.009817477042468105
1589543100.5281157,0.21,-4.271607081706732,8.800357509759605,0.44222222222222224,0.2966666666666667,-0.6266666666666667,-0.005103543073344147,-0.00545415391248228,-0.0056294593320513455
1589543100.5381157,0.21,-4.278788610369153,8.757268337785083,0.44222222222222224,0.2966666666666667,-0.6266666666666667,-0.0035367765672743973,-0.00545415391248228,-0.006412842585086221
1589543100.5481157,0.22,-4.2525920268825415,8.776480067206354,0.44222222222222224,0.2966666666666667,-0.6266666666666667,-0.0009494576468697196,-0.003656457451852142,-0.00545415391248228
1589543100.5581157,0.22,-4.268608141133343,8.81652035283336,0.44222222222222224,0.2966666666666667,-0.6266666666666667,-7.59141248319762e-05,0.0007112601583365756,-0.00545415391248228
1589543100.5681157,0.1977278831053554,-4.277727883105356,8.823183649316066,0.43666666666666665,0.3022222222222222,-0.6344444444444445,-0.0007435485150325776,-0.0008429812774855968,-0.00813151448749691
1589543100.5781157,0.18811357733175915,-4.268113577331759,8.788681463990555,0.43666666666666665,0.3022222222222222,-0.6344444444444445,-0.0030667155559577462,-0.0014404375407213533,-0.008994369876341618
1589543100.5881157,0.18,-4.261811059357458,8.749055296787292,0.43666666666666665,0.3022222222222222,-0.6344444444444445,-0.002576773424201708,-0.008426039195892784,-0.005651709842086678
1589543100.5981157,0.1821345966281176,-4.271067298314058,8.794269193256234,0.43666666666666665,0.3022222222222222,-0.6344444444444445,-0.0045961715010022055,-0.012231986978477397,-0.006428560509470545
1589543100.6081157,0.19382276717291347,-4.276911383586457,8.817645534345827,0.43666666666666665,0.3022222222222222,-0.6344444444444445,-0.0058711531231353765,-0.013506968600610566,-0.005791069698403959
1589543100.6181157,0.2,-4.272188647944069,8.861245408223722,0.43666666666666665,0.29180708614764783,-0.6344444444444445,-0.0073970710225313655,-0.017589145482664444,-0.006306240240034909
1589543100.6281157,0.2,-4.277448284328771,8.862551715671229,0.43666666666666665,0.2888888888888889,-0.6344444444444445,-0.0068233336952143115,-0.01691915973791799,-0.006544984694978735
1589543100.6381156,0.2002617569551299,-4.269869121522435,8.700654392387824,0.43666666666666665,0.2888888888888889,-0.6344444444444445,-0.006544984694978735,-0.01741046263831506,-0.006544984694978735
1589543100.6481156,0.21509807042676996,-4.2624509647866144,8.737745176066925,0.43666666666666665,0.2888888888888889,-0.6344444444444445,-0.006544984694978735,-0.014982876523270282,-0.006544984694978735
1589543100.6581156,0.21105288308378464,-4.268947116916215,8.776841350748645,0.43666666666666665,0.2888888888888889,-0.6344444444444445,-0.005569005640298488,-0.014180800172453925,-0.006544984694978735
1589543100.6681156,0.22620823457851796,-4.27,8.836728821024812,0.45287490124518454,0.29519209122497925,-0.6173357523893421,-0.00899024215411645,-0.017716888414088094,-0.007429006755387278
1589543100.6781156,0.21126304801670145,-4.283789144050105,8.803684759916493,0.4566666666666666,0.2966666666666667,-0.6133333333333333,-0.007635815477475192,-0.01786662401686001,-0.01063275349368675
1589543100.6881156,0.21832463465553237,-4.304973903966597,8.768376826722339,0.4566666666666666,0.2966666666666667,-0.6133333333333333,-0.007635815477475192,-0.02017752284053074,-0.009092154277906264
1589543100.6981156,0.22,-4.27,8.775124843945068,0.4566666666666666,0.2966666666666667,-0.6133333333333333,-0.006321371193747876,-0.015691621233754262,-0.006880404946825024
1589543100.7081156,0.22,-4.27,8.812527198145176,0.4566666666666666,0.2966666666666667,-0.6133333333333333,-0.004689385621775384,-0.010795664517836784,-0.009328383304783765
1589543100.7181156,0.2216134109118657,-4.2583865890881345,8.868386589088134,0.4566666666666666,0.3022222222222222,-0.6488888888888888,-0.0061581372274737926,-0.011999138607461015,-0.009465485384972348
1589543100.7281156,0.22849495577974313,-4.248494955779743,8.838929380916403,0.4566666666666666,0.3022222222222222,-0.6488888888888888,-0.010474176468257936,-0.012491663176803388,-0.007471640621027734
1589543100.7381155,0.21914135108891664,-4.24,8.726869191288667,0.4566666666666666,0.3022222222222222,-0.6488888888888888,-0.014461792371523965,-0.015833615353090465,-0.007013305026762135
1589543100.7481155,0.21133260624433886,-4.238223191674215,8.800888404162894,0.4566666666666666,0.3022222222222222,-0.6488888888888888,-0.017695567171988603,-0.022155800162792547,-0.012289868189915383
1589543100.7581155,0.2345924912656894,-4.207210011645747,8.816394994177127,0.4566666666666666,0.3022222222222222,-0.6488888888888888,-0.02192433360175817,-0.028076073164469945,-0.01736438790563886
1589543100.7681155,0.24,-4.12,8.91,0.44222222222222224,0.2966666666666667,-0.6344444444444445,-0.02072578486743266,-0.0272707695624114,-0.03272492347489368
1589543100.7781155,0.22894623213734963,-4.169741955381927,8.854731160686748,0.44222222222222224,0.2966666666666667,-0.6344444444444445,-0.01710844779328794,-0.020638984926479413,-0.03694515006139586
1589543100.7881155,0.22923386641580434,-4.219233866415804,8.736129068673566,0.44222222222222224,0.2966666666666667,-0.6344444444444445,-0.011159024454108053,-0.010235338091040595,-0.04237525609793279
1589543100.7981155,0.23715881039144232,-4.25621174718859,8.76378825281141,0.44222222222222224,0.2966666666666667,-0.6344444444444445,-0.007635815477475192,-0.004363323129985824,-0.03745591740112709
1589543100.8081155,0.21250675913953215,-4.223342345519376,8.796657654480624,0.44222222222222224,0.2966666666666667,-0.6344444444444445,-0.007635815477475192,-0.004363323129985824,-0.031181300251098835
1589543100.8181155,0.1909620534586428,-4.1343292405638925,8.79048102672932,0.4369339037385119,0.301954985150377,-0.6344444444444445,-0.008674174383616909,-0.008516758754552694,-0.025351467379192177
1589543100.8281155,0.2,-4.067206407509438,8.844878413767303,0.43666666666666665,0.3022222222222222,-0.6344444444444445,-0.01641325068215444,-0.017656448298773705,-0.020827362756847868
1589543100.8381155,0.2,-4.024411794714825,8.766421623643845,0.43666666666666665,0.3022222222222222,-0.6344444444444445,-0.017191278698177447,-0.02076856036286573,-0.02238341878889388
1589543100.8481154,0.08887369580714147,-3.8692491305380945,8.862252608385717,0.43666666666666665,0.3022222222222222,-0.6344444444444445,-0.026220892356049106,-0.030584215486034932,-0.03414338286646344
1589543100.8581154,0.06169269651999222,-3.8511284643466617,8.916614606960016,0.43666666666666665,0.3022222222222222,-0.6344444444444445,-0.027209221380096994,-0.03157254451008282,-0.04205001505884654
1589543100.8681154,0.0718083448166806,-3.8367795423227236,8.868926514107574,0.43666666666666665,0.2966666666666667,-0.6266666666666667,-0.019517854939332866,-0.019400755793729525,-0.0414885082069317
1589543100.8781154,0.14257683896859155,-3.7971636267512556,8.845996683728641,0.43666666666666665,0.2966666666666667,-0.6266666666666667,-0.018671417039488335,-0.017453292519943295,-0.0325976297378451
1589543100.8881154,-0.2907629446044611,-3.5936948221582155,8.644016344028401,0.43666666666666665,0.2966666666666667,-0.6266666666666667,-0.02086013239230038,-0.0182593776691496,-0.02946848171095903
1589543100.8981154,-0.15028803000870786,-3.6498847879965166,9.009251121977359,0.43666666666666665,0.2966666666666667,-0.6266666666666667,-0.022903257205761824,-0.030518126549918267,-0.013123483203267474
1589543100.9081154,0.15830337207964093,-3.6981724018874442,8.740234549430314,0.43666666666666665,0.2966666666666667,-0.6266666666666667,-0.012397858663302739,-0.011626003925479664,0.051018516001691806
1589543100.9181154,0.05991016972271479,-3.220322882363257,8.94231610124905,0.446277683595636,0.3010353107252891,-0.6327827683487381,-0.02057695115790909,-0.018628339120367828,0.07403745846340172
1589543100.9281154,0.0020072771376591875,-2.8720072771376595,8.879927228623409,0.4488888888888889,0.3022222222222222,-0.6344444444444445,-0.04003229899875487,-0.036540846682189494,0.12231824919009304
1589543100.9381154,0.018387335899949783,-2.8908063320500252,8.708869652550275,0.4488888888888889,0.3022222222222222,-0.6344444444444445,-0.0377039468796361,-0.033481193516667035,0.21610698809182483
1589543100.9481153,0.01204686423156444,-2.921259172173349,8.856770178781368,0.4488888888888889,0.3022222222222222,-0.6344444444444445,-0.045342466333476855,-0.05477344071899361,0.2687222518080468
1589543100.9581153,0.15657822191592008,-3.1763145092633884,9.417891920379455,0.4488888888888889,0.3022222222222222,-0.6344444444444445,-0.05276172534515218,-0.05755566284837186,0.28634299196077573
1589543100.9681153,0.13356253591266043,-3.209109366021835,8.431532273510822,0.43269446040562687,0.31335589180446494,-0.6020555874779204,0.02107511815000957,0.018699150393152703,0.36349883075796474
1589543100.9781153,0.15552624549218647,-3.3631574729531186,8.627806197408841,0.4311111111111111,0.3144444444444445,-0.5988888888888889,0.04042768656083115,0.006688568738808076,0.48226172342654855
1589543100.9881153,0.10918776694479987,-3.3391877669448,8.692703058263799,0.4311111111111111,0.3144444444444445,-0.5988888888888889,0.00027889521006464746,-0.03275541381610818,0.5696809061797651
1589543100.9981153,0.08,-3.3784776519783817,8.7,0.4311111111111111,0.3144444444444445,-0.5988888888888889,0.006814454195155969,-0.0282402917340807,0.7029892091305339
1589543101.0081153,0.08,-3.418251959789726,8.738846444710873,0.4311111111111111,0.3144444444444445,-0.5988888888888889,0.013925270320241347,-0.02746531429792663,0.7504460457547618
1589543101.0181153,0.08,-3.449197639029789,8.781396753665959,0.4311111111111111,0.3144444444444445,-0.5988888888888889,0.01603505153901147,-0.03126292049171285,0.7850464577425919
1589543101.0281153,0.07725621682034088,-3.511156747694887,8.831950265437273,0.4326354350998106,0.30956660768060607,-0.6086445624165658,0.015058889997648756,-0.035012955518537406,0.8415279448267106
1589543101.0381153,0.06667468473510604,-3.620665063052979,8.882684306417234,0.43666666666666665,0.2966666666666667,-0.6344444444444445,0.009089381885216817,-0.038541813012621134,0.9317818818135986
1589543101.0481153,0.041701775486145023,-3.625659644902771,8.82774390606952,0.43666666666666665,0.2966666666666667,-0.6344444444444445,0.011813503698942528,-0.04126593482634684,0.9497610857841883
1589543101.0581152,0.0015534415221040848,-3.6422977056519303,8.79639694086924,0.43666666666666665,0.2966666666666667,-0.6344444444444445,0.012392171388559718,-0.04408038849583179,0.9785763797905833
1589543101.0681152,-0.09852543951565958,-3.7005093724531375,8.846487949703109,0.4415043143038253,0.29549895861631803,-0.6354453370590291,0.005290383241387952,-0.0472888289047001,1.0426821416931062
1589543101.0781152,-0.15651509197811153,-3.7218739812550936,8.819019166957736,0.45133881676821774,0.2931251131938785,-0.6374800617068344,0.0049574521994284046,-0.05028520828233603,1.0689836940079105
1589543101.0881152,-0.21450474444056353,-3.7432385900570497,8.791550384212364,0.4611733192326102,0.29075126777143895,-0.6395147863546397,0.004624521157468857,-0.05328158765997195,1.0952852463227147
1589543101.0981152,-0.23278201237170726,-3.736969395083752,8.77837476542409,0.4688888888888889,0.2888888888888889,-0.6411111111111111,0.005733640918103491,-0.05563236990731925,1.1266540465007961
1589543101.1081152,-0.1381655795167019,-3.6590728661296685,8.817258292903736,0.4688888888888889,0.2888888888888889,-0.6411111111111111,0.010611398975173195,-0.05622618760690198,1.1699600865359274
1589543101.1181152,-0.1819789224448107,-3.707754358272012,8.856203486617611,0.4688888888888889,0.2888888888888889,-0.6411111111111111,0.009018300870171378,-0.05941238381690561,1.184829002182611
1589543101.1281152,-0.22422540577611827,-3.730985674007468,8.887887297111941,0.4688888888888889,0.28489822787811053,-0.6411111111111111,0.008557656015300818,-0.06102505393001595,1.2041850829458878
1589543101.1381152,-0.2632338005281332,-3.666638228722324,8.850127970749543,0.4688888888888889,0.27,-0.6411111111111111,0.012542227424828233,-0.05618011187244848,1.2300857571489001
1589543101.1481152,-0.3091096735886498,-3.6797456210253285,8.791144705386023,0.4688888888888889,0.27,-0.6411111111111111,0.013614573450006334,-0.055107765847270375,1.233660243899494
1589543101.1581151,-0.3549855466491664,-3.6928530133283335,8.7321614400225,0.4688888888888889,0.27,-0.6411111111111111,0.014686919475184437,-0.05403541982209228,1.2372347306500877
1589543101.1681151,-0.3957508774344505,-3.7157508774344508,8.734126901107976,0.4726807667897751,0.26299961002913314,-0.6393610136183944,0.014698912889722804,-0.05545522157062286,1.2577971060358704
1589543101.1781151,-0.4303882733466382,-3.7503882733466383,8.809174592251049,0.48101939913900543,0.24760521184593853,-0.6355124140725957,0.013439461633505094,-0.059863300967384854,1.298729271862946
1589543101.1881151,-0.399099497921503,-3.735459698752902,8.756379096258705,0.4833333333333333,0.2433333333333333,-0.6344444444444445,0.008628416721278991,-0.06287114488727293,1.319903185649336
1589543101.198115,-0.4408505344932747,-3.758250296940708,8.779550415716992,0.4833333333333333,0.2433333333333333,-0.6344444444444445,0.010101118958882386,-0.06511716299584984,1.3128420203304276
1589543101.208115,-0.5033755290875086,-3.7537025297765525,8.818765823407816,0.4833333333333333,0.2433333333333333,-0.6344444444444445,0.012317872941033462,-0.06335333439655935,1.2996684943103813
1589543101.218115,-0.573506708256605,-3.70800894434214,8.842251118042768,0.4860846998300491,0.23457898538923755,-0.6359451898062894,0.01358108716117426,-0.05563236990731925,1.2820519551535243
1589543101.228115,-0.6119963968021619,-3.745989190406486,8.89001801598919,0.4955555555555556,0.20444444444444448,-0.6411111111111111,0.01090634258540596,-0.05737848525513702,1.261432000303961
1589543101.238115,-0.7126361513311537,-3.753684820177487,8.817891078935077,0.4955555555555556,0.20444444444444448,-0.6411111111111111,0.012056650507847844,-0.05408207569667926,1.2438908998983784
1589543101.248115,-0.7759493025921916,-3.767974651296096,8.859746512960958,0.4955555555555556,0.20444444444444448,-0.6411111111111111,0.014829768412648782,-0.05235987755982988,1.2283031122375243
1589543101.258115,-0.78,-3.680009337976383,8.900767075851604,0.4955555555555556,0.20444444444444448,-0.6411111111111111,0.009985845647964415,-0.057645662866815855,1.2200529020323183
1589543101.268115,-0.7888874902187596,-3.604450039124962,8.936662470656279,0.5083930414270972,0.1866694640069253,-0.6519735991562616,0.010544239850402922,-0.05902621824632917,1.214458728893117
1589543101.278115,-0.8268946765884373,-3.5409685174585004,8.844073840870063,0.51,0.18444444444444444,-0.6533333333333333,0.013323058760939683,-0.055685194340175125,1.2116799099825803
1589543101.288115,-0.785142301458671,-3.3554269043760128,8.883143598055106,0.51,0.18444444444444444,-0.6533333333333333,0.005204730238585037,-0.0645149501624549,1.2088274863635398
1589543101.298115,-0.8435173848920137,-3.363819019334505,8.778844576438976,0.51,0.18444444444444444,-0.6533333333333333,0.013024162962971302,-0.05938725906669752,1.2025779191229833
1589543101.308115,-0.86,-3.39913008900988,8.82768023735968,0.51,0.18444444444444444,-0.6533333333333333,0.012623631139213836,-0.05569563161972292,1.197827091749714
1589543101.318115,-0.8839872869112974,-3.43,8.892866223634787,0.51,0.17949468682782754,-0.6609483450512055,0.01056507906965146,-0.054198310369509686,1.192216900752069
1589543101.328115,-0.8407962127805471,-3.258454255347206,8.90117097871667,0.51,0.17,-0.6755555555555556,0.01723870521592027,-0.051141312814354176,1.1759385698907336
1589543101.338115,-0.7574611136956654,-3.119230162422379,8.853153178664618,0.51,0.17,-0.6755555555555556,0.01698336970585706,-0.04842448911757073,1.1591921960076106
1589543101.348115,-0.85461793543897,-3.232310809980963,8.85153931181299,0.51,0.17,-0.6755555555555556,0.016782042955261322,-0.04698961309630344,1.1358062449796074
1589543101.358115,-0.9901402856152076,-3.3952104284228115,8.88521042842281,0.51,0.17,-0.6755555555555556,0.013166483323662416,-0.04581489286485115,1.092811341371873
1589543101.368115,-1.0274776116358295,-3.443303482181106,8.901651741090552,0.5223090104241039,0.14948498262649343,-0.6825892757979006,0.008786705260847965,-0.046965782648223924,1.0541126586635572
1589543101.378115,-1.1082681336593319,-3.5,8.983575387123064,0.5333333333333333,0.13111111111111112,-0.6888888888888889,0.008147714715096593,-0.048831435593529815,1.016696962373543
1589543101.388115,-1.0469472892119076,-3.400382667107147,8.800765334214294,0.5333333333333333,0.13111111111111112,-0.6888888888888889,0.008360253165406666,-0.044740759084751676,0.9901830939230034
1589543101.398115,-1.0803358819504358,-3.4273694701454795,8.770335881950436,0.5333333333333333,0.13111111111111112,-0.6888888888888889,0.011795628065794539,-0.03717168235717172,0.9591740008235536
1589543101.408115,-1.1865888130315008,-3.5302064119455423,8.876588813031502,0.5333333333333333,0.13111111111111112,-0.6888888888888889,0.008912697647476132,-0.04256491656776905,0.9222651332712042
1589543101.418115,-1.3296126211746817,-3.560944307165938,8.883777228663753,0.5333333333333333,0.0958945278675368,-0.7039817102789923,0.008520630395024209,-0.03603967229709751,0.8778335176038955
1589543101.428115,-1.34,-3.56,8.88,0.5333333333333333,0.09222222222222222,-0.7055555555555556,0.008726646259971648,-0.03490658503988659,0.8748462875621577
1589543101.438115,-1.3557786018267342,-3.528442796346532,8.80110699086633,0.5333333333333333,0.09222222222222222,-0.7055555555555556,0.007866057031103834,-0.03576717426875439,0.8387015399497095
1589543101.4481149,-1.352581639213426,-3.4977449176402775,8.861601968652316,0.5333333333333333,0.09222222222222222,-0.7055555555555556,0.010063468367973102,-0.035997415822383035,0.8209392183956469
1589543101.4581149,-1.3123211275390356,-3.4648807516926907,8.919305789691862,0.5333333333333333,0.09222222222222222,-0.7055555555555556,0.013648392753643096,-0.032343969250811656,0.8130995978364313
1589543101.4681149,-1.2601604255907144,-3.4301069503938098,8.959875224540557,0.5333333333333333,0.09222222222222222,-0.7055555555555556,0.017441626041766533,-0.02728632486664708,0.806145336808205
1589543101.4781148,-1.3823235294117646,-3.4744159663865544,8.83673949579832,0.5277777777777778,0.09777777777777777,-0.7055555555555556,0.014815132022443462,-0.02295786298119642,0.7480830423231
1589543101.4881148,-1.422404342619314,-3.40456308773583,8.633306633684748,0.5277777777777778,0.09777777777777777,-0.7055555555555556,0.0009120345007550303,-0.040801808328191885,0.7049956448675168
1589543101.4981148,-1.4714783543540393,-3.3518509583868683,8.701093688543933,0.5277777777777778,0.09777777777777777,-0.7055555555555556,0.006382405515501855,-0.027757191365047545,0.6795076036413481
1589543101.5081148,-1.5222330751094644,-3.4155826877736613,9.032306332098349,0.5277777777777778,0.09777777777777777,-0.7055555555555556,0.003751682663444573,-0.03552355290499509,0.666494944406051
1589543101.5181148,-1.52761998099311,-3.418733269977033,8.992553060901244,0.5300703738901649,0.08952443177318445,-0.7312326320142903,-0.0036535531364013715,-0.04579815504398247,0.666635786915551
1589543101.5281148,-1.5761119164975355,-3.3905131922296317,8.851881704841984,0.5333333333333333,0.07777777777777778,-0.7677777777777778,0.0044566241102225465,-0.029359130147167588,0.6780353022037604
1589543101.5381148,-1.6254287375254335,-3.3957145625423895,8.862858250169557,0.5333333333333333,0.07777777777777778,-0.7677777777777778,0.006638520713049599,-0.029826363818855953,0.6870986782820061
1589543101.5481148,-1.6135135041069193,-3.3770270082138385,8.788108032855353,0.5333333333333333,0.07777777777777778,-0.7677777777777778,0.003272492347489368,-0.034464360448681,0.6996352568146887
1589543101.5581148,-1.635065287653523,-3.374934712346477,8.885195862960568,0.5333333333333333,0.07777777777777778,-0.7677777777777778,0.003820281664810256,-0.03218188200971812,0.722711002294992
1589543101.5681148,-1.5879561322618891,-3.279342971940456,8.93,0.5223033124021136,0.06123274638094821,-0.7601946383875642,0.006393703953801929,-0.029340955435200173,0.7437157028234608
1589543101.5781147,-1.633123265786597,-3.293940973681998,8.981152778945598,0.5155555555555555,0.05111111111111112,-0.7555555555555555,0.006240839830372812,-0.03006072085661616,0.7599522630226724
1589543101.5881147,-1.7269599810561211,-3.3417399952640303,8.874990054463652,0.5155555555555555,0.05111111111111112,-0.7555555555555555,0.006734788734518967,-0.02971314045934219,0.7755577745173274
1589543101.5981147,-1.7852259857922372,-3.3373870071038816,8.88090394316895,0.5155555555555555,0.05111111111111112,-0.7555555555555555,0.003508223204326602,-0.03248919261805644,0.801790667061624
1589543101.6081147,-1.8234224063290496,-3.33,8.93063103746838,0.5155555555555555,0.05111111111111112,-0.7555555555555555,0.001090830782496456,-0.03592858031284127,0.8310648478730439
1589543101.6181147,-1.8855574133678887,-3.3522233833549304,8.902221293316057,0.5264203207512993,0.04024634591536737,-0.7609879381534275,0.001090830782496456,-0.036603407591783946,0.8941198352690447
1589543101.6281147,-1.994440251886651,-3.422960167924434,8.93012019591184,0.54,0.02666666666666667,-0.7677777777777778,0.001090830782496456,-0.035997415822383035,0.9468411192069236
1589543101.6381147,-2.0137309332458586,-3.3961165327210106,8.837156798425454,0.54,0.02666666666666667,-0.7677777777777778,0.001774679881790712,-0.037365114020971556,0.9776143286751652
1589543101.6481147,-2.015551529037688,-3.3644484709623117,8.83106681941457,0.54,0.02666666666666667,-0.7677777777777778,0.003998395194262879,-0.04120696676949257,1.0480082017916699
1589543101.6581147,-2.0347778422647838,-3.345222157735216,8.919407579372757,0.54,0.02666666666666667,-0.7677777777777778,0.004916816404438842,-0.0430958937918148,1.1160694896080878
1589543101.6681147,-2.1266959431200334,-3.3385217714577817,8.95147822854222,0.54,0.009623123751103677,-0.7739323904972867,0.005292904192740599,-0.043007191048739166,1.1747964161899482
1589543101.6781147,-2.2409982140579157,-3.3005080367393798,8.94,0.54,-0.013333333333333334,-0.7822222222222223,0.004145546605606827,-0.0472323884339161,1.261156898397082
1589543101.6881146,-2.28988629849035,-3.2799431492451747,8.900113701509651,0.54,-0.013333333333333334,-0.7822222222222223,0.0029068149348781686,-0.05380398284426325,1.3637119104177298
1589543101.6981146,-2.33901807066065,-3.30160722826426,8.885803614132131,0.54,-0.013333333333333334,-0.7822222222222223,0.0058047967255129155,-0.05056776115127216,1.4581295374505252
1589543101.7081146,-2.3812235676554243,-3.2923136936204793,8.911223567655425,0.54,-0.013333333333333334,-0.7822222222222223,0.006478249431828526,-0.05153598782993427,1.5375726795641176
1589543101.7181146,-2.426819278184742,-3.2619483651956402,8.95,0.5388093323804419,-0.021018551605026504,-0.7842788299287317,0.004469589966533295,-0.06031449354694749,1.6121007016131137
1589543101.7281146,-2.5263694504350416,-3.2880821000966756,8.970205250241689,0.5277777777777778,-0.09222222222222222,-0.8033333333333333,0.006335774269749439,-0.06282737520616087,1.7431321774860278
1589543101.7381146,-2.544662379421222,-3.252883172561629,8.933251161128975,0.5277777777777778,-0.09222222222222222,-0.8033333333333333,0.007635815477475192,-0.06517548293732665,1.8402116542694822
1589543101.7481146,-2.49,-3.175508824570571,8.856947052576572,0.5277777777777778,-0.09222222222222222,-0.8033333333333333,0.007635815477475192,-0.07030308132057445,1.9247686631861145
1589543101.7581146,-2.47358594211459,-3.1234935026580035,8.895471352628471,0.5277777777777778,-0.09222222222222222,-0.8033333333333333,0.007337399484023784,-0.07209766483607527,1.9745468838317983
1589543101.7681146,-2.4131480977732873,-2.9730369564372596,8.947074184898769,0.5281522644939269,-0.11019758459738252,-0.7935966787134549,0.00728028764267949,-0.07526732399225547,2.027288852659976
1589543101.7781146,-2.291787258034204,-2.817085134373238,8.8906213117835,0.5288888888888889,-0.14555555555555555,-0.7744444444444445,0.011934152071461885,-0.07045606527502012,2.063593288372247
1589543101.7881145,-2.154822444770259,-2.627555726746353,8.769933898262966,0.5288888888888889,-0.14555555555555555,-0.7744444444444445,0.004566900058405805,-0.07585642303465533,2.0856999820943094
1589543101.7981145,-2.2674896590704723,-2.701938699483596,9.06969349741798,0.5288888888888889,-0.14555555555555555,-0.7744444444444445,-0.0030610130400177374,-0.07999576141030654,2.0945153031286505
1589543101.8081145,-2.3602940858471184,-2.7070798387470463,8.987731183293947,0.5288888888888889,-0.14555555555555555,-0.7744444444444445,0.004076862741001613,-0.0705694207890754,2.1000165463422746
1589543101.8181145,-2.4573071439211764,-2.687836607009853,8.794614287842352,0.5275668153949101,-0.15228611152490193,-0.7766078374345915,0.009020391290332996,-0.06683690661899482,2.1034757330034104
1589543101.8281145,-2.600025455471108,-2.66993636132223,9.07980908396669,0.5166666666666667,-0.20777777777777776,-0.7944444444444444,-0.006529712508671555,-0.0872511904134093,2.1063970177618034
1589543101.8381145,-2.6150264495740587,-2.590158697444353,8.880264495740589,0.5166666666666667,-0.20777777777777776,-0.7944444444444444,0.005996684102773781,-0.07743744475342147,2.109118432755941
1589543101.8481145,-2.6258435179455444,-2.5019071008663367,8.893374071782178,0.5166666666666667,-0.20777777777777776,-0.7944444444444444,0.0030884652793717335,-0.08366325310711611,2.111971079625217
1589543101.8581145,-2.646343483292348,-2.4341412917691305,8.97537393316939,0.5166666666666667,-0.20777777777777776,-0.7944444444444444,0.0031138500795952016,-0.08415261252012127,2.1154139898468407
1589543101.8681145,-2.6316482025774364,-2.3747984022910544,8.9953478031502,0.505290945478601,-0.2203785766322506,-0.7932193667780373,0.01016111052433073,-0.07762080229817968,2.1154724950122854
1589543101.8781145,-2.4351881935705295,-2.2101254623803532,8.869749075239294,0.4444444444444444,-0.2877777777777778,-0.7866666666666666,0.005888876373393663,-0.08709418346743912,2.0778523122630355
1589543101.8881145,-2.4116825372737964,-2.1358814826055617,8.938990477635723,0.4444444444444444,-0.2877777777777778,-0.7866666666666666,-0.00022901694109546573,-0.09205111234287414,2.020648709123589
1589543101.8981144,-2.639439134928838,-2.121379184225173,8.90353438816888,0.4444444444444444,-0.2877777777777778,-0.7866666666666666,0.00891941723056691,-0.07289289145666729,1.9567953639852569
1589543101.9081144,-2.825378877110326,-2.159366456080237,8.962596280829496,0.4444444444444444,-0.2877777777777778,-0.7866666666666666,0.011053300287898377,-0.07046902347346819,1.9110108623338138
1589543101.9181144,-2.608598078245826,-1.9649192321320632,8.995955770473351,0.4121523507791928,-0.31720854668788057,-0.7711337608530013,0.013203038182949007,-0.0640198097883163,1.8337931115202686
1589543101.9281144,-2.4814871974745705,-1.7944475622588565,8.900007015082428,0.3566666666666667,-0.36777777777777776,-0.7444444444444445,0.008402955329774524,-0.06670290581077504,1.7294079434986287
1589543101.9381144,-2.6871581282775314,-1.8755965106897943,9.114772085518355,0.3566666666666667,-0.36777777777777776,-0.7444444444444445,-0.000220069279990335,-0.07692843177923575,1.5979252971561544
1589543101.9481144,-2.7290262273032955,-1.8251311365164762,8.925037659717553,0.3566666666666667,-0.36777777777777776,-0.7444444444444445,0.009962505452487976,-0.06291071272823054,1.5213024659022727
1589543101.9581144,-2.6098505452572907,-1.706567030171527,8.886865939656946,0.3566666666666667,-0.36777777777777776,-0.7444444444444445,0.010132232764411022,-0.06032675174264177,1.4611053655899726
1589543101.9681144,-2.454139484374372,-1.5958605156256285,9.079302578128143,0.3419485000022345,-0.3719172621521493,-0.7246669079891137,0.0019939261783419714,-0.06375531462012639,1.3806776352424248
1589543101.9781144,-2.4703460397255874,-1.5744809404116191,9.029307920548826,0.3211111111111111,-0.37777777777777777,-0.6966666666666667,0.008915381652290265,-0.04656599994117409,1.2788989730415081
1589543101.9881144,-2.5646991995868835,-1.5458834667355195,9.094699199586882,0.3211111111111111,-0.37777777777777777,-0.6966666666666667,0.005454842390469911,-0.049920537460738344,1.1816944174037387
1589543101.9981143,-2.706368571710591,-1.525363142828941,9.092625999407758,0.3211111111111111,-0.37777777777777777,-0.6966666666666667,-0.002845915169116605,-0.05727777901656788,1.0853523807217471
1589543102.0081143,-2.780296703296703,-1.5222551892551892,8.975489621489622,0.3211111111111111,-0.37777777777777777,-0.6966666666666667,0.0003851871334529611,-0.046873358338416396,1.0176998352748041
1589543102.0181143,-2.8379107142857145,-1.528656746031746,8.962686507936509,0.3211111111111111,-0.37777777777777777,-0.6966666666666667,0.004574996246113112,-0.040588644669426174,0.9618357137726687
1589543102.0281143,-2.8067391750883246,-1.4556856462081997,9.036103648015775,0.33,-0.3466666666666667,-0.6622222222222223,-0.00031010389511443087,-0.04137131018628874,0.8553499839759909
1589543102.0381143,-2.7,-1.384707756073224,9.074466362205932,0.33,-0.3466666666666667,-0.6622222222222223,0.0040971984308903805,-0.03500776852230182,0.8137971894905065
1589543102.0481143,-2.7847547041871503,-1.347242583488727,8.785293778606544,0.33,-0.3466666666666667,-0.6622222222222223,0.00460530671397885,-0.029841424454079942,0.7799854680815816
1589543102.0581143,-2.973517228626025,-1.4080053011156999,9.114265240707637,0.33,-0.3466666666666667,-0.6622222222222223,-0.01699091824417205,-0.04589648832528137,0.7618923502552011
1589543102.0681143,-2.7177726869961747,-1.33,8.930091634068855,0.3359395013435341,-0.35285364723284807,-0.6602423884410442,-0.0006099043282826351,-0.05054515816443688,0.7297458020375225
1589543102.0781143,-2.7507952014941455,-1.3364413476043389,9.147296171252066,0.3566666666666667,-0.3744444444444445,-0.6533333333333333,-0.006544984694978735,-0.05141651775877573,0.6999251736049854
1589543102.0881143,-2.82671396309054,-1.305035472317905,9.10021283390743,0.3566666666666667,-0.3744444444444445,-0.6533333333333333,0.009443548302623353,-0.01451282460685523,0.6964993240536168
1589543102.0981143,-2.780775371092874,-1.2563101484371497,8.987272523431544,0.3566666666666667,-0.3744444444444445,-0.6533333333333333,0.011459568961695019,-0.019782222844553478,0.654711411172218
1589543102.1081142,-2.8831406008174927,-1.267674114052145,9.34069645620858,0.3566666666666667,-0.3744444444444445,-0.6533333333333333,-0.01308996938995747,-0.057636288260560484,0.578101614666788
1589543102.1181142,-2.977665632836215,-1.2259937970172892,9.141294047776165,0.35511042189080994,-0.37107258076342153,-0.655408326367809,-0.006978610446183609,-0.03566712170561619,0.509559134140671
1589543102.1281142,-2.816099712105287,-1.1714499840058492,8.832899968011699,0.35,-0.36,-0.6622222222222223,0.0018980246252495118,-0.029411555505156582,0.4563326552677574
1589543102.1381142,-2.7944767314835044,-1.2009948292185566,8.96168086810866,0.35,-0.36,-0.6622222222222223,-0.009959679875522407,-0.04590283618115904,0.4150845086808705
1589543102.1481142,-2.9440956458063425,-1.207015152368614,8.95812595054357,0.35,-0.36,-0.6622222222222223,-0.0003968724172897318,-0.0262583424344221,0.3934500609035725
1589543102.1581142,-2.7121167369901547,-1.1084669479606188,8.59361111111111,0.35,-0.36,-0.6622222222222223,0.007739375361889414,-0.0073769157664396404,0.3815360932691261
1589543102.1681142,-2.7261623467952583,-1.1646493871810328,9.148412698412699,0.35,-0.36,-0.6622222222222223,-0.006049869819017414,-0.04185002871870671,0.3508933262004443
1589543102.1781142,-2.268885026460517,-1.0533101587631006,8.889024073881913,0.3422222222222222,-0.3555555555555556,-0.6555555555555556,0.0025427438723669596,-0.024488568128524128,0.28162829628336006
1589543102.1881142,-2.329076052796983,-1.0138152105593967,9.225903519798868,0.3422222222222222,-0.3555555555555556,-0.6555555555555556,-0.004779498041975358,-0.036334743757636505,0.14172486958602407
1589543102.1981142,-2.658926695496256,-1.0778533909925114,9.30062799282776,0.3422222222222222,-0.3555555555555556,-0.6555555555555556,-0.00918923398743766,-0.028041749108188088,0.0011222176232796041
1589543102.2081141,-2.650078894631368,-1.060157789262736,8.893629153042928,0.3422222222222222,-0.3555555555555556,-0.6555555555555556,0.013974254510526106,0.010564065055084865,-0.034588160477747876
1589543102.2181141,-2.574570183546811,-1.147808002112769,9.18457018354681,0.3459996772158399,-0.35627507079243514,-0.656634828410875,-0.005568235251414961,-0.016331204602916042,-0.10747182337931609
1589543102.2281141,-2.5407546237857415,-1.2147895285659405,9.136748806322375,0.3655555555555556,-0.36,-0.6622222222222223,-0.011036542254255346,-0.01295538909255052,-0.18584180098256026
1589543102.238114,-2.4859802469135803,-1.1634913580246913,8.836864197530865,0.3655555555555556,-0.36,-0.6622222222222223,0.001774956754728801,0.012760834768670888,-0.26690555322496856
1589543102.248114,-2.9038893690579086,-1.2016047248631518,8.884505906078939,0.3655555555555556,-0.36,-0.6622222222222223,-0.004821214357325881,0.01759471396970515,-0.35647224885783846
1589543102.258114,-2.8586975513461295,-1.2518138099038179,9.032185308076777,0.3655555555555556,-0.36,-0.6622222222222223,-0.007011734184528176,0.00949280266134495,-0.44410495766384056
1589543102.268114,-2.8155901410240123,-1.2825358912463474,9.186858086647186,0.36911305919055887,-0.35967659057863605,-0.6596349468513107,-0.013049085756259536,0.004030156162494847,-0.5180567565205132
1589543102.278114,-2.7029161217587374,-1.2444245772266065,8.796290642615558,0.37777777777777777,-0.3588888888888889,-0.6533333333333333,0.0010518215914921848,0.03533071775721171,-0.6156221950561426
1589543102.288114,-2.82,-1.25,8.59,0.37777777777777777,-0.3588888888888889,-0.6533333333333333,0.011999138607461015,0.05235987755982988,-0.6752242543653063
1589543102.298114,-2.744072547403133,-1.3710181368507832,9.25,0.37777777777777777,-0.3588888888888889,-0.6533333333333333,-0.027960969583488086,-0.001069023159680678,-0.7766476861269769
1589543102.308114,-3.1590074196207754,-1.4747518549051937,9.25,0.37777777777777777,-0.3588888888888889,-0.6533333333333333,-0.024189105155602776,0.019676231193688543,-0.8483131102567978
1589543102.318114,-3.288502800882702,-1.5918753182821253,8.976872772025123,0.379944359569211,-0.3569028555800751,-0.6547777211942888,0.003354429645274919,0.05450084822948184,-0.911566094080554
1589543102.328114,-2.9389380982769624,-1.557575239310785,9.266843650287173,0.3911111111111111,-0.3466666666666667,-0.6622222222222223,-0.014122882418080152,0.026042217042831918,-0.9546005111237791
1589543102.338114,-3.1850004605535855,-1.6591380739649058,9.157242205130567,0.3911111111111111,-0.3466666666666667,-0.6622222222222223,-0.026292824920396203,0.027289533680555478,-1.042119483464642
1589543102.348114,-2.9485234678788546,-1.5923489785859029,8.742535370684775,0.3911111111111111,-0.3466666666666667,-0.6622222222222223,-0.0049189046331873255,0.049622634491635474,-1.0806911761161697
1589543102.358114,-3.155263705569856,-1.7301758037132373,9.21727221279004,0.3911111111111111,-0.3466666666666667,-0.6622222222222223,-0.023294495505733738,0.031247043619089063,-1.1257948991669655
1589543102.368114,-3.4349770664906782,-1.8022171258868174,8.926341197822142,0.3964030871326697,-0.34798966067205633,-0.660458230215036,-0.014855599864896134,0.050386231539864094,-1.1512848008382826
1589543102.378114,-3.1102816458803892,-1.7732069134832564,8.968418147893548,0.4177777777777778,-0.3533333333333333,-0.6533333333333333,-0.009657928445055728,0.04806864802864796,-1.148994633963202
1589543102.388114,-3.451606247339884,-1.9444562260589573,9.347875053202317,0.4177777777777778,-0.3533333333333333,-0.6533333333333333,-0.019459739680671342,0.03626875591709829,-1.1704784665953334
1589543102.398114,-3.45936786395011,-2.014310775550991,9.192642720997798,0.4177777777777778,-0.3533333333333333,-0.6533333333333333,-0.01861307864863431,0.04812201036561666,-1.1916449923962587
1589543102.408114,-3.4869394642891978,-2.008505238104528,8.855515714313585,0.4177777777777778,-0.3533333333333333,-0.6533333333333333,-0.008392793603544398,0.0582294107431436,-1.2093082123189276
1589543102.418114,-3.5041192223765125,-2.0733604443562785,9.024037889307676,0.4200180740152968,-0.35380006171614975,-0.6547335184817827,-0.010999949728631936,0.05272644517449939,-1.2038189743577505
1589543102.428114,-3.2878284526146015,-2.11,8.916402129768173,0.4444444444444444,-0.3588888888888889,-0.67,-0.012904557197141621,0.05430875111733409,-1.2000302547498458
1589543102.438114,-2.938782875948541,-2.127972638507357,9.078446160959556,0.4444444444444444,-0.3588888888888889,-0.67,-0.015691740397661233,0.04771648146803683,-1.2106082865814827
1589543102.448114,-3.386322260620166,-2.2755908973364365,8.97906199308837,0.4444444444444444,-0.3588888888888889,-0.67,-0.018797899107587855,0.05190551218840566,-1.2701363135512347
1589543102.458114,-3.797422194146136,-2.389380922299431,8.947215834912614,0.4444444444444444,-0.3588888888888889,-0.67,-0.01899396179568908,0.06857620610211472,-1.2970653312895397
1589543102.468114,-3.8967060822771367,-2.5126587835445724,9.098227477636952,0.4476940687766999,-0.37119807196561433,-0.67,-0.016362461737446838,0.05473489132045046,-1.2812009002595415
1589543102.478114,-3.7942775644236653,-2.549264206600991,9.051280959536928,0.4811111111111111,-0.4977777777777778,-0.67,-0.015554007198585436,0.05743059841131943,-1.2494233532114787
1589543102.4881139,-4.065490084525358,-2.647589401820546,8.832612565019506,0.4811111111111111,-0.4977777777777778,-0.67,-0.00970550375912179,0.05918479546317439,-1.1988179765375158
1589543102.4981139,-3.7938249004414533,-2.680637483406909,9.087887815268731,0.4811111111111111,-0.4977777777777778,-0.67,-0.01840504599772236,0.03785317178082514,-1.1451201303537173
1589543102.5081139,-3.8761711628669167,-2.7137919662426513,8.959963129109568,0.4811111111111111,-0.4977777777777778,-0.67,-0.015843401554374824,0.04908738521234052,-1.0992532322289912
1589543102.5181139,-3.9932980062651873,-2.8066490031325935,9.114450332289135,0.49945584604424664,-0.5495746764125135,-0.6482638014657806,-0.014483487591035809,0.04878469779375864,-1.061686819165642
1589543102.5281138,-4.085428100987926,-2.892177704598122,9.04944749359678,0.6133333333333333,-0.8711111111111111,-0.5133333333333333,-0.014696081014094222,0.048572104370700225,-1.0139136418048045
1589543102.5381138,-3.674421073085424,-2.823347016103568,8.95359500619368,0.6133333333333333,-0.8711111111111111,-0.5133333333333333,-0.010096947618693425,0.051075208444411116,-0.9642132571596526
1589543102.5481138,-3.1176473757948058,-2.71,9.00447893091928,0.6133333333333333,-0.8711111111111111,-0.5133333333333333,-0.012176829169778441,0.03686118122537827,-0.9468953727262817
1589543102.5581138,-2.9231483703646357,-2.6847472323294883,9.184862390647984,0.6133333333333333,-0.8711111111111111,-0.5133333333333333,-0.007580670126312368,0.055628780814785686,-0.9949443752465599
1589543102.5681138,-3.004740255163177,-2.5984965108902514,8.107162895608655,0.6357659202869607,-0.8772250025453662,-0.5092873757665468,0.010088819950160356,0.08372316557076151,-1.0731628146015406
1589543102.5781138,-2.88,-2.8,9.7,1.1677777777777778,-1.022222222222222,-0.4133333333333333,-0.061086523819801536,-0.02617993877991494,-1.1715522604011936
1589543102.5881138,-3.15067553361671,-2.8356152017916725,8.980572923808218,1.1677777777777778,-1.022222222222222,-0.4133333333333333,-0.02689838439332387,0.03209529887885379,-1.1987473713086192
1589543102.5981138,-3.638878658613845,-3.0882058537821515,8.84394475651476,1.1677777777777778,-1.022222222222222,-0.4133333333333333,0.009499446680024677,0.0739073905953838,-1.2220384632094357
1589543102.6081138,-3.594592009122777,-3.0173472145964437,8.604796849262998,1.1677777777777778,-1.022222222222222,-0.4133333333333333,-0.003060955854781994,0.06327935768131661,-1.1911205492776038
1589543102.6181138,-3.2341834829227154,-2.941020420456599,8.856020721643274,1.1483330990770302,-0.9965983307565137,-0.4271656995227864,-0.006956847073431105,0.0624444606278897,-1.1229434976465187
1589543102.6281137,-2.94,-2.96,9.34,0.7866666666666666,-0.52,-0.6844444444444444,-0.03490658503988659,0.006544984694978735,-1.1115565673638887
1589543102.6381137,-2.9924032640168465,-2.9824585417215057,9.100442221637273,0.7866666666666666,-0.52,-0.6844444444444444,-0.015307810128047133,0.03675976268406457,-1.1344218047610346
1589543102.6481137,-3.3360354045384337,-3.1784892182487825,9.08622594154687,0.7866666666666666,-0.52,-0.6844444444444444,-0.01539507354973806,0.043571510002464404,-1.1615494088689415
1589543102.6581137,-3.6807834569657554,-3.381729499034651,9.113784168275583,0.7866666666666666,-0.52,-0.6844444444444444,-0.01944629500640669,0.042731059595891296,-1.1773160058567624
1589543102.6681137,-3.7904581386464486,-3.471282729436657,8.959201563372417,0.7771422414215325,-0.5083231622700899,-0.6853592197504742,-0.008726646259971648,0.05350353649271435,-1.161063724802765
1589543102.6781137,-3.183327316881071,-3.301568981359937,9.110189354161198,0.59,-0.2788888888888889,-0.7033333333333334,-0.010266990108095828,0.051118552795657954,-1.103642388137244
1589543102.6881137,-3.0663295812549225,-3.3084512011026517,8.979427179049619,0.59,-0.2788888888888889,-0.7033333333333334,-0.017023593540627983,0.03610387850114206,-1.0976365184194377
1589543102.6981137,-2.735080855898504,-3.1798477561067977,8.785689831471311,0.59,-0.2788888888888889,-0.7033333333333334,-0.010119505592016735,0.05145379191118399,-1.1192588117714244
1589543102.7081137,-2.5206402196553683,-3.092483052452187,8.920708009846619,0.59,-0.2788888888888889,-0.7033333333333334,-0.012718599447929375,0.04365651034344607,-1.1573788549914765
1589543102.7181137,-2.555617756037016,-3.1587413072444193,8.959685326811105,0.59,-0.2788888888888889,-0.7033333333333334,-0.013805748071592667,0.04540551524390257,-1.199330326904617
1589543102.7281137,-2.8199456480134732,-3.368037204317538,8.987688126770268,0.5801732629054072,-0.1953616235848495,-0.7288828497792748,-0.01032184953931252,0.05848257554677183,-1.2763422435456624
1589543102.7381136,-3.042044557461667,-3.426931645665705,8.98261367086686,0.5788888888888889,-0.18444444444444444,-0.7322222222222222,-0.010623200561276164,0.0616071400749212,-1.3121081541566106
1589543102.7481136,-2.991022903549594,-3.494577972442741,8.922409161419838,0.5788888888888889,-0.18444444444444444,-0.7322222222222222,-0.012058283753091035,0.0570189264179658,-1.3042720361686633
1589543102.7581136,-2.7231143352495666,-3.418032667214162,8.815245734099825,0.5788888888888889,-0.18444444444444444,-0.7322222222222222,-0.012893263505080247,0.061193825177911866,-1.2683679068331273
1589543102.7681136,-2.5648520639819568,-3.5332071104252605,8.65679288957474,0.5788888888888889,-0.18444444444444444,-0.7322222222222222,0.0024785752349652385,0.06840477245226707,-1.2536821359334378
1589543102.7781136,-2.5480510855012732,-3.593698054760717,9.30820281941564,0.5511111111111111,-0.11333333333333333,-0.7233333333333334,-0.03249577827967312,0.023242888424029377,-1.2878311621357421
1589543102.7881136,-2.0968379565816675,-3.2128019469331495,8.566040876981392,0.5511111111111111,-0.11333333333333333,-0.7233333333333334,-0.015176296028275447,0.0645216587738386,-1.2802147185110688
1589543102.7981136,-2.2858061269259555,-3.4182171522956617,9.011307197976617,0.5511111111111111,-0.11333333333333333,-0.7233333333333334,-0.003757703293790408,0.06291447547302616,-1.266185990337001
1589543102.8081136,-2.7892963320764124,-3.6689460562809684,9.12911963601234,0.5511111111111111,-0.11333333333333333,-0.7233333333333334,-0.025643990694376624,0.02882113010643944,-1.2770182839669921
1589543102.8181136,-2.5605567328367975,-3.5120960453738044,8.750065442986694,0.5511111111111111,-0.11333333333333333,-0.7233333333333334,-0.013524632601662137,0.05662436337796092,-1.2663247327087148
1589543102.8281136,-2.421891765257116,-3.5110952325172775,9.098854984186483,0.5755555555555556,-0.07111111111111111,-0.7177777777777777,-0.013079108359558948,0.040425905134760014,-1.2621292289547945
1589543102.8381135,-2.733053765959939,-3.6912416539768067,8.910520089024248,0.5755555555555556,-0.07111111111111111,-0.7177777777777777,-0.011292660524244089,0.051144592146649154,-1.2683817963783965
1589543102.8481135,-2.809499925841697,-3.829499925841697,8.81150022247491,0.5755555555555556,-0.07111111111111111,-0.7177777777777777,-0.012053688236001834,0.051868930902962504,-1.2012766307297027
1589543102.8581135,-2.8006967700976113,-3.8172129196095548,8.84487739068328,0.5755555555555556,-0.07111111111111111,-0.7177777777777777,-0.01286195190871823,0.04277041799860102,-1.095609367531341
1589543102.8681135,-2.80901813348147,-3.783927466074121,8.903126934370288,0.5755555555555556,-0.07111111111111111,-0.7177777777777777,-0.01013879210928274,0.04549357779803652,-1.0093759738825503
1589543102.8781135,-2.9167387251420456,-3.927792080965909,9.000317382812499,0.572818665167298,-0.04282991043244949,-0.7369360104955809,-0.008921831757319091,0.03506714944306301,-0.9230711475290875
1589543102.8881135,-2.718733842176536,-3.9794041610242523,8.909776560384095,0.5722222222222222,-0.03666666666666667,-0.7411111111111112,-0.0076114419963693065,0.03376700729517836,-0.8022421188897444
1589543102.8981135,-2.572435060938077,-3.9105576757355656,8.883959128400837,0.5722222222222222,-0.03666666666666667,-0.7411111111111112,-0.004795197043134735,0.02813451738870922,-0.7318359950588802
1589543102.9081135,-2.3880739753415527,-3.800353215594802,8.81772075974675,0.5722222222222222,-0.03666666666666667,-0.7411111111111112,-0.0016458786348363722,0.026591408438624037,-0.6925059800310882
1589543102.9181135,-2.41286556036556,-3.8219103735770403,8.935629709796377,0.5722222222222222,-0.03666666666666667,-0.7411111111111112,-0.006254524983253389,0.027073442348951142,-0.6484191472942203
1589543102.9281135,-2.073532347859474,-3.717844115953158,8.934071798809752,0.5889887161110045,-0.021496981719673215,-0.7195541903969626,-0.005284320208392316,0.023351610780606605,-0.6236873687377495
1589543102.9381135,-1.7578086971617046,-3.5788200677024564,8.928820067702457,0.5955555555555555,-0.015555555555555557,-0.7111111111111111,-0.0033276540534074688,0.01963495408493621,-0.6133594827632107
1589543102.9481134,-1.663153892891242,-3.5278520961722073,8.877852096172207,0.5955555555555555,-0.015555555555555557,-0.7111111111111111,-0.0057104011505474134,0.01963495408493621,-0.6268617163136705
1589543102.9581134,-1.6242432209708433,-3.51,8.901918926343052,0.5955555555555555,-0.015555555555555557,-0.7111111111111111,-0.007217170692606246,0.026682312521757675,-0.6677116779814545
1589543102.9681134,-1.5007991602244632,-3.51,8.943066946591845,0.5955555555555555,-0.015555555555555557,-0.7111111111111111,0.0017599347326279994,0.03745483903203878,-0.6937452837146338
1589543102.9781134,-1.6094026673912551,-3.6311122432805742,9.019824966601002,0.5433333333333333,-0.013333333333333334,-0.7411111111111112,-0.0008111020817339995,0.026860723102247377,-0.7482076830537205
1589543102.9881134,-1.7039475571033493,-3.748725801495442,8.607201679811533,0.5433333333333333,-0.013333333333333334,-0.7411111111111112,0.001590939210485203,0.044876686772397735,-0.7834808576279472
1589543102.9981134,-1.5406950732356859,-3.714356857523302,9.07118242343542,0.5433333333333333,-0.013333333333333334,-0.7411111111111112,-0.01434260915936485,0.01957046289087117,-0.8200342921234856
1589543103.0081134,-1.2513665830691336,-3.4846945535418543,9.02601287086547,0.5433333333333333,-0.013333333333333334,-0.7411111111111112,-0.020143540452226112,0.012581383022667566,-0.8757126342168409
1589543103.0181134,-1.3023099861303746,-3.5758772538141472,8.858947295423024,0.5433333333333333,-0.013333333333333334,-0.7411111111111112,0.01863663967185675,0.07058507280547317,-0.9256815740269506
1589543103.0281134,-1.0269690911055873,-3.335326920998595,8.62204258078461,0.5401824633452214,0.030778846500234158,-0.7327087911428125,0.03236665753433314,0.09727910557327968,-0.9976805769459541
1589543103.0381134,-12.837543711969984,-14.83073450539936,12.862923591235958,0.54,0.03333333333333333,-0.7322222222222222,0.009685907827859292,0.06571070292204167,-1.0883025810001037
1589543103.0481133,-29.49114395994159,-32.49644794491967,2.7113229709993742,0.54,0.03333333333333333,-0.7322222222222222,0.027978364385248818,0.08819447670334835,-1.1460097737261594
1589543103.0581133,4.559371962616815,2.5624971962616883,3.866291588785047,0.54,0.03333333333333333,-0.7322222222222222,-0.030758981343149597,0.48751817118540025,-1.047630621211929
1589543103.0681133,2.9224884083500373,0.598293952094596,15.05854238798113,0.54,0.03333333333333333,-0.7322222222222222,-0.3146011502213051,-0.43185299150317774,-1.3116745090334647
1589543103.0781133,0.7201264822134386,-0.00604743083003953,7.349897233201583,0.5353315766359246,0.08001756697408871,-0.7144822134387352,0.19411786490857091,0.07879851138697724,-1.1598695920681805
1589543103.0881133,-0.050942291081839786,-1.7633456596847334,10.143753239041242,0.5344444444444445,0.08888888888888889,-0.7111111111111111,-0.023811751275408022,0.14885076187862203,-0.8748405165938634
1589543103.0981133,-0.6170418503463675,-2.679824812503578,10.411638518348886,0.5344444444444445,0.08888888888888889,-0.7111111111111111,-0.15836556023673384,-0.11689419355001357,-0.5815417682869536
1589543103.1081133,-1.1046342397548834,-2.586269628494829,8.549031022596708,0.5344444444444445,0.08888888888888889,-0.7111111111111111,0.06100756287844125,0.12032561228142638,-0.15787926887929749
1589543103.1181133,-1.0653568539325844,-2.648928988764045,8.982145617977528,0.5344444444444445,0.08888888888888889,-0.7111111111111111,0.052554560213191395,0.07035824228830331,-0.037827903414565975
1589543103.1281133,-0.9726151712053734,-2.705738482879463,9.170799445133971,0.5395453181150779,0.10100346385664338,-0.7079230650669652,-0.01205974474205105,-0.015456396043319508,0.09392748295579599
1589543103.1381133,-1.0020752879037147,-2.8541505758074295,9.007581608797299,0.5433333333333333,0.11,-0.7055555555555556,-0.012296734510825004,-0.020121502017080534,0.2111382602896178
1589543103.1481133,-5.6700022984731575,-12.676923657855852,8.031789197176161,0.5433333333333333,0.11,-0.7055555555555556,0.03093170583819412,0.002932366617376535,0.29607403957699086
1589543103.1581132,-1.0978053804890981,-3.745649717514123,8.130077913071856,0.5433333333333333,0.11,-0.7055555555555556,-0.03434983394357235,-0.01983470277989742,0.1399620950666147
1589543103.1681132,-0.3199642496116768,-1.5174577775586182,9.96492788283735,0.5433333333333333,0.11,-0.7055555555555556,-0.041724848947393894,-0.04935918520464577,-0.21815351589011017
1589543103.1781132,-1.8954189763488545,-3.7403843311160383,8.904663710273468,0.5449656113985383,0.10591930483698776,-0.7096362507185678,0.06386832371718233,0.06987313352356339,-0.2181451944886889
1589543103.1881132,-1.6099570428670131,-4.804168343897383,9.5082393583466,0.5455555555555556,0.10444444444444444,-0.7111111111111111,-0.03334451037853879,0.008866862695379812,-0.02343053008711607
1589543103.1981132,-1.491388612630532,-4.110829189457981,9.166293717884967,0.5455555555555556,0.10444444444444444,-0.7111111111111111,-0.06349049210567617,-0.07179322774579651,0.0027624932465646103
1589543103.2081132,-1.7727122679798692,-3.665027869473456,8.43909518913361,0.5455555555555556,0.10444444444444444,-0.7111111111111111,0.034931377990189555,0.025816485934640254,0.0006162819075308731
1589543103.2181132,-1.5605327691196202,-3.9184464857054393,8.890117865620807,0.5455555555555556,0.10444444444444444,-0.7111111111111111,0.013980737596285465,0.016549667168877853,-0.0008503954208389649
1589543103.2281132,-1.6370563641589797,-3.967320807964671,8.843924847788028,0.5555408642330172,0.10444444444444444,-0.7065723344395377,-0.020589904903488984,-0.013353377560044217,-0.002873204213458943
1589543103.2381132,-1.6251489088575097,-3.8254467265725287,8.907642618741978,0.5577777777777778,0.10444444444444444,-0.7055555555555556,0.013938520914446816,0.006896851137887218,0.0006415037202532432
1589543103.2481132,-1.6262185645430998,-3.8784042099740974,8.845377225482803,0.5577777777777778,0.10444444444444444,-0.7055555555555556,0.01650910281447348,0.003034075415913862,0.00041249061984103175
1589543103.2581131,-1.6009495229301325,-3.8982121421975995,8.843575715604802,0.5577777777777778,0.10444444444444444,-0.7055555555555556,-0.0037418618254610667,-0.0026752885141974104,-0.000792228865850477
1589543103.2681131,-1.6226153730896014,-3.9226153730896014,8.853476925382079,0.5577777777777778,0.10444444444444444,-0.7055555555555556,-0.008773636648039932,0.000996850006359887,-0.0018023878414713318
1589543103.2781131,-1.6102774687728443,-3.9102774687728443,8.820277468772845,0.5528240225732518,0.11104945138381238,-0.7055555555555556,-0.0011513650782164703,0.0008408234477673472,-0.002181661564992912
1589543103.288113,-1.6,-3.9,8.90144565297454,0.5511111111111111,0.11333333333333333,-0.7055555555555556,0.00834550228723215,-0.001813667876183923,0.0005388402492829728
1589543103.298113,-1.6,-3.8853480939947778,8.854066422976501,0.5511111111111111,0.11333333333333333,-0.7055555555555556,0.0074200645285569895,0.002613163462829318,-0.0005074442267776202
1589543103.308113,-1.6218045094029032,-3.8945363396019355,8.851804509402903,0.5511111111111111,0.11333333333333333,-0.7055555555555556,-0.0005905243211973259,0.0059489918002471704,0.000494837887764891
1589543103.318113,-1.6360693301997649,-3.9242773207990598,8.853930669800235,0.5511111111111111,0.11333333333333333,-0.7055555555555556,-0.0012863086841776658,0.006544984694978735,-0.0008953528808152463
1589543103.328113,-1.6466348166348166,-3.9333651833651833,8.856634816634816,0.5474251018695463,0.11333333333333333,-0.7092415647971204,0.0007237462221477533,0.002202507362092216,-0.002905407787140665
1589543103.338113,-1.610919962502217,-3.914367985000887,8.899080037497782,0.5455555555555556,0.11333333333333333,-0.7111111111111111,0.0019434249401704068,0.0,-0.001567304032141466
1589543103.348113,-1.6068863401529243,-3.8962273196941517,8.868681959082455,0.5455555555555556,0.11333333333333333,-0.7111111111111111,0.004435211110258219,0.0015023663635102046,-0.001090830782496456
1589543103.358113,-1.6170967230862667,-3.8970967230862663,8.8287098307412,0.5455555555555556,0.11333333333333333,-0.7111111111111111,-0.0030613024846057888,0.002955793964728191,-0.00031669838276117705
1589543103.368113,-1.6378597672405502,-3.92976627873425,8.8438130229874,0.5455555555555556,0.11333333333333333,-0.7111111111111111,-0.007194384157452533,0.003272492347489368,0.0
1589543103.378113,-1.616186840913502,-3.9229494727308016,8.8735252636346,0.537290116667745,0.1178417545448664,-0.7073540934348336,-0.003209683303274977,0.001797114956089296,0.0
1589543103.388113,-1.6152656612251728,-3.9176328306125865,8.857101508162241,0.5333333333333333,0.12,-0.7055555555555556,0.002239619853419729,-0.0030722325123987764,-0.0016652253179580926
1589543103.398113,-1.6146832061068703,-3.8934160305343513,8.83936641221374,0.5333333333333333,0.12,-0.7055555555555556,0.004432436836052393,-0.0020434341528597732,-0.0010217170764298866
1589543103.408113,-1.6152945942817456,-3.880589188563491,8.856472971408728,0.5333333333333333,0.12,-0.7055555555555556,0.001988850058467609,0.0028877532116788917,-0.0011551012846715567
1589543103.418113,-1.62,-3.9115463730851414,8.869226813457429,0.5333333333333333,0.12,-0.7055555555555556,-0.0034411754837389555,0.003691395386550405,-0.001006489214371662
1589543103.428113,-1.6248975281834677,-3.9251024718165324,8.869795056366936,0.5420400501039425,0.12,-0.7017463669684141,-0.0027829666621470308,0.0005789492147917625,-0.0010684749001340997
1589543103.438113,-1.63,-3.906209563016328,8.859314344524492,0.5511111111111111,0.12,-0.6977777777777778,0.0015043033165867232,-0.001090830782496456,-0.0029338132232862735
1589543103.448113,-1.6082671216756885,-3.9,8.835511414450458,0.5511111111111111,0.12,-0.6977777777777778,0.004552350831833821,-0.0018810605381100924,-0.0016920328362620952
1589543103.458113,-1.5866743063666615,-3.8933371531833307,8.83,0.5511111111111111,0.12,-0.6977777777777778,0.0040005462311460144,-0.0014548577243247793,-0.0018176346231645886
1589543103.468113,-1.6015165990927704,-3.9061374493195777,8.846137449319578,0.5511111111111111,0.12,-0.6977777777777778,-0.0008349271618907283,0.001256266080006456,-0.001594887349367184
1589543103.478113,-1.6240735876679298,-3.9159264123320705,8.85592641233207,0.5456796608872048,0.1145685497760937,-0.7009461237417232,-0.0030302446829731143,0.003716851829826938,-0.00020211181782131625
1589543103.488113,-1.6401012507444908,-3.9150506253722455,8.865151876116736,0.5377777777777778,0.10666666666666667,-0.7055555555555556,0.0016638580309549873,0.002159572079224669,-1.104474288412139e-05
1589543103.498113,-1.616198963058976,-3.903099481529488,8.857465975372651,0.5377777777777778,0.10666666666666667,-0.7055555555555556,0.004977843322911971,-0.0006145201929261466,-0.001090830782496456
1589543103.508113,-1.5963639201973212,-3.877272159605358,8.865455680789285,0.5377777777777778,0.10666666666666667,-0.7055555555555556,0.0019831738881878496,0.0002975612272213162,-0.0003966347776375699
1589543103.518113,-1.611431967398687,-3.881431967398687,8.891431967398688,0.5377777777777778,0.10666666666666667,-0.7055555555555556,-0.0024940683885967194,0.0017143478796456358,-0.0006235170971491798
1589543103.528113,-1.614157098596683,-3.901685802806634,8.88247129579005,0.5423222566470243,0.11056193426887795,-0.7088016118907317,-0.004363323129985824,0.0009069382230269423,-0.001090830782496456
1589543103.5381129,-1.623674175518401,-3.91,8.849488736722398,0.5455555555555556,0.11333333333333333,-0.7111111111111111,0.0016031615023067271,-0.0014916211580731377,-0.001090830782496456
1589543103.5481129,-1.6176036925719193,-3.91,8.796612924001717,0.5455555555555556,0.11333333333333333,-0.7111111111111111,0.004363323129985824,-0.0008294341918089196,-0.001090830782496456
1589543103.5581129,-1.6044802295918368,-3.9044802295918366,8.814158163265306,0.5455555555555556,0.11333333333333333,-0.7111111111111111,0.0037612095826320725,0.0,0.00011339631221104736
1589543103.5681129,-1.5966266830236115,-3.8966266830236114,8.863493267905554,0.5455555555555556,0.11333333333333333,-0.7111111111111111,0.0018006051487044125,0.0007359435993924778,0.0007228589828002171
1589543103.5781128,-1.5902742817332305,-3.8902742817332303,8.88890287306708,0.5455555555555556,0.11333333333333333,-0.7111111111111111,-0.0009711527994227991,0.0021218225734560836,2.9919495768414165e-05
1589543103.5881128,-1.6226361166455352,-3.927363883354465,8.882091650063394,0.5644444444444444,0.10666666666666667,-0.7244444444444444,-0.003213100256705373,0.0018941058466727992,0.0
1589543103.5981128,-1.63,-3.9204685281590157,8.856251774727875,0.5644444444444444,0.10666666666666667,-0.7244444444444444,0.000255542469160315,0.001039722288664393,-5.110849383206301e-05
1589543103.6081128,-1.6234593517865294,-3.9234593517865295,8.802892268747147,0.5644444444444444,0.10666666666666667,-0.7244444444444444,0.004740679871608866,0.0007134740408734133,-0.0018043048233698695
1589543103.6181128,-1.61,-3.9071361459933147,8.861455416026741,0.5644444444444444,0.10666666666666667,-0.7244444444444444,0.0026476963260757326,0.002181661564992912,-0.0029600943367825506
1589543103.6281128,-1.61,-3.8963895759542515,8.893610424045749,0.5532120140798931,0.11428867298546938,-0.7196305457167795,-9.067772359395315e-05,0.002181661564992912,-0.002181661564992912
1589543103.6381128,-1.621873539180711,-3.909789231967852,8.90395784639357,0.5333333333333333,0.12777777777777774,-0.7111111111111111,-0.0017499274971430005,-0.00040874284210655736,-0.0008864593614431773
1589543103.6481128,-1.622429826071982,-3.922429826071982,8.833862579645256,0.5333333333333333,0.12777777777777774,-0.7111111111111111,0.0014646474274366916,-0.0030855840250192503,-0.0008257778749534046
1589543103.6581128,-1.61,-3.9044811905746175,8.82966928482844,0.5333333333333333,0.12777777777777774,-0.7111111111111111,0.002670483627095499,-0.00037563540381130517,-0.001579652844599043
1589543103.6681128,-1.6240555887627017,-3.9,8.879370392508468,0.5333333333333333,0.12777777777777774,-0.7111111111111111,0.002181661564992912,6.867952326536754e-05,-0.0005797551528809118
1589543103.6781127,-1.6255434919833354,-3.9048188360055547,8.894818836005555,0.5333333333333333,0.12402979421790176,-0.708433979996914,-0.0004466057603378375,-3.952385236415633e-05,0.0
1589543103.6881127,-1.615083540774669,-3.91,8.884749377675993,0.5333333333333333,0.12,-0.7055555555555556,-0.002717964071380894,0.0005363025063879818,0.0
1589543103.6981127,-1.62,-3.9007043771043772,8.828169696969697,0.5333333333333333,0.12,-0.7055555555555556,-0.0016746639851416972,0.0,-0.0010139951597024296
1589543103.7081127,-1.6307160889406738,-3.895358044470337,8.806790222351685,0.5333333333333333,0.12,-0.7055555555555556,0.0012470571543949191,0.0,-0.0010127175965472244
1589543103.7181127,-1.6365436810856657,-3.9,8.857650551314673,0.5333333333333333,0.12,-0.7055555555555556,0.002141414627725231,0.0007540518131760912,-0.0003770259065880456
1589543103.7281127,-1.6301909911547314,-3.9,8.908472070762148,0.5333333333333333,0.12,-0.7055555555555556,6.25017092297361e-05,0.0021399937588397542,-0.0010699968794198771
1589543103.7381127,-1.63,-3.8962109955423476,8.906210995542349,0.5255555555555556,0.10666666666666667,-0.7244444444444444,-0.0019174633219811404,0.0013550290255082277,-0.0002641982430117716
1589543103.7481127,-1.63,-3.901896955972826,8.856377828099637,0.5255555555555556,0.10666666666666667,-0.7244444444444444,-0.0019747357681729793,0.0,0.0002256597296188636
1589543103.7581127,-1.63,-3.9137050732927183,8.808884780121844,0.5255555555555556,0.10666666666666667,-0.7244444444444444,0.0006866699825861592,-0.0003433349912930796,-0.0004041607999102967
1589543103.7681127,-1.6229778510532138,-3.896488925526607,8.867555372366965,0.5255555555555556,0.10666666666666667,-0.7244444444444444,0.0025646603765143807,-0.0003248331594535186,0.0003248331594535186
1589543103.7781126,-1.6076582906748156,-3.8923417093251844,8.9,0.528417644730781,0.10666666666666667,-0.7213221653441986,0.0014844063165902492,0.001346271644053473,-0.001346271644053473
1589543103.7881126,-1.6027860821055644,-3.900928694035188,8.893499141753683,0.5377777777777778,0.10666666666666667,-0.7111111111111111,-0.0042620183258754215,0.0018777471526617044,-0.0020803567608825096
1589543103.7981126,-1.63,-3.9168817204301076,8.809354838709677,0.5377777777777778,0.10666666666666667,-0.7111111111111111,-0.0025218130993197637,-0.0003401515343268519,-0.001090830782496456
1589543103.8081126,-1.63,-3.919288302902703,8.784282262796397,0.5377777777777778,0.10666666666666667,-0.7111111111111111,0.0004671224077048815,-0.0004671224077048815,-0.0007013424849461217
1589543103.8181126,-1.6168884264987065,-3.9,8.836223147002586,0.5377777777777778,0.10666666666666667,-0.7111111111111111,0.002795742081416844,-0.0023189918153443197,0.0
1589543103.8281126,-1.6,-3.903604999546046,8.88802499773023,0.5449877768698699,0.11627999878945616,-0.7143155551520409,0.0017884171174216326,-0.00030434188735389725,-0.00039324444757127936
1589543103.8381126,-1.6048824661005021,-3.905117533899498,8.905352601698494,0.5577777777777778,0.13333333333333333,-0.72,-0.0005069525125804626,0.0016234252141887622,-0.0005582363508041498
1589543103.8481126,-1.6149800836240382,-3.9,8.83521908013558,0.5577777777777778,0.13333333333333333,-0.72,0.0005345526932607762,0.0010951758616914366,-0.0005432428516507377
1589543103.8581126,-1.62,-3.9,8.8196856743568,0.5577777777777778,0.13333333333333333,-0.72,0.0027313629073327603,-0.0005411294401566076,-0.0005497013423398484
1589543103.8681126,-1.62,-3.9037966082338835,8.875186432935534,0.5577777777777778,0.13333333333333333,-0.72,0.0017675158519329603,-0.0006766850694365042,-0.0016565828522398071
1589543103.8781126,-1.611049105006222,-3.9070163683354076,8.905967263329186,0.5541311168543868,0.1253769822277528,-0.72,0.001090830782496456,0.0003254637263368865,-0.0027360044983013912
1589543103.8881125,-1.594640664247837,-3.904640664247837,8.92,0.5455555555555556,0.10666666666666667,-0.72,-0.00042782304133495534,7.839489994218183e-05,7.839489994218183e-05
1589543103.8981125,-1.6075692344660486,-3.9175692344660487,8.863230741504635,0.5455555555555556,0.10666666666666667,-0.72,-0.002181661564992912,-0.0002651553869465643,-0.001090830782496456
1589543103.9081125,-1.62,-3.9270369565217393,8.784815217391305,0.5455555555555556,0.10666666666666667,-0.72,-0.0015352257578004468,0.001090830782496456,-0.0007676128789002234
1589543103.9181125,-1.62,-3.910909760380672,8.841210559111767,0.5455555555555556,0.10666666666666667,-0.72,0.0009915913197032023,9.923946279325369e-05,0.0
1589543103.9281125,-1.618897242558415,-3.8911027574415855,8.893308272324756,0.5446978553232116,0.10740183829439014,-0.7165691990706238,0.003513076700071003,-0.0023019537412837295,-0.00012029217629081736
1589543103.9381125,-1.6114615689524703,-3.9004871896508235,8.919025620698353,0.5377777777777778,0.11333333333333333,-0.6888888888888889,0.005082144884859979,-0.0031662040538829967,-0.001090830782496456
1589543103.9481125,-1.637301248328906,-3.912698751671094,8.867614979946872,0.5377777777777778,0.11333333333333333,-0.6888888888888889,-0.0018872734252786054,-0.0013852189222107625,-0.0013852189222107625
1589543103.9581125,-1.630019098216921,-3.919980901783079,8.78022917860305,0.5377777777777778,0.11333333333333333,-0.6888888888888889,-0.0010929140747872803,-0.0021795782727020876,-0.0021795782727020876
1589543103.9681125,-1.6148583114227286,-3.92,8.83085013146363,0.5377777777777778,0.11333333333333333,-0.6888888888888889,-0.0002495239563817484,0.0019012259562880094,-0.002181661564992912
1589543103.9781125,-1.601243548544162,-3.92,8.912538708735028,0.5377777777777778,0.11333333333333333,-0.6888888888888889,0.0019781864102678213,0.0011586558340714863,-0.002181661564992912
1589543103.9881124,-1.6301607005956242,-3.9,8.910160700595624,0.5455555555555556,0.10666666666666667,-0.7055555555555556,0.0003752967379303133,-0.001108360498143698,-1.7529715647242056e-05
1589543103.9981124,-1.6143519360116343,-3.904351936011634,8.850832575895293,0.5455555555555556,0.10666666666666667,-0.7055555555555556,-0.0025149985119801038,0.0015655533589910052,0.0007574938355092641
1589543104.0081124,-1.6234643067128927,-3.9169286134257852,8.806928613425786,0.5455555555555556,0.10666666666666667,-0.7055555555555556,-0.00209593968852643,0.0025595588052361442,-0.0007129335422532238
1589543104.0181124,-1.627141384692405,-3.9271413846924053,8.830005153576582,0.5455555555555556,0.10666666666666667,-0.7055555555555556,0.002493488122276921,0.002960665790205359,-0.00015591327864200458
1589543104.0281124,-1.6147895868304032,-3.9147895868304032,8.873236446093589,0.5455555555555556,0.10666666666666667,-0.7055555555555556,0.0038408602549814845,0.0016132936575007954,-0.0008295993449942863
1589543104.0381124,-1.6295389813267456,-3.91,8.898155925306982,0.5455555555555556,0.12,-0.7111111111111111,0.002081082892974602,-0.00015086800802746524,-0.0009902521104781458
1589543104.0481124,-1.6261724314327313,-3.91,8.829137842836342,0.5455555555555556,0.12,-0.7111111111111111,-0.0003366539104835991,-0.0012525688845877736,0.0004175229615292577
1589543104.0581124,-1.63406525342406,-3.91,8.769891244293234,0.5455555555555556,0.12,-0.7111111111111111,-0.001090830782496456,0.0037040792975794193,-0.001090830782496456
1589543104.0681124,-1.6128862932732904,-3.90711370672671,8.818658879819871,0.5455555555555556,0.12,-0.7111111111111111,-0.00046113927253297975,0.004509616647537065,-0.001090830782496456
1589543104.0781124,-1.6211972615244181,-3.9,8.849578092195344,0.5455555555555556,0.11920182565038795,-0.709514762411887,0.001090830782496456,0.0019204596198861385,-0.0009602298099430693
1589543104.0881124,-1.6288545869465996,-3.9,8.910836695572797,0.5455555555555556,0.11409694203560018,-0.6993049951823115,0.001090830782496456,0.00024989036346445494,-0.00012494518173222747
1589543104.0981123,-1.6149725321020525,-3.91,8.886739914394527,0.5455555555555556,0.11333333333333333,-0.6977777777777778,0.0005484116741093874,-0.001090830782496456,0.00036161273892471236
1589543104.1081123,-1.636176569714536,-3.91,8.830195814094571,0.5455555555555556,0.11333333333333333,-0.6977777777777778,-0.0017645900199815864,-0.001090830782496456,0.0019036138683186947
1589543104.1181123,-1.6188335894621297,-3.9111664105378705,8.863499231613611,0.5455555555555556,0.11333333333333333,-0.6977777777777778,-0.003145256695515632,0.00012723565197373591,0.0030180210435418963
1589543104.1281123,-1.61,-3.92,8.890606362182336,0.5450839405248504,0.11292909187844322,-0.698249392808483,-0.002115517711609619,0.001156974635879749,0.0010246869291131628
1589543104.1381123,-1.612768972656529,-3.911693082030413,8.905537945313059,0.5377777777777778,0.10666666666666667,-0.7055555555555556,-0.0007887827215331873,0.0018796135040296431,0.0
1589543104.1481123,-1.6189440236467765,-3.891583964529836,8.912608165527434,0.5377777777777778,0.10666666666666667,-0.7055555555555556,0.0,0.0009756416313279775,5.759457558423926e-05
1589543104.1581123,-1.606957504906562,-3.92,8.790436257359843,0.5377777777777778,0.10666666666666667,-0.7055555555555556,-0.00037947302607239757,-0.00033188473035166083,0.0007113577564240584
1589543104.1681123,-1.6238571622354856,-3.9161428377645144,8.821571486706457,0.5377777777777778,0.10666666666666667,-0.7055555555555556,-0.001301206347473984,0.000880455217518928,0.00042075112995505596
1589543104.1781123,-1.6380809142702115,-3.9019190857297885,8.864242742810633,0.5377777777777778,0.10666666666666667,-0.7055555555555556,-0.0020769916755777693,0.00010466988941514239,0.001972321786162627
1589543104.1881123,-1.6001285678964865,-3.9099678580258788,8.919839290129392,0.5333476186551651,0.1133119053505856,-0.7110932544588213,-7.012290956406788e-06,-0.0010873246370182526,0.0010943369279746594
1589543104.1981122,-1.626600982848333,-3.900197051455001,8.859408845634997,0.5333333333333333,0.11333333333333333,-0.7111111111111111,0.0010693358032113794,-0.0025309418396350127,0.0003707752539271775
1589543104.2081122,-1.62,-3.916775330982636,8.809674007052093,0.5333333333333333,0.11333333333333333,-0.7111111111111111,-0.0014425876052467934,-0.0003873171369957811,0.001090830782496456
1589543104.2181122,-1.62,-3.9122783822705816,8.845948675894071,0.5333333333333333,0.11333333333333333,-0.7111111111111111,-0.001933128613488449,0.001090830782496456,0.000842297830991993
1589543104.2281122,-1.6191512192641189,-3.9183024385282375,8.902546342207645,0.5343707320105214,0.11333333333333333,-0.7092249316980418,-0.0009056555516386142,0.0009982431670675352,0.0001851752308578417
1589543104.2381122,-1.611351615173322,-3.9,8.924593539306713,0.5455555555555556,0.11333333333333333,-0.6888888888888889,0.001090830782496456,0.00014743834371487363,0.0018867848775631648
1589543104.2481122,-1.62,-3.9,8.883670293499131,0.5455555555555556,0.11333333333333333,-0.6888888888888889,0.0008606761593192755,0.001090830782496456,0.0002301546231771804
1589543104.2581122,-1.62,-3.9,8.814640943585994,0.5455555555555556,0.11333333333333333,-0.6888888888888889,-0.0016493018333797566,0.001090830782496456,0.0027401326158762126
