time,acc_x,acc_y,acc_z,mag_x,mag_y,mag_z,gyr_x,gyr_y,gyr_z
1589543174.3475876,0.05,-4.31,8.85,0.5155555555555555,0.3322222222222222,-0.6355555555555555,-0.01854412330243975,-0.03272492347489368,0.001090830782496456
1589543174.3575876,0.03290411574118629,-4.292556378917653,8.649530042023546,0.5155555555555555,0.3322222222222222,-0.6355555555555555,-0.0016106139423848961,0.01205040307018059,0.0004439187536249331
1589543174.3675876,0.0708689849484689,-4.335652109438719,8.753912656632313,0.5155555555555555,0.3322222222222222,-0.6355555555555555,-0.006829521114703103,-0.0040787867102614565,0.0006165494961793196
1589543174.3775876,0.0033326864295764383,-4.313332686429576,8.706110572024647,0.5155555555555555,0.3322222222222222,-0.6355555555555555,-0.0019391606361006332,-0.0035147815776222467,-0.00030302031173564883
1589543174.3875875,-0.020484207150873818,-4.312934744268078,8.709031585698252,0.4995092369907185,0.32658432651025243,-0.6355555555555555,0.0018087118198276972,0.0009571747164416554,-0.001090830782496456
1589543174.3975875,0.046689304508604756,-4.3963063575593795,8.880067913525814,0.4744444444444445,0.31777777777777777,-0.6355555555555555,-0.0008476008067805096,-0.00614207080760236,-0.0006461438630923219
1589543174.4075875,0.07151898734177216,-4.385189873417722,8.916582278481012,0.4744444444444445,0.31777777777777777,-0.6355555555555555,0.0035072280854949343,-0.00044185550683400673,0.0
1589543174.4175875,0.034721289456010745,-4.330601074546675,8.724163868368032,0.4744444444444445,0.31777777777777777,-0.6355555555555555,0.00423218900636805,0.006666595111294658,0.0
1589543174.4275875,0.05919504721094199,-4.355678018884377,8.819195047210941,0.4744444444444445,0.31777777777777777,-0.6355555555555555,-0.0012387515565348778,-0.007076553745170088,-0.0004714550042290171
1589543174.4375875,0.022449618927385794,-4.342449618927386,8.799596951419085,0.48097676158413993,0.31777777777777777,-0.6339224762706317,0.002181661564992912,-0.0008236188093586183,-0.0016472376187172367
1589543174.4475875,0.03,-4.3469854067060405,8.838897846942283,0.5011111111111111,0.31777777777777777,-0.6288888888888889,0.002839343797344608,0.000986523348527544,0.000986523348527544
1589543174.4575875,-0.03467303384034902,-4.29842447824549,8.595980898478953,0.5011111111111111,0.31777777777777777,-0.6288888888888889,0.0038594135863394834,0.00478422097842839,0.0012568541729040057
1589543174.4675875,0.042103379721669984,-4.354571073558648,8.726492296222663,0.5011111111111111,0.31777777777777777,-0.6288888888888889,-0.0039864660341044685,-0.00900992612272234,-0.001090830782496456
1589543174.4775875,0.12875110811673346,-4.403523633913691,8.916877770291833,0.5011111111111111,0.31777777777777777,-0.6288888888888889,-0.004344833817052475,-0.009662754758507048,0.000520601804957973
1589543174.4875875,0.007117141321869963,-4.304977498656636,8.63846856528748,0.49992242074153675,0.31658908740820346,-0.6319794838497821,0.007793051026859756,0.01784392687760583,0.0028056947309334224
1589543174.4975874,0.005251245750477335,-4.325467331066921,8.760502491500954,0.4955555555555556,0.31222222222222223,-0.6433333333333333,0.002950724444712273,0.010092102442280699,0.0006199645540719391
1589543174.5075874,0.0016440806724336426,-4.3401587962849515,8.731802876957385,0.4955555555555556,0.31222222222222223,-0.6433333333333333,-0.001252850175559191,-8.660993788537318e-06,-0.0009374723832222587
1589543174.5175874,0.047686357657498485,-4.379679407896028,8.79170720694191,0.4955555555555556,0.31222222222222223,-0.6433333333333333,0.0012345059836227235,0.005232955350485972,-0.0005822818182476125
1589543174.5275874,-0.056970067004821844,-4.306970067004822,8.589694564468658,0.4955555555555556,0.31222222222222223,-0.6433333333333333,0.00942099294394565,0.02049455797791231,0.002181661564992912
1589543174.5375874,-0.043837435030371345,-4.293837435030372,8.675056672302587,0.4955555555555556,0.31222222222222223,-0.6433333333333333,0.0029745272981281327,0.014764366292741185,0.002181661564992912
1589543174.5475874,0.042216233002817155,-4.37532973980169,8.818205452407888,0.5011111111111111,0.3244444444444444,-0.6222222222222222,-0.011829323154574875,-0.017949769217338256,0.0010059230560533854
1589543174.5575874,-0.05067906431892229,-4.319592561408647,8.55755536845188,0.5011111111111111,0.3244444444444444,-0.6222222222222222,-0.009639698419498004,-0.010582380349519376,1.4814885247508335e-05
1589543174.5675874,-0.034357670746283736,-4.317771754684265,8.539056413191698,0.5011111111111111,0.3244444444444444,-0.6222222222222222,-3.2338731805462394e-05,0.0020738657923080363,-0.0008369873470921948
1589543174.5775874,0.14922812747260145,-4.395442669315332,8.983898924260535,0.5011111111111111,0.3244444444444444,-0.6222222222222222,-0.009275155959175142,-0.02873552496559089,-0.006228630729724507
1589543174.5875874,0.04930868360833433,-4.342067927255209,8.836203781765628,0.5011111111111111,0.31988544970358773,-0.6273175692855327,0.001354112113114654,-0.006093832953789668,0.0005265626612363959
1589543174.5975873,0.09177177438666,-4.365417419509328,8.898960968282648,0.5011111111111111,0.3055555555555556,-0.6433333333333333,-0.0025904767412442777,-0.007362615047481468,0.0005909487962471821
1589543174.6075873,0.04452399733025909,-4.33742066622171,8.760992658212487,0.5011111111111111,0.3055555555555556,-0.6433333333333333,-0.009782861151487845,-0.018933767184276813,-0.002463023233362091
1589543174.6175873,0.0052343308865048,-4.333489553924337,8.661874647092038,0.5011111111111111,0.3055555555555556,-0.6433333333333333,-0.0073062872625482556,-0.006456905190802003,-0.002891841063704608
1589543174.6275873,0.02025193945847277,-4.33700258594463,8.843753232430787,0.5011111111111111,0.3055555555555556,-0.6433333333333333,-0.010199408857742094,-0.014944663803001908,-0.0007363812988852236
1589543174.6375873,0.008876025084418716,-4.316657018813314,8.81443801254221,0.49987832984938624,0.30974701184542,-0.6433333333333333,-0.00800047815584955,-0.009578578260387355,0.0
1589543174.6475873,0.044413769520118544,-4.34,8.821172460959763,0.4955555555555556,0.3244444444444444,-0.6433333333333333,-0.0044912187806042956,-0.0006093632165574639,-0.00048146756593899203
1589543174.6575873,0.04215590140338251,-4.320389753508456,8.743325161928752,0.4955555555555556,0.3244444444444444,-0.6433333333333333,-0.0024168339264766074,0.0008556584210127607,-0.001090830782496456
1589543174.6675873,0.03,-4.29,8.651612275478234,0.4955555555555556,0.3244444444444444,-0.6433333333333333,-0.0014075064711586104,0.001548310187668603,-0.0020408578484829194
1589543174.6775873,0.03125937514379055,-4.291259375143791,8.687556250862743,0.4955555555555556,0.3244444444444444,-0.6433333333333333,-0.002181661564992912,-0.0005495060694230525,-0.004225946612630061
1589543174.6875873,0.0433893070835746,-4.297458019687319,8.741694653541787,0.4955555555555556,0.3238795599305153,-0.6438982178472624,-0.0022740905774453236,-0.004455752142438235,-0.003734637409751426
1589543174.6975873,0.07936949108923631,-4.270472881683072,8.759684745544618,0.4955555555555556,0.3178828625962384,-0.6498949151815394,-0.0032552978842768842,-0.005436959449269796,-0.00864067394390923
1589543174.7075872,0.10177559939751599,-4.157040667670807,8.75526506827329,0.4955555555555556,0.31777777777777777,-0.65,-0.003207929731482948,-0.003143367115476528,-0.011618496601035179
1589543174.7175872,0.12855296865581675,-4.107829452983726,8.683617578360458,0.4955555555555556,0.31777777777777777,-0.65,-0.0023395081983401426,-0.0009329841491492255,-0.023302063015793652
1589543174.7275872,0.11275165762507534,-4.084127486437613,8.723120855937312,0.4955555555555556,0.31777777777777777,-0.65,-0.0040631638459534955,0.0007906714984641278,-0.02761120213482703
1589543174.7375872,0.01356813906726341,-4.146913147823831,8.791349808652786,0.4873239497524378,0.31777777777777777,-0.6455412135233112,-0.01511030941482637,-0.004700046467463973,-0.04489946387970883
1589543174.7475872,-0.031860097673082455,-4.173860549103295,8.820837608240653,0.4688888888888889,0.31777777777777777,-0.6355555555555555,-0.021943462164567922,-0.012841379767303766,-0.052948425690395026
1589543174.7575872,0.16435967469069118,-4.208719349381382,8.952574957705712,0.4688888888888889,0.31777777777777777,-0.6355555555555555,-0.024166211926815298,-0.019215862150012832,-0.05641556866628131
1589543174.7675872,0.1233284178884383,-4.155233530896407,8.731905113007969,0.4688888888888889,0.31777777777777777,-0.6355555555555555,-0.020777537693315785,-0.006700243172628106,-0.05480110754202858
1589543174.7775872,0.05765992766941364,-4.020874488646469,8.771773285112943,0.4688888888888889,0.31777777777777777,-0.6355555555555555,-0.01751777098618797,-0.0015421800462091942,-0.05184670140170399
1589543174.7875872,0.17176513961465714,-3.9172064245183216,8.823530279229313,0.46973309538821034,0.3187908255769635,-0.6377504924537912,-0.019233948840718374,-0.02118036472001726,-0.05195887231561204
1589543174.7975872,0.05443085685568306,-3.758861713711366,8.661517715051511,0.4744444444444445,0.3244444444444444,-0.65,-0.012889692894837927,-0.0065863739524099196,-0.0425010112599306
1589543174.8075871,0.012273557249350864,-3.6745471144987016,8.773937180668398,0.4744444444444445,0.3244444444444444,-0.65,-0.018254782241881096,-0.009652139293577444,-0.03943524591876308
1589543174.8175871,-0.08707999793420441,-3.512920002065796,8.739559985539431,0.4744444444444445,0.3244444444444444,-0.65,-0.03247403183156113,-0.02002110806926828,-0.016912243155945157
1589543174.8275871,-0.09339705079191699,-3.4900955761878754,8.823397050791916,0.4744444444444445,0.3244444444444444,-0.65,-0.03671768584752679,-0.022526459930292047,0.010443915364584447
1589543174.837587,-0.08,-3.4529394204655133,8.813412115906898,0.4769087503772037,0.32330707247547863,-0.6488626280310342,-0.037992975334141484,-0.02617993877991494,0.0377754604491349
1589543174.847587,-0.08972778066528067,-3.326224987006237,8.813787032224532,0.4888888888888889,0.31777777777777777,-0.6433333333333333,-0.03514283012911813,-0.02494194647715771,0.07470575024482161
1589543174.857587,-0.11774715811229763,-3.144505683775405,8.755961648868986,0.4888888888888889,0.31777777777777777,-0.6433333333333333,-0.02711194840817951,-0.022994372206114003,0.12218807803274803
1589543174.867587,-0.14052000277334814,-3.2031888881185147,8.786551110494813,0.4888888888888889,0.31777777777777777,-0.6433333333333333,-0.030910023476467097,-0.032010308176166076,0.14255097877487447
1589543174.877587,-0.22247633334009043,-3.1780407857128377,8.68495266668018,0.4888888888888889,0.31777777777777777,-0.6433333333333333,-0.02286295612137608,-0.02496596359272929,0.1599127721491249
1589543174.887587,-0.1183509991803047,-3.209894004918172,8.55420503688629,0.4876063326957925,0.32015966785067096,-0.6409514432604401,0.003249367807879081,0.00020300262505883876,0.2199251323129275
1589543174.897587,-0.10558200445434299,-3.2798809799554562,8.93,0.4811111111111111,0.3322222222222222,-0.6288888888888889,0.00863862180359879,-0.016564476795856965,0.35861353996531026
1589543174.907587,-0.09063572383073497,-3.347139242761693,8.93,0.4811111111111111,0.3322222222222222,-0.6288888888888889,-0.01011082063267245,-0.0393898849791437,0.4425784343538293
1589543174.917587,-0.09829337298391261,-3.366586745967825,8.813892778225222,0.4811111111111111,0.3322222222222222,-0.6288888888888889,0.00808969191234578,-0.019553405906743256,0.5293791222235529
1589543174.927587,-0.15071975080307604,-3.372251143774944,8.88702910542198,0.4811111111111111,0.3322222222222222,-0.6288888888888889,0.004697421248748293,-0.03634153773418238,0.6242391867415509
1589543174.937587,-0.20787948992504623,-3.4375765599143384,8.764543950160615,0.4811111111111111,0.3322222222222222,-0.6288888888888889,0.006478895618854352,-0.026543428698599054,0.6839185781401039
1589543174.947587,-0.1209426332551123,-3.4637470667113646,8.816873533355682,0.5077777777777778,0.3244444444444444,-0.65,0.009032562494125918,-0.028908295624771145,0.7701993489626335
1589543174.957587,-0.17653953927381058,-3.4270338908061233,8.790607320886059,0.5077777777777778,0.3244444444444444,-0.65,-0.0004437261399111768,-0.04309397743103717,0.8263274355158118
1589543174.967587,-0.12553814169198785,-3.4010762833839756,8.669932832240525,0.5077777777777778,0.3244444444444444,-0.65,0.009819919331122341,-0.03659909107727354,0.8884107587477957
1589543174.977587,-0.1898207171314741,-3.51,8.853811420982737,0.5077777777777778,0.3244444444444444,-0.65,0.002181661564992912,-0.050535307346610374,0.92655318773127
1589543174.987587,-0.24071562677378508,-3.5117890669344627,8.724651574029604,0.5073404503049092,0.32400711697157575,-0.65,0.002415849879079934,-0.05243794033119222,0.9579856633625515
1589543174.997587,-0.2590289481727285,-3.557572370431821,8.843688163122735,0.496148976116666,0.3128156427833326,-0.65,0.008408870292595481,-0.05443561380236407,0.9919461123724729
1589543175.007587,-0.32633235858539705,-3.571661792926985,8.791489765146668,0.4955555555555556,0.31222222222222223,-0.65,0.0046727640014620755,-0.054522773805001444,1.0375457721773593
1589543175.017587,-0.30849738169123353,-3.499015709852599,8.629015709852599,0.4955555555555556,0.31222222222222223,-0.65,0.010744397594410034,-0.04570752346568184,1.0778596070328696
1589543175.027587,-0.30417563556327365,-3.558351271126547,8.706445691900733,0.4955555555555556,0.31222222222222223,-0.65,0.009665646648837912,-0.050965385990073046,1.1131706656396503
1589543175.037587,-0.3295838297356784,-3.6091676594713564,8.867364254992628,0.4955555555555556,0.31222222222222223,-0.65,0.008741778637807705,-0.049117649968012635,1.1362673659154057
1589543175.047587,-0.44169999408971805,-3.6933714218168205,8.954985716818692,0.5155555555555555,0.2855555555555556,-0.6355555555555555,0.008003580547332002,-0.05471451528606147,1.1579277819936777
1589543175.057587,-0.4995421501605627,-3.7594767430406426,8.93019622135976,0.5155555555555555,0.2855555555555556,-0.6355555555555555,0.015214552475108178,-0.03939119993953711,1.1768565833040903
1589543175.067587,-0.5474156202283553,-3.6936181316803025,8.816202511451948,0.5155555555555555,0.2855555555555556,-0.6355555555555555,0.005961595694025107,-0.06306222050334812,1.1945920364732012
1589543175.077587,-0.5094329844320663,-3.701701046703801,8.624742404766277,0.5155555555555555,0.2855555555555556,-0.6355555555555555,0.01278071037212906,-0.05497450174978257,1.2277019464187242
1589543175.0875869,-0.500875109669258,-3.7273746709922264,8.847247148599294,0.5155555555555555,0.2855555555555556,-0.6355555555555555,0.008113113760118609,-0.0615091370065972,1.2519734488011787
1589543175.0975869,-0.6020119944640935,-3.6590139935414427,8.72049300322928,0.5277777777777778,0.2644444444444444,-0.6577777777777778,0.004744132609060629,-0.06910532943146032,1.2665620950980587
1589543175.1075869,-0.5246144856220206,-3.5687168998923573,8.765641550053822,0.5277777777777778,0.2644444444444444,-0.6577777777777778,0.011076201494071234,-0.06136613412755847,1.2764119800302975
1589543175.1175869,-0.5649626784549605,-3.5349626784549604,8.8075933038626,0.5277777777777778,0.2644444444444444,-0.6577777777777778,0.007176552977580737,-0.07100236720067721,1.291543646475804
1589543175.1275868,-0.6281532900681837,-3.5867386839727264,8.689567896163641,0.5277777777777778,0.2644444444444444,-0.6577777777777778,0.014358677368153872,-0.05910630705880534,1.291988339465054
1589543175.1375868,-0.7142926969522714,-3.552282921219091,8.896302472685452,0.5277777777777778,0.2644444444444444,-0.6577777777777778,0.016237947700456876,-0.04970995539729033,1.296686515295811
1589543175.1475868,-0.7236730830690562,-3.503673083069056,8.84418270767264,0.5488888888888889,0.24,-0.6788888888888889,0.02181661564992912,-0.05126904677733343,1.3122694313432366
1589543175.1575868,-0.6932926386008423,-3.4716463193004214,8.781402150905475,0.5488888888888889,0.24,-0.6788888888888889,0.02091868776457038,-0.05306490254805091,1.311371503457878
1589543175.1675868,-0.7156793968607094,-3.4814198492151776,8.885740452354469,0.5488888888888889,0.24,-0.6788888888888889,0.01589781716832117,-0.061712710033172316,1.304569495346647
1589543175.1775868,-0.7873923444976076,-3.495653907496013,8.823915470494418,0.5488888888888889,0.24,-0.6788888888888889,0.009912294072206633,-0.05620127208575042,1.273569295232802
1589543175.1875868,-0.7623068181818182,-3.453844696969697,8.765382575757576,0.5488888888888889,0.24,-0.6788888888888889,0.010824429548886233,-0.06167408494582803,1.2580629921292488
1589543175.1975868,-0.9086704885554103,-3.4897736373983053,8.874441259537159,0.5422222222222223,0.21333333333333332,-0.6977777777777778,0.0016725029739806767,-0.0740067736794216,1.2387718162548271
1589543175.2075868,-1.0126830080913851,-3.377316991908615,8.781950975725843,0.5422222222222223,0.21333333333333332,-0.6977777777777778,-0.0012859446368811147,-0.07352466859962804,1.2428464889722324
1589543175.2175868,-1.066954451987268,-3.3164468606518125,8.622182192050927,0.5422222222222223,0.21333333333333332,-0.6977777777777778,-0.0051773057856606955,-0.08246018246681612,1.2522349304053568
1589543175.2275867,-1.0116226110575315,-3.2289060562520913,8.809434723561713,0.5422222222222223,0.21333333333333332,-0.6977777777777778,0.004955983450808391,-0.0695745085768655,1.2766876764327186
1589543175.2375867,-1.0198779695711222,-3.121586395575413,8.603050760721947,0.5422222222222223,0.21333333333333332,-0.6977777777777778,0.030170541174881216,-0.04616099069022645,1.3010017142380745
1589543175.2475867,-0.964651571806506,-3.2336050309631843,8.982674214096747,0.5611111111111111,0.17333333333333334,-0.6711111111111111,0.009234054031324584,-0.06407992818934502,1.3146794127016364
1589543175.2575867,-1.051437460279925,-3.3141919274027876,8.939281269860038,0.5611111111111111,0.17333333333333334,-0.6711111111111111,0.01870092589463556,-0.055965466592221326,1.3160318229678238
1589543175.2675867,-1.0181270559210527,-3.2302117598684212,8.74431058114035,0.5611111111111111,0.17333333333333334,-0.6711111111111111,0.022036321767648217,-0.0541021268893846,1.3079215078254487
1589543175.2775867,-1.1194684171068918,-3.300604982826856,8.857195285666963,0.5611111111111111,0.17333333333333334,-0.6711111111111111,0.014271783565299841,-0.06345815886120285,1.3064103404741332
1589543175.2875867,-1.2302302657211877,-3.343907893711525,8.869539468557624,0.5611111111111111,0.17333333333333334,-0.6711111111111111,0.013328230021402772,-0.05994545684994005,1.3138367833886235
1589543175.2975867,-1.1447869892899645,-3.208166600555335,8.908592621975407,0.5806419851029133,0.15949896425580679,-0.7077314998457402,0.01657759901037712,-0.05701509852633776,1.3187376554746235
1589543175.3075867,-1.2185303129410954,-3.130979791372603,8.661714634902056,0.5877777777777777,0.15444444444444444,-0.7211111111111111,0.021389101014065187,-0.04504469805925264,1.3196914895027798
1589543175.3175867,-1.175211209419217,-3.159859193720522,8.712253589010913,0.5877777777777777,0.15444444444444444,-0.7211111111111111,0.008788084589581045,-0.05449546037761575,1.3133909812905378
1589543175.3275867,-1.1730982667559324,-3.11,8.87,0.5877777777777777,0.15444444444444444,-0.7211111111111111,0.0016991740374526362,-0.07009287652232807,1.2917557592233637
1589543175.3375866,-1.2120990478315852,-3.11,8.87,0.5877777777777777,0.15444444444444444,-0.7211111111111111,0.009356959494423544,-0.05988249591303352,1.2806945135632946
1589543175.3475866,-1.138628981348637,-2.907396269727403,8.79184906743185,0.5644444444444444,0.12777777777777774,-0.7144444444444444,0.02468570406270358,-0.042460079571652584,1.2576085111967656
1589543175.3575866,-1.250958393113343,-3.0036786226685797,8.815919655667145,0.5644444444444444,0.12777777777777774,-0.7144444444444444,0.01943431634273241,-0.05558854887158052,1.241854348036852
1589543175.3675866,-1.276837093571309,-3.067239275546092,8.862010909873915,0.5644444444444444,0.12777777777777774,-0.7144444444444444,-0.0014358503519536694,-0.06566325277576705,1.2075437258104273
1589543175.3775866,-1.4431952429879982,-3.2411982161204995,8.9096005946265,0.5644444444444444,0.12777777777777774,-0.7144444444444444,0.016449598472668445,-0.044419083509079055,1.180629075194278
1589543175.3875866,-1.5165494173971974,-3.268706031523949,8.900431322825352,0.5644444444444444,0.12777777777777774,-0.7144444444444444,0.018450023259422653,-0.037417596755439334,1.163625464506867
1589543175.3975866,-1.42,-3.2,9.01,0.5722222222222222,0.08888888888888889,-0.7411111111111112,0.01308996938995747,-0.03490658503988659,1.126828198318839
1589543175.4075866,-1.4247849363867684,-3.1617205089058524,8.818602544529261,0.5722222222222222,0.08888888888888889,-0.7411111111111112,0.010480191438470276,-0.037516362991373786,1.1033401967554544
1589543175.4175866,-1.5327672076105205,-3.2056393396754337,8.809825125909345,0.5722222222222222,0.08888888888888889,-0.7411111111111112,-0.002951561019063227,-0.0521936891543824,1.0472242573223582
1589543175.4275866,-1.7104910260751778,-3.3248132869500973,8.896051165224888,0.5722222222222222,0.08888888888888889,-0.7411111111111112,0.01599810148777512,-0.022221710368066444,0.9904079597036851
1589543175.4375865,-1.6949247132696865,-3.25477413980906,8.597454988146344,0.5722222222222222,0.08888888888888889,-0.7411111111111112,0.02583822854119993,-0.008514728599144502,0.9598489635139418
1589543175.4475865,-1.734338743496156,-3.293206492195387,8.726222722683854,0.5613838627009397,0.0652415590242724,-0.7489935543993166,-0.008520119472076457,-0.05104176565677444,0.9157840816741418
1589543175.4575865,-1.7574516316339566,-3.204016026013239,8.924516316339565,0.56,0.06222222222222223,-0.75,0.0002357745038186511,-0.04815665104381678,0.8889514098447656
1589543175.4675865,-1.773524632734827,-3.1359014690606912,8.679507345303458,0.56,0.06222222222222223,-0.75,0.008820550134091807,-0.030677329367328084,0.8754274353907462
1589543175.4775865,-1.7324320124320125,-3.11,8.892489510489511,0.56,0.06222222222222223,-0.75,-0.003567448922709852,-0.04677621397868757,0.8486897418899325
1589543175.4875865,-1.7377699064349819,-3.0245310292151997,8.715752339125453,0.56,0.06222222222222223,-0.75,0.005807460609688789,-0.027654986950494835,0.8382522995717112
1589543175.4975865,-1.7585049986242318,-3.0,8.928322480051362,0.5353266685010242,0.04680139003536234,-0.7757013869780999,0.0016616085146933081,-0.03594669114048579,0.8204370127952603
1589543175.5075865,-1.81,-3.03,9.19,0.5333333333333333,0.045555555555555564,-0.7777777777777778,-0.006544984694978735,-0.04363323129985824,0.8083056098298738
1589543175.5175865,-1.7699587563451777,-2.972798223350254,8.984073604060914,0.5333333333333333,0.045555555555555564,-0.7777777777777778,0.004686557885966691,-0.01305847649617347,0.8083056098298738
1589543175.5275865,-1.7312359329282017,-2.9124718658564035,8.803707798784606,0.5333333333333333,0.045555555555555564,-0.7777777777777778,0.0063978894907106305,-0.013126796897806778,0.801613529930627
1589543175.5375865,-1.788927637314734,-2.936190061028771,8.839285091543156,0.5333333333333333,0.045555555555555564,-0.7777777777777778,-0.010972977827762957,-0.03278959347769207,0.788528001327
1589543175.5475864,-1.876252857989669,-2.987501905326446,8.972505715979338,0.5614597623281679,-0.020072778765724823,-0.7965287304410008,-0.011453307538465202,-0.04145156973486533,0.7770121419584145
1589543175.5575864,-1.8981048675733714,-3.0081048675733713,8.943790264853256,0.5633333333333334,-0.024444444444444446,-0.7977777777777778,-0.003996036423245115,-0.024664624902118105,0.7865461905685044
1589543175.5675864,-1.915317463541455,-2.8644840963561764,8.717896778648901,0.5633333333333334,-0.024444444444444446,-0.7977777777777778,-0.0074496825326859665,-0.03126182680281877,0.8059594617773063
1589543175.5775864,-1.9803868625560157,-2.889013557206875,8.94330761812922,0.5633333333333334,-0.024444444444444446,-0.7977777777777778,-0.020959989559233054,-0.05828244085591294,0.8445140264446055
1589543175.5875864,-1.9372183155840987,-2.8245975936915695,9.118184090724332,0.5633333333333334,-0.024444444444444446,-0.7977777777777778,-0.003989655281051229,-0.03092187356959255,0.8974629137725527
1589543175.5975864,-1.7440235893311888,-2.6080257338158424,8.824045034177724,0.5500017870705446,-0.06177277398025287,-0.8031103962828933,0.01788751949005648,0.0019604543576591596,0.9540351050871998
1589543175.6075864,-1.7830655070229118,-2.7178244633435322,9.205166839328307,0.5466666666666666,-0.07111111111111111,-0.8044444444444444,-0.0017420914763804918,-0.011392371047621034,0.9923836394543901
1589543175.6175864,-1.9007528181080349,-2.7751882045270087,8.834018216250339,0.5466666666666666,-0.07111111111111111,-0.8044444444444444,0.00032403251849069583,0.005335420685457913,1.01322200385389
1589543175.6275864,-2.0806844075848465,-2.755518740690044,8.516898425862555,0.5466666666666666,-0.07111111111111111,-0.8044444444444444,-0.014443286407285497,-0.03708587513814353,1.0437360441670411
1589543175.6375864,-2.0649296608240384,-2.6389439259427876,8.825633052583656,0.5466666666666666,-0.07111111111111111,-0.8044444444444444,-0.01681569576118112,-0.04581489286485115,1.080990179410993
1589543175.6475863,-2.060371367625975,-2.4734216875896076,8.642572647480506,0.5432714387290042,-0.09431183535180458,-0.7863365621102446,0.0008593673007260445,-0.03525957829306777,1.1550104411668312
1589543175.6575863,-1.9965638145672737,-2.384040272469091,8.804254660374538,0.54,-0.11666666666666667,-0.7688888888888888,-0.011801451587088879,-0.055644062953652096,1.2701472118274646
1589543175.6675863,-1.9732064041540458,-2.363396797922977,8.316633491994807,0.54,-0.11666666666666667,-0.7688888888888888,-0.011711680387408944,-0.010251968490018082,1.4233040629767988
1589543175.6775863,-2.117221515838355,-2.442332909503013,8.483053789595887,0.54,-0.11666666666666667,-0.7688888888888888,-0.002396824605069608,-0.031903589224376694,1.51495452268405
1589543175.6875863,-2.208787379734767,-2.48,8.942267487215048,0.54,-0.11666666666666667,-0.7688888888888888,-0.014130971982944036,-0.11394109035024955,1.5993966675164886
1589543175.6975863,-2.2884839531919825,-2.5360323253388946,9.321484184914842,0.5123297158820274,-0.14572046499053798,-0.7792652454331286,-0.022351477875803875,-0.10431153087826671,1.6810054973017596
1589543175.7075863,-1.8400871277022346,-2.112747985855419,8.35320039371514,0.4955555555555556,-0.16333333333333333,-0.7855555555555556,0.029442926969443742,-0.11674923545316228,1.7875320478715935
1589543175.7175863,-1.9812922569326246,-2.309617690958129,9.269475503417215,0.4955555555555556,-0.16333333333333333,-0.7855555555555556,-0.028132060001663947,-0.01892496717955164,1.8590210467399149
1589543175.7275863,-1.7164201296225694,-2.0737781166603124,8.76284025924514,0.4955555555555556,-0.16333333333333333,-0.7855555555555556,0.00427349489932656,-0.07794179321155958,1.8858264269455447
1589543175.7375863,-2.058659428691894,-2.170215031095183,8.838229366501528,0.4955555555555556,-0.16333333333333333,-0.7855555555555556,0.012006957358721662,-0.05689289058849899,1.9153291641650936
1589543175.7475863,-1.9803833116036504,-2.0939895697522815,8.898269448066058,0.4405871843159979,-0.23008064126708194,-0.7439366459027477,-0.02699837001107612,-0.07947354094174613,1.9451717268747362
1589543175.7575862,-1.9537000737372496,-2.0150399410102002,8.98866013272705,0.4177777777777778,-0.2577777777777778,-0.7266666666666667,0.014523419168689065,-0.0916297857297023,1.9871839444620194
1589543175.7675862,-1.9481186813186813,-1.9565340659340658,8.750492307692308,0.4177777777777778,-0.2577777777777778,-0.7266666666666667,0.022259421024713944,-0.09875806521453025,2.0164819743315703
1589543175.7775862,-1.8372573755439339,-1.9328428280570082,8.830435147111661,0.4177777777777778,-0.2577777777777778,-0.7266666666666667,-0.016008635233084042,-0.11553687368922302,2.0494193335791215
1589543175.7875862,-1.8303596133583764,-1.924892115992487,9.005251729350864,0.4177777777777778,-0.2577777777777778,-0.7266666666666667,-0.018410749013260994,-0.10734091719920014,2.0765258459979714
1589543175.7975862,-1.9694792182088074,-1.8944383968332508,8.99720559129144,0.41129377645829895,-0.26296497883336084,-0.7102405299906537,0.019521337123176927,-0.08253557105662819,2.1067020323186765
1589543175.8075862,-2.2327453485586517,-1.9133218877265832,8.720610875988182,0.4011111111111111,-0.27111111111111114,-0.6844444444444444,0.021036492637229426,-0.08229296062828789,2.1260291950855925
1589543175.8175862,-1.873537228201186,-1.8175741269492642,9.176184933011202,0.4011111111111111,-0.27111111111111114,-0.6844444444444444,-0.04206766271909322,-0.15439292580601827,2.129802659795524
1589543175.8275862,-1.7610354975778317,-1.7510354975778317,9.119227055536266,0.4011111111111111,-0.27111111111111114,-0.6844444444444444,-0.026810471904708,-0.13667415524881008,2.139071966020483
1589543175.8375862,-1.6463366635477348,-1.6474917750747036,8.834785548278047,0.4011111111111111,-0.27111111111111114,-0.6844444444444444,0.0026028682354971855,-0.11220796882242451,2.1348386471593934
1589543175.8475862,-1.8164368076899275,-1.6125177912085644,8.927695703294209,0.4023620995115869,-0.2723620995115869,-0.6562972054337388,0.016023032657763697,-0.09154947930707126,2.11790886344154
1589543175.8575861,-1.8938530233290058,-1.5728439356386954,8.809724222038632,0.4033333333333333,-0.2733333333333333,-0.6344444444444445,0.027250771641775525,-0.07695860736174158,2.120555043252475
1589543175.8675861,-1.8768648718326457,-1.5531351281673542,8.760594615497938,0.4033333333333333,-0.2733333333333333,-0.6344444444444445,0.013726762750224122,-0.09957223666487504,2.1182636546303377
1589543175.8775861,-2.1152316352575085,-1.6284105450858362,8.979094786895562,0.4033333333333333,-0.2733333333333333,-0.6344444444444445,-0.025767344555760314,-0.13868478778279414,2.1048073665428637
1589543175.887586,-1.80139519370007,-1.4594725110232505,8.748546395275053,0.4033333333333333,-0.2733333333333333,-0.6344444444444445,-0.011529819227991862,-0.12728064744689627,2.1065170062749363
1589543175.897586,-2.080628272251309,-1.457324934554974,9.364272742146596,0.42888688917975565,-0.2886654668411867,-0.6506283631471786,0.020069715830054232,-0.13704320218008587,2.0818162814589107
1589543175.907586,-2.272313994901037,-1.525261662417531,9.818622306988694,0.43666666666666665,-0.2933333333333333,-0.6555555555555556,0.036180710549745684,-0.09212568352174119,2.0575142246668054
1589543175.917586,-1.6705021268725726,-1.2343810492571357,8.745343998520436,0.43666666666666665,-0.2933333333333333,-0.6555555555555556,0.07820371053548386,-0.023149774816910253,2.0120178763772905
1589543175.927586,-1.9572921825256455,-1.4267951892465511,10.538311814644498,0.43666666666666665,-0.2933333333333333,-0.6555555555555556,-0.04863216497334151,-0.2310584200448264,1.8830543555167847
1589543175.937586,-1.6207865045659187,-1.1109527368171628,8.874015638955216,0.43666666666666665,-0.2933333333333333,-0.6555555555555556,-0.03258892503236819,-0.14556873643382043,1.81853697501204
1589543175.947586,-1.269631883404703,-0.5053373150026295,8.873742769138307,0.3955828095393117,-0.30926380854598123,-0.6555555555555556,0.015639707467577747,-0.0880226932706561,1.6909683707058836
1589543175.957586,-1.3264024741081704,-1.0181981204449557,9.246619198312237,0.38222222222222224,-0.3144444444444445,-0.6555555555555556,0.03924626722656169,-0.10574777003287265,1.3560141202762699
1589543175.967586,-1.0887604135515017,-0.9777335839706072,8.60570769427949,0.38222222222222224,-0.3144444444444445,-0.6555555555555556,-0.006456183137493916,-0.07451252240432432,0.9852068872472959
1589543175.977586,-1.5311550019122548,-0.9916419894734926,9.004004625835474,0.38222222222222224,-0.3144444444444445,-0.6555555555555556,-0.02365046054843843,-0.07658464882401966,0.7433259749362323
1589543175.987586,-1.9232732055618187,-0.9117612426406113,9.291580859326068,0.38222222222222224,-0.3144444444444445,-0.6555555555555556,-0.0013691750520624449,-0.05759007160102171,0.5318456640131816
1589543175.997586,-2.0192412222134943,-0.891930916660121,9.270165344434844,0.37797395246947524,-0.32112029691304694,-0.6640520950610496,-0.0004212606662590407,-0.027160945325865576,0.36570528256317786
1589543176.007586,-2.1650737539801157,-0.9171648580154655,8.953887192150237,0.3744444444444445,-0.32666666666666666,-0.6711111111111111,0.014098929384632537,0.019992491966989104,0.22801723246247563
1589543176.017586,-1.8225433041144152,-0.8396724405485887,8.249633854800152,0.3744444444444445,-0.32666666666666666,-0.6711111111111111,0.02654880273092269,0.0163067604214342,0.10349755158239511
1589543176.027586,-2.2815851680185397,-1.2315990730011586,9.051024333719583,0.3744444444444445,-0.32666666666666666,-0.6711111111111111,-0.040711119361300535,-0.061643441598211654,-0.09492376605320843
1589543176.037586,-2.4200359773532027,-1.2360417337297154,9.026113688436121,0.3744444444444445,-0.32666666666666666,-0.6711111111111111,-0.01593853090902176,0.00041529688346886307,-0.22883934423947871
1589543176.047586,-1.528792367562139,-0.9110017574692443,8.045684157670099,0.3868848160236561,-0.3507180517198092,-0.6661349624794264,0.02342944579758707,0.04587733560108243,-0.3158769883486398
1589543176.057586,-1.7088061687461829,-1.0910271791292208,9.333769958991363,0.3911111111111111,-0.3588888888888889,-0.6644444444444444,-0.059548691312325194,-0.052313835382791884,-0.45804715997089307
1589543176.067586,-2.064657425742574,-1.024339603960396,8.729046534653465,0.3911111111111111,-0.3588888888888889,-0.6644444444444444,0.001632466067072666,0.021048605977222953,-0.5996980470675414
1589543176.077586,-1.8306182176915486,-0.9728718623259892,8.720766195330484,0.3911111111111111,-0.3588888888888889,-0.6644444444444444,0.0034797059555203153,0.036031134366794317,-0.7875671506159603
1589543176.087586,-1.3146040274801463,-0.9654552187066683,8.79546262448002,0.3911111111111111,-0.3588888888888889,-0.6644444444444444,-0.03232443883427589,0.011605116723275515,-0.9688385889078648
1589543176.097586,-1.0343104498390323,-1.0237083442095187,8.77778125815714,0.3801391184972495,-0.3645518528186239,-0.6690456026373541,-0.0504116061361542,-0.002173024516249577,-1.203589067355327
1589543176.107586,-1.2217622503011794,-1.115824951671196,8.519237105314769,0.3566666666666667,-0.37666666666666665,-0.6788888888888889,-0.0012230702915279786,0.10091830473604431,-1.6027865218120536
1589543176.117586,-1.171164762520658,-1.2869885751239492,8.865262628440037,0.3566666666666667,-0.37666666666666665,-0.6788888888888889,-0.0359493681634285,0.08099730125198248,-1.8979455471672821
1589543176.127586,-1.4072013233672345,-1.4669654454111016,9.267295674549688,0.3566666666666667,-0.37666666666666665,-0.6788888888888889,-0.04799655442984406,0.06945642123055334,-2.134800485075665
1589543176.1375859,-1.478970417170358,-1.5358613689756633,8.93695185092261,0.3566666666666667,-0.37666666666666665,-0.6788888888888889,-0.01858525058121781,0.12525097536516597,-2.3411341932397787
1589543176.1475859,-1.4082987091372832,-1.6465699655380541,9.008479001577072,0.3566666666666667,-0.43175355706556423,-0.6691071046124492,-0.024100901664232267,0.1252116403471393,-2.5316433470972735
1589543176.1575859,-1.4431181842703558,-1.8087884859928327,9.082115140071673,0.3566666666666667,-0.4955555555555556,-0.6577777777777778,-0.05091482416533013,0.11094410256717664,-2.794224272247594
1589543176.1675858,-1.5027860909220465,-2.005919908792931,8.531941000427533,0.3566666666666667,-0.4955555555555556,-0.6577777777777778,-0.0330451616695556,0.1549359022404664,-3.078611594392154
1589543176.1775858,-1.279366499315381,-2.1596323596531266,8.90195139205842,0.3566666666666667,-0.4955555555555556,-0.6577777777777778,-0.04381709428843694,0.16328589226133675,-3.317097344221821
1589543176.1875858,-1.3055074664641861,-2.3255074664641864,9.08011726988948,0.3566666666666667,-0.4955555555555556,-0.6577777777777778,-0.060396207300818495,0.15449745685098334,-3.5328766830560303
1589543176.1975858,-1.3082631442126471,-2.4991674790407488,8.874234418665107,0.41198352866416815,-0.9884535646974719,-0.17891539033672005,-0.03492902267832554,0.18239630724685768,-3.7807375752568357
1589543176.2075858,-1.3227656317821488,-2.7632670824480843,8.860541201197085,0.4311111111111111,-1.1588888888888889,-0.013333333333333334,-0.03544874834840994,0.19374378776090664,-4.006027267477362
1589543176.2175858,-1.375466269161355,-3.0507251045164825,8.922823772645238,0.4311111111111111,-1.1588888888888889,-0.013333333333333334,-0.04955931101005888,0.1932211743289937,-4.217685707402096
1589543176.2275858,-1.4314875517052992,-3.2011215172090846,8.945926793100757,0.4311111111111111,-1.1588888888888889,-0.013333333333333334,-0.0592693238625404,0.18596540731049996,-4.390489439283651
1589543176.2375858,-1.5339249370661376,-3.3399955755587762,8.969284766191166,0.4311111111111111,-1.1588888888888889,-0.013333333333333334,-0.056957260406423085,0.19334915290791158,-4.508051086587937
1589543176.2475858,-1.6811045846365091,-3.519170798687924,9.007679456861698,0.4311111111111111,-1.1588888888888889,-0.013333333333333334,-0.044392627266069434,0.21778038401415478,-4.585532990953451
1589543176.2575858,-1.5339959568733152,-3.5923948787061994,8.695987196765499,0.8333333333333334,-0.4044444444444445,-0.6788888888888889,-0.054497508960488876,0.2238830212754286,-4.677351039912977
1589543176.2675858,-1.773874948280478,-3.899682624674471,9.157740404507509,0.8333333333333334,-0.4044444444444445,-0.6788888888888889,-0.05925624214154507,0.18097197821718627,-4.704085025411211
1589543176.2775857,-1.8823384019591094,-4.172989540026957,8.895841258993489,0.8333333333333334,-0.4044444444444445,-0.6788888888888889,-0.045517299433652396,0.2084482223991216,-4.700616407063621
1589543176.2875857,-1.841291715002563,-4.338592818409906,8.759734804543124,0.8333333333333334,-0.4044444444444445,-0.6788888888888889,-0.04356277917550783,0.22752313444324834,-4.657025823523969
1589543176.2975857,-1.5601014096235055,-4.0569541426277285,8.88279188723012,0.7025718194254447,-0.19693160715583843,-0.6966553989307216,-0.04250363459857622,0.20721908275554107,-4.542656768175482
1589543176.3075857,-1.5775295761317798,-4.02752957613178,8.937044189557655,0.6288888888888889,-0.08,-0.7066666666666667,-0.04037838810625112,0.20949245770096625,-4.413510834244448
1589543176.3175857,-1.6910198944014971,-4.29967161984539,8.734226390714461,0.6288888888888889,-0.08,-0.7066666666666667,-0.040785945943286966,0.2113807550036522,-4.29398700244087
1589543176.3275857,-1.6683251824250893,-4.501674817574911,8.684884334730631,0.6288888888888889,-0.08,-0.7066666666666667,-0.043465821545394995,0.2058727171322768,-4.207734900594389
1589543176.3375857,-1.615807892777364,-4.6608953834698434,8.880895383469843,0.6288888888888889,-0.08,-0.7066666666666667,-0.04345697643775718,0.1933842761589682,-4.138292780677241
1589543176.3475857,-1.64601767692597,-4.83610606155582,8.84548736914687,0.6248771042715756,0.0062533692722372,-0.7327432666792035,-0.021111982589462376,0.19792298202882838,-4.0291140625285315
1589543176.3575857,-1.6641927184466019,-4.855269093851133,8.744192718446602,0.6222222222222222,0.06333333333333334,-0.75,-0.015494156904382952,0.19854350514987926,-3.9233934935897476
1589543176.3675857,-1.639830257727945,-4.8280892314879695,8.77460717900802,0.6222222222222222,0.06333333333333334,-0.75,-0.03336873701778265,0.1756724242088523,-3.805600707769584
1589543176.3775856,-1.5048796843513454,-4.746586456234231,8.765269164987386,0.6222222222222222,0.06333333333333334,-0.75,-0.051556435145647984,0.1525301296186488,-3.6600633626175463
1589543176.3875856,-1.3511433783945448,-4.7231531881804045,8.750602942935759,0.6222222222222222,0.06333333333333334,-0.75,-0.040185349961858616,0.15222570321779005,-3.5480710917243217
1589543176.3975856,-1.243472014366956,-4.9517105656988925,8.848497455851541,0.6127806046093984,0.0996835611427051,-0.7429187867903821,-0.009082692643782597,0.16174251798934391,-3.389719599051971
1589543176.4075856,-1.3649319700507208,-5.170544239594236,8.93602044923919,0.6,0.14888888888888888,-0.7333333333333333,-0.00826286094780968,0.16196610845188197,-3.24820092212599
1589543176.4175856,-1.1523178613396006,-5.025393654524089,8.635018360752056,0.6,0.14888888888888888,-0.7333333333333333,-0.0028534966811808726,0.17608449098708048,-3.089866877502015
1589543176.4275856,-1.652478658079976,-6.420657480904597,9.660853676800958,0.6,0.14888888888888888,-0.7333333333333333,-0.010213162553207422,0.13972566996571048,-2.975355564290373
1589543176.4375856,-5.907369939942283,-11.673334373293814,10.35199516418376,0.6,0.14888888888888888,-0.7333333333333333,-0.055249417770043184,0.12463045856627378,-2.9261636562125433
1589543176.4475856,-14.333611179992207,-18.778838782812002,5.451189556838712,0.5799461546636437,0.1886033669079473,-0.7258622929139065,-0.916259524230452,0.09649282984446422,-5.833254068319465
1589543176.4575856,-0.926683355393144,-2.553009341850338,11.143211908461376,0.5433333333333333,0.2611111111111111,-0.7122222222222222,-2.8032148565642885,-0.0772272454447987,-12.264830887022018
1589543176.4675856,-1.3196169063012642,-0.7195390652642413,8.65791373154492,0.5433333333333333,0.2611111111111111,-0.7122222222222222,-3.1508128385865075,1.3683042532134762,-10.365929981134117
1589543176.4775856,-0.11820299837925446,-1.9751397893030793,5.369736628849269,0.5433333333333333,0.2611111111111111,-0.7122222222222222,-2.0962176472601417,1.40817767816474,-5.523094594731969
1589543176.4875855,0.09496413707606483,-2.387195165146551,9.535665013725316,0.5433333333333333,0.2611111111111111,-0.7122222222222222,-0.9908480467424842,0.14552900200002178,-4.900834972627967
1589543176.4975855,0.0856336681013869,-1.7951231468197035,6.352234576757533,0.4968428184281843,0.3490784579414422,-0.6949022264732452,0.32118875942231934,0.4262129142366643,-4.464229150798721
1589543176.5075855,0.6332699016256191,-3.378647875531989,7.344237424126143,0.43,0.4755555555555556,-0.67,1.781238118202854,0.6545934120361534,-4.096946141929212
1589543176.5175855,2.9656542114732836,-8.791510941880412,9.656519938072723,0.43,0.4755555555555556,-0.67,2.880287537791299,0.5314214093691235,-3.8016215927065944
1589543176.5275855,4.186401710662144,-9.717157253109178,10.308056661587115,0.43,0.4755555555555556,-0.67,3.4231669129453333,0.7090241722813948,-3.238279576513028
1589543176.5375855,0.23648845459637768,-0.236702558038215,4.558396091367399,0.43,0.4755555555555556,-0.67,2.365391903903977,0.8819538984284532,-2.495871885604797
1589543176.5475855,1.8438759024798577,-0.7197202050852778,12.085926755257926,0.3984642321509539,0.4900547591643124,-0.6797869624359109,-0.7976251928430732,-0.22807969330806138,-1.3380817269348684
1589543176.5575855,2.7115792450162592,-0.3163102643856921,11.627665771242754,0.3333333333333333,0.52,-0.7,-0.16508894164593851,-0.2610591867047635,-1.0526982038339383
1589543176.5675855,4.591556835620398,-5.178942241398483,8.054411627338034,0.3333333333333333,0.52,-0.7,0.2704163032220054,0.23350845867434283,-0.9046833224836798
1589543176.5775855,4.32671218212527,-5.123861360230273,8.498672835835098,0.3333333333333333,0.52,-0.7,-0.10291249007510972,0.050296311265459095,-0.6066654994639868
1589543176.5875854,1.4254366349391079,-0.8361382434847666,8.316911758593458,0.3333333333333333,0.52,-0.7,-0.1085870605946927,-0.032630299265946086,-0.3132341516266522
1589543176.5975854,2.240186782971461,-2.8632947757656204,9.201927562340002,0.3273878828102778,0.516036366317963,-0.6930636410564351,0.07504568273247639,-0.0066024893802037275,-0.09148902336173248
1589543176.6075854,1.619485609308022,-4.148755528339117,8.65892699190311,0.32,0.5111111111111111,-0.6844444444444444,-0.013727085225634802,-0.007827677597142695,0.028773677129586384
1589543176.6175854,1.7248948344490682,-3.9937029582051746,8.589579337796273,0.32,0.5111111111111111,-0.6844444444444444,-0.04000128978236314,0.001037295799729645,0.03428086717448815
1589543176.6275854,1.7288812906150823,-3.900630194952395,8.590420129968264,0.32,0.5111111111111111,-0.6844444444444444,0.010496381964640695,-0.0044853553933594074,0.018376261968863054
1589543176.6375854,1.747556877117765,-4.039112267478044,8.710220074683631,0.32,0.5111111111111111,-0.6844444444444444,0.006763475211644319,-0.0004121637089800591,0.010399307519827261
1589543176.6475854,1.6895484406334278,-3.988354885554249,8.80448378397068,0.32,0.5111111111111111,-0.6844444444444444,-0.007473937124716919,0.0027517056991002153,0.008026405463767056
1589543176.6575854,1.7036920383191112,-3.8687693205602964,8.871694372886815,0.3333333333333333,0.5277777777777778,-0.6844444444444444,0.01758753882156473,0.006964583969368021,0.007233076572610889
1589543176.6675854,1.7290158589599098,-3.8603280470133634,8.677545081307358,0.3333333333333333,0.5277777777777778,-0.6844444444444444,0.01850833892441147,0.002360583455134316,0.004470676264070666
1589543176.6775854,1.7378576416519156,-4.0328541500885065,8.532135375221268,0.3333333333333333,0.5277777777777778,-0.6844444444444444,-0.020804191042519616,0.0006234406958506874,0.007479764868270272
1589543176.6875854,1.7310461698361401,-4.07372298098316,8.634307452457898,0.3333333333333333,0.5277777777777778,-0.6844444444444444,-0.014117044224840293,-0.000862591930300273,0.010451830120572193
1589543176.6975853,1.7020309865767516,-3.9540619731535034,8.698123946307005,0.32904569500463565,0.5316140857560863,-0.6862497658460014,0.002027717520846663,0.0026247541003444463,0.005880345891951434
1589543176.7075853,1.71,-3.9654191557148546,8.722365259524757,0.31222222222222223,0.5466666666666666,-0.6933333333333334,0.016878481317086573,0.0038636305343798705,0.0027727997518834147
1589543176.7175853,1.7138612836438922,-3.9786128364389235,8.649109730848862,0.31222222222222223,0.5466666666666666,-0.6933333333333334,0.0017390055952842048,-0.0010151727468574675,0.0
1589543176.7275853,1.7316292093614731,-4.012865178156563,8.584494387518035,0.31222222222222223,0.5466666666666666,-0.6933333333333334,-0.011018615356832767,-0.003094773175226733,0.0008456999698393937
1589543176.7375853,1.743323590401896,-3.9800146143971564,8.570014614397156,0.31222222222222223,0.5466666666666666,-0.6933333333333334,-0.011264478563130134,-0.0007266891271881199,0.001817519909684576
1589543176.7475853,1.719272976680384,-3.9731824417009602,8.640953360768176,0.31222222222222223,0.5457727480566986,-0.691247523243408,0.0018345110279021336,0.0014626709051992945,0.0013833649635363147
1589543176.7575853,1.6975549625848367,-3.9188874064620918,8.783777481292418,0.31222222222222223,0.5433333333333333,-0.6855555555555556,0.011053654904690435,0.0046300353376673925,0.002593720852400356
1589543176.7675853,1.718030381968247,-3.960707175957663,8.747171296169348,0.31222222222222223,0.5433333333333333,-0.6855555555555556,0.008126089610462095,0.002396513562872537,0.0029804994192837576
1589543176.7775853,1.743738987459815,-4.01243392475889,8.63747797491963,0.31222222222222223,0.5433333333333333,-0.6855555555555556,-0.009532756529016674,-0.002039301308267197,0.002181661564992912
1589543176.7875853,1.7403375676311457,-4.014571081314201,8.643558378420764,0.31222222222222223,0.5433333333333333,-0.6855555555555556,-0.012849102183534668,-0.005102817957091063,0.0018303256096016947
1589543176.7975852,1.718502857607745,-3.9474857119612747,8.65095999349157,0.31405206292386717,0.5433333333333333,-0.6855555555555556,-0.0038210249052301774,-0.003710071527084983,0.001090830782496456
1589543176.8075852,1.7099719733235137,-3.989831839941083,8.770112106705945,0.3244444444444444,0.5433333333333333,-0.6855555555555556,0.005475554565491856,9.171708432675493e-06,0.001090830782496456
1589543176.8175852,1.7013915142588274,-3.9383490855529644,8.80443394296469,0.3244444444444444,0.5433333333333333,-0.6855555555555556,0.012027434778489318,0.0028171203711458742,0.001090830782496456
1589543176.8275852,1.722419963997035,-4.001209981998517,8.622740108008896,0.3244444444444444,0.5433333333333333,-0.6855555555555556,0.0007297873937184647,-0.0024456386870428115,-0.001090830782496456
1589543176.8375852,1.7372245949666443,-4.008612297483322,8.578326215100068,0.3244444444444444,0.5433333333333333,-0.6855555555555556,-0.008152353558114112,-0.004060573405557825,-0.001090830782496456
1589543176.8475852,1.7470903292374074,-4.026508395084889,8.675819341525186,0.32340989483996707,0.5426220804802552,-0.6863961271091934,-0.007837937898237175,-0.001090830782496456,-6.34791686953195e-05
1589543176.8575852,1.707747866053841,-3.9792974392646094,8.754504267892317,0.3094214634858101,0.5330050339242722,-0.6977617275844459,0.004178533673725754,-0.001090830782496456,-0.0009217985666926717
