time,acc_x,acc_y,acc_z,mag_x,mag_y,mag_z,gyr_x,gyr_y,gyr_z
1589543208.1148555,0.09,-4.36,8.81,0.49,0.3555555555555556,-0.6222222222222222,-0.009817477042468105,-0.015271630954950384,0.001090830782496456
1589543208.1248555,0.08225892942641004,-4.356129464713205,8.751294647132049,0.49,0.3555555555555556,-0.6222222222222222,-0.0041875242018098655,-0.007882226452856704,-0.0015130406860539274
1589543208.1348555,0.07829622483434462,-4.35,8.710740562085862,0.49,0.3555555555555556,-0.6222222222222222,-0.002181661564992912,-0.007449962437760202,-0.0026341504363836454
1589543208.1448555,0.09,-4.35,8.757802088044626,0.49,0.3555555555555556,-0.6222222222222222,-0.003346805502900281,-0.008726646259971648,-0.002107348409581999
1589543208.1548555,0.08514143718938517,-4.352429281405307,8.787570718594692,0.4913496007807263,0.3490774718080692,-0.6308596672188708,-0.005189160418856723,-0.007666672285469418,-0.00026499349362555736
1589543208.1648555,0.07389880101198988,-4.36389880101199,8.77220239797602,0.4955555555555556,0.3288888888888889,-0.6577777777777778,-0.0047886163458565134,-0.004363323129985824,-0.001090830782496456
1589543208.1748555,0.08354116826156299,-4.366458831738437,8.731670653907496,0.4955555555555556,0.3288888888888889,-0.6577777777777778,-0.00545415391248228,-0.0051358861991283,-0.0018633938516389322
1589543208.1848555,0.08044861224246518,-4.356816204080822,8.689551387757534,0.4955555555555556,0.3288888888888889,-0.6577777777777778,-0.004412259134334402,-0.006892282954361361,-0.0029251940881067423
1589543208.1948555,0.06369930713697369,-4.35,8.71986481903193,0.4955555555555556,0.3288888888888889,-0.6577777777777778,-0.00271970397818221,-0.0075013048741778676,-0.002450682771587561
1589543208.2048554,0.08402151267018751,-4.35,8.7740573671205,0.4955555555555556,0.3288888888888889,-0.6577777777777778,-0.005675448960028801,-0.006762368628716219,-0.003928555262510857
1589543208.2148554,0.09,-4.360209967548516,8.799580064902969,0.5022222222222222,0.3333333333333333,-0.6433333333333333,-0.004271707503887176,-0.005362538286383632,-0.007681623290524515
1589543208.2248554,0.09,-4.369223958221401,8.781552083557198,0.5022222222222222,0.3333333333333333,-0.6433333333333333,-0.0003386121042397291,-0.0014294428867361849,-0.00964817099034824
1589543208.2348554,0.09781265587643406,-4.3656253117528685,8.678749376494263,0.5022222222222222,0.3333333333333333,-0.6433333333333333,0.00047720446037969114,0.001090830782496456,-0.010192501134395023
1589543208.2448554,0.09059839350522024,-4.35119678701044,8.70760642597912,0.5022222222222222,0.3333333333333333,-0.6433333333333333,0.002051112353884872,0.001090830782496456,-0.007831639294137252
1589543208.2548554,0.0986811958647667,-4.348681195864766,8.7679128248114,0.5041271615286703,0.3343590698829592,-0.6423075967837074,0.0005153939237780126,-0.0017500839209540794,-0.00734809704811597
1589543208.2648554,0.08693274959676092,-4.343067250403239,8.82,0.5166666666666667,0.3411111111111111,-0.6355555555555555,-0.003439784905363261,0.0004216605510008849,-0.005621446470356172
1589543208.2748554,0.07837316129032258,-4.354417892473118,8.780925247311828,0.5166666666666667,0.3411111111111111,-0.6355555555555555,-0.004058866393909437,-0.0020546654031838195,-0.006240527958902348
1589543208.2848554,0.1,-4.340014857764087,8.680074288820439,0.5166666666666667,0.3411111111111111,-0.6355555555555555,-0.003269250886204182,0.00108758932121127,-0.005457395373767466
1589543208.2948554,0.1,-4.347669306898618,8.741653465506909,0.5166666666666667,0.3411111111111111,-0.6355555555555555,-0.001090830782496456,-7.38740706807536e-05,-0.007381576299521266
1589543208.3048553,0.1,-4.340875487956978,8.775622560215105,0.5166666666666667,0.3411111111111111,-0.6355555555555555,-0.001090830782496456,0.002890488662218406,-0.006640485616296476
1589543208.3148553,0.08361344708099455,-4.335420170621492,8.766386552919005,0.51,0.3477777777777778,-0.65,-0.00039416593068708185,0.001484996713183538,-0.0060454028085129025
1589543208.3248553,0.09952418465416733,-4.360475815345833,8.74476603119584,0.51,0.3477777777777778,-0.65,-0.002129758162391064,0.003324395750091216,-0.008726646259971648
1589543208.3348553,0.09,-4.3724579435331625,8.654747661198977,0.51,0.3477777777777778,-0.65,-0.0008227107357352555,0.004363323129985824,-0.00979912644701645
1589543208.3448553,0.08865212301319285,-4.378652123013193,8.710783015894457,0.51,0.3477777777777778,-0.65,0.0001470305708227809,0.004363323129985824,-0.01279590824831191
1589543208.3548553,0.07922088870155512,-4.369220888701555,8.78,0.5105194075322966,0.3466523947911352,-0.6494805924677034,0.0006658914888292251,0.0036834202601182544,-0.010738332107497667
1589543208.3648553,0.07014439881577691,-4.36,8.78,0.5166666666666667,0.3333333333333333,-0.6433333333333333,-0.004363323129985824,-0.004363323129985824,-0.00875027346095247
1589543208.3748553,0.08616693725527648,-4.36,8.78,0.5166666666666667,0.3333333333333333,-0.6433333333333333,-0.004363323129985824,-0.004363323129985824,-0.011371955182483299
1589543208.3848553,0.09183725862261413,-4.323674517245228,8.718162741377386,0.5166666666666667,0.3333333333333333,-0.6433333333333333,0.0008904169564010027,0.00040082765219090667,-0.01656287556354229
1589543208.3948553,0.10232939319408245,-4.344658786388165,8.723976359164496,0.5166666666666667,0.3333333333333333,-0.6433333333333333,0.0,0.0026898563251214875,-0.01796148728007187
1589543208.4048553,0.10996681802305275,-4.36,8.770033181976947,0.5166445453487019,0.33335914153762564,-0.6433554546512982,-3.619592187815694e-06,0.004359703537798008,-0.019620475716184946
1589543208.4148552,0.10081055710792874,-4.36,8.77918944289207,0.5105403714052859,0.3404806778049443,-0.6494596285947142,-0.0010024127180664581,0.0033609104119193657,-0.015625303212670374
1589543208.4248552,0.06784661861352555,-4.267846618613525,8.723539855840578,0.51,0.3411111111111111,-0.65,-0.009984790180296424,-0.0038259438569677746,-0.01777184655913958
1589543208.4348552,0.060436718253126985,-4.260436718253127,8.70131015475938,0.51,0.3411111111111111,-0.65,-0.018067737588650754,-0.009484007042815807,-0.022621615004152176
1589543208.4448552,0.028306916717080056,-4.168148417019561,8.73862391611212,0.51,0.3411111111111111,-0.65,-0.0203737010298719,-0.015271630954950384,-0.04571665430315264
1589543208.4548552,0.017093358465461804,-4.109792382747533,8.828339061980264,0.51,0.3414110026980079,-0.6498615884983553,-0.023930334627931524,-0.015113098251972533,-0.07283279021764899
1589543208.4648552,-0.10938723131215912,-4.09602021174206,8.75265319217196,0.51,0.3555555555555556,-0.6433333333333333,-0.020002238944169453,-0.006622851184906699,-0.11568388184414573
1589543208.4748552,-0.042106191851138924,-4.070789821944177,8.769473452037214,0.51,0.3555555555555556,-0.6433333333333333,-0.01541522463651698,-0.0002010311541932328,-0.1367841476593471
1589543208.4848552,0.014605516669511992,-4.135078896666097,8.641482574445773,0.51,0.3555555555555556,-0.6433333333333333,-0.008368773526607204,0.005258004963396935,-0.14218308704030683
1589543208.4948552,0.14326553215053994,-4.088774041021491,8.69836723392473,0.51,0.3555555555555556,-0.6433333333333333,-0.006544984694978735,0.009995584192020145,-0.13728875933018564
1589543208.5048552,0.1643487429329746,-3.953907542402152,8.690966387318438,0.5103221291061463,0.35485760915890535,-0.6419374405400329,-0.00686123420540891,0.010328517055842572,-0.1312159434100049
1589543208.5148551,0.23297151375229508,-3.5421709174862297,8.706215891944955,0.5154052973149849,0.3438440780397551,-0.6199103783017325,-0.011851622924736531,0.0011794710704086005,-0.1362063321293325
1589543208.5248551,0.25637637495956,-3.3379780006470394,8.89491487382724,0.5166666666666667,0.3411111111111111,-0.6144444444444445,-0.02143662469391066,-0.008046376869124112,-0.1645713083324013
1589543208.5348551,-0.1713392189136615,-3.3339174023642077,8.802302857997905,0.5166666666666667,0.3411111111111111,-0.6144444444444445,-0.028140430853619103,-0.002196678238940193,-0.2240981507702589
1589543208.544855,-0.08,-3.3567550960694432,8.965726519067589,0.5166666666666667,0.3411111111111111,-0.6144444444444445,-0.04036652664324645,-0.011161646970510308,-0.26155183634448126
1589543208.554855,-0.0683323299217339,-3.234473208910295,8.748597230583986,0.5166666666666667,0.3415205030436818,-0.6153314602983477,-0.03259095027824752,0.003138519150843205,-0.26854533228909744
1589543208.564855,0.11920091470581949,-3.1246974845589963,8.845496569853177,0.5166666666666667,0.3477777777777778,-0.6288888888888889,-0.03255059010754721,8.716668367323311e-05,-0.27136594881691173
1589543208.574855,0.15202443699089602,-3.036963344513656,8.727975563009105,0.5166666666666667,0.3477777777777778,-0.6288888888888889,-0.03904907635118303,-0.0028308287101105924,-0.27361767952077254
1589543208.584855,0.1663796289958245,-3.015430556506263,8.713620371004176,0.5166666666666667,0.3477777777777778,-0.6288888888888889,-0.037483167818420725,0.00030098835541400625,-0.29554039897944473
1589543208.594855,0.03707428831405173,-3.0938587027167554,8.924918432341089,0.5166666666666667,0.3477777777777778,-0.6288888888888889,-0.024324335369653685,0.015054258851795947,-0.31791194728724653
1589543208.604855,0.1120406538411543,-3.1347494475497206,8.659128590926818,0.5166666666666667,0.3477777777777778,-0.6288888888888889,0.0068990828584506204,0.03586987100386549,-0.24208364587613607
1589543208.614855,0.11,-3.2164586442541827,8.901987275155134,0.51,0.36,-0.6288888888888889,0.008625197540587798,0.0010435765859253465,-0.03669633237982736
1589543208.624855,0.11,-3.3235317335637418,8.934932841096536,0.51,0.36,-0.6288888888888889,-0.011140723071019197,-0.017823893088790423,0.07830538754224972
1589543208.634855,0.1464787670473445,-3.3835212329526554,8.65582237498614,0.51,0.36,-0.6288888888888889,0.010524200895254809,0.002826895411146819,0.23026805260013386
1589543208.644855,0.11911631170546474,-3.407790779263662,8.85176737658907,0.51,0.36,-0.6288888888888889,0.006961047401807602,-0.009353216615948696,0.31663506583358303
1589543208.654855,0.10180452369159651,-3.364511309228991,8.886390952616807,0.51,0.36,-0.6288888888888889,-0.0062579144840988685,-0.021627966938576132,0.38650672151623144
1589543208.664855,0.09627712219261515,-3.421240959269128,8.792481918538256,0.4844444444444445,0.36777777777777776,-0.6355555555555555,0.001361566096614343,-0.02481048315727569,0.4799024280902414
1589543208.674855,0.07232794061667301,-3.4292240197944426,8.808448039588885,0.4844444444444445,0.36777777777777776,-0.6355555555555555,0.0031031997285233216,-0.03003538405300263,0.5356347043113286
1589543208.684855,0.013949277150046874,-3.4580253614249767,8.576455321458528,0.4844444444444445,0.36777777777777776,-0.6355555555555555,0.003272492347489368,-0.025448107421075235,0.5909845821087323
1589543208.694855,0.039932171527283816,-3.489932171527284,8.769525200690985,0.4844444444444445,0.36777777777777776,-0.6355555555555555,0.0010957634082276917,-0.0370611171633577,0.6565395512295262
1589543208.704855,0.031061039682200677,-3.4721220793644014,8.787877920635598,0.4844444444444445,0.36777777777777776,-0.6355555555555555,-0.003784615756588447,-0.045864050375232335,0.7015342392224476
1589543208.714855,-0.028424628673759618,-3.4894748762245866,8.809474876224588,0.5158206339173895,0.3558764645294194,-0.6290639301473601,0.008382953552666592,-0.03947039558246704,0.7535946948940957
1589543208.724855,-0.021789123285473652,-3.539265260287158,8.81,0.5166666666666667,0.3555555555555556,-0.6288888888888889,0.005143975431376164,-0.05001792065565886,0.7888902743592046
1589543208.734855,-0.10519857100327479,-3.5893224173861267,8.731355165227747,0.5166666666666667,0.3555555555555556,-0.6288888888888889,0.00507822485210184,-0.04592576206078574,0.8299068521618655
1589543208.744855,-0.25980841764952406,-3.7104470254844437,8.870574747051426,0.5166666666666667,0.3555555555555556,-0.6288888888888889,0.006489255648236814,-0.045863655780750336,0.9091496709785398
1589543208.754855,-0.23469735975573253,-3.7690394939032905,8.945907920732804,0.5166666666666667,0.3555555555555556,-0.6288888888888889,-0.0008152550001894335,-0.052255102598123285,0.9730641391522692
1589543208.764855,-0.12482570728763621,-3.7305361896986264,8.72589808668489,0.4955555555555556,0.3411111111111111,-0.6622222222222223,0.01379184006418028,-0.03800360971882026,1.0718216495434183
1589543208.774855,-0.19182492634269283,-3.7379805473714103,8.807786021085514,0.4955555555555556,0.3411111111111111,-0.6622222222222223,0.02353648147064413,-0.035567449367204296,1.1108002151692737
1589543208.784855,-0.2213084271216731,-3.7421807118694552,8.675669850860583,0.4955555555555556,0.3411111111111111,-0.6622222222222223,0.010955883577663701,-0.0587621349967112,1.1643956139802936
1589543208.7948549,-0.2480788460311044,-3.786798076718507,8.79167499946812,0.4955555555555556,0.3411111111111111,-0.6622222222222223,0.011929283477888129,-0.055841935296037905,1.1965178106876997
1589543208.8048549,-0.2242750479043235,-3.7128251437129705,8.714250159681077,0.4955555555555556,0.3411111111111111,-0.6622222222222223,0.015740681224022432,-0.05843852686974032,1.2268845995878157
1589543208.8148549,-0.2795325126332896,-3.5995325126332895,8.888831281583224,0.5222222222222223,0.32,-0.6577777777777778,0.005403158951478683,-0.06766550515544935,1.2500495809401022
1589543208.8248549,-0.22351016228490017,-3.5435101622849,8.74877540571225,0.5222222222222223,0.32,-0.6577777777777778,-0.0007079314753037367,-0.07173956543997093,1.24495700558445
1589543208.8348548,-0.4187404427406955,-3.5731234071234494,8.77312340712345,0.5222222222222223,0.32,-0.6577777777777778,0.009748778850929793,-0.06296182361691088,1.2500577276451692
1589543208.8448548,-0.3674455587964998,-3.6745742597994164,8.509059415830903,0.5222222222222223,0.32,-0.6577777777777778,0.023841672148333555,-0.04873529622600551,1.2884083197683238
1589543208.8548548,-0.6691093618891597,-3.72485156031486,8.718548167978584,0.5222222222222223,0.32,-0.6577777777777778,0.01013066538256593,-0.06884477281579802,1.3258850715947554
1589543208.8648548,-0.52,-3.6810601508932055,8.708165432155388,0.5433333333333333,0.3,-0.65,0.025139138074355513,-0.040954545935534444,1.3551554884590786
1589543208.8748548,-0.5206200624463024,-3.680699063305463,9.008917876825716,0.5433333333333333,0.3,-0.65,0.016497738378146196,-0.06469720776903928,1.4246077666265682
1589543208.8848548,-0.5294092747427758,-3.548860878858364,8.710084658745625,0.5433333333333333,0.3,-0.65,0.018415247043524072,-0.06949097943248399,1.455287905272614
1589543208.8948548,-0.7283363456028212,-3.488260083755786,8.862466387480714,0.5433333333333333,0.3,-0.65,0.016662806858340505,-0.07357580296797167,1.4883916467429024
1589543208.9048548,-0.7960230082244311,-3.407953983551138,8.85998082647964,0.5433333333333333,0.3,-0.65,0.005228876633469312,-0.08858466216784758,1.530677597174514
1589543208.9148548,-0.8880577909196392,-3.4348635700116033,8.812776883632145,0.5652630659629949,0.2735330813090292,-0.6643677558608128,0.004499896434153607,-0.09446279375848853,1.6141739271657878
1589543208.9248548,-0.9011266359099896,-3.4951644854533472,8.78112663590999,0.5755555555555556,0.2611111111111111,-0.6711111111111111,0.008322070361430076,-0.08928934209242434,1.7068945416328802
1589543208.9348547,-0.89,-3.4702320260269564,8.642742483286261,0.5755555555555556,0.2611111111111111,-0.6711111111111111,0.02260828791351204,-0.08032564177294628,1.8268838967088794
1589543208.9448547,-0.9704747444822989,-3.495766553103244,8.833540956895273,0.5755555555555556,0.2611111111111111,-0.6711111111111111,0.01642612450271178,-0.09317053775554957,1.9219963340557402
1589543208.9548547,-1.0040434181121634,-3.532057890816218,8.884043418112164,0.5755555555555556,0.2611111111111111,-0.6711111111111111,0.011774657542526287,-0.10364471160825191,1.998087223207891
1589543208.9648547,-1.2224630374440606,-3.567712570101399,8.816099813062936,0.5817139044669776,0.2313457580392379,-0.6916389408158513,0.029046142542182865,-0.0856574362163581,2.1054536288570453
1589543208.9748547,-1.1522117599695822,-3.4734329359665406,8.994355304063877,0.5822222222222222,0.2288888888888889,-0.6933333333333334,0.023839913890255072,-0.1050616354568279,2.2067860979706753
1589543208.9848547,-1.0719770043505283,-3.301279676817899,8.687443132380361,0.5822222222222222,0.2288888888888889,-0.6933333333333334,0.023731908405448532,-0.10964117141319506,2.3179516171700194
1589543208.9948547,-0.9402952767840903,-3.28656824107197,9.082813314739587,0.5822222222222222,0.2288888888888889,-0.6933333333333334,0.030978985743956834,-0.11416288533444764,2.442393204525971
1589543209.0048547,-0.8882447262789308,-3.164734178836792,8.812659919719874,0.5822222222222222,0.2288888888888889,-0.6933333333333334,0.01888067007857507,-0.12911257229221035,2.4939118299016534
1589543209.0148547,-0.7930617115581317,-3.0508707807705417,8.733483123082168,0.5877777777777777,0.17,-0.7144444444444444,0.04135353257350628,-0.08907122409141177,2.507197975982657
1589543209.0248547,-0.9423909597463733,-3.067263666058219,8.764872706311845,0.5877777777777777,0.17,-0.7144444444444444,0.016334690562755556,-0.10948371674339949,2.463758327991049
1589543209.0348547,-1.226941619350679,-3.2365077681412617,8.656507768141262,0.5877777777777777,0.17,-0.7144444444444444,-0.0072595456717784775,-0.14171568687139607,2.404146055594471
1589543209.0448546,-1.3665160874357853,-3.367358831971049,8.78735883197105,0.5877777777777777,0.17,-0.7144444444444444,0.022239303786795894,-0.11792629214673932,2.3813082366588008
1589543209.0548546,-1.433312228495049,-3.3666719428762377,8.939944599799505,0.5877777777777777,0.17,-0.7144444444444444,0.020000578753903608,-0.12144352493721274,2.36674407989052
1589543209.0648546,-1.4150655192646195,-3.1892489732055544,8.740393115587718,0.5947675858921703,0.12107134319925245,-0.7194371645261534,0.03607934013696913,-0.10768929817883602,2.350754630366001
1589543209.0748546,-1.446647782830713,-3.1455681447795247,8.771079638051189,0.5955555555555555,0.11555555555555555,-0.72,0.03817907738737596,-0.10581058590215622,2.3496495054973656
1589543209.0848546,-1.4437089860494114,-3.044554204660588,8.671972176759411,0.5955555555555555,0.11555555555555555,-0.72,0.03316024410631548,-0.1036596573531303,2.351800434046392
1589543209.0948546,-1.4888366850671826,-3.0588366850671824,8.894183425335912,0.5955555555555555,0.11555555555555555,-0.72,0.026050601205107504,-0.11023979762002674,2.362549127926555
1589543209.1048546,-1.5739658861111927,-3.0945042642361007,9.006572492013715,0.5955555555555555,0.11555555555555555,-0.72,0.0277033806274078,-0.10363822745716877,2.3632895418385744
1589543209.1148546,-1.52461345671872,-2.9476890945311998,8.833228584281215,0.5904956122499982,0.08899085320137952,-0.727589914958336,0.0254246080375848,-0.10064188041498888,2.329812522345201
1589543209.1248546,-1.4955255450699643,-2.8932883176049464,9.053085746827204,0.5866666666666667,0.06888888888888889,-0.7333333333333333,0.01297531324197623,-0.10968582171488443,2.247162971712031
1589543209.1348546,-1.5517185979381445,-2.887070350515464,8.973633154639176,0.5866666666666667,0.06888888888888889,-0.7333333333333333,0.02116677738946492,-0.08901781953520996,2.1837645607899696
1589543209.1448545,-1.5509927874416631,-2.749467543487484,8.939007212558336,0.5866666666666667,0.06888888888888889,-0.7333333333333333,0.012732105621368,-0.09564311277175307,2.0836876518272907
1589543209.1548545,-1.5472795057520239,-2.714559011504048,9.051913080528333,0.5866666666666667,0.06888888888888889,-0.7333333333333333,0.018752808015409888,-0.08665667564333158,1.996163396829675
1589543209.1648545,-1.6555208584518928,-2.6760329756450445,8.703090185676393,0.5739650818530129,0.007335054791951345,-0.7587365029606409,0.026744293118918114,-0.059618821129028776,1.8965759518062382
1589543209.1748545,-1.8663675716369452,-2.6432226038676894,9.02488354585235,0.5722222222222222,-0.0011111111111111113,-0.7622222222222222,8.468784600382251e-06,-0.09274838386049455,1.8101014421981847
1589543209.1848545,-1.6585855122160307,-2.39078439777111,8.758480497213888,0.5722222222222222,-0.0011111111111111113,-0.7622222222222222,0.008378309812067723,-0.08057863658281203,1.7553293134433834
1589543209.1948545,-1.7260144841505403,-2.4338572955004154,9.081900747952037,0.5722222222222222,-0.0011111111111111113,-0.7622222222222222,0.028347613674539862,-0.06162099593654888,1.7086040112879823
1589543209.2048545,-1.840706567538718,-2.4761413135077435,8.897934605516959,0.5722222222222222,-0.0011111111111111113,-0.7622222222222222,0.026102864217800312,-0.05152396685701232,1.654736918878344
1589543209.2148545,-1.9578437190900098,-2.4968348170128585,9.122106824925815,0.5585525881965051,-0.04743598197604131,-0.7667787668974613,-0.00605945170573699,-0.07707350671223474,1.5695307041362732
1589543209.2248545,-1.9272005599917037,-2.376801306647309,8.998003733278026,0.5522222222222222,-0.06888888888888889,-0.7688888888888888,0.02670306923243541,-0.028144095949279413,1.5073103824910619
1589543209.2348545,-1.9569167754956667,-2.3156998694052,8.521765404250267,0.5522222222222222,-0.06888888888888889,-0.7688888888888888,0.015811542332396393,-0.03252133971731509,1.4601932341923884
1589543209.2448545,-2.018236150379307,-2.324118075189654,8.89255829577583,0.5522222222222222,-0.06888888888888889,-0.7688888888888888,-0.01298342994477845,-0.06252002747526988,1.4058876785606467
1589543209.2548544,-2.050258798971762,-2.2489648041129517,8.905200139160014,0.5522222222222222,-0.06888888888888889,-0.7688888888888888,0.0020815367967122016,-0.0444135256089905,1.3785842643676192
1589543209.2648544,-2.0505336872423334,-2.2289326255153328,8.902064720167166,0.5364450342927781,-0.09728782716188827,-0.7767774828536109,0.010450216804540792,-0.039953225221854724,1.3623388538009478
1589543209.2748544,-2.1096914247691925,-2.2325771438077022,8.994845712384596,0.5188888888888888,-0.1288888888888889,-0.7855555555555556,0.008093133331519389,-0.06066681299888923,1.3524539752211975
1589543209.2848544,-2.186826639723836,-2.2253653279447674,9.164863854508713,0.5188888888888888,-0.1288888888888889,-0.7855555555555556,-0.011677978627648467,-0.045817244070377114,1.3673415346900284
1589543209.2948544,-2.2781796690307328,-2.2356816390858945,9.153640661938534,0.5188888888888888,-0.1288888888888889,-0.7855555555555556,0.005725787109699686,-0.023849566635432758,1.4020639737942706
1589543209.3048544,-2.1807836437024126,-2.1192058068067148,8.623667553435464,0.5188888888888888,-0.1288888888888889,-0.7855555555555556,0.024658244348052916,-0.04538517998642391,1.430481525413116
1589543209.3148544,-2.1469602795145275,-2.0969602795145277,8.566827877896285,0.49492419598708676,-0.19678885211066163,-0.7705776224919292,-0.03896219680165808,-0.037876380871968235,1.460040895431299
1589543209.3248544,-2.3543609917355375,-2.117030082644628,8.775845950413224,0.4922222222222222,-0.20444444444444448,-0.7688888888888888,0.00248514691591821,-0.0387839565789659,1.5241079759725702
1589543209.3348544,-2.294298230939735,-2.031659905482832,8.530256367362302,0.4922222222222222,-0.20444444444444448,-0.7688888888888888,-0.001940238098765184,-0.03926990816987242,1.5869961287876657
1589543209.3448544,-2.2894567881393386,-2.0353481457672062,8.765807384788461,0.4922222222222222,-0.20444444444444448,-0.7688888888888888,-0.01554204864662153,-0.07782875367691294,1.6506882315929972
1589543209.3548543,-2.3430673163226055,-1.9773317091934863,8.669326836773946,0.4922222222222222,-0.20444444444444448,-0.7688888888888888,-0.00498355393161453,-0.054220569964716005,1.7343637940914411
1589543209.3648543,-2.1738664073833998,-1.8496512022718152,8.671569589776832,0.4746204895515017,-0.22539888810006417,-0.7797851995898111,0.0029664927132229913,-0.051765286060984156,1.8115242659672184
1589543209.3748543,-2.3696194705053832,-1.8949048676263458,9.133202988851489,0.4688888888888889,-0.23222222222222225,-0.7833333333333333,-0.005104189127312668,-0.08913909580652739,1.8360532802154546
1589543209.3848543,-2.278596267766523,-1.8480621095408505,9.075478255595318,0.4688888888888889,-0.23222222222222225,-0.7833333333333333,-0.00429285944445427,-0.0798881097403619,1.845897075040598
1589543209.3948543,-2.289503372470647,-1.7338713464901323,8.592607294529104,0.4688888888888889,-0.23222222222222225,-0.7833333333333333,0.02924927990373429,-0.02972329942563101,1.8547398247317104
1589543209.4048543,-2.1741751238126166,-1.6207444994722742,8.431941625395796,0.4688888888888889,-0.23222222222222225,-0.7833333333333333,0.01685558066226135,-0.05611118590354944,1.8469824680818117
1589543209.4148543,-2.4201672101311895,-1.7700928945173278,9.622535072419808,0.38618382582172683,-0.3024770607416395,-0.756654280731023,-0.01309402267791852,-0.11869495432829368,1.8260446499671255
1589543209.4248543,-2.4070070401347854,-1.5625176003369636,8.563734881761839,0.3655555555555556,-0.32,-0.75,0.02405013089553893,-0.04519704641466528,1.8123459333871623
1589543209.4348543,-2.365242395673101,-1.5128184389420931,8.512941993747829,0.3655555555555556,-0.32,-0.75,0.00859755225827195,-0.06670295186943086,1.7826487311255241
1589543209.4448543,-2.36,-1.5558730670103094,9.204600515463918,0.3655555555555556,-0.32,-0.75,-0.02129720588944917,-0.12667483318205783,1.7495541127118466
1589543209.4548542,-2.444249225873779,-1.5219169247087403,9.304057447864096,0.3655555555555556,-0.32,-0.75,-0.0011152215893450827,-0.09478900172097807,1.754380014194123
1589543209.4648542,-2.3185033953220007,-1.4081425591407395,9.007403133460565,0.35432022053565704,-0.326420191439942,-0.7227141863802465,0.007473529525545489,-0.06755181797871933,1.7624186114890175
1589543209.4748542,-2.1405291534454074,-1.3172486748433907,9.047301681107767,0.3422222222222222,-0.3333333333333333,-0.6933333333333334,0.0006291068780429972,-0.09348824552048558,1.7426223627517068
1589543209.4848542,-2.2244250684171765,-1.3134352241628557,9.196026257648631,0.3422222222222222,-0.3333333333333333,-0.6933333333333334,0.006036885084860485,-0.10513576781209248,1.7222391987413948
1589543209.4948542,-2.2164522941063542,-1.2817412171242082,9.291297753887502,0.3422222222222222,-0.3333333333333333,-0.6933333333333334,0.010774283693500222,-0.11482391815583831,1.6898051484557086
1589543209.5048542,-1.374086566150302,-0.9968233973743669,8.901084218143154,0.3422222222222222,-0.3333333333333333,-0.6933333333333334,0.009422991831478903,-0.10671616698371039,1.54791950294347
1589543209.5148542,-1.5055694464009015,-0.9931821383293422,9.387274263980842,0.36131317399946783,-0.33969698392574854,-0.6678787309636726,-0.004549289879459883,-0.07520528385583723,1.2701976139039695
1589543209.5248542,-1.73,-1.05,9.66,0.3688888888888889,-0.3422222222222222,-0.6577777777777778,-0.009817477042468105,-0.0643590161672909,1.189005552921137
1589543209.5348542,-1.6610706594761737,-1.0081500432533912,9.600917708122434,0.3688888888888889,-0.3422222222222222,-0.6577777777777778,-0.010354550231472175,-0.06919267486832753,1.129390428941685
1589543209.5448542,-1.4507579771915677,-0.8818949429789195,9.406735399147564,0.3688888888888889,-0.3422222222222222,-0.6577777777777778,-0.01212316233540987,-0.08225763806094315,0.9418801700889694
1589543209.5548542,-1.479654403567447,-0.8962095875139353,8.89139353400223,0.3688888888888889,-0.3422222222222222,-0.6577777777777778,-0.010532536685843707,-0.012903907952140352,0.7659176524667786
1589543209.5648541,-1.690155403515019,-0.8539346847419691,8.372472976066332,0.3688888888888889,-0.3395265265519863,-0.6490167668495109,0.005793441488827096,-0.03477932098618688,0.6732767286950532
1589543209.5748541,-2.091254381707383,-0.8000320875802189,9.830355929461252,0.3688888888888889,-0.3377777777777778,-0.6433333333333333,-0.008712645411876186,-0.10858857770724874,0.6043482551992275
1589543209.5848541,-1.8418026624902115,-0.750559122944401,8.88075176194205,0.3688888888888889,-0.3377777777777778,-0.6433333333333333,0.017337973682326206,-0.02802999462073784,0.5510051942822924
1589543209.594854,-1.5441530592169979,-0.7311229588825496,7.696825496753886,0.3688888888888889,-0.3377777777777778,-0.6433333333333333,0.013410930735285362,-0.006589450588768475,0.41469296003335565
1589543209.604854,-1.6896214973763402,-0.7225299036731238,8.394800919415083,0.3688888888888889,-0.3377777777777778,-0.6433333333333333,-0.05368538979135139,-0.11526737238692548,0.17161469016545045
1589543209.614854,-1.7178165848830975,-0.6727219496103254,8.178005855428642,0.3703444989668238,-0.3378586450043297,-0.6447080761847163,-0.04600858043853594,-0.06695189273428714,0.04832837821783121
1589543209.624854,-1.69,-0.6908290776241357,8.86854061910748,0.3888888888888889,-0.3388888888888889,-0.6622222222222223,0.000722264017873106,-0.019934144080355373,-0.11392646805374783
1589543209.634854,-2.012683176966612,-0.8978862004785961,9.592926653245717,0.3888888888888889,-0.3388888888888889,-0.6622222222222223,-0.030640797354957044,-0.03970442567722383,-0.28533654693079563
1589543209.644854,-2.092339708720828,-0.8254886822249516,8.5354493770837,0.3888888888888889,-0.3388888888888889,-0.6622222222222223,0.01994400047578,0.05834813468611777,-0.42021427851315307
1589543209.654854,-1.813673261981135,-0.8164178867469114,8.406368024899166,0.3888888888888889,-0.3388888888888889,-0.6622222222222223,0.0033792300373572948,0.029450179277407097,-0.5239840844547451
1589543209.664854,-2.0110537459591282,-1.0215312777662249,9.628325992022232,0.39340773368790083,-0.34611904056730797,-0.6572514929433092,-0.05890486225480863,-0.03664999234112892,-0.6573375124584924
1589543209.674854,-1.827828995860974,-1.0039473833418382,9.444078924987243,0.4,-0.3566666666666667,-0.65,-0.04551705901367965,0.012957210515169886,-0.7260340104814831
1589543209.684854,-2.03634250764526,-1.079756880733945,9.36,0.4,-0.3566666666666667,-0.65,-0.010588897894004204,0.023452278045732102,-0.7465404858512671
1589543209.694854,-2.046908561993867,-1.1038407107477004,9.10683780171397,0.4,-0.3566666666666667,-0.65,-0.000922218995533013,0.014313691303633917,-0.7523002956928443
1589543209.704854,-1.9829494445703921,-1.1177630304404278,8.679933636981925,0.4,-0.3566666666666667,-0.65,-0.001896976785232549,0.045700124184390234,-0.8217914131389058
1589543209.714854,-2.1003677184902676,-1.2886618932824812,9.42483143237506,0.4026830097106786,-0.34191011325793463,-0.662744296125723,-0.02562170878605148,0.0113005170866307,-0.8865936084349193
1589543209.724854,-1.7536931792835795,-1.0771682205469064,8.2744510862292,0.4044444444444445,-0.3322222222222222,-0.6711111111111111,-0.002887779488212172,0.0614768813403077,-0.9350750661795206
1589543209.734854,-1.7307560115283693,-1.0947257710672345,8.132570439196456,0.4044444444444445,-0.3322222222222222,-0.6711111111111111,-0.03536225922274128,0.01842252103234729,-1.0051603057009149
1589543209.744854,-1.8816857394366198,-1.3168649967989756,9.226491277208707,0.4044444444444445,-0.3322222222222222,-0.6711111111111111,-0.07166616824078889,-0.03848111600032712,-1.0848632502363535
1589543209.754854,-2.0030974752839286,-1.3943786257047144,9.451549146172074,0.4044444444444445,-0.3322222222222222,-0.6711111111111111,-0.05294597962909181,-0.000600718970016019,-1.1344848696181218
1589543209.764854,-2.174447258762971,-1.2161748508865102,7.74490530272081,0.4044444444444445,-0.3322222222222222,-0.6711111111111111,0.01359526851883118,0.13995832206155168,-1.1404661054066991
1589543209.774854,-3.1076444275245074,-1.6037441705529647,9.29538212620158,0.4044444444444445,-0.3644444444444445,-0.6711111111111111,-0.04084744445425746,0.028344573957896392,-1.1349166665241799
1589543209.784854,-2.976816335350043,-1.6123238980121002,9.012689930855661,0.4044444444444445,-0.3644444444444445,-0.6711111111111111,-0.025636031884130838,0.03422293018149615,-1.0553833075517134
1589543209.794854,-2.9760152724748354,-1.6755258590767095,8.956650468587297,0.4044444444444445,-0.3644444444444445,-0.6711111111111111,-0.010726944428638353,0.05720595294517252,-0.9958137797656382
1589543209.804854,-3.14137215393915,-1.7416220028208744,8.939643360870441,0.4044444444444445,-0.3644444444444445,-0.6711111111111111,-0.008193868944482747,0.06867178699423941,-0.9478288672497485
1589543209.814854,-2.294244043553377,-1.5426047651572985,8.726175017075816,0.3921898116526266,-0.41311284324623554,-0.6599068754157348,-0.009638659508915709,0.05361160029469665,-0.887024243703171
1589543209.824854,-2.3500118232954748,-1.5896900863458852,8.737795134534771,0.3655555555555556,-0.5188888888888888,-0.6355555555555555,-0.012680424200971752,0.02403466299323539,-0.8888918623930818
1589543209.834854,-2.194136074584029,-1.5866358401020466,8.416419741507063,0.3655555555555556,-0.5188888888888888,-0.6355555555555555,-0.010884735125018283,0.05752786462444008,-0.9229337360312043
1589543209.8448539,-1.6689664669834055,-1.5679329339668113,9.01208772292226,0.3655555555555556,-0.5188888888888888,-0.6355555555555555,-0.026556242726779037,0.03552703588880293,-0.9786081200498151
1589543209.8548539,-1.7902701080432173,-1.6656081182472988,9.475406662665065,0.3655555555555556,-0.5188888888888888,-0.6355555555555555,-0.01238982593791171,0.06820630627779592,-1.115094237662705
1589543209.8648539,-1.8935124523221898,-1.7365705631590755,8.969174332510656,0.522700371450652,-0.8246706803280732,-0.26071011891406776,-0.01115182961733251,0.07216590876322358,-1.2965384130473065
1589543209.8748538,-1.91,-1.83,9.2,0.7144444444444444,-1.1977777777777778,0.19666666666666666,-0.04472406208235469,0.009817477042468105,-1.4104442017679175
1589543209.8848538,-1.974284713755804,-1.862142356877902,8.932147026017482,0.7144444444444444,-1.1977777777777778,0.19666666666666666,-0.003234179855478775,0.08227867980489928,-1.6132186965950432
1589543209.8948538,-2.2582224894007465,-2.10300765677403,9.186874644054926,0.7144444444444444,-1.1977777777777778,0.19666666666666666,-0.0065541882705234256,0.10967397080855407,-1.8951820530846113
1589543209.9048538,-2.4521248365592783,-2.2940713351767306,9.301605041476432,0.7144444444444444,-1.1977777777777778,0.19666666666666666,-0.044289675134522415,0.08134874126190732,-2.0574786184386964
1589543209.9148538,-2.108331740836366,-2.2164327390270184,8.613394864705523,0.7247819860357216,-0.9813159220331555,-0.05174759036008503,-0.027948632997906515,0.10253305953105127,-2.1735110594092957
1589543209.9248538,-1.2233351206434318,-2.1307238605898124,8.349056300268098,0.7511111111111111,-0.43,-0.6844444444444444,-0.0012803370417612588,0.1175886338738083,-2.3063947018201754
1589543209.9348538,-0.7979456259592195,-2.316924468318351,8.694616312212235,0.7511111111111111,-0.43,-0.6844444444444444,-0.05065409421221744,0.09034385623840918,-2.654892287513803
1589543209.9448538,-0.7417432542294143,-2.4261302311176496,8.851615500754907,0.7511111111111111,-0.43,-0.6844444444444444,-0.0642252752711519,0.11916803708439166,-2.952591894156947
1589543209.9548538,-1.0096614532925554,-2.6696922302659596,9.379333165576247,0.7511111111111111,-0.43,-0.6844444444444444,-0.05891157674880487,0.12979543412908578,-3.259015175612294
1589543209.9648538,-0.8187815112168368,-2.8636151584233653,8.501070142399312,0.6662774639045825,-0.3362364951927842,-0.7062729852461243,-0.015682165644328817,0.20836878992620006,-3.701208486956372
1589543209.9748538,-0.9850788262490369,-3.266230293437741,8.448031530499614,0.5611111111111111,-0.22,-0.7333333333333333,-0.04610154348470537,0.2063635023751967,-4.033932898167817
1589543209.9848537,-1.0653973997195436,-3.47532555442065,8.744247874937244,0.5611111111111111,-0.22,-0.7333333333333333,-0.061455358818207746,0.1877091027593625,-4.268523716290197
1589543209.9948537,-1.3585732979103056,-3.7951080534517625,9.33374122685277,0.5611111111111111,-0.22,-0.7333333333333333,-0.05315251303662308,0.1738893873754914,-4.465906943360353
1589543210.0048537,-1.108307434855367,-3.7429333014582835,8.888854888835763,0.5611111111111111,-0.22,-0.7333333333333333,-0.030125236152228806,0.23975485292763252,-4.660343600057394
1589543210.0148537,-1.52396466896525,-4.30056638128075,8.96309727656607,0.5689459230275873,-0.18409044538281744,-0.732027531347254,-0.056543642327950464,0.24170879750389762,-4.749010011821581
1589543210.0248537,-2.016460906723643,-4.417292849035187,8.82375375575883,0.5877777777777777,-0.09777777777777777,-0.7288888888888889,-0.025543590476070948,0.24770933845496487,-4.804950782947417
1589543210.0348537,-2.199377860026918,-4.572228465679677,8.948823687752355,0.5877777777777777,-0.09777777777777777,-0.7288888888888889,-0.027338634505777348,0.23663870779547694,-4.8218977836089705
1589543210.0448537,-1.886345683656197,-4.815350761707729,8.743769042693248,0.5877777777777777,-0.09777777777777777,-0.7288888888888889,-0.04765845228021943,0.22515777249265148,-4.777486466629392
1589543210.0548537,-1.6609442006269592,-4.750726018808777,9.297650156739811,0.5877777777777777,-0.09777777777777777,-0.7288888888888889,-0.04859346797652927,0.20060986766847394,-4.740565652426407
1589543210.0648537,-1.5908200626959248,-4.511135214211077,8.543815673981191,0.5877777777777777,-0.09777777777777777,-0.7288888888888889,-0.04476878956396928,0.20825922449359394,-4.713792903538488
1589543210.0748537,-2.3917993360644156,-5.330381056646419,9.232415595423083,0.6322222222222222,0.021111111111111112,-0.7422222222222222,-0.061121271996302864,0.185638550274996,-4.6485848949075335
1589543210.0848536,-17.813841323539634,-15.186664272308084,10.251403480316055,0.6322222222222222,0.021111111111111112,-0.7422222222222222,0.04928509307851953,0.5157985405772934,-4.233185528885171
1589543210.0948536,-20.95913238071164,-15.417888718718867,5.3470905387120276,0.6322222222222222,0.021111111111111112,-0.7422222222222222,0.048838849086365585,1.0142099154830813,-4.314246368748065
1589543210.1048536,2.5653194653026645,0.42307302276478254,-3.957915334631913,0.6322222222222222,0.021111111111111112,-0.7422222222222222,-0.16613829841989636,1.3244301030237629,-5.386410876564105
1589543210.1148536,-0.8462672485719787,-2.578313972145562,7.414285026635004,0.6159443838293078,0.06922116680572492,-0.730285140734085,-1.4002704422113537,-0.28809844913707844,-7.322823319141411
1589543210.1248536,-0.2780908966586133,-3.4831822947531568,15.806665906915256,0.5822222222222222,0.1688888888888889,-0.7055555555555556,-0.5347291082873672,-0.4634146224859761,-5.667485197859133
1589543210.1348536,0.7809808808579017,-2.234770767061293,5.930528809890795,0.5822222222222222,0.1688888888888889,-0.7055555555555556,1.036108517398027,-0.7291016291144418,-5.194542464436636
1589543210.1448536,0.9597953628701669,-1.1412514347555176,3.502778342570426,0.5822222222222222,0.1688888888888889,-0.7055555555555556,2.3339834039741345,0.2791896122487312,-4.782673497540519
1589543210.1548536,0.68593973424476,-1.336057615178042,5.6215715132703235,0.5822222222222222,0.1688888888888889,-0.7055555555555556,0.21950012540932698,1.2906138171884955,-3.5650138412506105
1589543210.1648536,1.4977963589439542,-2.01626181425034,15.034719945593416,0.5822222222222222,0.1688888888888889,-0.7055555555555556,-0.593494976340465,-0.24282738552308514,-2.8238239987328897
1589543210.1748536,1.2524971525664246,-1.4046753925723996,7.699328005676196,0.5333333333333333,0.32666666666666666,-0.7144444444444444,-0.02274065566225804,0.15564807130789407,-2.185544700163749
1589543210.1848536,1.2254183204306992,-2.2869737100640544,9.501815145203757,0.5333333333333333,0.32666666666666666,-0.7144444444444444,0.2291094007445699,0.3076492170843148,-1.998056401606424
1589543210.1948535,0.5911373581415205,-2.614279056529937,9.335733394998043,0.5333333333333333,0.32666666666666666,-0.7144444444444444,-0.10414688365460542,-0.0022277644846843275,-1.6961256004963026
1589543210.2048535,0.23293862760997364,-2.5742980944658425,8.146403304277316,0.5333333333333333,0.32666666666666666,-0.7144444444444444,-0.025003033421686326,0.11584814186947322,-1.4729948778923216
1589543210.2148535,0.2192764678168398,-2.8452166109528187,8.56724653938483,0.5320450596649192,0.3327859665916337,-0.7113847944819609,0.04160917524132164,0.09994499351536595,-1.133103271347559
1589543210.2248535,0.46798270521424884,-2.6857247031491998,8.649545689210118,0.5244444444444445,0.3688888888888889,-0.6933333333333334,-0.0787613473459733,0.00034246849231061357,-0.7987002309512973
1589543210.2348535,0.18391873440369133,-3.0065203163990772,8.738617401949245,0.5244444444444445,0.3688888888888889,-0.6933333333333334,0.006083902094580321,0.046006464917147015,-0.5353884946231228
1589543210.2448535,0.1717454350161117,-3.0255030433225922,8.571272824919442,0.5244444444444445,0.3688888888888889,-0.6933333333333334,0.05123995014529047,0.04063178677301067,-0.3904631812776914
1589543210.2548535,0.11500543549158586,-3.0649967387050485,8.899982606426926,0.5244444444444445,0.3688888888888889,-0.6933333333333334,0.012543249574370474,0.012272142763162122,-0.2296102744090094
1589543210.2648535,0.16080012691539597,-3.032514231321973,8.678076111909517,0.5232084709805459,0.3749142595253945,-0.6913248764544981,-0.003785709510280212,0.015907431445937183,-0.07463577859437495
1589543210.2748535,-0.0035931988278989635,-3.1029685137833853,8.779843408798222,0.516250023330036,0.40883669182162996,-0.6800173990224196,0.005607520497983051,0.013345641443683567,0.05174586151680351
1589543210.2848535,0.06631277877176625,-6.2879154801804304,8.743399188569413,0.5155555555555555,0.4122222222222222,-0.6788888888888889,-0.010262187885882856,-0.023119328691112738,0.2770931745792817
1589543210.2948534,1.6167920114795666,-14.735301633479448,8.493181844986536,0.5155555555555555,0.4122222222222222,-0.6788888888888889,0.003511873450545811,-0.031634092692397225,0.4581737158712931
1589543210.3048534,3.7712945359553007,-16.645130977432697,7.629958638705464,0.5155555555555555,0.4122222222222222,-0.6788888888888889,-0.0325921019051216,-0.03334383399578039,0.5875213328050872
1589543210.3148534,0.05056908061824217,0.2769414411145803,7.454955191930919,0.5155555555555555,0.4122222222222222,-0.6788888888888889,-0.27329102611185857,-0.043303789480197086,0.5468515145770524
1589543210.3248534,0.35363280709043066,-2.9222593823570144,9.67103967594516,0.4977777777777778,0.4244444444444445,-0.6933333333333334,0.2625681508308797,0.06355244945140054,0.3610873841958443
1589543210.3348534,-0.5539414554770808,-4.1565603794488295,7.732461051100955,0.4977777777777778,0.4244444444444445,-0.6933333333333334,0.26890421446614476,0.12770509375845907,0.2050618171774427
1589543210.3448534,0.5676996943836737,-4.722329197214383,9.083127974749077,0.4977777777777778,0.4244444444444445,-0.6933333333333334,-0.11375822606781914,-0.0743602141877559,-0.016311016220157473
1589543210.3548534,0.7147968402945941,-4.421130279396783,9.370317640575161,0.4977777777777778,0.4244444444444445,-0.6933333333333334,-0.037349609507340745,-0.15229700307944383,-0.026244136373019665
1589543210.3648534,-0.07292426022860805,-4.207044119218032,8.514371327849588,0.4986792484183789,0.4211390520955739,-0.6933333333333334,0.05957716640143132,0.09743035794687484,-0.00704580432290452
1589543210.3748534,0.4118905472636816,-4.384054726368159,8.982904228855721,0.5044444444444445,0.4,-0.6933333333333334,-0.0012865426486346574,0.01859500160386216,-0.003383067855914071
1589543210.3848534,0.19218608388954617,-4.418019956693529,8.720830635980088,0.5044444444444445,0.4,-0.6933333333333334,-0.030315681837726025,-0.03329246132447389,-0.0033406251360561263
1589543210.3948534,0.10700981912144703,-4.317997932816538,8.585023255813953,0.5044444444444445,0.4,-0.6933333333333334,0.009709690558947007,0.020724657393755664,0.00043621956563088247
1589543210.4048533,0.21650516659637284,-4.27955785182061,8.85823140728244,0.5044444444444445,0.4,-0.6933333333333334,0.022999288311360985,0.004030326828798808,-0.001090830782496456
1589543210.4148533,0.15016765078026148,-4.250074511457894,8.740298045831576,0.5044444444444445,0.4,-0.6933333333333334,0.010938787596934355,1.0159923989932346e-05,-0.001090830782496456
1589543210.4248533,0.18,-4.331150999406294,8.756547001781119,0.5044444444444445,0.4066666666666667,-0.6855555555555556,-0.009943031600770091,0.002818652340752321,-0.0008880998923633822
1589543210.4348533,0.1804860355458832,-4.379513964454117,8.610729053318824,0.5044444444444445,0.4066666666666667,-0.6855555555555556,-0.015218612701466697,-0.0085145732460369,0.0
1589543210.4448533,0.2,-4.343304793534392,8.658550229406233,0.5044444444444445,0.4066666666666667,-0.6855555555555556,-0.0094476403633936,-0.00040470322517376333,-0.00020235161258688167
1589543210.4548533,0.2,-4.27083795665278,8.739068937052465,0.5044444444444445,0.4066666666666667,-0.6855555555555556,0.006362170912728558,-0.0021613489225206697,-0.0010806744612603348
1589543210.4648533,0.17173334242419078,-4.277066664393953,8.789466650757667,0.5044444444444445,0.4066666666666667,-0.6855555555555556,0.013482666240424091,0.0024434594653039913,0.00045087622760251194
1589543210.4748533,0.18797014587809568,-4.28,8.763383090203174,0.4930491998274425,0.4128822546395768,-0.6928070748572841,0.004158183291549593,0.0023292767223362823,-0.0009432156251530856
1589543210.4848533,0.19,-4.370664750564566,8.735273249846028,0.4922222222222222,0.4133333333333333,-0.6933333333333334,-0.0120120377766402,-0.0014146984642140446,-0.00019174077519471683
1589543210.4948533,0.19,-4.3320924987856495,8.5983699951426,0.4922222222222222,0.4133333333333333,-0.6933333333333334,-0.00712885279856533,0.0022957896693790777,0.00022825620877233105
1589543210.5048532,0.19,-4.346644924016376,8.656579696065505,0.4922222222222222,0.4133333333333333,-0.6933333333333334,0.003983110582592882,0.003089501339461807,0.00181567954893779
1589543210.5148532,0.17289809761008956,-4.255939536855493,8.772611414339462,0.4922222222222222,0.4133333333333333,-0.6933333333333334,0.014939861399752546,0.003272492347489368,0.003114425643301113
1589543210.5248532,0.17928280566018528,-4.295696833961111,8.845696833961112,0.4984107593290124,0.40095625911975297,-0.6995218704401235,0.009274282624003132,0.0042850893636956116,0.0002347012988706365
1589543210.5348532,0.17577555265985415,-4.345775552659854,8.721229453855473,0.4988888888888889,0.4,-0.7,-0.012010834184741742,-0.0035874998788542776,0.0
1589543210.5448532,0.20880816024913568,-4.372848961494814,8.617151038505185,0.4988888888888889,0.4,-0.7,-0.016463970521566618,-0.005324144363677709,0.0
1589543210.5548532,0.19851022395326193,-4.32,8.686387536514118,0.4988888888888889,0.4,-0.7,0.0006967721453920886,-0.00403830441582427,-0.00016250935708077678
1589543210.5648532,0.1912173111698428,-4.32,8.766609577131728,0.4988888888888889,0.4,-0.7,0.009447639279429114,-0.002447237664181175,-0.0009580427329023245
1589543210.5748532,0.19,-4.281866763790477,8.767961724389112,0.5166666666666667,0.4,-0.6788888888888889,0.00669248992362967,-0.0009059074791926398,-0.001275754085800272
1589543210.5848532,0.19,-4.343370611183355,8.655505851755526,0.5166666666666667,0.4,-0.6788888888888889,-0.004375522277878502,0.00024511776230869646,-0.0018139849215298672
1589543210.5948532,0.19,-4.3673301667577915,8.624004749863312,0.5166666666666667,0.4,-0.6788888888888889,-0.011633801247590602,0.0014535774938094774,0.0009452139682597691
1589543210.6048532,0.19,-4.352997539639147,8.645503690541279,0.5166666666666667,0.4,-0.6788888888888889,-0.003816565820060385,-0.0024550402199556317,0.00016349042550674743
1589543210.6148531,0.17789291189137893,-4.319732279728447,8.74685670486897,0.5166666666666667,0.4,-0.6788888888888889,0.004421730632647416,-0.0006311354684332372,-0.0013206784395280655
1589543210.6248531,0.1917553001641802,-4.2854964665572135,8.78824469983582,0.5271414408197904,0.39597124071033696,-0.6925866704737431,0.011890826406843372,0.0026729208559323186,-0.001390616528274981
1589543210.6348531,0.17937914006985428,-4.29374723995343,8.75250552009314,0.5311111111111111,0.3944444444444444,-0.6977777777777778,0.0018430350032821313,0.003272492347489368,-0.001090830782496456
1589543210.644853,0.1884520643806858,-4.3645822253324,8.647739678096572,0.5311111111111111,0.3944444444444444,-0.6977777777777778,-0.010317320286959832,-0.0007531236179223258,-0.0020972347738493794
1589543210.654853,0.19,-4.3629947457507585,8.696042033993935,0.5311111111111111,0.3944444444444444,-0.6977777777777778,-0.01090830782496456,-0.0026191401773538753,-0.0014175068675642024
1589543210.664853,0.19,-4.325678137999794,8.754321862000205,0.5311111111111111,0.3944444444444444,-0.6977777777777778,0.003131446018443087,-0.0023365087579288583,-0.002962797961617476
1589543210.674853,0.19,-4.289780832317743,8.805328751523385,0.5017313647533614,0.40871460696106565,-0.7044931483738348,0.008750553745405062,0.0019388382261605647,-0.0008001924727972826
1589543210.684853,0.1808531119599055,-4.3425593358797165,8.794643984721702,0.4922222222222222,0.4133333333333333,-0.7066666666666667,0.0014371809355682669,0.0019024813289586701,-0.001090830782496456
1589543210.694853,0.18987580041077684,-4.37,8.63037259876767,0.4922222222222222,0.4133333333333333,-0.7066666666666667,-0.006544984694978735,-0.0011179269295160611,-0.001090830782496456
1589543210.704853,0.18041933149484637,-4.368742005515461,8.661467660231962,0.4922222222222222,0.4133333333333333,-0.7066666666666667,-0.006362016813919266,-0.0031581374218272,-0.0010679597973640223
1589543210.714853,0.19682606739814978,-4.3195217978055505,8.718891235893524,0.4922222222222222,0.4133333333333333,-0.7066666666666667,0.0007967722115259958,0.0013161057190760892,-0.00017311116918336457
1589543210.724853,0.17082335299804668,-4.280274450999349,8.78972554900065,0.4988888888888889,0.4,-0.7,0.011819510848435001,-0.0011207687423341248,-0.0010608928226587871
1589543210.734853,0.1956500207170057,-4.288550006905669,8.78144999309433,0.4988888888888889,0.4,-0.7,0.006403172173504688,-0.0020234918548225106,-0.00015816971017040143
1589543210.744853,0.2,-4.350116194768296,8.650116194768296,0.4988888888888889,0.4,-0.7,-0.006621033992992302,-0.0010654810164919338,0.0010654810164919338
1589543210.754853,0.2,-4.358334672283727,8.658334672283727,0.4988888888888889,0.4,-0.7,-0.012000014948444309,0.0007275126353254015,-0.0007275126353254015
1589543210.764853,0.18413673159625601,-4.338848975461675,8.69701429294207,0.4988888888888889,0.4,-0.7,-0.0021306797822794737,0.001090830782496456,-0.0005140260663028771
1589543210.774853,0.18380216031836272,-4.315399279893879,8.757604320636725,0.5106462847156423,0.4,-0.696932853262586,0.007133954766134487,0.0015926914938371602,0.0005018607113407041
1589543210.784853,0.2,-4.298841303734741,8.79,0.5244444444444445,0.4,-0.6933333333333334,0.0010674724745758698,0.0003558241581919565,0.001090830782496456
1589543210.794853,0.1848757799205899,-4.33537266023823,8.691692569483834,0.5244444444444445,0.4,-0.6933333333333334,-0.00739698355345725,-0.0019157290236900323,0.002740627264883609
1589543210.804853,0.18638027105726715,-4.343619728942732,8.685521084229068,0.5244444444444445,0.4,-0.6933333333333334,-0.005246748225002547,-0.0014856819579990915,0.0004885739195140868
1589543210.814853,0.19,-4.333500163949086,8.712999672101827,0.5244444444444445,0.4,-0.6933333333333334,0.002399684648924076,-0.001090830782496456,0.00032721346660690505
1589543210.824853,0.2025748428196694,-4.31742515718033,8.751437107049174,0.5244444444444445,0.40838322854644626,-0.6842515024080166,0.008197559039032264,-0.0004049795008589603,-0.0002808717807785354
1589543210.834853,0.17268668265882536,-4.291343341329413,8.760671670664706,0.5244444444444445,0.4133333333333333,-0.6788888888888889,0.003712099769546286,0.002035125757640606,-0.0021083936613167592
1589543210.844853,0.2036115697297749,-4.323611569729775,8.675971075675562,0.5244444444444445,0.4133333333333333,-0.6788888888888889,-0.006810254752558388,0.0003484348195296836,-0.0012650481922612978
1589543210.854853,0.19,-4.34,8.663277756307625,0.5244444444444445,0.4133333333333333,-0.6788888888888889,-0.007357722784751303,-0.00432359560245384,-0.003272492347489368
1589543210.864853,0.19,-4.34,8.73274664605532,0.5244444444444445,0.4133333333333333,-0.6788888888888889,-0.0014638158565461103,-0.003481608898424527,-0.003272492347489368
1589543210.874853,0.1991573474307956,-4.3308426525692045,8.795786737153978,0.5244444444444445,0.40722843504613626,-0.6921161685111492,0.00699238152446867,-0.0012746690547840332,0.0007231542379213009
1589543210.884853,0.2,-4.293112941932314,8.792622588386463,0.5244444444444445,0.4066666666666667,-0.6933333333333334,0.0036120616358786013,-0.00028608001417713795,0.00028608001417713795
1589543210.8948529,0.1896770738377393,-4.291614630811304,8.68032292616226,0.5244444444444445,0.4066666666666667,-0.6933333333333334,-0.005489379692309023,-0.00010567733948022868,3.5225779826742896e-05
1589543210.9048529,0.18011850501367366,-4.339407474931631,8.689881494986325,0.5244444444444445,0.4066666666666667,-0.6933333333333334,-0.006532057803299197,-0.003233711672450752,0.0010779038908169173
1589543210.9148529,0.18779081795783256,-4.34,8.72116327183133,0.5244444444444445,0.4066666666666667,-0.6933333333333334,-0.0014459062654407686,-0.001572799537643379,0.001090830782496456
1589543210.9248528,0.18360056795303792,-4.333600567953038,8.749198296140886,0.5116455803505203,0.4066666666666667,-0.6933333333333334,0.00418841848039233,0.0003053087109676541,-0.0003053087109676541
1589543210.9348528,0.20658628405014737,-4.285689526583088,8.79544837873353,0.5044444444444445,0.4066666666666667,-0.6933333333333334,0.005578280127175558,0.001090830782496456,-0.001090830782496456
1589543210.9448528,0.19226398681439427,-4.297736013185606,8.693583920886365,0.5044444444444445,0.4066666666666667,-0.6933333333333334,-0.0013172922870853306,0.00012348132541536896,-0.002058180239577543
1589543210.9548528,0.19889375,-4.32668125,8.68889375,0.5044444444444445,0.4066666666666667,-0.6933333333333334,-0.008972764955272413,-0.0009701576271827856,-0.0012115039378101265
1589543210.9648528,0.19215838215838216,-4.345683235683236,8.697841617841616,0.5044444444444445,0.4066666666666667,-0.6933333333333334,-0.005540537979363024,-0.00023544296987543993,-0.001090830782496456
1589543210.9748528,0.19863983628922238,-4.324080491132333,8.769118690313778,0.5092443534940124,0.4124265575261482,-0.6971732605729878,0.001291436498022408,-0.0018849198760027437,-0.0020332907204978277
1589543210.9848528,0.2,-4.305071696893807,8.78,0.51,0.4133333333333333,-0.6977777777777778,0.003810086820860102,-0.0005532363091257221,-0.0005532363091257221
1589543210.9948528,0.2,-4.293024519926891,8.696294239122695,0.51,0.4133333333333333,-0.6977777777777778,0.0005587889367669784,-0.0015218136772875382,-0.0007609068386437691
1589543211.0048528,0.19124171440568669,-4.307516571188626,8.686274856782939,0.51,0.4133333333333333,-0.6977777777777778,-0.006823115299399791,-0.0012262808121756895,0.0008199307231379889
1589543211.0148528,0.20445842576302303,-4.353375277289069,8.726146064407558,0.51,0.4133333333333333,-0.6977777777777778,-0.005270061094163394,-0.0003022459880591897,-0.0012749236008153429
1589543211.0248528,0.20076431406849224,-4.351528628136984,8.74,0.51,0.40717620937899485,-0.6977777777777778,0.0016814191769490552,0.0,-0.0031891186161487253
1589543211.0348527,0.2,-4.322198258492913,8.767801741507087,0.51,0.4066666666666667,-0.6977777777777778,0.006730710881433885,-0.0007581748860734956,-0.0009979676892688813
1589543211.0448527,0.1726302286670385,-4.31,8.679644171779142,0.51,0.4066666666666667,-0.6977777777777778,0.0037506814133244012,0.0008995551561624428,0.0
1589543211.0548527,0.17,-4.319241058922402,8.71620529461201,0.51,0.4066666666666667,-0.6977777777777778,-0.004791852880846091,8.278762895452363e-05,-0.0020160863070838647
1589543211.0648527,0.18501435778036476,-4.342521536670547,8.735014357780365,0.51,0.4066666666666667,-0.6977777777777778,-0.007910872459417836,0.0,-0.0013627553826810594
1589543211.0748527,0.1737498952777235,-4.358125052361139,8.756250104722277,0.5054860820215898,0.4012499650925745,-0.6878471582252755,-0.005181423370001596,0.0008863057224925127,-0.001090830782496456
1589543211.0848527,0.20361064733101178,-4.317986690836235,8.743194676334495,0.5044444444444445,0.4,-0.6855555555555556,0.002969382615674177,0.001090830782496456,-0.002007419000703956
1589543211.0948527,0.19201184035929367,-4.31,8.68603552107788,0.5044444444444445,0.4,-0.6855555555555556,0.001420017391504394,0.0020719326953235993,-0.002181661564992912
1589543211.1048527,0.19,-4.31,8.704142564444657,0.5044444444444445,0.4,-0.6855555555555556,-0.0008843281523512032,0.00020650263014525272,-0.0008648889417611392
1589543211.1148527,0.19997123062470643,-4.329942461249413,8.72,0.5044444444444445,0.4,-0.6855555555555556,-0.0038132003607130836,-0.0016346770477365133,0.0
1589543211.1248527,0.20165144392209539,-4.341651443922095,8.745045668233715,0.4821816282366988,0.4111314081038728,-0.6734965301096933,-0.0009007229328941522,-0.0012709753690752865,0.0
1589543211.1348526,0.1926432602130027,-4.317929780639008,8.757356739786998,0.4777777777777778,0.4133333333333333,-0.6711111111111111,0.002407487465541922,-0.0026958224261910708,0.0
1589543211.1448526,0.19,-4.318809326074252,8.698334717480236,0.4777777777777778,0.4133333333333333,-0.6711111111111111,0.005194389158457871,0.0034541464909003923,-0.001921896810968503
1589543211.1548526,0.19,-4.313422480218375,8.709732559344875,0.4777777777777778,0.4133333333333333,-0.6711111111111111,0.0018666733873444934,0.0014933387098755944,-0.0014641654599653546
1589543211.1648526,0.18566843454605944,-4.331657827269702,8.732994696361821,0.4777777777777778,0.4133333333333333,-0.6711111111111111,-0.001890001973422632,-0.000472500493355658,-0.00014582979578513992
1589543211.1748526,0.18521747869432384,-4.349565042611353,8.755217478694323,0.4853141358918011,0.40985501420378406,-0.6786474692251344,-0.004932461766664611,-0.0005216921458176691,0.0005216921458176691
1589543211.1848526,0.18438570921389463,-4.334385709213895,8.754385709213894,0.4922222222222222,0.4066666666666667,-0.6855555555555556,-0.0005547609433863262,-0.0006124241211369942,-0.0012248482422739884
1589543211.1948526,0.18,-4.323415086268359,8.717075431341794,0.4922222222222222,0.4066666666666667,-0.6855555555555556,0.003990795007345155,-0.0003725281226406691,0.0006915490744302355
1589543211.2048526,0.19481550997985717,-4.305184490020142,8.714815509979857,0.4922222222222222,0.4066666666666667,-0.6855555555555556,0.002747201695544659,-0.0008080607172205824,-0.001858642021110001
1589543211.2148526,0.1936252342286071,-4.312749531542786,8.726374765771393,0.4922222222222222,0.4066666666666667,-0.6855555555555556,-0.0019906128757911598,-0.001090830782496456,-0.002577113274025356
1589543211.2248526,0.19,-4.330810655972501,8.73540532798625,0.4988287342054171,0.4066666666666667,-0.6855555555555556,-0.003773693314296677,-0.001090830782496456,-0.00041277211792547044
1589543211.2348526,0.20396754966887418,-4.326032450331126,8.74,0.5044444444444445,0.4066666666666667,-0.6855555555555556,0.0005365659362246639,0.0004327925309891567,0.00032901912575364963
1589543211.2448525,0.19532427479551245,-4.32,8.68129709918205,0.5044444444444445,0.4066666666666667,-0.6855555555555556,0.0029820982054186177,-0.001310479138780662,0.0
1589543211.2548525,0.19,-4.32,8.690381142669263,0.5044444444444445,0.4066666666666667,-0.6855555555555556,0.002443975206713145,-0.0013531444242166893,0.0
1589543211.2648525,0.19,-4.326596367777755,8.732981838888776,0.5044444444444445,0.4066666666666667,-0.6855555555555556,-0.002855203152257253,-0.00037127868003214665,0.0007195521024643093
1589543211.2748525,0.1975440696734804,-4.337544069673481,8.75,0.5044444444444445,0.4116960464489869,-0.694776085156476,-0.00545415391248228,0.0,0.00026790043998341717
1589543211.2848525,0.19181260010678058,-4.3318126001067805,8.75,0.5044444444444445,0.4133333333333333,-0.6977777777777778,-0.0018817267796294975,-0.001786213566426391,-0.001786213566426391
1589543211.2948525,0.17445997115037867,-4.306689956725568,8.680069870176704,0.5044444444444445,0.4133333333333333,-0.6977777777777778,0.0031470546750160333,-0.00302923865649541,0.002056223892519578
1589543211.3048525,0.18569798197492163,-4.315697981974922,8.714942936912227,0.5044444444444445,0.4133333333333333,-0.6977777777777778,0.0009385547377220192,0.0010084681428403882,-0.0010084681428403882
1589543211.3148525,0.19,-4.31409396929434,8.73590603070566,0.5044444444444445,0.4133333333333333,-0.6977777777777778,-0.0006442480096103459,0.002181661564992912,-0.002181661564992912
1589543211.3248525,0.19660039692211276,-4.323200793844225,8.74,0.5044444444444445,0.4089330687185915,-0.6948442680346166,-0.003250805624297088,-0.000698304890741264,-0.002181661564992912
1589543211.3348525,0.1739154048182614,-4.33,8.724349242890957,0.5044444444444445,0.4066666666666667,-0.6933333333333334,-0.002656090367593872,0.0006637263723270081,-0.001612583977528928
1589543211.3448524,0.1752414576738901,-4.324951708465222,8.68475854232611,0.5044444444444445,0.4066666666666667,-0.6933333333333334,0.0016625851200796156,-3.160673560191835e-05,0.0005612187590491873
1589543211.3548524,0.18996626294659424,-4.325016868526703,8.685084342633514,0.5044444444444445,0.4066666666666667,-0.6933333333333334,0.004363323129985824,-0.0010834704992233111,-0.0005546157453396598
1589543211.3648524,0.18400723771365796,-4.325992762286342,8.726028950854632,0.5044444444444445,0.4066666666666667,-0.6933333333333334,0.002177714004566417,0.001090830782496456,-0.0010868832220699608
1589543211.3748524,0.19483218704174154,-4.324832187041742,8.75483218704174,0.4985384380600937,0.4098881246944943,-0.6895749656342011,-0.002672160294070103,0.001090830782496456,0.002181661564992912
1589543211.3848524,0.2,-4.33,8.753696170466398,0.4922222222222222,0.4133333333333333,-0.6855555555555556,-0.0029880408694132545,-0.0016597337386486828,0.0014940204347066272
1589543211.3948524,0.2,-4.335418104906937,8.7066551607445,0.4922222222222222,0.4133333333333333,-0.6855555555555556,-0.0009996144419364308,-0.003272492347489368,-9.121634056002514e-05
1589543211.4048524,0.2,-4.323206417353971,8.709185026174067,0.4922222222222222,0.4133333333333333,-0.6855555555555556,0.001831895689868639,-0.002051228554243609,-0.00048019888587357636
1589543211.4148524,0.2,-4.316091000603986,8.752182001207972,0.4922222222222222,0.4133333333333333,-0.6855555555555556,0.0012792170609795366,-0.001755255877999733,-0.0019932752865098316
1589543211.4248524,0.18747212412757555,-4.32,8.766263937936213,0.49987814636648165,0.40915737470919183,-0.694603465907862,-0.0027331585281870434,0.0019180762272876539,-0.0012226234513490852
