time,acc_x,acc_y,acc_z,mag_x,mag_y,mag_z,gyr_x,gyr_y,gyr_z
1589543377.6140473,0.13,-4.12,8.93,0.4533333333333333,0.3144444444444445,-0.65,-0.002181661564992912,0.00545415391248228,0.001090830782496456
1589543377.6240473,0.15864078664344977,-4.127160196660863,8.879878623373962,0.4533333333333333,0.3144444444444445,-0.65,-0.002181661564992912,0.0046730976198425716,0.001090830782496456
1589543377.6340473,0.15,-4.120053345788879,8.800106691577758,0.4533333333333333,0.3144444444444445,-0.65,-0.0032550349789017977,0.004369142252848348,-0.0032550349789017977
1589543377.6440473,0.14972123469330173,-4.129442469386603,8.822508887760284,0.4533333333333333,0.3144444444444445,-0.65,-3.0408577763853576e-05,0.005362928179190719,6.081715552770715e-05
1589543377.6540473,0.14183172507194855,-4.113663450143897,8.893514474352463,0.4533333333333333,0.3144444444444445,-0.65,-0.0008910205731412561,0.0027810921930585117,0.0017820411462825122
1589543377.6640472,0.14732831201929641,-4.124656624038593,8.931984936057889,0.4565903608974651,0.3144444444444445,-0.65,0.0021067485512584585,0.0005828718981154548,0.0013822667315541834
1589543377.6740472,0.12032442174827275,-4.110108140582758,8.97870231300691,0.4577777777777778,0.3144444444444445,-0.65,0.005430561297180464,0.002169865257342004,0.0021462726420401882
1589543377.6840472,0.1488521294960626,-4.118278194244094,8.860573935251969,0.4577777777777778,0.3144444444444445,-0.65,0.0033977055954908294,0.0009656175344949946,-0.0009656175344949946
1589543377.6940472,0.1244765801087183,-4.086054700077656,8.858558630225202,0.4577777777777778,0.3144444444444445,-0.65,0.005368080820452804,-0.001090830782496456,0.001047794236481718
1589543377.7040472,0.013257760857624479,-4.006612686326875,8.628176790347936,0.4577777777777778,0.3144444444444445,-0.65,0.003634924939995625,-0.001090830782496456,0.00018121629625312825
1589543377.7140472,0.18973817108227797,-4.170408670654961,9.05035117706472,0.4663686668565854,0.3223194261000182,-0.6363977589585545,-0.015704200321267056,-0.02498740673574529,-0.000702840469213201
1589543377.7240472,0.02147189084934642,-4.025232873776698,8.567258375598257,0.4711111111111111,0.32666666666666666,-0.6288888888888889,0.00972689265896556,0.014300137792526313,0.0007505451887281852
1589543377.7340472,0.25828148148148145,-4.208637037037037,9.135792592592594,0.4711111111111111,0.32666666666666666,-0.6288888888888889,-0.007493603464349727,-0.003110887787119522,-0.0021622690177485306
1589543377.7440472,0.17129279183499893,-4.1454856667890905,8.914199833761815,0.4711111111111111,0.32666666666666666,-0.6288888888888889,-0.007635815477475192,0.0002462186814453267,0.0013370494639417829
1589543377.7540472,0.03422083220016317,-4.06632145771009,8.645808539570302,0.4711111111111111,0.32666666666666666,-0.6288888888888889,-0.008898770279554038,-0.0014350788216612338,0.000918706762914067
1589543377.7640471,0.01619498585350518,-4.042064995284502,8.666519962276015,0.46539055677809216,0.32176333438122184,-0.6395127755073526,-0.011422088780599679,-0.012900162776278819,-0.0008023058690657878
1589543377.7740471,0.09024722628518425,-4.075123613142592,8.76140451642824,0.4633333333333333,0.32,-0.6433333333333333,0.0023888069488617932,0.007617447523091177,-0.001090830782496456
1589543377.7840471,0.19337546382189238,-4.155222634508348,8.951209415584415,0.4633333333333333,0.32,-0.6433333333333333,-0.002431727944514652,-0.005752791606994587,-0.0002014950645311751
1589543377.794047,0.11405658916062854,-4.08045281654992,8.702169767481886,0.4633333333333333,0.32,-0.6433333333333333,-0.0005701127028220551,-0.002928776360949169,0.0013954403456172071
1589543377.804047,0.12449099344978165,-4.0944909934497815,8.848123635371179,0.4633333333333333,0.32,-0.6433333333333333,-0.004071561621567013,-0.009543131909806945,0.0006183557683529309
1589543377.814047,0.06506491866753646,-4.070454535889396,8.72227267944698,0.45940115364201556,0.3160678203086823,-0.6480519489629146,0.00966873052049725,0.015158303550788328,0.0007720816769274278
1589543377.824047,0.20447177502936503,-4.176007393076763,9.124029572307055,0.4577777777777778,0.3144444444444445,-0.65,-0.0016121277566646837,-0.007621080632040377,-0.0020811555988173424
1589543377.834047,0.17004057535422928,-4.17995942464577,8.900311077715758,0.4577777777777778,0.3144444444444445,-0.65,-1.3278253621199885e-05,-0.0011129612051984559,4.426084540399961e-06
1589543377.844047,0.1970541004723057,-4.152945899527695,9.107414770287678,0.4577777777777778,0.3144444444444445,-0.65,-0.008853433676382895,-0.015846553576467942,0.002951144558794298
1589543377.854047,0.0770706032320408,-4.073169127020026,8.730479460504132,0.4577777777777778,0.3144444444444445,-0.65,0.0044301347772792345,0.011880025932477695,0.0007582079087104258
1589543377.864047,0.1987874543239951,-4.171425700365408,9.067681485992692,0.47023169576397345,0.30717965895249694,-0.6240543375287589,-0.0034999591318540385,-0.006784077264175129,-0.0010188837826521405
1589543377.874047,0.11101194516085246,-4.081011945160853,8.821033663635129,0.4711111111111111,0.30666666666666664,-0.6222222222222222,0.004471340105122402,0.008942680210244804,0.0008724277141942606
1589543377.884047,0.08263564695536803,-4.087364353044632,8.708966352458384,0.4711111111111111,0.30666666666666664,-0.6222222222222222,0.0029286111365861974,0.003963065191250334,0.0004594450885224354
1589543377.894047,0.15768977391825123,-4.17672855217847,8.913069321754755,0.4711111111111111,0.30666666666666664,-0.6222222222222222,-0.007278955878769583,-0.01304766887001937,-0.0005978419043761457
1589543377.904047,0.1544073962765537,-4.145509245345692,8.879599500166083,0.4711111111111111,0.30666666666666664,-0.6222222222222222,-0.0023273564310564033,-0.005900331499116087,-6.009654411406255e-05
1589543377.914047,0.09084688182479982,-4.0608468818248,8.700759928819865,0.46647847070560006,0.30666666666666664,-0.6318735564003704,0.006360223742253056,0.008541885307245967,0.0014698377893890813
1589543377.924047,0.19459266675009385,-4.175358111208443,9.089160722479456,0.4577777777777778,0.30666666666666664,-0.65,-0.012750611947173566,-0.017027753393513277,0.00042016983462946967
1589543377.934047,0.141147141959799,-4.115596733668342,8.902340609296482,0.4577777777777778,0.30666666666666664,-0.65,-0.0006130355940419593,0.0014434921947867468,-0.001090830782496456
1589543377.944047,0.1653973021124968,-4.1292420463222195,8.916949860015272,0.4577777777777778,0.30666666666666664,-0.65,-0.0012601885776918845,0.004865399583807811,0.0009234719645557935
1589543377.954047,0.2231521445508299,-4.1947282168262445,9.12891286730498,0.4577777777777778,0.30666666666666664,-0.65,-0.016818936293066057,-0.015324965989457895,0.0002875311682289483
1589543377.964047,0.12382819313406802,-4.103828193134068,8.875952588599064,0.4608511060017442,0.3109693261802197,-0.6383213527489275,-0.0009512445712105411,0.0029015597203485392,0.0013229555601243388
1589543377.974047,0.1319194273894343,-4.1246593558131135,8.812948747414387,0.4633333333333333,0.3144444444444445,-0.6288888888888889,0.0032573066019537435,0.0071199657299525695,0.002577637042921822
1589543377.984047,0.19,-4.1642822647793505,8.959288301415487,0.4633333333333333,0.3144444444444445,-0.6288888888888889,-0.008960866066829495,-0.014182117162158028,0.0014803191341234692
1589543377.994047,0.047702518475999156,-4.043276888856999,8.605362703594748,0.4633333333333333,0.3144444444444445,-0.6288888888888889,0.013345203599738698,0.015290102366636481,0.00012069032550832571
1589543378.004047,0.1449062629368975,-4.114264592820391,8.858756283635934,0.4633333333333333,0.3144444444444445,-0.6288888888888889,0.002992510941372234,0.0029225155898429493,0.0016712438495093255
1589543378.014047,0.2200263515132157,-4.156010540605286,9.110105406052863,0.4491017416841899,0.3082181230979442,-0.6404520571038178,-0.00807674699715874,-0.009167577779655194,0.002181661564992912
1589543378.024047,0.06886087791427659,-4.049746916467663,8.725949678721781,0.4455555555555555,0.30666666666666664,-0.6433333333333333,0.0031344029833101222,0.005744109351036015,0.002181661564992912
1589543378.034047,0.14149919245711293,-4.115883932079095,8.8295754943472,0.4455555555555555,0.30666666666666664,-0.6433333333333333,-0.0005076084314812289,0.0027648839160081392,0.003033341899844842
1589543378.0440469,0.18308126063688,-4.14654063031844,9.01735323668724,0.4455555555555555,0.30666666666666664,-0.6433333333333333,-0.011456798719762034,-0.00675736219461588,0.002559020258660974
1589543378.0540469,0.1313779486646576,-4.110918632443105,8.946701652291384,0.4455555555555555,0.30666666666666664,-0.6433333333333333,-0.014230903799790872,0.00046000117586725807,5.010362733694597e-05
1589543378.0640469,0.17151758289976807,-4.018482417100232,8.96535677719969,0.45283975381386526,0.31130206555831835,-0.6473065323833205,-0.028692685573319308,-0.014258636882837038,-0.000440717608189713
1589543378.0740469,0.19285965824962983,-3.870485413581976,8.957625755332346,0.4577777777777778,0.3144444444444445,-0.65,-0.04223046019275017,-0.031322152367785606,-0.004934253371462919
1589543378.0840468,0.016168011504354096,-3.0698545977470637,9.013211632180234,0.4577777777777778,0.3144444444444445,-0.65,-0.04599006022706397,-0.041977071821503786,-0.010625643477035561
1589543378.0940468,0.06298487985662835,-2.9529848798566283,9.122984879856627,0.4577777777777778,0.3144444444444445,-0.65,-0.06719187749821656,-0.06739682226862001,-0.015579048110555539
1589543378.1040468,0.12871434653043848,-2.9961430395913156,8.9065730097914,0.4577777777777778,0.3144444444444445,-0.65,-0.05937249384185585,-0.049243417201663135,-0.01485090184088406
1589543378.1140468,0.08809330010577837,-2.7466531007404487,8.882075765996737,0.47195853328632076,0.3173987685087243,-0.6352283796786011,-0.025858734613829964,-0.016665223652641767,-0.010258898086836346
1589543378.1240468,0.0914702139505289,-2.688468941382327,9.041117871629682,0.4844444444444445,0.32,-0.6222222222222222,-0.010343675141238564,-0.011030248703418292,0.02766175253555387
1589543378.1340468,0.0801004472468656,-2.764020089449373,8.898441967886209,0.4844444444444445,0.32,-0.6222222222222222,-0.0022035757547725163,-0.007208248840388452,0.06865659672793792
1589543378.1440468,0.06,-2.825464359710661,8.890011995201919,0.4844444444444445,0.32,-0.6222222222222222,0.0029751119953130233,-0.0014869017608817236,0.11513722676067886
1589543378.1540468,0.017903935468100707,-2.8920960645318994,8.948064043021267,0.4844444444444445,0.32,-0.6222222222222222,-0.0036154601045135836,-0.006122624401780401,0.1666589321134354
1589543378.1640468,0.007035624065577151,-2.9662849925246175,8.974071248131155,0.4750636123570082,0.3106191679125638,-0.6269126382659403,0.004199560731747453,-0.006424243668530321,0.23007509081871155
1589543378.1740468,0.01,-2.997325600981784,9.067907211781408,0.4711111111111111,0.30666666666666664,-0.6288888888888889,-6.344389636629005e-05,-0.016641541384185107,0.2913534026580132
1589543378.1840467,0.040309942239154475,-2.94695760108148,8.933295317684651,0.4711111111111111,0.30666666666666664,-0.6288888888888889,-0.0024459168972353865,-0.024032086668448586,0.34950537329471115
1589543378.1940467,0.03644888823194037,-2.9909800029562685,8.90032666765209,0.4711111111111111,0.30666666666666664,-0.6288888888888889,0.000774732405736972,-0.025089107997418484,0.39428878726398364
1589543378.2040467,0.04503233532934132,-3.0124838323353296,8.921274251497007,0.4711111111111111,0.30666666666666664,-0.6288888888888889,0.00013194480123609803,-0.02631893805567257,0.42340956078246866
1589543378.2140467,0.06867051778795351,-3.000664741106023,8.939002888340964,0.4711111111111111,0.30666666666666664,-0.6288888888888889,-0.003091212332279144,-0.028252832335781713,0.4459716607170753
1589543378.2240467,-0.002015387981330219,-3.0427599912485417,8.925224620770129,0.4844444444444445,0.3144444444444445,-0.6355555555555555,0.0063251399701078955,-0.02107585785885446,0.49086545928154734
1589543378.2340467,0.005415303481615312,-3.0708306069632307,8.846245910444846,0.4844444444444445,0.3144444444444445,-0.6355555555555555,0.0023628718937224857,-0.027589672042747662,0.5227597856253948
1589543378.2440467,0.032681778974925475,-3.1020194301106185,8.862681778974926,0.4844444444444445,0.3144444444444445,-0.6355555555555555,0.0020371594590053816,-0.028506102450895385,0.5382923981292991
1589543378.2540467,0.06743494707882772,-3.147434947078828,8.920520423369378,0.4844444444444445,0.3144444444444445,-0.6355555555555555,0.005202734735529981,-0.025340527174370787,0.5487162682872798
1589543378.2640467,0.0400037351261939,-3.159996264873806,9.003995517848567,0.4760015770532819,0.3144444444444445,-0.6413322542968773,0.008072066302661197,-0.02247119560723957,0.5502153726424627
1589543378.2740467,0.013366291950438992,-3.19,9.026534832198243,0.4633333333333333,0.3144444444444445,-0.65,0.0068906188187672045,-0.023652643091133563,0.546862641836739
1589543378.2840466,0.005752086826733496,-3.213746521955444,8.933509738524757,0.4633333333333333,0.3144444444444445,-0.65,0.004826698575062955,-0.02675270081988687,0.5438611850206544
1589543378.2940466,-0.05771840181676247,-3.2304563196366476,8.874315520545029,0.4633333333333333,0.3144444444444445,-0.65,0.006544984694978735,-0.027220992811780125,0.541622371884806
1589543378.3040466,-0.093402399349329,-3.208934932899553,8.923195201301342,0.4633333333333333,0.3144444444444445,-0.65,0.0029239499539117078,-0.030775623505619208,0.5513116665512654
1589543378.3140466,-0.12477883475865603,-3.2,8.911618141635438,0.4768380612764201,0.3052043674307535,-0.65,0.0020934056296741826,-0.03132931972177756,0.5791346439643077
1589543378.3240466,-0.1294908459174128,-3.210254577041294,8.915636442603233,0.4844444444444445,0.3,-0.65,0.004391093177301817,-0.03222116315461944,0.6024440624585197
1589543378.3340466,-0.09028934068901663,-3.2347829944832376,8.890723351722542,0.4844444444444445,0.3,-0.65,0.0033040545205101747,-0.032740704561404085,0.6227381281133931
1589543378.3440466,-0.10590590875892905,-3.24487058446301,8.85538824661097,0.4844444444444445,0.3,-0.65,0.005007557837271348,-0.0305150278196044,0.6355077501202229
1589543378.3540466,-0.16818259526829538,-3.248052170076656,8.894156510229967,0.4844444444444445,0.3,-0.65,0.0100441795077986,-0.028574075628853012,0.6392268385429232
1589543378.3640466,-0.22648215882305128,-3.2888437779403397,8.954723238234576,0.48169741797393595,0.29496378480406765,-0.65,0.00930225167653403,-0.027720250717565894,0.6464185370253951
1589543378.3740466,-0.25470267143838343,-3.334702671438383,8.97589198568485,0.4777777777777778,0.2877777777777778,-0.65,0.00648011766547338,-0.030413527850890052,0.666426786716282
1589543378.3840466,-0.26,-3.3467095298977183,8.899614230920534,0.4777777777777778,0.2877777777777778,-0.65,0.008367711652326337,-0.03272492347489368,0.6876524623782152
1589543378.3940465,-0.21900086132644273,-3.2771126423581203,8.897332759115704,0.4777777777777778,0.2877777777777778,-0.65,0.007235875509273074,-0.03520954139272464,0.6996344770551762
1589543378.4040465,-0.1597178972316403,-3.1668652687711907,8.93771157707627,0.4777777777777778,0.2877777777777778,-0.65,0.004893352202056339,-0.036777073111311114,0.7104727855371167
1589543378.4140465,-0.1524017113783534,-3.1224017113783535,8.982401711378353,0.48897863346695447,0.2877777777777778,-0.6543558883235687,0.0008288447122784706,-0.03639039492771003,0.7110466238858381
1589543378.4240465,-0.20168227622999407,-3.1875234143449913,8.931355068168346,0.4977777777777778,0.2877777777777778,-0.6577777777777778,0.004669169579375762,-0.03754190806131075,0.6977035157685859
1589543378.4340465,-0.23,-3.268865690916918,8.8422387922022,0.4977777777777778,0.2877777777777778,-0.6577777777777778,0.008606165841463339,-0.03539176022188066,0.6832280181142281
1589543378.4440465,-0.22382489100633737,-3.2011982561013976,8.795299564025349,0.4977777777777778,0.2877777777777778,-0.6577777777777778,0.007635815477475192,-0.03288578534721922,0.6673019174669622
1589543378.4540465,-0.23594434226309477,-3.1479721711315474,8.951401679328269,0.4977777777777778,0.2877777777777778,-0.6577777777777778,0.012853589281648082,-0.027720762339267555,0.6549560514213173
1589543378.4640465,-0.2633629004144556,-3.1616814502072277,9.134334740674749,0.5033826118018705,0.28329391055850367,-0.6613275059930365,0.020358949338376835,-0.020899526827289558,0.6428371390054554
1589543378.4740465,-0.25679697685403874,-3.1583984884270193,8.833476239962211,0.5311111111111111,0.2611111111111111,-0.6788888888888889,0.02107518049189898,-0.012987718818167864,0.6207253591495809
1589543378.4840465,-0.2273704250524516,-3.14,8.924203512316419,0.5311111111111111,0.2611111111111111,-0.6788888888888889,0.01865719877558065,-0.015675702004772484,0.6010456844320899
1589543378.4940464,-0.31593290475134855,-3.196949678563511,8.979661937486146,0.5311111111111111,0.2611111111111111,-0.6788888888888889,0.006600441103635912,-0.03152317987508287,0.5734625505318398
1589543378.5040464,-0.3823086196503918,-3.2033875828812537,9.026311030741411,0.5311111111111111,0.2611111111111111,-0.6788888888888889,0.005068187867078169,-0.028798195667136695,0.5493092429022027
1589543378.5140464,-0.3026614130104059,-3.0947401570011563,8.957338586989595,0.5235135601127812,0.25702012211201036,-0.688824147886705,0.008953402053375643,-0.01447111529612266,0.5316382840961449
1589543378.5240464,-0.26,-3.0523200971868225,8.912080226769252,0.5166666666666667,0.2533333333333333,-0.6977777777777778,0.00966476956745008,-0.014612756793978453,0.5160371701852531
1589543378.5340464,-0.2542402695429584,-3.0760778436563325,8.842720808628876,0.5166666666666667,0.2533333333333333,-0.6977777777777778,0.007635815477475192,-0.018709870776227967,0.49261991643979014
1589543378.5440464,-0.2688921917521457,-3.067492568557672,8.867784383504292,0.5166666666666667,0.2533333333333333,-0.6977777777777778,0.005059792438466919,-0.021180567908341174,0.4614785999844742
1589543378.5540464,-0.33419162467266683,-3.0126347292212223,8.88053891688489,0.5166666666666667,0.2533333333333333,-0.6977777777777778,0.0037885143823754076,-0.019693740797660585,0.42755340921570306
1589543378.5640464,-0.4008198654366373,-3.0045900672816814,8.921801345633627,0.5166666666666667,0.2502732884788791,-0.6921676955446118,0.006544984694978735,-0.01668429351474785,0.3958645111650848
1589543378.5740464,-0.395212504946577,-3.004787495053423,9.06127502967946,0.5166666666666667,0.2466666666666667,-0.6855555555555556,0.00029042776037341376,-0.027026703189469772,0.37492125946675836
1589543378.5840464,-0.44281199742682537,-2.91913289374933,9.047188002573174,0.5166666666666667,0.2466666666666667,-0.6855555555555556,0.0007725987079630747,-0.025513417430129665,0.3660532855461943
1589543378.5940464,-0.4674810849967804,-2.9200756600128783,9.018015132002576,0.5166666666666667,0.2466666666666667,-0.6855555555555556,0.0032142368561672175,-0.020292753845276148,0.36188104878642297
1589543378.6040463,-0.4498851273734712,-3.05636033966259,8.997164448048292,0.5166666666666667,0.2466666666666667,-0.6855555555555556,0.0014126721776339898,-0.020416474132003513,0.3628370945582236
1589543378.6140463,-0.46322066930229966,-3.089662007906899,8.943896653488501,0.5215628499483391,0.2466666666666667,-0.7017506233333952,0.007247625738016711,-0.011278062955453293,0.3664454044829302
1589543378.6240463,-0.4613099676858066,-3.0386900323141934,8.97607009694258,0.5311111111111111,0.2466666666666667,-0.7333333333333333,0.004363323129985824,-0.011999138607461015,0.3577924966588376
1589543378.6340463,-0.48,-2.9860716668255027,8.908690555608501,0.5311111111111111,0.2466666666666667,-0.7333333333333333,0.003952100127479853,-0.013232807614978926,0.35368026663377783
1589543378.6440463,-0.4579072336636602,-2.9115893613863837,8.878953616831831,0.5311111111111111,0.2466666666666667,-0.7333333333333333,0.0020675188679803226,-0.01647660443445943,0.3452775575278609
1589543378.6540463,-0.4267017738359202,-2.88670177383592,8.86,0.5311111111111111,0.2466666666666667,-0.7333333333333333,0.001340258552884365,-0.016594656316426128,0.3404495570312477
1589543378.6640463,-0.4349812523434571,-2.9645556805399327,8.933667041619797,0.5251995583885348,0.2439382577177853,-0.7369712119318418,0.01110626886685743,0.0006949086987107157,0.3221910029202402
1589543378.6740463,-0.38083507748747736,-2.9891649225125225,8.937066763868964,0.5166666666666667,0.24,-0.7422222222222222,0.00568074442354197,0.0003176833339707005,0.30483937420386825
1589543378.6840463,-0.3794414405942922,-2.969441440594292,8.955585594057078,0.5166666666666667,0.24,-0.7422222222222222,0.009092222536131069,0.0035771392442888856,0.27852152776677386
1589543378.6940463,-0.36490455657848736,-2.934522782892437,8.937900244726722,0.5166666666666667,0.24,-0.7422222222222222,0.013604150994553867,0.013173259487695693,0.24782043136477355
1589543378.7040462,-0.36,-2.963008428281567,8.874853285469019,0.5166666666666667,0.24,-0.7422222222222222,0.0013240816287615042,0.008557411704360368,0.21504229772026123
1589543378.7140462,-0.3676877653927813,-2.947746815286624,8.886185642250531,0.5111143916607691,0.2357290192262326,-0.7507641837697571,-0.01585801040026529,-0.013168676825995485,0.1788207615654761
1589543378.7240462,-0.41780472033624316,-2.8918114636737333,8.929616184009976,0.5022222222222222,0.2288888888888889,-0.7644444444444445,-0.024435345111931718,-0.03316199137190337,0.14361723609706006
1589543378.7340462,-0.45996809593845456,-2.8603509446769997,8.80076569747709,0.5022222222222222,0.2288888888888889,-0.7644444444444445,-0.014229522877842503,-0.006102235004370717,0.12927562840217718
1589543378.7440462,-0.4830902471315093,-2.8067244042365402,8.590543909973523,0.5022222222222222,0.2288888888888889,-0.7644444444444445,-0.007476715930425289,0.005713021632379665,0.12068579181324703
1589543378.7540462,-0.5246630971002286,-2.936725123330526,8.753315485501144,0.5022222222222222,0.2288888888888889,-0.7644444444444445,-0.0228486457838203,-0.02664450327933092,0.115613362782473
1589543378.7640462,-0.5877466610516183,-3.0818173204187223,9.068733305258093,0.5022222222222222,0.2288888888888889,-0.7644444444444445,-0.03385880473226184,-0.04178347183343804,0.11836590251958337
1589543378.7740462,-0.5507751645161932,-2.8223254935485795,8.66232549354858,0.5366666666666666,0.21444444444444444,-0.7855555555555556,-0.007720372809051439,0.009394690384586865,0.15199049144917198
1589543378.7840462,-0.6013212334113973,-2.973699453551913,8.8203056206089,0.5366666666666666,0.21444444444444444,-0.7855555555555556,-0.013349392963640176,-0.017510942202983895,0.1640281651557526
1589543378.7940462,-0.6613695263254694,-3.0815761841863263,9.109043789396244,0.5366666666666666,0.21444444444444444,-0.7855555555555556,-0.01918677764295782,-0.00847294771653294,0.1885079760355438
1589543378.8040462,-0.6894208229530672,-3.0114479426173317,8.884633416375463,0.5366666666666666,0.21444444444444444,-0.7855555555555556,-0.010007012287860991,0.01906634834875755,0.21222236986954393
1589543378.8140461,-0.7243187677236401,-3.091516713929707,8.913110552547908,0.5422650692713853,0.20580690899716422,-0.7844358750346119,-0.01078492499283764,0.004495118960542671,0.24515650840372907
1589543378.8240461,-0.7476152008192058,-3.1560253346986764,9.10841013387947,0.5755555555555556,0.15444444444444444,-0.7777777777777778,-0.03426314091806129,-0.012446525268132181,0.2729037530852681
1589543378.8340461,-0.7168747015651251,-3.1131252984348747,8.952486868865506,0.5755555555555556,0.15444444444444444,-0.7777777777777778,-0.012135297130104219,0.007635815477475192,0.3215913639196067
1589543378.844046,-0.7150034225365886,-3.1290061605658597,8.69803285635125,0.5755555555555556,0.15444444444444444,-0.7777777777777778,-0.010910547869923563,0.004579398577856711,0.3420857280815334
1589543378.854046,-0.7629643263364698,-3.1981426946541207,9.029212904560024,0.5755555555555556,0.15444444444444444,-0.7777777777777778,-0.03518701348487084,-0.01741036312320892,0.36490636917664737
1589543378.864046,-0.7590277008310249,-3.1672569252077563,8.822916897506925,0.5773842720837181,0.14377693136349645,-0.7799112803939674,-0.023805115559046446,-0.007355553552055396,0.38568067342245005
1589543378.874046,-0.7496636056971514,-3.164915901424288,8.880504591454272,0.5822222222222222,0.11555555555555555,-0.7855555555555556,-0.022426247161782986,-0.006155522739487064,0.4029427156227443
1589543378.884046,-0.77,-3.2088227019884483,8.660200123612029,0.5822222222222222,0.11555555555555555,-0.7855555555555556,-0.016191401169734963,-0.00096240749137925,0.4129756407779132
1589543378.894046,-0.8061916054066872,-3.352489658261534,8.751809606618712,0.5822222222222222,0.11555555555555555,-0.7855555555555556,-0.024494989927569353,-0.023213860865334557,0.4145040857333362
1589543378.904046,-0.8670146289920023,-3.402317137599971,9.067097702719936,0.5822222222222222,0.11555555555555555,-0.7855555555555556,-0.029973909886462983,-0.03039747599562713,0.4173646235869785
1589543378.914046,-0.8977878103837472,-3.2728390345546106,8.772941482896337,0.5832864501938994,0.10308888503019428,-0.7881401092010573,-0.009174419131967067,-0.0022960671549612853,0.43168165000107667
1589543378.924046,-1.0123982798544493,-3.4699272246113133,9.157049288785974,0.59,0.024444444444444446,-0.8044444444444444,-0.012365395056099421,-0.030124683111456874,0.45276297421267214
1589543378.934046,-1.0586470393648695,-3.275682434667549,8.907305987429705,0.59,0.024444444444444446,-0.8044444444444444,-0.019428334929773302,-0.022052751827258157,0.4961496048652403
1589543378.944046,-1.0410760258872058,-3.1266237583860796,8.967699784273286,0.59,0.024444444444444446,-0.8044444444444444,-0.006494377676953806,-0.026700050662150705,0.5976719342939917
1589543378.954046,-1.050187914595909,-2.953270695134697,8.950639890791972,0.59,0.024444444444444446,-0.8044444444444444,-0.015566913540549909,-0.03551764851365543,0.6851608356198683
1589543378.964046,-1.03,-2.9440982803989963,9.19229484119699,0.5758651381324412,0.01455004113715331,-0.7712275190556813,-0.006255204606439656,-0.03481352965093854,0.7844899054189496
1589543378.974046,-1.03,-2.91,9.09,0.5455555555555556,-0.006666666666666667,-0.7,0.029452431127404314,-0.006544984694978735,0.8573929950422143
1589543378.984046,-1.0892119131267965,-2.998817869690195,8.56696143404663,0.5455555555555556,-0.006666666666666667,-0.7,0.014381389703920656,-0.035610564583125774,0.9435132317478352
1589543378.994046,-1.2138827932295653,-3.3008582121289445,9.347540614102236,0.5455555555555556,-0.006666666666666667,-0.7,-0.02925550263069182,-0.11032175617443243,1.006435532739738
1589543379.004046,-1.1898748443604825,-3.1677246575930615,8.994573225709502,0.5455555555555556,-0.006666666666666667,-0.7,0.010507471654255019,-0.03793087603355517,1.138424041925309
1589543379.014046,-1.153089116566789,-3.0985346994007346,8.600237773052386,0.5405786455312842,0.0003696544021307216,-0.6945082372145971,0.016762060487269144,-0.03779676998187313,1.2305889164389252
1589543379.024046,-1.212323919929905,-3.2493779065848893,9.004066859877334,0.5133333333333333,0.03888888888888889,-0.6644444444444444,-0.005137278488032612,-0.09368021234512615,1.321620858892529
1589543379.034046,-1.3224310306503,-3.35621551532515,9.13675689693497,0.5133333333333333,0.03888888888888889,-0.6644444444444444,0.009345598232039952,-0.09189553580598338,1.392282242377891
1589543379.044046,-1.3536450500602384,-3.3445563125752984,9.114852104191767,0.5133333333333333,0.03888888888888889,-0.6644444444444444,0.020427574906724012,-0.06009770209764321,1.4698059975435567
1589543379.054046,-1.2375017223561833,-3.211112642094385,8.980699707199449,0.5133333333333333,0.03888888888888889,-0.6644444444444444,0.031603562206321496,-0.03370964907578234,1.5349347951205397
1589543379.064046,-1.0954916110774207,-3.1027509601778855,8.597468364665453,0.5144665229207376,0.041939783931900364,-0.661132044112032,0.04835941497879821,-0.04288583470853588,1.5759298465774358
1589543379.074046,-1.1548409136850615,-3.348626642409541,9.32661693955933,0.5267132044112032,0.07491161871392314,-0.6253340520629787,0.016914249679658107,-0.09375301386890958,1.584253566803679
1589543379.084046,-1.2746697548259829,-3.3969811187825845,9.039245455826405,0.5277777777777778,0.07777777777777778,-0.6222222222222222,0.01050182080817441,-0.08419464884041887,1.5812981476030712
1589543379.0940459,-1.3136024889143185,-3.086108568159062,8.921120726648548,0.5277777777777778,0.07777777777777778,-0.6222222222222222,-0.004277894743000155,-0.1093393634106026,1.5787567701429175
1589543379.1040459,-1.5225667587013039,-3.4467556782684055,9.486345150043329,0.5277777777777778,0.07777777777777778,-0.6222222222222222,0.018522820675860436,-0.09533573926219104,1.6115187927005532
1589543379.1140459,-1.48,-3.364976299257567,8.99253369503141,0.5262806332889143,0.0715753220382004,-0.6290663113141697,0.05856683553717151,-0.023496407838349134,1.6402305094922986
1589543379.1240458,-1.4858825555364215,-3.26,8.55177372137076,0.52,0.045555555555555564,-0.6577777777777778,0.03259606004854745,-0.06647774879959287,1.622193297760775
1589543379.1340458,-1.5242721365103222,-3.2640453560850533,9.14156911719199,0.52,0.045555555555555564,-0.6577777777777778,-0.004363323129985824,-0.15073055002482266,1.5892909742835866
1589543379.1440458,-1.5909964997057275,-3.227431155716631,9.049819719356938,0.52,0.045555555555555564,-0.6577777777777778,0.0007778373946990182,-0.13281424840092315,1.5707007359178504
1589543379.1540458,-1.5399871977240398,-3.0506799431009957,9.449634423897582,0.52,0.045555555555555564,-0.6577777777777778,0.022794794491018403,-0.09448735894313824,1.5617317247107034
1589543379.1640458,-1.7558066250485378,-3.212540398458735,9.76713641387138,0.5209274470563637,0.044547460929073295,-0.6574955112823627,0.019357839601076704,-0.11305052354554639,1.5522522034924569
1589543379.1740458,-1.9043207244562665,-3.2553898059771553,9.02559047879831,0.5455555555555556,0.017777777777777778,-0.65,0.019226788623741956,-0.08994133209772008,1.5570018020745844
1589543379.1840458,-1.880515585861397,-3.1520623434455888,8.466670609518507,0.5455555555555556,0.017777777777777778,-0.65,0.04987826029956658,-0.0367847995224678,1.577153839180331
1589543379.1940458,-1.7874970752184982,-3.075251760603767,9.043067923749225,0.5455555555555556,0.017777777777777778,-0.65,0.03306756440129755,-0.07084779904231031,1.5640345171800838
1589543379.2040458,-1.522465604782573,-2.699312095651462,8.60216874129883,0.5455555555555556,0.017777777777777778,-0.65,0.02225065660189494,-0.07164965351491873,1.54615626749422
1589543379.2140458,-1.5030969533545298,-2.7806729182597496,9.671700406487705,0.5473950801125108,0.015018490942344928,-0.6521844354113844,-0.010606789500249878,-0.14082846228641552,1.5022231661911818
1589543379.2240458,-1.2836503400812975,-2.215175876363344,8.869876242604741,0.5623999767465779,-0.007488854008755805,-0.6700027501643391,0.009648366881314792,-0.08834919347963432,1.4589507866487477
1589543379.2340457,-1.5161315216945117,-2.9184676326915975,9.361276630680186,0.5633333333333334,-0.008888888888888889,-0.6711111111111111,0.04734763526807161,-0.0409817615755142,1.2940078108693658
1589543379.2440457,-1.594549476570289,-3.4271949775672983,8.574675037387836,0.5633333333333334,-0.008888888888888889,-0.6711111111111111,0.04784106618115508,-0.010890906735712372,1.1127841938187288
1589543379.2540457,-1.0741086495287906,-3.537353004062433,8.780597358596076,0.5633333333333334,-0.008888888888888889,-0.6711111111111111,-0.000551829298992221,-0.07463750516329644,0.9694528979481017
1589543379.2640457,-1.446622588444269,-3.9857494120162498,9.304876235588232,0.5633333333333334,-0.008888888888888889,-0.6711111111111111,0.01901315488328225,-0.07614250394654831,0.9115104447929042
1589543379.2740457,-0.5424462398699411,-2.8893817277138707,9.178051087518782,0.5488888888888889,-0.04,-0.6711111111111111,-0.014927080295444702,-0.05863801887965843,0.6549691198411554
1589543379.2840457,-0.5235237869260885,-2.795417961798553,8.981365049234785,0.5488888888888889,-0.04,-0.6711111111111111,-0.013765251751218177,-0.05259305574275812,0.335630785580672
1589543379.2940457,-0.6067030823253999,-2.9211353882169333,9.073027701911823,0.5488888888888889,-0.04,-0.6711111111111111,0.017052370710691767,-0.004941297457972633,-0.025061656344874186
1589543379.3040457,-0.4772069845319725,-2.7862776271726997,8.837206984531973,0.5488888888888889,-0.04,-0.6711111111111111,0.00435352983177907,0.042132908451491126,-0.3824975090653087
1589543379.3140457,-0.5775330888215595,-2.1776325944825388,8.93753308882156,0.5488888888888889,-0.04,-0.6711111111111111,-0.010967902566805302,0.05161760469823383,-0.7567782148021556
1589543379.3240457,-1.1305054058056871,-2.2155557612559242,8.800875296208531,0.5518743006187466,-0.11065474427330171,-0.6711111111111111,-0.01452237140792388,0.057586317315332196,-1.3929471677736909
1589543379.3340456,-1.306376152636723,-2.906694004164365,9.411756257170781,0.5522222222222222,-0.11888888888888888,-0.6711111111111111,-0.035943089825821374,0.0423990763011769,-1.754202096371328
1589543379.3440456,-1.4644916037456186,-3.130916176957818,7.8458881894432135,0.5522222222222222,-0.11888888888888888,-0.6711111111111111,0.033652434936440226,0.16951632478564746,-2.030651567622128
1589543379.3540456,-1.6180834219749942,-3.3576469562488014,8.584591696165448,0.5522222222222222,-0.11888888888888888,-0.6711111111111111,0.02806767882763345,0.14717730035042034,-2.1742595818485877
1589543379.3640456,-1.3841635143380109,-2.907918242830995,9.534275167785234,0.558178360789099,-0.12571242627618465,-0.6696654464104128,-0.11070920811595042,-0.0015937177497047064,-2.4359223736643867
1589543379.3740456,-1.452405125076266,-2.873797437461867,9.440442953020133,0.6558017761507694,-0.23755284387499154,-0.6459704426818521,-0.0837246901212948,0.061680324444660185,-2.544790946263514
1589543379.3840456,-1.465736401024288,-3.019896795219989,8.821472802048577,0.6666666666666666,-0.25,-0.6433333333333333,0.011694709887879382,0.15616634652074474,-2.6016089004638596
1589543379.3940456,-1.4413263366182973,-3.133810429114612,8.772652673236594,0.6666666666666666,-0.25,-0.6433333333333333,0.00370653499084672,0.13220182182964677,-2.6264610001435167
1589543379.4040456,-1.4073525676641003,-3.14132371616795,8.981756488610205,0.6666666666666666,-0.25,-0.6433333333333333,-0.05768537248804439,0.09522392553786112,-2.6986195543039755
1589543379.4140456,-1.3907071989840463,-3.1496464005079767,8.61555837764902,0.6666666666666666,-0.25,-0.6433333333333333,-0.04315954805428017,0.13153848662227166,-2.7185925629004015
1589543379.4240456,-1.4486735246345426,-3.4604710341093665,9.229301570113698,1.2355555555555555,-0.6588888888888889,-0.2344444444444445,-0.018475614168292707,0.12147437259050003,-2.7281677870236356
1589543379.4340456,-1.3592149431510558,-3.336605305901462,8.974688684353005,1.2355555555555555,-0.6588888888888889,-0.2344444444444445,-0.03649115406502898,0.11396789763352659,-2.7281677870236356
1589543379.4440455,-1.3345347119645496,-3.361802067946824,8.880187099950762,1.2355555555555555,-0.6588888888888889,-0.2344444444444445,-0.04646530944663511,0.11801972689068867,-2.685144153428422
1589543379.4540455,-1.505943741157881,-3.617132489389457,9.146851195178863,1.2355555555555555,-0.6588888888888889,-0.2344444444444445,-0.03820976182576136,0.1085109367326058,-2.615988406431627
1589543379.4640455,-1.544475168574421,-3.663370202289305,9.385746045161408,1.2355555555555555,-0.6588888888888889,-0.2344444444444445,-0.017194128266016722,0.11187343810216492,-2.525200869453529
1589543379.4740455,-1.5263797199766898,-3.6563797199766896,8.587655663972027,1.0233333333333334,-0.0033333333333333327,-0.6944444444444444,0.009658994193549,0.1497967891338609,-2.3191648902284623
1589543379.4840455,-1.5577164801338852,-3.6877164801338855,8.625259776160663,1.0233333333333334,-0.0033333333333333327,-0.6944444444444444,-0.028626080722009718,0.10330776959353963,-2.201575017273532
1589543379.4940455,-1.769242157896793,-4.198105394741982,9.277574905269736,1.0233333333333334,-0.0033333333333333327,-0.6944444444444444,-0.049066718274979264,0.03183662867853753,-1.9088013175425025
1589543379.5040455,-1.9562958042958452,-4.797686538186426,8.775710081543398,1.0233333333333334,-0.0033333333333333327,-0.6944444444444444,0.00838326340364758,0.09110114600549192,-1.5174751645006193
1589543379.5140455,-1.8534334062250926,-5.080558132880996,8.81856941407288,1.0233333333333334,-0.0033333333333333327,-0.6944444444444444,0.013993536912496635,0.07894555340298562,-1.1500022496710063
1589543379.5240455,-1.2103544824556147,-3.7540315139895752,8.973838795358777,0.7183546688501454,0.1298136942286484,-0.7115376439287528,-0.0017171876346590582,0.03614518218744352,-0.8109445345531476
1589543379.5340455,-1.0074389979123173,-3.398265553235908,9.229742797494781,0.6466666666666666,0.16111111111111112,-0.7155555555555555,-0.025449760793582157,-0.02310551761851829,-0.48352483177207706
1589543379.5440454,-1.0704848434237997,-3.468316492693111,8.634309812108558,0.6466666666666666,0.16111111111111112,-0.7155555555555555,-0.028506309637690644,-0.006294498975921638,-0.375017347806226
1589543379.5540454,-0.9836420437367731,-3.5483045449964727,9.022621586213846,0.6466666666666666,0.16111111111111112,-0.7155555555555555,-0.010658284089026845,-0.03129159623105026,-0.18729750316379437
1589543379.5640454,-0.8568366421445127,-3.5144897712385363,8.676020155195003,0.6466666666666666,0.16111111111111112,-0.7155555555555555,0.01608420809674796,-0.002704794239359952,-0.07202814029407542
1589543379.5740454,-0.7869182645086903,-3.594653883930478,9.025953580731947,0.5844444444444444,0.23222222222222225,-0.73,0.003048382218327202,0.0005831707975433712,0.023751271611121907
1589543379.5840454,-0.7600512448221378,-3.809590041422898,9.339402143741726,0.5844444444444444,0.23222222222222225,-0.73,0.0010945574111252175,-0.022862726888880434,0.05012790650834868
1589543379.5940454,-0.6710517493743803,-3.503622692289532,8.677829689787053,0.5844444444444444,0.23222222222222225,-0.73,0.010793579765660019,0.018059715940931694,0.012445303282534223
1589543379.6040454,-0.6545593589519373,-3.748367807685581,8.99564748716155,0.5844444444444444,0.23222222222222225,-0.73,0.0032428182538306654,0.0009127862205442385,-0.055550458309218696
1589543379.6140454,-0.52118892792979,-3.708356678378937,8.888951142343831,0.5844444444444444,0.23222222222222225,-0.73,0.002515395395661772,-0.0034517509284691184,-0.08028283548696105
1589543379.6240454,-0.3336475908853714,-3.666308923291007,8.9505583579753,0.5686503933051158,0.23222222222222225,-0.7343872364275912,0.009934548288389189,-0.004592722054327138,-0.1519300158005622
1589543379.6340454,-0.35,-3.6995385847262536,9.03501591432289,0.5644444444444444,0.23222222222222225,-0.7355555555555555,-0.008270180907608402,-0.001624531015806353,-0.32061009206508556
1589543379.6440454,-0.35,-3.6155770193173855,8.67398118306476,0.5644444444444444,0.23222222222222225,-0.7355555555555555,-0.004606666503825089,0.020356555406893524,-0.44242194599088064
1589543379.6540453,-0.5696826934722055,-3.9796826934722054,8.856126922611118,0.5644444444444444,0.23222222222222225,-0.7355555555555555,0.003166276052330454,0.024455377191600937,-0.5846172628608779
1589543379.6640453,-0.6966749424730532,-4.106674942473053,8.805330023010779,0.5644444444444444,0.23222222222222225,-0.7355555555555555,-0.012533456773841895,0.016143753930686164,-0.6409515982959669
1589543379.6740453,-0.6828875006770542,-3.9912156282160076,8.82033437449221,0.5539006947077433,0.22544409739148577,-0.7257649308000473,-0.006047634238185932,0.013792873512356202,-0.6424263816926158
1589543379.6840453,-0.6501327342429614,-3.512787419102189,9.25714621377633,0.5488888888888889,0.2222222222222222,-0.7211111111111111,-0.0010980703124021376,0.0011704656114589537,-0.5785529679277455
1589543379.6940453,-0.7442031599576823,-3.3215936800846353,9.231014412320713,0.5488888888888889,0.2222222222222222,-0.7211111111111111,-0.0161095571449216,-0.000490087781969349,-0.6042254710368075
1589543379.7040453,-0.7894647785039942,-4.3952381989832965,8.103156136528685,0.5488888888888889,0.2222222222222222,-0.7211111111111111,0.04838979219341068,0.09595920358917914,-0.5687100548821672
1589543379.7140453,-5.838995903335264,-12.958724447570965,8.701477075229661,0.5488888888888889,0.2222222222222222,-0.7211111111111111,0.06332027587238034,0.07313290046474838,-0.5085990849747707
1589543379.7240453,-13.652311479772889,-13.904755034599006,2.7459166518807665,0.52,0.25222222222222224,-0.7233333333333334,-0.43957202332623757,0.5192071946091498,-2.4931568255179437
1589543379.7340453,-8.015011533002129,-10.095391456706885,4.3738498048261185,0.52,0.25222222222222224,-0.7233333333333334,-1.0068131511258542,0.5354430766213033,-6.922508386958598
1589543379.7440453,-2.377711586231369,-6.286027878814762,6.00178295777147,0.52,0.25222222222222224,-0.7233333333333334,-1.5740542789254706,0.5516789586334568,-11.351859948399252
1589543379.7540452,-24.683038886781993,-30.766063187374193,13.752463315732665,0.52,0.25222222222222224,-0.7233333333333334,-0.9719670772304847,2.076970354323554,-9.420323403593668
1589543379.7640452,-8.348284372356254,-12.247223518772426,6.349821756760698,0.52,0.25222222222222224,-0.7233333333333334,0.0057120881844133775,1.3789141037952377,-6.882361720267487
1589543379.7740452,0.9494984889912217,-1.090539645992229,8.586361346956398,0.4880867750755504,0.3241834156793144,-0.7233333333333334,1.0190430030609448,0.5070569680313798,-4.072178761580298
1589543379.7840452,-0.6437475326404909,3.2853658826607055,5.996160194059311,0.4633333333333333,0.38,-0.7233333333333334,2.285899916349562,0.819998426530043,-2.9064183156211443
1589543379.7940452,0.007045928565221168,-0.27684235682627967,5.1329651516468235,0.4633333333333333,0.38,-0.7233333333333334,0.48843415272144736,0.49329873947098174,-2.1348506858921783
1589543379.8040452,2.075582688798123,-0.9147171287042669,12.094912661858,0.4633333333333333,0.38,-0.7233333333333334,-0.7878864937363506,-0.43412116952054913,-1.3853602128164932
1589543379.8140452,2.764099548282622,-5.078451163385323,7.701465524588767,0.4633333333333333,0.38,-0.7233333333333334,-0.014894353931565796,0.012813821760901845,-1.1431365973187062
1589543379.8240452,1.7942636256461413,-0.9010351863607502,7.825067561440101,0.3978992473020767,0.4471789949920902,-0.6962872444404139,0.21866141761406116,0.2254905109521278,-0.7266595422898225
1589543379.8340452,2.5700793832750612,-2.732323035478879,10.510004871897747,0.38,0.4655555555555556,-0.6888888888888889,-0.0269680666774767,-0.06526518662330699,-0.3447482937692978
1589543379.8440452,2.4287578291752685,-3.21198362433955,9.099821897197243,0.38,0.4655555555555556,-0.6888888888888889,-0.037855557260274245,-0.009504987745561341,-0.14146505359546788
1589543379.8540452,1.3941001250740568,-3.6079691922849055,8.901945230728721,0.38,0.4655555555555556,-0.6888888888888889,0.004577381886000695,0.03054279515984572,0.10055742174414749
1589543379.8640451,0.946795753715499,-3.7104577494692146,8.938626751592357,0.38,0.4655555555555556,-0.6888888888888889,0.01617425521364898,0.01635093737656849,0.1952049420680409
1589543379.8740451,0.9062089643256428,-3.832622895280686,8.867172138089915,0.3764367050249762,0.4904986203807223,-0.6846129349188603,0.0027606145425512502,-0.000451528627588905,0.2847380990227798
1589543379.8840451,1.0054701003422075,-3.799059799315585,8.814529899657792,0.3744444444444445,0.5044444444444445,-0.6822222222222222,0.0034738794120845904,-0.013291356454552691,0.3698102997916067
1589543379.894045,0.9595967233774417,-3.929873976055451,8.85967233774417,0.3744444444444445,0.5044444444444445,-0.6822222222222222,0.014128561269196375,-0.010922054904769177,0.4004008831592615
1589543379.904045,0.8186414618777568,-3.8858254568367987,8.745146187775678,0.3744444444444445,0.5044444444444445,-0.6822222222222222,-0.004130241391898522,-0.01572700297347836,0.4234646338890655
1589543379.914045,0.7924367233282075,-3.8119305099538674,8.714873446656416,0.3744444444444445,0.5044444444444445,-0.6822222222222222,-0.006544984694978735,-0.026262767749601203,0.4834415955260018
1589543379.924045,0.9236444051304732,-4.03946955624355,9.030746572313136,0.3635549003227022,0.4965247759922683,-0.6950916834570086,0.009977137487825982,-0.021677314806084445,0.5785614336214033
1589543379.934045,0.8817098502003136,-3.903456714858039,8.911783879115138,0.3622222222222222,0.4955555555555556,-0.6966666666666667,0.012907491317715696,-0.02980931196997947,0.6261086055962863
1589543379.944045,0.828969240903012,-3.863161540150502,8.873161540150502,0.3622222222222222,0.4955555555555556,-0.6966666666666667,0.009360168135608225,-0.030142172190657526,0.647945929396968
1589543379.954045,0.81,-3.9805240376291335,8.779606971778149,0.3622222222222222,0.4955555555555556,-0.6966666666666667,0.003527336406330809,-0.029452431127404314,0.6553201653121025
1589543379.964045,0.8310734570238546,-3.921657200555345,8.8272693424208,0.3622222222222222,0.4955555555555556,-0.6966666666666667,-0.006247116160593898,-0.030218683647912203,0.6571218053213858
1589543379.974045,0.9646387394312067,-4.031347040737893,8.940124903920061,0.3681574002903749,0.49258796652147924,-0.691720684943206,0.004749641564294235,-0.040254674314408996,0.6869051990588876
1589543379.984045,0.6221485332489918,-4.0423861390052975,8.942386139005297,0.3688888888888889,0.4922222222222222,-0.6911111111111111,0.009036614878979844,-0.035637765972196075,0.699631862661594
1589543379.994045,0.6127570905213189,-4.081102836208528,8.80127792779622,0.3688888888888889,0.4922222222222222,-0.6911111111111111,0.00869657106786381,-0.037178472181203015,0.7193086135467821
1589543380.004045,0.7927076069166725,-4.051887853127446,8.850010673877463,0.3688888888888889,0.4922222222222222,-0.6911111111111111,0.003920874153950116,-0.03770720943556525,0.7548560658269582
1589543380.014045,0.7683519902600697,-3.98,8.877179985795934,0.3688888888888889,0.4922222222222222,-0.6911111111111111,-0.0010149090485731679,-0.036936403137032926,0.7821775951707058
1589543380.024045,0.6174769660713506,-3.8899078642854024,8.762073708571677,0.3804006617857541,0.48821812730157343,-0.700620836547652,0.0007665966819570308,-0.039761284544364076,0.7995890140172673
1589543380.034045,0.5344122032614612,-3.960660339400251,8.947278644292442,0.3944444444444444,0.4833333333333333,-0.7122222222222222,0.008911089116002385,-0.04187666094770772,0.8472022690678264
1589543380.044045,0.3570205099778271,-3.919226718403548,8.861175166297118,0.3944444444444444,0.4833333333333333,-0.7122222222222222,0.006516867382680462,-0.04254240051736178,0.8962220963160559
1589543380.054045,0.34417253734443426,-3.9081294030083256,8.781654925311132,0.3944444444444444,0.4833333333333333,-0.7122222222222222,0.008090968695117683,-0.04056478943038523,0.9451693478204108
1589543380.064045,0.3661018737609516,-3.968814990087613,8.884241222740936,0.3944444444444444,0.4833333333333333,-0.7122222222222222,0.0044925876589853725,-0.0485884645909672,1.00654200819698
1589543380.074045,0.35103679782442426,-3.8988629217302626,8.849899719554687,0.40778892004947925,0.47420290265620424,-0.7080081772943165,0.001090830782496456,-0.05592058210267758,1.0686456742519468
1589543380.084045,0.591635762584523,-3.988021036814425,9.002031555221638,0.4155555555555556,0.4688888888888889,-0.7055555555555556,0.009971455470278346,-0.05591587117274462,1.1379393957520039
1589543380.094045,0.34089995833526227,-4.070827276514976,8.802554511365216,0.4155555555555556,0.4688888888888889,-0.7055555555555556,0.017293387160340727,-0.052269635691012645,1.186044942936163
1589543380.104045,0.3256940326787187,-3.987164797931388,8.712858830610108,0.4155555555555556,0.4688888888888889,-0.7055555555555556,0.020102084781143142,-0.03802637420835459,1.218140979057315
1589543380.114045,0.4710173476520303,-4.085687869352482,8.913531804028722,0.4155555555555556,0.4688888888888889,-0.7055555555555556,0.011979591407825506,-0.04752617394499809,1.2534232106873344
1589543380.124045,0.4434569300518135,-4.0734569300518135,8.840477655440415,0.42842796488198037,0.45601647956246405,-0.7005496185952793,0.008651227745702544,-0.05812736272363158,1.2732374359104144
1589543380.134045,0.4056119954365187,-4.1527019612104095,8.878313956646927,0.4355555555555555,0.4488888888888889,-0.6977777777777778,0.011520481562302985,-0.06316237355439581,1.2811417005577788
1589543380.1440449,0.3844214501510574,-4.103032930513595,8.843264350453172,0.4355555555555555,0.4488888888888889,-0.6977777777777778,0.01590540034401955,-0.05989471703979543,1.2817009254339582
1589543380.1540449,0.3216774347930127,-4.10814189997607,8.819819334769083,0.4355555555555555,0.4488888888888889,-0.6977777777777778,0.01796281673325583,-0.05312416387979869,1.2789632012991587
1589543380.1640449,1.6883020806575908,-6.598763421525815,8.72769689185718,0.4355555555555555,0.4488888888888889,-0.6977777777777778,0.012798558135450328,-0.04908738521234052,1.2757774009569536
1589543380.1740448,2.35737053202784,-6.709721599622508,8.43720891824938,0.4430023724325953,0.4449464564245737,-0.7034724024484553,0.00809726636647275,-0.053817964571327745,1.2704506053793698
1589543380.1840448,0.23536748995812318,-3.5959653021109306,9.137824117596786,0.4544444444444444,0.4388888888888889,-0.7122222222222222,-0.052685234318304595,-0.10067078814714578,0.963826047155355
1589543380.1940448,-0.48095731548856546,-3.649502338877339,8.784169698544698,0.4544444444444444,0.4388888888888889,-0.7122222222222222,0.017366583095412072,-0.044869770767958436,0.4295064705599035
1589543380.2040448,-0.10011220679092014,-3.9176992444972205,8.855982067565009,0.4544444444444444,0.4388888888888889,-0.7122222222222222,0.04202575443401407,0.006067517434200949,0.15066196507826712
1589543380.2140448,0.089452974410103,-4.170534396809571,8.886475905616484,0.4544444444444444,0.4388888888888889,-0.7122222222222222,-0.016496377620150132,-0.021228168815051008,0.01012627387215587
1589543380.2240448,0.030741884197293512,-4.073281076684167,8.81039007616653,0.4620616110823535,0.4236545556130707,-0.7163237734887886,-0.01802435933386651,-0.012092992161808022,-0.004065064842750696
1589543380.2340448,0.13,-4.077327114827919,8.963663557413959,0.4688888888888889,0.41,-0.72,0.008381046928752925,-0.0025756798888087774,-0.0003455993312187226
1589543380.2440448,0.13,-4.063956894573223,8.887193974420496,0.4688888888888889,0.41,-0.72,0.0015459713860634852,-0.0018990820203440353,-0.0003296002710699926
1589543380.2540448,0.08718250565214003,-4.062863750942023,8.867136249057976,0.4688888888888889,0.41,-0.72,0.0028013892895046846,-0.0026426729996162288,0.0007784440144002281
1589543380.2640448,0.10441178107090529,-4.065735296845151,8.887205890535453,0.4688888888888889,0.41,-0.72,0.003112075460896746,-0.0023260347397595846,0.00046520694795191696
1589543380.2740448,0.10654754169374053,-4.09345245830626,8.9,0.4688888888888889,0.40609125694895676,-0.7030621134454793,-0.0029348711241435946,0.0,-0.0006395665861420633
1589543380.2840447,0.09,-4.11,8.887624038982134,0.4688888888888889,0.4033333333333333,-0.6911111111111111,-0.004519972808788943,0.002025011886189793,0.0009341811036933372
1589543380.2940447,0.09597853318268901,-4.086085867269245,8.838150267721177,0.4688888888888889,0.4033333333333333,-0.6911111111111111,0.0006404484704228344,0.001968178741518634,0.0008773479590221778
1589543380.3040447,0.09487852264305886,-4.075121477356942,8.820242954713883,0.4688888888888889,0.4033333333333333,-0.6911111111111111,0.003272492347489368,-0.0017025017939085332,0.0005586665152809978
1589543380.3140447,0.08707902866823905,-4.091683885327044,8.85920971331761,0.4688888888888889,0.4033333333333333,-0.6911111111111111,0.0016793496257521095,-0.003088808952596017,0.0007722022381490043
1589543380.3240447,0.08011244726439226,-4.119550210942431,8.928875527356077,0.4688888888888889,0.4033333333333333,-0.6911111111111111,-0.002120331096289619,-4.90643749626353e-05,1.2266093740658825e-05
1589543380.3340447,0.10844654788418709,-4.11266982182628,8.911553452115813,0.4744444444444445,0.4177777777777778,-0.7122222222222222,0.0010431524882726414,-0.00016945533870629803,0.00046068772189507897
1589543380.3440447,0.10895079894491314,-4.0968523968347395,8.872376997362283,0.4744444444444445,0.4177777777777778,-0.7122222222222222,0.006659434775770388,0.00048819035085240204,0.00048819035085240204
1589543380.3540447,0.0918676060082414,-4.074066196995879,8.858132393991758,0.4744444444444445,0.4177777777777778,-0.7122222222222222,0.0058616023371552885,-0.0004435532850799759,0.0008871065701599518
1589543380.3640447,0.08300936998790062,-4.0830093699879,8.879028109963702,0.4744444444444445,0.4177777777777778,-0.7122222222222222,0.0016311356381278784,-0.001747373466241052,0.001853390223120614
1589543380.3740447,0.09,-4.09,8.90679448462211,0.4744444444444445,0.4177777777777778,-0.7050502662322181,-0.0018110799161431363,-0.0021607474009400418,0.001090830782496456
1589543380.3840446,0.09,-4.099831809459307,8.897059111261617,0.4744444444444445,0.4177777777777778,-0.6911111111111111,-0.001090830782496456,-0.0007149893603901217,0.0007333361023013951
1589543380.3940446,0.09901756620098132,-4.110982433799019,8.827456084497546,0.4744444444444445,0.4177777777777778,-0.6911111111111111,0.0008764969765495511,-0.0007061657457084064,0.0004918319397615018
1589543380.4040446,0.11,-4.095681584890166,8.825910490659002,0.4744444444444445,0.4177777777777778,-0.6911111111111111,0.0028014263341489256,-0.0003223672575248715,0.0015618967958368985
1589543380.4140446,0.11464287023124564,-4.080714259537508,8.883214351156228,0.4744444444444445,0.4177777777777778,-0.6911111111111111,0.00015582725804123496,-0.0016752029882549928,0.0011687444115170734
1589543380.4240446,0.11102486226868202,-4.083462706596977,8.91,0.4654693067131265,0.40880264004645983,-0.6941028236882172,-0.0012026259135462058,-0.001090830782496456,-0.000979035651446706
1589543380.4340446,0.1,-4.093859105006646,8.891577315019939,0.4544444444444444,0.3977777777777778,-0.6977777777777778,0.0006698677290828924,0.00024890467566932874,-0.00017205837774423487
1589543380.4440446,0.09378222864278543,-4.09,8.830257829142285,0.4544444444444444,0.3977777777777778,-0.6977777777777778,0.0024473380614913392,-0.00026567649649842685,0.0017690844219938975
1589543380.4540446,0.09573072347788472,-4.10146144695577,8.851576511300964,0.4544444444444444,0.3977777777777778,-0.6977777777777778,0.003897617305054548,-0.001090830782496456,0.000931411649862552
1589543380.4640446,0.1,-4.096443616826424,8.894518794391193,0.4544444444444444,0.3977777777777778,-0.6977777777777778,0.002391627121312009,-0.0015837547846649096,0.0
1589543380.4740446,0.10432726958226425,-4.092981808746793,8.912981808746792,0.45781009856398325,0.40306666282276743,-0.6977777777777778,-0.0009440637728988845,-0.0017096296785434697,0.0
1589543380.4840446,0.10404014989293363,-4.104040149892934,8.924040149892933,0.4622222222222222,0.41,-0.6977777777777778,-0.002181661564992912,-0.002391068373667018,0.0019503563867558423
1589543380.4940445,0.1123836538905032,-4.112383653890503,8.845698076656982,0.4622222222222222,0.41,-0.6977777777777778,-0.00015539093546147785,-0.001246221717957934,0.0019216452611350787
1589543380.5040445,0.1108256218770857,-4.106238432815629,8.822935945307286,0.4622222222222222,0.41,-0.6977777777777778,0.001090830782496456,0.0,0.001090830782496456
1589543380.5140445,0.1,-4.086970404589065,8.859088786232803,0.4622222222222222,0.41,-0.6977777777777778,0.0020822635623236833,0.0006609551865514848,0.001090830782496456
1589543380.5240445,0.1,-4.082692486473421,8.890769945893684,0.4622222222222222,0.41,-0.6998719339237719,0.003188504279320656,0.002181661564992912,0.001090830782496456
1589543380.5340445,0.09897217357462541,-4.091027826425375,8.913833041447752,0.4622222222222222,0.41,-0.7055555555555556,-0.00022423694077237908,0.0020695430946067223,0.0008665938417240769
1589543380.5440445,0.09,-4.096603491989283,8.832827935914263,0.4622222222222222,0.41,-0.7055555555555556,4.134772965857852e-05,0.0007203292333878742,-0.001090830782496456
1589543380.5540445,0.09404761904761905,-4.09,8.792142857142856,0.4622222222222222,0.41,-0.7055555555555556,0.004363323129985824,-0.0002207633726480923,-0.0006493040372002714
1589543380.5640445,0.10625083318716015,-4.08625083318716,8.86624416768988,0.4622222222222222,0.41,-0.7055555555555556,0.003545381816353856,-0.00149980143931244,0.000681860125680472
1589543380.5740445,0.1,-4.087518477310657,8.912506159103552,0.45860221462820205,0.4119492348583185,-0.7091755631495757,0.0010881433665974342,-0.0019082820153940425,0.0005467590991977389
1589543380.5840445,0.1,-4.1059734165954405,8.92805316680912,0.4477777777777778,0.4177777777777778,-0.72,-0.002181661564992912,0.0002268655552984571,0.0013031973397963034
1589543380.5940444,0.09701812829253177,-4.0970181282925315,8.898253796095444,0.4477777777777778,0.4177777777777778,-0.72,-0.0015311180754005878,0.0018563898201967499,-0.000650543489592324
1589543380.6040444,0.0943245058355871,-4.094324505835587,8.825947035013522,0.4477777777777778,0.4177777777777778,-0.72,0.0018869216338175856,0.00014736996558766316,-0.0007664703396297226
1589543380.6140444,0.1,-4.094680586007574,8.865319413992426,0.4477777777777778,0.4177777777777778,-0.72,0.0032028070244297475,-0.001380959808885475,0.0008007017561074369
1589543380.6240444,0.09753898933338591,-4.082461010666614,8.884922021333228,0.45898904859235307,0.4158636583704113,-0.7145310874075242,-0.00026845461911947715,-0.001913206945873435,0.00026845461911947715
1589543380.6340444,0.09,-4.09417969924812,8.893033834586467,0.4933333333333334,0.41,-0.6977777777777778,-0.0015467652426391478,-0.0007868744757346615,0.001090830782496456
1589543380.6440444,0.0980722942622256,-4.1119277057377746,8.829819264344437,0.4933333333333334,0.41,-0.6977777777777778,-0.0030424970699950414,0.0015311061358267168,-0.00022999527749432654
1589543380.6540444,0.10449470260779345,-4.102752648696103,8.808257946088311,0.4933333333333334,0.41,-0.6977777777777778,-0.0007905633893856377,0.0015811267787712753,-0.0018813941718820936
1589543380.6640444,0.08841823810864058,-4.106836476217281,8.837908809456797,0.4933333333333334,0.41,-0.6977777777777778,0.0008627172808373322,-0.00017254345616746645,-0.000745743870161523
1589543380.6740444,0.0907983846844152,-4.082801076877057,8.890798384684416,0.4865343503838868,0.40560065809153456,-0.6953781367367967,0.00388359252381583,-0.0006981904353298436,0.0003055500881632311
1589543380.6840444,0.11,-4.0787153492120725,8.91,0.4744444444444445,0.3977777777777778,-0.6911111111111111,-0.0003352148976137597,0.000950697120073477,0.0003352148976137597
1589543380.6940444,0.10139845239430302,-4.098601547605697,8.871293035774364,0.4744444444444445,0.3977777777777778,-0.6911111111111111,-0.0007742366291824683,0.0017125199197227641,0.00030509498391232044
1589543380.7040443,0.09934298681651178,-4.11,8.84335746704128,0.4744444444444445,0.3977777777777778,-0.6911111111111111,0.0021099925444874176,-0.0009474927414854673,-0.0006529189220064696
1589543380.7140443,0.10270471568730878,-4.11,8.880942926469036,0.4744444444444445,0.3977777777777778,-0.6911111111111111,0.002874596312722014,-0.002874596312722014,0.0018866228520311636
1589543380.7240443,0.0968418162374635,-4.113420908118732,8.910262724356196,0.4744444444444445,0.3977777777777778,-0.6911111111111111,0.0018084983769924479,-0.00106217200099152,0.002153002783487976
