time,acc_x,acc_y,acc_z,mag_x,mag_y,mag_z,gyr_x,gyr_y,gyr_z
1589543395.2011154,0.23,-3.99,8.89,0.4722222222222222,0.3922222222222223,-0.67,-0.00545415391248228,-0.01308996938995747,-0.001090830782496456
1589543395.2111154,0.23,-4.003470422016094,8.913470422016095,0.4577777777777778,0.3922222222222223,-0.6433333333333333,-0.002181661564992912,0.002181661564992912,0.002181661564992912
1589543395.2211154,0.23,-3.99,8.837386413349165,0.4577777777777778,0.3922222222222223,-0.6433333333333333,-0.003423494796288171,0.0015607449493452823,0.003423494796288171
1589543395.2311153,0.23,-3.985898781052307,8.798202437895386,0.4577777777777778,0.3922222222222223,-0.6433333333333333,-0.003915949542595671,0.00019608360771615051,0.004810696717375977
1589543395.2411153,0.23661098824351065,-3.976694505878245,8.819916482365267,0.4577777777777778,0.3922222222222223,-0.6433333333333333,-0.003272492347489368,-0.0018119777303708155,0.0050935804385451
1589543395.2511153,0.23838230783387523,-3.9622548718892503,8.84,0.4551960684075278,0.38533766390155577,-0.6515087463391248,-0.002427629931730912,-0.0011603363080932285,0.006053047961502736
1589543395.2611153,0.2443297042573936,-3.98892752681183,8.830268118297044,0.4511111111111111,0.3744444444444445,-0.6644444444444444,-0.0005600389758364565,0.00589720421161291,0.008726646259971648
1589543395.2711153,0.2798774794816051,-4.064571178185617,8.795306301295987,0.4511111111111111,0.3744444444444445,-0.6644444444444444,0.0048485964024053765,0.015743539312074672,0.00818791332637105
1589543395.2811153,0.281683714435329,-4.083367428870658,8.77,0.4511111111111111,0.3744444444444445,-0.6644444444444444,0.009817477042468105,0.024991696751420028,0.007182232462976491
1589543395.2911153,0.24854142282564748,-4.033176778532059,8.780729288587176,0.4511111111111111,0.3744444444444445,-0.6644444444444444,0.009817477042468105,0.02886723921414532,0.004789408955201769
1589543395.3011153,0.23687783577252414,-3.9824886569099034,8.858778357725242,0.4610457627825349,0.39202113586311726,-0.659859220596095,0.009067221544705642,0.024610322856095546,0.004773003343014292
1589543395.3111153,0.23352353301337125,-3.963523533013371,8.877047066026742,0.4655555555555556,0.4,-0.6577777777777778,0.0059007544396369686,0.021494500522258233,0.006867099822649619
1589543395.3211153,0.23611487429281783,-3.947770251414364,8.802736382779004,0.4655555555555556,0.4,-0.6577777777777778,0.0036962938190156316,0.0173906383125817,0.008969874099415577
1589543395.3311152,0.2649060027310649,-3.954943601638639,8.789887203277278,0.4655555555555556,0.4,-0.6577777777777778,0.0027291276585296393,0.012011442821192013,0.01144757110934729
1589543395.3411152,0.2786940800957558,-3.981305919904244,8.827537279936163,0.4655555555555556,0.4,-0.6577777777777778,0.0042371358076577345,0.009137741108504613,0.014323253935556364
1589543395.3511152,0.2519698763794818,-4.008030123620518,8.848030123620518,0.47537015109174446,0.39687717414757634,-0.6604544856512838,0.007197840175849537,0.010693427645719414,0.018552338245575114
1589543395.3611152,0.24546877050255872,-4.014531229497441,8.849062458994883,0.49,0.3922222222222223,-0.6644444444444444,0.005948434374318769,0.012595688928120982,0.018833864046629286
1589543395.3711152,0.23244325628809787,-4.015852247903967,8.781477520960326,0.49,0.3922222222222223,-0.6644444444444444,0.0029006290483030877,0.012451588173912672,0.017639224169536435
1589543395.3811152,0.20670894485716013,-4.02,8.74443035171428,0.49,0.3922222222222223,-0.6644444444444444,-0.0003589984256703021,0.0090994801911275,0.01854412330243975
1589543395.3911152,0.18639499065798112,-4.034420037368075,8.771630056052114,0.49,0.3922222222222223,-0.6644444444444444,-0.0033613981134313605,0.001914944267166934,0.0173643867540013
1589543395.4011152,0.18608485469960265,-4.044787863250993,8.828254564098808,0.48628147768357616,0.3922222222222223,-0.6580215422615305,-0.0047903992311478,-0.0046952004706530635,0.012948489570279708
1589543395.4111152,0.20150053223844283,-4.0115005322384425,8.86549840328467,0.4777777777777778,0.3922222222222223,-0.6433333333333333,-0.0035998576986537166,-0.006108884614810977,0.006490036748399972
1589543395.4211152,0.20655782073813708,-4.013115641476274,8.809020386643233,0.4777777777777778,0.3922222222222223,-0.6433333333333333,-0.00658060444179558,-0.010943927571781404,0.0003754835097710999
1589543395.4311152,0.20380611741489887,-4.001903058707449,8.753806117414898,0.4777777777777778,0.3922222222222223,-0.6433333333333333,-0.008726646259971648,-0.013920335397550974,0.0008832392805980801
1589543395.4411151,0.22451470200288157,-4.01,8.783544106008645,0.4777777777777778,0.3922222222222223,-0.6433333333333333,-0.007249213484409167,-0.018438247703651617,0.0
1589543395.4511151,0.23468533006566752,-4.019370660131335,8.828111980394006,0.4777777777777778,0.3922222222222223,-0.6433333333333333,-0.004431973460125026,-0.017590593180221704,-0.0020443609047145067
1589543395.4611151,0.23407579236395484,-4.03,8.865924207636045,0.4777777777777778,0.3922222222222223,-0.6433333333333333,-0.0019800307372296426,-0.012040476929301071,-0.003070861519726099
1589543395.471115,0.23,-4.01368196418357,8.831924583094997,0.4777777777777778,0.3922222222222223,-0.6433333333333333,-0.002277511834392543,-0.008037455464623974,0.00019170053879926296
1589543395.481115,0.23,-4.007921357754999,8.819803394387499,0.4777777777777778,0.3922222222222223,-0.6433333333333333,-0.0015443201718253476,-0.003952726431482705,0.0013175754771609016
1589543395.491115,0.2317039522744221,-4.014888143176734,8.853407904548844,0.4777777777777778,0.3922222222222223,-0.6433333333333333,0.0009049584232120114,0.000929361796422223,-0.00018587235928444457
1589543395.501115,0.23915095344625545,-3.9925471396612338,8.86830190689251,0.4777777777777778,0.3922222222222223,-0.6433333333333333,9.26166116597077e-05,0.004991070854183741,-0.0009982141708367483
1589543395.511115,0.2329614428351553,-4.01,8.87815422865938,0.4777777777777778,0.4066666666666667,-0.6644444444444444,0.0025047048655120092,0.0073924137155968635,0.00032304330051909725
1589543395.521115,0.22838504528810946,-4.004192522644055,8.803540181152437,0.4777777777777778,0.4066666666666667,-0.6644444444444444,0.0007385023200828776,0.010098646086906147,0.00045733327564483333
1589543395.531115,0.22,-4.005467691622103,8.77,0.4777777777777778,0.4066666666666667,-0.6644444444444444,-0.0016872634155552914,0.0069373483607951415,-0.0011928652661176709
1589543395.541115,0.22,-4.005775744065079,8.77,0.4777777777777778,0.4066666666666667,-0.6644444444444444,-0.0017208667242973735,0.003150179709004588,-0.0017208667242973735
1589543395.551115,0.22,-3.997637751799246,8.774724496401507,0.47646541766624784,0.4050918345328307,-0.6576201718644885,-0.003925325141103684,-0.002576813053279298,-0.0016061933931523157
1589543395.561115,0.22127063566538074,-3.9906353178326905,8.793811906996142,0.4722222222222222,0.4,-0.6355555555555555,-0.013297876664527747,-0.011601332073532148,-0.0031338874977758506
1589543395.571115,0.24528321826123714,-4.005283218261237,8.834150345216289,0.4722222222222222,0.4,-0.6355555555555555,-0.016938771448447326,-0.02124030593892863,-0.001667140493496944
1589543395.581115,0.25877762686751454,-4.017826892208914,8.788438078775156,0.4722222222222222,0.4,-0.6355555555555555,-0.018514492141537265,-0.01956828397290562,-0.003272492347489368
1589543395.591115,0.15743239718285368,-3.73716755064777,8.783005303886618,0.4722222222222222,0.4,-0.6355555555555555,-0.019924463856303233,-0.016912591004870192,-0.00192104206893659
1589543395.601115,0.3199451308730288,-3.8163436839538285,9.23795236546903,0.4722222222222222,0.3992890496576889,-0.6362665058978666,-0.029933028009304072,-0.02843736972416678,0.001788804648893859
1589543395.611115,0.20507125981251428,-3.7426781495312857,8.782678149531286,0.4722222222222222,0.3922222222222223,-0.6433333333333333,-0.004624370966053111,0.008074026669803428,0.009540882726991714
1589543395.621115,0.17391655179369936,-3.6465410348653466,8.735208620515753,0.4722222222222222,0.3922222222222223,-0.6433333333333333,-0.010053848773402766,-0.00350886407842403,0.011571909081680118
1589543395.631115,0.07520371334374458,-3.4815169182717334,8.744192434495922,0.4722222222222222,0.3922222222222223,-0.6433333333333333,-0.013492136345288066,-0.008555819471631712,0.015100804166610447
1589543395.641115,-0.11447555244475553,-3.2299300069993,8.742622404426223,0.4722222222222222,0.3922222222222223,-0.6433333333333333,-0.02064950706249057,-0.018265698407184016,0.021374182566830782
1589543395.651115,-0.20707258387916055,-2.8976059350354233,8.855143697366662,0.4748213993969909,0.3922222222222223,-0.6464523459430558,-0.04092182929470898,-0.03152517000899596,0.048105477113245323
1589543395.661115,-0.03933404858609855,-3.104443252356502,8.786888650471301,0.4777777777777778,0.3922222222222223,-0.65,-0.019966408146749257,-0.00913074435197777,0.08708029659828957
1589543395.671115,-0.005486115713433627,-3.2029166942806016,8.805486115713434,0.4777777777777778,0.3922222222222223,-0.65,-0.018089616500825648,-0.010347747026536732,0.126263681147243
1589543395.681115,0.06295058139534886,-3.141417151162791,8.799578488372093,0.4777777777777778,0.3922222222222223,-0.65,-0.020587845509762327,-0.010155983397210827,0.1746835486359695
1589543395.691115,0.12099024786672084,-2.875300081267777,8.839553636733035,0.4777777777777778,0.3922222222222223,-0.65,-0.014504858029050091,-0.007419776906411083,0.24564682566229223
1589543395.701115,0.10031972965947492,-2.66936054068105,8.9,0.483693498541432,0.39598677179909314,-0.65,-0.004572585702765232,-0.014041291790600988,0.3558742564083596
1589543395.711115,0.09991610706336675,-2.7098322141267333,8.88512583940495,0.49,0.4,-0.65,0.0027225013063554614,-0.019084963043802302,0.4648412471946844
1589543395.7211149,0.08376550552251487,-2.778096573208723,8.865627584253751,0.49,0.4,-0.65,0.002795535778501467,-0.02440451977481522,0.5456004710334994
1589543395.7311149,0.045530898193893256,-2.8846910180610674,8.864469101806106,0.49,0.4,-0.65,0.003644171711056436,-0.030543261909900768,0.6181830014509025
1589543395.7411149,0.026569850184400202,-2.9690986579337997,8.883430149815599,0.49,0.4,-0.65,0.0056983209263555355,-0.03225243100701356,0.6709718221543852
1589543395.7511148,-0.011941175570416393,-3.052539213735902,8.921941175570415,0.49,0.4,-0.65,0.006398471132336664,-0.03715348244888147,0.7150812851311963
1589543395.7611148,0.002506425474307912,-3.0713810355314015,8.9386189644686,0.4833333333333333,0.38666666666666666,-0.6711111111111111,0.004999407449603183,-0.035997415822383035,0.8057556652672706
1589543395.7711148,-0.06907558322549054,-3.1590755832254906,8.848767444300654,0.4833333333333333,0.38666666666666666,-0.6711111111111111,0.007568589992575791,-0.03629993050443034,0.8604333648867933
1589543395.7811148,-0.012419096274112567,-3.0798529023165684,8.807492645115829,0.4833333333333333,0.38666666666666666,-0.6711111111111111,0.0043601139563634,-0.04718244280999975,0.9332394307487535
1589543395.7911148,0.0688586276755043,-2.9320752224081743,8.80010376112041,0.4833333333333333,0.38666666666666666,-0.6711111111111111,0.001136105112163709,-0.05121245386524936,0.9670915236128502
1589543395.8011148,-0.01825279408217416,-2.982168529388116,8.900647463214602,0.48248829657026965,0.38480758578792673,-0.665702875827504,0.0015179712432794213,-0.04975107553405401,0.9983220478257636
1589543395.8111148,-0.1194259065691083,-3.049617271046072,8.959665112165315,0.4778043561773561,0.37450291692351684,-0.6357256573128568,-0.002160786938778056,-0.05342983371611147,1.0176355282815654
1589543395.8211148,-0.06666249130132221,-3.010273950359545,8.765554163767106,0.4777777777777778,0.3744444444444445,-0.6355555555555555,0.00933251154079037,-0.04814870394260563,1.0746816033538982
1589543395.8311148,-0.033077843415837874,-2.9794880231311844,8.768718562277225,0.4777777777777778,0.3744444444444445,-0.6355555555555555,0.00537021875393978,-0.05999569303730508,1.099026056938029
1589543395.8411148,-0.09096805723892559,-3.0309680572389257,8.832687961840715,0.4777777777777778,0.3744444444444445,-0.6355555555555555,0.006040576216088108,-0.05757361965228118,1.1056508043042876
1589543395.8511147,-0.08246182322998613,-3.0039122099557085,8.911011436504264,0.4885983855211065,0.3695494076081767,-0.6389047912856335,0.009975689691162307,-0.05387746424705392,1.109627836913433
1589543395.8611147,-0.20744654058717907,-3.0587232702935894,8.97968239162372,0.5244444444444445,0.3533333333333333,-0.65,0.008506078815645766,-0.05271971461062379,1.1195055677536623
1589543395.8711147,-0.3136878430264057,-3.1662410194803665,8.829078039243399,0.5244444444444445,0.3533333333333333,-0.65,0.016184523707889732,-0.04928852584705142,1.1439720199899757
1589543395.8811147,-0.43,-3.296539024732714,8.810382925801857,0.5244444444444445,0.3533333333333333,-0.65,0.014810555668633305,-0.0563874375791221,1.1768361367947828
1589543395.8911147,-0.4367574669141576,-3.3170298676566303,8.839009955885544,0.5244444444444445,0.3533333333333333,-0.65,0.01055460233463455,-0.059288282056645054,1.2161791856103585
1589543395.9011147,-0.4679429636231062,-3.3901425909422347,8.866028518188447,0.5228999792955071,0.3509063166707175,-0.6541921196899727,0.012440137198132433,-0.06370918397546586,1.2618123875821536
1589543395.9111147,-0.5012277708850289,-3.3118416563275437,8.851841656327544,0.5166666666666667,0.3411111111111111,-0.6711111111111111,0.00988444155623023,-0.061287417361087906,1.298250727587464
1589543395.9211147,-0.5301490205504146,-3.353532027400553,8.864776469174378,0.5166666666666667,0.3411111111111111,-0.6711111111111111,0.011092822225440916,-0.06509707376919632,1.3398059934079327
1589543395.9311147,-0.5776076547013126,-3.4176076547013126,8.792392345298687,0.5166666666666667,0.3411111111111111,-0.6711111111111111,0.01252106738629479,-0.06898330368669361,1.3767745904907298
1589543395.9411147,-0.5705853201178677,-3.410585320117868,8.799414679882133,0.5166666666666667,0.3411111111111111,-0.6711111111111111,0.014053103132017023,-0.06974932155955473,1.402819198168008
1589543395.9511147,-0.5941981572690217,-3.380599736752717,8.906597104279891,0.5181993272569445,0.3395118131038647,-0.6707112866092995,0.015271630954950384,-0.06898402382178016,1.434332965167231
1589543395.9611146,-0.6565285326086957,-3.389504076086957,9.004544836956521,0.5409548611111111,0.3157669082125605,-0.6647750603864734,0.015271630954950384,-0.07286927479921299,1.448902656332604
1589543395.9711146,-0.6833633451649208,-3.2532733096701585,8.895826335382218,0.5422222222222223,0.3144444444444445,-0.6644444444444444,0.017820176563748916,-0.06615415099063737,1.475219208723616
1589543395.9811146,-0.698604012510489,-3.280152058382282,8.793172120934727,0.5422222222222223,0.3144444444444445,-0.6644444444444444,0.014164213176040956,-0.06703068756277133,1.4886794608825544
1589543395.9911146,-0.7376794023556783,-3.3673718554602297,8.946961792932965,0.5422222222222223,0.3144444444444445,-0.6644444444444444,0.006027526105448553,-0.07905727492927501,1.493071837861852
1589543396.0011146,-0.791595001552313,-3.3296809996895376,8.794785004656937,0.542434889095864,0.3134165545551762,-0.6655786677705336,0.014180800172453925,-0.0709387983980975,1.4925000932059465
1589543396.0111146,-0.8215838516046546,-3.261068325134895,8.888434784493032,0.5488888888888889,0.2822222222222222,-0.7,0.012171910015987388,-0.0727983877073527,1.5047136623081467
1589543396.0211146,-0.8019868821738112,-3.177980323260717,8.823973764347624,0.5488888888888889,0.2822222222222222,-0.7,0.007745971755370301,-0.07483027621282658,1.5155974273348547
1589543396.0311146,-0.8623246185693475,-3.233853407958292,8.884617802652764,0.5488888888888889,0.2822222222222222,-0.7,0.007720912488990191,-0.07459512032635687,1.521205217454443
1589543396.0411146,-0.9708549649450257,-3.279715011684991,8.898575058424958,0.5488888888888889,0.2822222222222222,-0.7,0.01536489316294932,-0.06862907708927779,1.51980706664156
1589543396.0511146,-0.9905906802390325,-3.2731364399203224,8.865682199601613,0.5488888888888889,0.2822222222222222,-0.7,0.017517725738678203,-0.0664762445135489,1.5262655643687466
1589543396.0611145,-1.009937511320413,-3.1308748415142182,8.969250135844955,0.5488888888888889,0.2468888486385317,-0.6790208094346837,0.013124051677583017,-0.07303794722458679,1.5358488430098594
1589543396.0711145,-1.0513845331432645,-3.1051692801140414,8.961723093371347,0.5488888888888889,0.2466666666666667,-0.6788888888888889,0.013992839843395822,-0.07398853288070091,1.5431127053825169
1589543396.0811145,-1.092769899956503,-3.1519956502827315,8.845234449760765,0.5488888888888889,0.2466666666666667,-0.6788888888888889,0.014482949386152813,-0.07481410017170713,1.5511613727099605
1589543396.0911145,-1.1073651152675077,-3.0571267507612006,8.925508133971292,0.5488888888888889,0.2466666666666667,-0.6788888888888889,0.016075040399993575,-0.07242596365094597,1.5511613727099605
1589543396.1011145,-0.9542565044746044,-2.860480945889883,8.889839684703373,0.5528247627702377,0.23748296094351926,-0.6871979559717366,0.017453292519943295,-0.07372966828513243,1.5449010073784584
1589543396.1111145,-0.9020262603339277,-2.7610459555843736,8.966078781001784,0.5688888888888889,0.2,-0.7211111111111111,0.013517708028773962,-0.07832594702033659,1.513823449809914
1589543396.1211145,-0.9586733812420739,-2.8263847892811853,9.024057416971457,0.5688888888888889,0.2,-0.7211111111111111,0.005554858630828136,-0.08037112653044075,1.4738528685306633
1589543396.1311145,-1.120558914885405,-2.918890808505946,8.877589553198918,0.5688888888888889,0.2,-0.7211111111111111,0.01228208618659999,-0.06607576797442555,1.4376940204183895
1589543396.1411145,-1.2140164684354986,-2.9605535224153705,8.842520585544372,0.5688888888888889,0.2,-0.7211111111111111,0.016362461737446838,-0.06043382177794181,1.402327841897238
1589543396.1511145,-1.1844978534731507,-2.8646180237877403,8.80562231684144,0.5688888888888889,0.2,-0.7211111111111111,0.016362461737446838,-0.05721384039218285,1.3838129489291244
1589543396.1611145,-1.1580037512531125,-2.7080037512531128,8.934011253759337,0.5666666666666667,0.15444444444444444,-0.7211111111111111,0.014399580126308438,-0.06697568015101275,1.3404096942453096
1589543396.1711144,-1.1851311321669953,-2.7351311321669955,9.015393396500986,0.5666666666666667,0.15444444444444444,-0.7211111111111111,0.01883828744871398,-0.057358480952467414,1.3174763730795478
1589543396.1811144,-1.18,-2.680000225855994,8.799999322432017,0.5666666666666667,0.15444444444444444,-0.7211111111111111,0.015115801505603332,-0.05298319535721809,1.2782979461847674
1589543396.1911144,-1.1849534681722298,-2.624334284650701,8.976284898870828,0.5666666666666667,0.15444444444444444,-0.7211111111111111,0.01451851239510297,-0.05625040357810704,1.2490890917430109
1589543396.2011144,-1.2369983868966372,-2.6698735885345575,8.937251209827522,0.5666666666666667,0.15444444444444444,-0.7211111111111111,0.018066774858672342,-0.05128283612910993,1.2270898644688808
1589543396.2111144,-1.26,-2.650929766723699,8.929767558319075,0.5341081389364158,0.12622705374489374,-0.7699489027064873,0.011111151457514916,-0.050152860540768174,1.1768790907857936
1589543396.2211144,-1.305111494364555,-2.679824863972017,9.012070054411193,0.5333333333333333,0.12555555555555556,-0.7711111111111111,0.0030466844401721605,-0.055939815242757124,1.1178705242316085
1589543396.2311144,-1.4741413081497026,-2.8079293459251486,8.939293459251488,0.5333333333333333,0.12555555555555556,-0.7711111111111111,0.01008188618282139,-0.04148743475534614,1.069198833547726
1589543396.2411144,-1.5020851446559735,-2.793957427672013,8.799574276720131,0.5333333333333333,0.12555555555555556,-0.7711111111111111,0.019226485295447952,-0.02700848616035409,1.041002986283794
1589543396.2511144,-1.5307340061217687,-2.7329587538261055,8.919805133800043,0.5383728487101521,0.12209988786859412,-0.769959221882124,0.006080876644081147,-0.04181435353360813,0.9789818331600949
1589543396.2611144,-1.6818574983745487,-2.8051781270318137,9.016246889222698,0.5722222222222222,0.09888888888888887,-0.7622222222222222,-0.0011296920723959441,-0.05017405839931595,0.9396063894150064
1589543396.2711143,-1.7184393377652774,-2.7885665430836104,8.798693748401943,0.5722222222222222,0.09888888888888887,-0.7622222222222222,0.008202044790263638,-0.03000478449249928,0.9215262655780598
1589543396.2811143,-1.7519529851700333,-2.8622965673740732,8.912640149578113,0.5722222222222222,0.09888888888888887,-0.7622222222222222,0.01478243407037486,-0.03219824758586969,0.9076343326533807
1589543396.2911143,-1.801114566310746,-2.873312602135525,8.978854336892542,0.5722222222222222,0.09888888888888887,-0.7622222222222222,-0.0019351087825047796,-0.040597115331929653,0.8667173665197063
1589543396.3011143,-1.8077691221501215,-2.8333852670992714,8.912308778498787,0.5722222222222222,0.09888888888888887,-0.7622222222222222,0.006049785006270822,-0.028982724366437868,0.850747578942155
1589543396.3111143,-2.0203991971454056,-2.9561321736544754,9.117732307463575,0.56,0.09222222222222222,-0.7688888888888888,0.005512336419651563,-0.02777977527321501,0.8183411800472992
1589543396.3211143,-1.8800903211418376,-2.7534637972048768,8.938448743681237,0.56,0.09222222222222222,-0.7688888888888888,0.006362632202996955,-0.019276817439761097,0.8055867432971182
1589543396.3311143,-1.6933865682167004,-2.5115406313518895,8.789534989836977,0.56,0.09222222222222222,-0.7688888888888888,0.011680446061680845,-0.01538896302526246,0.7837706277611256
1589543396.3411143,-1.5367984402870536,-2.3375538225411705,9.067913883934127,0.56,0.09222222222222222,-0.7688888888888888,-0.0016048656142531956,-0.02677637303320593,0.7581489552432528
1589543396.3511143,-1.8686687079386344,-2.62534047778522,9.164024495263611,0.5590385112890137,0.0885241887184285,-0.7716254336816962,-0.007127540451114374,-0.037236808064429146,0.713842336084438
1589543396.3611143,-1.85,-2.56,8.94,0.5455555555555556,0.03666666666666667,-0.81,0.0,-0.008726646259971648,0.6894050545377601
1589543396.3711143,-1.850925474914759,-2.5604870920603995,8.771899659035558,0.5455555555555556,0.03666666666666667,-0.81,0.0075454885251983305,-0.004506783583602016,0.6740059031795953
1589543396.3811142,-2.027367267413541,-2.6533511933755483,9.134069654164637,0.5455555555555556,0.03666666666666667,-0.81,-0.009675344926385394,-0.03185751906552911,0.6496941383067713
1589543396.3911142,-1.7774924623115578,-2.390030150753769,8.293020100502511,0.5455555555555556,0.03666666666666667,-0.81,0.015121710241878637,0.0362446342560041,0.649037737711326
1589543396.4011142,-1.7603130393849051,-2.460268319472776,9.498345363251216,0.5456648708963161,0.03640828495214185,-0.8100944087033841,-0.016318558066379784,-0.022868420947032637,0.6336946336596551
1589543396.4111142,-1.8264371725342403,-2.5155464656678004,9.115748690136963,0.57,-0.021111111111111112,-0.8311111111111111,-0.006544984694978735,-0.013986478078835197,0.6148619764083572
1589543396.4211142,-1.7969106334224454,-2.471256478804081,8.954294014948989,0.57,-0.021111111111111112,-0.8311111111111111,-0.006887636134240198,-0.011656487168199553,0.5987919154795618
1589543396.4311142,-1.9207639158096366,-2.509033589492167,8.78748272638132,0.57,-0.021111111111111112,-0.8311111111111111,-0.014830378423750587,-0.008809976548010395,0.5780153192910634
1589543396.4411142,-2.04094023564122,-2.606612705991964,9.078038587705507,0.57,-0.021111111111111112,-0.8311111111111111,-0.025476263044254557,-0.016629394396755696,0.5637014111861104
1589543396.4511142,-2.1956243327704343,-2.655460315611716,8.841941807876706,0.57,-0.021111111111111112,-0.8311111111111111,-0.004162472554416392,0.005572470696825732,0.5779106048460025
1589543396.4611142,-2.3185801056772726,-2.7671602113545455,9.149411532320455,0.5722222222222222,-0.08,-0.8044444444444444,-0.010746795703541777,-0.006777314360247153,0.5993241332431807
1589543396.4711142,-2.3047719379104867,-2.7395438758209743,8.949193099702063,0.5722222222222222,-0.08,-0.8044444444444444,-0.01978422037347291,-0.009036670527729938,0.6143865076930659
1589543396.4811141,-1.9525300852618757,-2.445817539585871,8.457900121802679,0.5722222222222222,-0.08,-0.8044444444444444,-0.011884608018604505,-0.018022172066634746,0.6429874809872326
1589543396.4911141,-2.2263452710685856,-2.5737014081233416,8.839471227410952,0.5722222222222222,-0.08,-0.8044444444444444,-0.031744361065866575,-0.0510281423906123,0.6555418039585538
1589543396.5011141,-2.3238323422882488,-2.630568866334812,8.831347304809313,0.5722222222222222,-0.08,-0.8044444444444444,-0.016679258823440214,-0.013808478026970723,0.6883305558979522
1589543396.5111141,-2.5483132098027497,-2.7936384937238494,9.220264913329348,0.5611111111111111,-0.12,-0.8177777777777778,-0.018487606140319735,-0.03941184005554715,0.757035285091791
1589543396.521114,-2.468979573533039,-2.67,8.933469360299558,0.5611111111111111,-0.12,-0.8177777777777778,-0.010919436505115145,-0.026324636080510225,0.8416204511872993
1589543396.531114,-2.5383296213808464,-2.659977728285078,9.025523385300668,0.5611111111111111,-0.12,-0.8177777777777778,-0.01902758727953729,-0.044602588721274906,0.929642920745248
1589543396.541114,-2.5164305081960476,-2.4947157060104352,8.79629062076332,0.5611111111111111,-0.12,-0.8177777777777778,-0.0090539940867144,-0.04333738809659418,1.0321769713095388
1589543396.551114,-2.6456661599769937,-2.589488517316462,9.12368760527505,0.5611111111111111,-0.12,-0.8177777777777778,-0.015632791354118,-0.05931446717457435,1.146836009398573
1589543396.561114,-2.7760315147323964,-2.609007878683099,8.962976363950704,0.4722222222222222,-0.1988888888888889,-0.7744444444444445,0.007527591830230551,-0.05541592261282997,1.3374460719843932
1589543396.571114,-2.74,-2.6,8.99,0.4722222222222222,-0.1988888888888889,-0.7744444444444445,0.006544984694978735,-0.05345070834232633,1.4868023565426691
1589543396.581114,-2.9739384352557816,-2.695037489322661,8.931515391186055,0.4722222222222222,-0.1988888888888889,-0.7744444444444445,0.0001653035353272169,-0.06541261051667294,1.5936620159668322
1589543396.591114,-3.0989026329055025,-2.652194734188995,9.007256582263755,0.4722222222222222,-0.1988888888888889,-0.7744444444444445,0.0020619573843552387,-0.07900767780336083,1.7397714249557896
1589543396.601114,-2.994484433098396,-2.5307270103779347,8.934484433098396,0.4722222222222222,-0.1988888888888889,-0.7744444444444445,0.0036427113191502304,-0.09264131198225423,1.9216343610178812
1589543396.611114,-2.896777178318844,-2.506611410840578,9.027808402985492,0.45745652369726386,-0.19242889578421965,-0.717227362660231,0.01233261149028832,-0.0943659038993449,2.142958097228252
1589543396.621114,-2.716666666666667,-2.3566666666666665,9.14,0.4544444444444444,-0.19111111111111112,-0.7055555555555556,0.015635241215782532,-0.1098102987713099,2.2747457917659433
1589543396.631114,-2.7986059943802686,-2.289366999687793,9.273669996877926,0.4544444444444444,-0.19111111111111112,-0.7055555555555556,0.012275337097815253,-0.10452656943081459,2.4400216685695395
1589543396.641114,-2.3993290132064637,-1.9910064801903042,8.764696907554754,0.4544444444444444,-0.19111111111111112,-0.7055555555555556,0.006039700351712598,-0.13431150406581127,2.577734607508271
1589543396.651114,-2.3821265687802478,-2.0168101468296284,8.885114018538266,0.4544444444444444,-0.19111111111111112,-0.7055555555555556,0.021051665083153447,-0.10991706137721988,2.692200838585507
1589543396.661114,-2.5742849871777302,-1.962434077873265,8.626561869898008,0.45604349783685366,-0.18471489754147394,-0.6903645483276671,0.008778643459732408,-0.13672888962700494,2.7471677132948207
1589543396.671114,-2.6415529963450797,-1.9455418591821254,9.274368664230053,0.4566666666666666,-0.18222222222222226,-0.6844444444444444,0.037104081366600455,-0.11251890183887658,2.8147017508477816
1589543396.681114,-2.381235087235363,-1.8081518515964417,9.100823391490241,0.4566666666666666,-0.18222222222222226,-0.6844444444444444,0.0039750893758678865,-0.15116939249473124,2.8257447481780256
1589543396.691114,-2.3606046122595292,-1.6799633568327557,8.780714541761261,0.4566666666666666,-0.18222222222222226,-0.6844444444444444,0.021830605673108464,-0.13200451470525051,2.8700117630934945
1589543396.701114,-2.6362486557533753,-1.663257657227068,9.106475684072171,0.4566666666666666,-0.18222222222222226,-0.6844444444444444,0.02820868765366652,-0.13838259668580857,2.886412545329215
1589543396.711114,-2.36,-1.51,8.81,0.4444444444444444,-0.21777777777777774,-0.6766666666666666,0.015271630954950384,-0.13635384781205698,2.8863382504856223
1589543396.721114,-2.36,-1.5055995450369657,8.877473642766526,0.4444444444444444,-0.21777777777777774,-0.6766666666666666,0.014791615781883677,-0.13667385792743478,2.8879383010625115
1589543396.731114,-2.248139395752318,-1.3383099012862698,8.912046066407418,0.4444444444444444,-0.21777777777777774,-0.6766666666666666,0.01850692476543568,-0.13934898264679674,2.8817905661853973
1589543396.741114,-2.1450499062482242,-1.2640199624992898,9.062790393757458,0.4444444444444444,-0.21777777777777774,-0.6766666666666666,0.015057819940195259,-0.14600280070268845,2.8347195321047787
1589543396.751114,-2.2435441595441596,-1.2456921238856722,9.17122911497105,0.4444444444444444,-0.21777777777777774,-0.6766666666666666,0.0049503927984261556,-0.15179339913835943,2.7971244328832556
1589543396.761114,-2.3970693317547096,-1.2170693317547097,9.005346658773549,0.43340375232634176,-0.23476345795947423,-0.6630781225213095,0.009394090201861303,-0.14280812303499474,2.772669367792028
1589543396.7711139,-2.2011337740891825,-1.1346096497397664,9.228513152342101,0.4155555555555556,-0.26222222222222225,-0.6411111111111111,0.014923390631293651,-0.14306915493896302,2.7479264166762607
1589543396.7811139,-2.146034155597723,-0.9266603415559773,9.07776091081594,0.4155555555555556,-0.26222222222222225,-0.6411111111111111,-0.006822349637776696,-0.1905849037919567,2.6761866989006124
1589543396.7911139,-1.760621703089676,-0.6856669178598342,8.747803315749811,0.4155555555555556,-0.26222222222222225,-0.6411111111111111,0.042943961057866326,-0.11638843858426956,2.6050461193968433
1589543396.8011138,-1.9212168367346938,-0.7281964285714285,9.062551020408163,0.4155555555555556,-0.26222222222222225,-0.6411111111111111,0.027860986932226446,-0.12014972350196743,2.489899734078942
1589543396.8111138,-2.117378187034381,-0.5983596316690575,9.13786890935172,0.38932585771649214,-0.29632082941300475,-0.6524773135080386,-0.0008943035671130951,-0.13848197987610883,2.3078033670601372
1589543396.8211138,-1.7148819920824394,-0.3918443081200327,9.001518841981204,0.38222222222222224,-0.3055555555555556,-0.6555555555555556,0.025813076014256513,-0.11916090951290352,2.135085124494649
1589543396.8311138,-1.6482924979389943,-0.42428194558944765,8.986287221764222,0.38222222222222224,-0.3055555555555556,-0.6555555555555556,2.877706928267748e-06,-0.11441305910817312,2.0214776059645536
1589543396.8411138,-1.6821392262620776,-0.4755081292926157,10.205030460595243,0.38222222222222224,-0.3055555555555556,-0.6555555555555556,-0.02555581476889829,-0.1404372569315407,1.7976769391360397
1589543396.8511138,-1.7484740940401318,-0.1803202680443246,8.028345500149745,0.38222222222222224,-0.3055555555555556,-0.6555555555555556,0.01977091998379522,-0.06585261963651101,1.6259769607739447
1589543396.8611138,-1.5558449587311862,-0.2127700275125425,8.758316556077034,0.35644430058801313,-0.3343078527629426,-0.6684445163726601,-0.03883399954903728,-0.14318471879432731,1.1795047504631715
1589543396.8711138,-1.6250898793400639,-0.3441078552080768,9.596611179512436,0.3533333333333333,-0.3377777777777778,-0.67,-0.04799655442984406,-0.15598880189699318,1.1322823522313212
1589543396.8811138,-1.8638565799842395,-0.1701103230890465,8.58663987391647,0.3533333333333333,-0.3377777777777778,-0.67,-0.026411342756784955,-0.09417660483323304,0.9232982573967036
1589543396.8911138,-1.7893242649213636,-0.25067573507863633,9.449300332128553,0.3533333333333333,-0.3377777777777778,-0.67,-0.0030326044116590345,-0.04633348236477443,0.7102459749586252
1589543396.9011137,-1.6124563986644824,-0.15628253250658425,8.63845585948031,0.3533333333333333,-0.3377777777777778,-0.67,-0.016756120875104773,-0.05472651503383492,0.33846793201349473
1589543396.9111137,-1.6815661278744523,-0.25750414614223127,9.621289388351197,0.35067699695537013,-0.36434114155740926,-0.6753126727559263,-0.025941489148977884,-0.042166918627676506,0.08180688139974485
1589543396.9211137,-1.550687465398769,-0.2021034291855277,9.012579542123946,0.35,-0.3711111111111111,-0.6766666666666666,-0.009892467884355948,0.018749841902805688,-0.07159167150048132
1589543396.9311137,-1.3973242738506775,-0.19802717844796758,8.832562085270393,0.35,-0.3711111111111111,-0.6766666666666666,-0.015424980949326848,0.02711000779611905,-0.28992099410254724
1589543396.9411137,-1.3964213922979263,-0.1432609500634786,8.744515446466357,0.35,-0.3711111111111111,-0.6766666666666666,-0.02606502185739369,-0.01203378968050847,-0.5717484179495332
1589543396.9511137,-1.2539695718051433,-0.22952282114614253,9.148408020091741,0.35,-0.3711111111111111,-0.6766666666666666,-0.025089107997418484,0.012102790059800599,-0.8031094524878175
1589543396.9611137,-1.63910769741365,-0.3454716354929711,9.470360097669676,0.3294168266837352,-0.3817838676454707,-0.6766666666666666,0.016074283603124,0.10713710005832627,-1.051132253312908
1589543396.9711137,-2.0345238902067098,-0.22968608484026984,8.221384738609409,0.32,-0.38666666666666666,-0.6766666666666666,0.028155000805436238,0.1336326684191173,-1.3107170784275093
1589543396.9811137,-1.9158253526928226,-0.2886407167130059,8.757766450417053,0.32,-0.38666666666666666,-0.6766666666666666,-0.022769730590664613,0.05335545301295172,-1.487067004603998
1589543396.9911137,-2.716756567812201,-0.42652365884171023,8.486508941055266,0.32,-0.38666666666666666,-0.6766666666666666,0.0035581039395213288,0.10939329353840543,-1.7377442493717605
1589543397.0011137,-2.7508307268118415,-0.4880056034035488,8.433158066381061,0.32,-0.38666666666666666,-0.6766666666666666,-0.04167829320247353,0.05845752768466998,-1.8904884953201382
1589543397.0111136,-2.5431398473152216,-0.6858421119972704,9.24022860067386,0.32895020921890034,-0.43089122986593875,-0.6866698416760258,-0.10035954904782327,-0.00022833614025216924,-2.0555497189339587
1589543397.0211136,-2.6000324346239614,-0.6824493209000608,8.584606730184472,0.3388888888888889,-0.48,-0.6977777777777778,0.01230523682571981,0.16312210106528063,-2.1846748385314045
1589543397.0311136,-2.0860629034679476,-0.6842245909022668,8.300701846569584,0.3388888888888889,-0.48,-0.6977777777777778,-0.017483179416476195,0.10476716474457085,-2.3352827515111416
1589543397.0411136,-2.691788485095958,-1.0708942425479786,9.910846604056077,0.3388888888888889,-0.48,-0.6977777777777778,-0.08632232309435442,0.06059136652299662,-2.4929400096532683
1589543397.0511136,-2.5694488254858077,-1.0598054678185203,9.00779530194323,0.3388888888888889,-0.48,-0.6977777777777778,-0.03880491265631801,0.12264511654288225,-2.5631429579270626
1589543397.0611136,-2.586081717358802,-1.145376341686564,9.132477406109835,0.37830203041280186,-0.70420262473439,-0.6855015533686901,-0.02285959037908418,0.11983233650567185,-2.6115309983158035
1589543397.0711136,-2.3516066017475215,-1.1340243005501456,8.823127004206997,0.4066666666666667,-0.8655555555555555,-0.6766666666666666,-0.05018761887852005,0.12581100087235822,-2.6633791906482167
1589543397.0811136,-2.4303688524590163,-1.281516393442623,8.84356557377049,0.4066666666666667,-0.8655555555555555,-0.6766666666666666,-0.07313483922483412,0.11340616581798195,-2.732186872570621
1589543397.0911136,-2.8552348440662847,-1.4933595224208323,9.02148420077538,0.4066666666666667,-0.8655555555555555,-0.6766666666666666,-0.015944759663015756,0.14724520204507485,-2.772397575179191
1589543397.1011136,-3.1015357667760575,-1.5972562362842013,8.96190682316938,0.4066666666666667,-0.8655555555555555,-0.6766666666666666,-0.014465032429738536,0.16439073992609227,-2.7678536994754968
1589543397.1111135,-3.27159169550173,-1.6807958477508649,8.780680507497117,0.6455952838651801,-1.0217057541971037,-0.7547417659874407,-0.031218897584872625,0.13516362183715314,-2.7190813050038103
1589543397.1211135,-3.29,-1.69,8.75,0.6888888888888889,-1.05,-0.7688888888888888,-0.03272492347489368,0.12980886311707826,-2.7107144945036934
1589543397.1311135,-3.09597972972973,-1.7626576576576576,9.021328828828828,0.6888888888888889,-1.05,-0.7688888888888888,-0.058188346475379245,0.08487561984219849,-2.6799216892584146
1589543397.1411135,-3.162001031459515,-1.8852309732557282,9.045230973255727,0.6888888888888889,-1.05,-0.7688888888888888,-0.03586320176456465,0.13329947340044734,-2.6623320143818465
1589543397.1511135,-2.609694874071305,-1.82061025185739,8.846596420728003,0.6888888888888889,-1.05,-0.7688888888888888,-0.01329482191623443,0.14355182223436447,-2.637728684303098
1589543397.1611135,-2.4734263726165864,-1.8829198254077646,8.769856420859178,0.667476835898614,-0.9465084105470046,-0.7669423386170456,-0.014547166954905068,0.118988012205298,-2.6619382203449864
1589543397.1711135,-1.9072907617504051,-1.9445594813614262,9.202753322528363,0.5422222222222223,-0.3411111111111111,-0.7555555555555555,-0.04611763818607431,0.11424410453856562,-2.870312196011212
1589543397.1811135,-1.5516122186188477,-1.9480157859595573,8.751691148416635,0.5422222222222223,-0.3411111111111111,-0.7555555555555555,-0.053234264166888694,0.1317654706013253,-3.0583869708915423
1589543397.1911135,-1.4308520453157858,-2.0025561359473576,8.98009022454379,0.5422222222222223,-0.3411111111111111,-0.7555555555555555,-0.030372026414975262,0.14057042937487027,-3.215720380943391
1589543397.2011135,-1.273104892761394,-2.1372897117962464,8.844091404155497,0.5422222222222223,-0.3411111111111111,-0.7555555555555555,-0.010972874844722747,0.17150736857365148,-3.3530733589972637
1589543397.2111135,-1.3154171863307558,-2.3654171863307556,8.823094079986697,0.546408543739549,-0.24534900640226157,-0.7477062027105679,-0.015151840919531558,0.1837030417438493,-3.492261962656968
1589543397.2211134,-1.170831081574527,-2.473757394289053,8.96773533922442,0.5511111111111111,-0.13777777777777778,-0.7388888888888889,-0.03581052551231683,0.17233923446273502,-3.6709703707366104
1589543397.2311134,-1.0811181734740707,-2.586741165672327,8.984121385956861,0.5511111111111111,-0.13777777777777778,-0.7388888888888889,-0.01813637586217203,0.181050025876704,-3.8235883939752457
1589543397.2411134,-1.2706741346758967,-2.990579483952171,9.024807803650093,0.5511111111111111,-0.13777777777777778,-0.7388888888888889,-0.015187769477046188,0.19190235624147203,-3.951996695076497
1589543397.2511134,-1.2594737681390529,-3.1200877053101577,8.762675809280816,0.5511111111111111,-0.13777777777777778,-0.7388888888888889,-0.03726045557867498,0.19471807825822282,-4.034882522245447
1589543397.2611134,-1.3407580174927114,-3.2575619533527695,8.909077988338192,0.5735932944606414,-0.1006333009394234,-0.7520849530288306,-0.0543240885278747,0.1856622614191016,-4.114430448824908
1589543397.2711134,-1.400523539265445,-3.3075515663674775,8.375795934695102,0.6022222222222222,-0.05333333333333334,-0.7688888888888888,0.004695587835417583,0.26007228224215384,-4.127169515611538
1589543397.2811134,-1.4360987574748452,-3.437578687291868,8.17753392774018,0.6022222222222222,-0.05333333333333334,-0.7688888888888888,0.01896968284608206,0.2503333801885837,-4.110338429861181
1589543397.2911134,-1.4874400894291901,-3.730999441067561,9.094997205337805,0.6022222222222222,-0.05333333333333334,-0.7688888888888888,-0.03769455585452323,0.15700566836212693,-4.086339450858409
1589543397.3011134,-1.397681822776037,-3.793205885325671,9.235869009630795,0.6022222222222222,-0.05333333333333334,-0.7688888888888888,-0.05577762080580147,0.14671877993253904,-4.035412107446654
1589543397.3111134,-1.3429814907453728,-3.7864132066033016,8.776858429214608,0.604411094436107,-0.04577177477627703,-0.7701823133789116,-0.028866361962621327,0.1874439088481904,-3.9723184102579103
1589543397.3211133,-1.6780873406720742,-4.134336254345308,9.15407644119351,0.6266666666666667,0.031111111111111114,-0.7833333333333333,-0.003452789896254759,0.20073715645223444,-3.7639952166607116
1589543397.3311133,-8.690936680921507,-10.131943716374673,11.34377293419782,0.6266666666666667,0.031111111111111114,-0.7833333333333333,0.08745140273376092,0.4728786052562194,-3.4174057333279904
1589543397.3411133,-17.69826682034289,-16.855503529750756,13.626506267108486,0.6266666666666667,0.031111111111111114,-0.7833333333333333,-0.19668020040365863,0.9186930960170963,-3.7345947322918174
1589543397.3511133,0.9419832426362618,1.9224850997667788,3.9802219918804527,0.6266666666666667,0.031111111111111114,-0.7833333333333333,-1.1017998019595123,0.3478939556029629,-5.111673751529023
1589543397.3611133,-1.9084381918999942,-1.3644197347022748,6.789411603346592,0.6071932998499999,0.08377771681982353,-0.765630272590909,-1.1508433390932844,-0.37582639576236765,-4.410194549434141
1589543397.3711133,1.390710178833419,-1.635971688013006,12.288054641341846,0.5777777777777777,0.16333333333333333,-0.7388888888888889,0.20181883377504362,-0.8780671775017991,-3.567626760995343
1589543397.3811133,-0.37103773584905664,0.4448113207547171,13.78066037735849,0.5777777777777777,0.16333333333333333,-0.7388888888888889,1.6200998199924486,0.5455285906690533,-3.1551868749452443
1589543397.3911133,-0.2624574550038514,0.15283283143077253,6.937698718397647,0.5777777777777777,0.16333333333333333,-0.7388888888888889,0.38813652286030287,0.3882904568911685,-2.3372114830153032
1589543397.4011133,1.3831685897688337,-1.0672279762139172,11.10534871815067,0.5777777777777777,0.16333333333333333,-0.7388888888888889,-0.4586242152147912,-0.08975059096814171,-1.6112271301353351
1589543397.4111133,0.691795606494747,-1.7431097058920397,10.143413694298982,0.5605928267957712,0.24209769200086367,-0.7353086907676375,-0.013777024288500472,0.16941281418836526,-1.080943572471449
1589543397.4211133,-0.03,-1.8,6.89,0.5511111111111111,0.2855555555555556,-0.7333333333333333,0.32288591161895097,0.3850632662212489,-0.9599310885968813
1589543397.4311132,-0.1010234239180163,-2.232597218409736,8.47834202580291,0.5511111111111111,0.2855555555555556,-0.7333333333333333,0.01650933313432157,0.10333767681009542,-0.3605598971246522
1589543397.4411132,-0.26662744081217465,-2.3433725591878254,8.521645491353691,0.5511111111111111,0.2855555555555556,-0.7333333333333333,-0.032489121093006126,0.0074358251200005235,0.12318561848782661
1589543397.4511132,-0.29940608141245706,-2.2777593591629883,8.042676475396437,0.5511111111111111,0.2855555555555556,-0.7333333333333333,0.06245458290611833,0.032644568995476825,0.3275723289473555
1589543397.4611132,-0.11427268268759194,-2.3874680398888346,8.64607421938859,0.5511111111111111,0.2855555555555556,-0.7333333333333333,0.03552802154648192,-0.030184074177008108,0.47866025657642647
1589543397.4711132,-0.4651337454857073,-2.2867273673257023,8.961069963885658,0.5466666666666666,0.3211111111111111,-0.7333333333333333,-0.03362205283729941,-0.039791419697490005,0.6410713755060417
1589543397.4811132,-0.5979265868992091,-2.4287041168120056,8.917829243561144,0.5466666666666666,0.3211111111111111,-0.7333333333333333,0.027123526210387543,-0.03429637460986464,0.7428663813910498
1589543397.4911132,-0.6459542311124331,-2.548091537775134,8.63594010261749,0.5466666666666666,0.3211111111111111,-0.7333333333333333,0.04002388979026208,-0.029114040785578048,0.8406391344920637
1589543397.5011132,-0.5916990645755815,-2.6833084118649375,9.074902806273256,0.5466666666666666,0.3211111111111111,-0.7333333333333333,0.007635815477475192,-0.05489753755629094,0.9326864167351465
1589543397.5111132,-0.7099979617928811,-2.6133306157238416,8.853312271859771,0.554072564291023,0.31481609813040823,-0.7311115640460264,0.006181670879355438,-0.03563254566941327,1.0537356435404708
1589543397.5211132,-1.3274723425584476,-4.492164261931188,9.066401489384555,0.5688888888888889,0.3022222222222222,-0.7266666666666667,-0.013253802948819407,-0.08081638029997837,1.013603977896625
1589543397.5311131,-2.1027471800712787,-6.638317228202962,8.660723444905758,0.5688888888888889,0.3022222222222222,-0.7266666666666667,-0.10379344872861528,-0.15297574106859482,-0.02204606805944498
1589543397.5411131,0.06595147736513957,0.9695223637842233,8.126847926267281,0.5688888888888889,0.3022222222222222,-0.7266666666666667,-0.06552838440054123,0.017107857843848856,-1.1113890543147469
1589543397.5511131,-1.1742630985426787,-1.371987768910479,9.054162907702983,0.5688888888888889,0.3022222222222222,-0.7266666666666667,0.20929918216415971,0.25430106166301425,-0.9135281047090239
1589543397.561113,-0.9544728260869564,-3.0385416666666667,8.993273550724638,0.5715829307568437,0.3025589774557166,-0.7266666666666667,-0.0429137177348094,-0.008560452657058688,-0.3568747759787808
1589543397.571113,-0.6873669995089213,-6.335129317400557,8.503128171550172,0.5777777777777777,0.3033333333333333,-0.7266666666666667,-0.07103693972584282,-0.004253061547371391,0.015128246257234775
1589543397.581113,-1.4846106067845197,-6.887064321548018,8.87230530339226,0.5777777777777777,0.3033333333333333,-0.7266666666666667,0.012050963493239558,-0.020348580481942068,-0.13991005779319257
1589543397.591113,-1.2764295291873617,-4.348650261562577,9.182404676021227,0.5777777777777777,0.3033333333333333,-0.7266666666666667,0.029547441827275395,0.003682035433663935,-0.3004375736985217
1589543397.601113,-1.0844820465756566,-4.380147003392386,9.443938445402251,0.5777777777777777,0.3033333333333333,-0.7266666666666667,0.04506231097590614,0.03184890156639512,-0.22013225836033384
1589543397.611113,-0.9401330733050361,-4.222050508857897,8.949027679902981,0.5777777777777777,0.3033333333333333,-0.7266666666666667,-0.01267313362805593,0.004855706686620637,-0.09491382655693559
1589543397.621113,-0.880006615043387,-3.9112475193587297,8.803722712946028,0.56,0.2977777777777777,-0.7055555555555556,-0.010229334744423944,0.010909751003555356,-0.005863846846551925
1589543397.631113,-0.8661027961017996,-3.935157542300257,8.824328477190745,0.56,0.2977777777777777,-0.7055555555555556,0.006970103692760951,0.0050634053128332124,3.4370398133146607e-05
1589543397.641113,-0.8644030754057205,-3.9439552138438088,8.808208553752355,0.56,0.2977777777777777,-0.7055555555555556,0.004135386149925931,0.0016199859193207593,0.0006593838812781747
1589543397.651113,-0.8343852058618284,-3.8977459874389395,8.976844382414516,0.56,0.2977777777777777,-0.7055555555555556,0.010774180550801352,-0.0036882716729601025,-0.00114000570821123
1589543397.661113,-0.8747101380475856,-3.8185145168334502,8.853224654881036,0.5611755248783143,0.3007165899735635,-0.7134903484841771,0.012647302913442045,0.007220822128685407,-0.0026954579222043243
1589543397.671113,-0.8648956863343377,-3.877343529501507,8.869193333079066,0.5644444444444444,0.3088888888888889,-0.7355555555555555,-0.010885550113456663,0.00026701826774713967,-0.0009573216486228861
1589543397.681113,-0.8808828380061257,-3.93,8.729558580996937,0.5644444444444444,0.3088888888888889,-0.7355555555555555,-0.015068525172958178,0.0014865419390965974,0.0
1589543397.691113,-0.8411348735560412,-3.9294325632219795,8.754539494224165,0.5644444444444444,0.3088888888888889,-0.7355555555555555,-0.006645451470138415,0.0,6.18977504585485e-05
1589543397.701113,-0.8492426107132048,-3.8877278321396145,8.887372742862908,0.5644444444444444,0.3088888888888889,-0.7355555555555555,0.01177322560469039,-0.0015645988497778281,0.001090830782496456
1589543397.711113,-0.8445776488496999,-3.8504087083895797,8.963760232070541,0.5644444444444444,0.3088888888888889,-0.7336118690422623,0.010501106524447386,-0.002455113357784625,0.0007727958204629228
1589543397.721113,-0.8640360360360361,-3.915963963963964,8.89600900900901,0.5644444444444444,0.3088888888888889,-0.7288888888888889,-0.005008977025571564,0.0013109623998651101,-0.0004353495825639009
1589543397.731113,-0.8563581752368239,-3.931820912381588,8.816388211434294,0.5644444444444444,0.3088888888888889,-0.7288888888888889,-0.00823170766089475,0.0013383000820349044,-0.0015369308098414241
1589543397.741113,-0.8671330446807064,-3.9028440595742753,8.7786237617029,0.5644444444444444,0.3088888888888889,-0.7288888888888889,0.0012509452457309805,0.0009332138576073662,-0.0007780944710637108
1589543397.751113,-0.85,-3.8671094351239033,8.879667923657072,0.5644444444444444,0.3088888888888889,-0.7288888888888889,0.010835860005563726,-0.0025331971892582584,3.622390970041715e-05
1589543397.761113,-0.85,-3.843633363985503,8.91090009195651,0.5670685406561968,0.31010001021739,-0.7262647926771365,0.012893599787309763,-0.0030743230835193164,-0.002776169356903067
1589543397.771113,-0.8594252070115066,-3.88827562103452,8.919157436283472,0.5788888888888889,0.31555555555555553,-0.7144444444444444,-0.0029589914047835086,-0.0004681105750674378,-0.00476873351651209
1589543397.781113,-0.8767846521092588,-3.95,8.794631173201847,0.5788888888888889,0.31555555555555553,-0.7144444444444444,-0.013128580035757268,0.002571012256358263,-0.003272492347489368
1589543397.791113,-0.86320027443398,-3.9454668496226533,8.74039917669806,0.5788888888888889,0.31555555555555553,-0.7144444444444444,-0.008930347835646467,0.000596340785166933,-0.002778002350159845
1589543397.801113,-0.8366387625470514,-3.919916287641154,8.846973611982435,0.5788888888888889,0.31555555555555553,-0.7144444444444444,0.0011182255878677302,-0.0014574849105920828,-0.00182413903868771
1589543397.8111129,-0.8316850534921065,-3.8949448395236805,8.926740213968426,0.5743954129099381,0.31555555555555553,-0.7180017795944471,0.008003437121343781,-0.0018140399211243226,-0.0025372490597521894
1589543397.8211129,-0.8423997220399181,-3.8731996293865576,8.953600741226886,0.5522222222222222,0.31555555555555553,-0.7355555555555555,0.008508631707179148,8.725635568593046e-05,0.001090830782496456
1589543397.8311129,-0.87,-3.9129354943273906,8.833032090761751,0.5522222222222222,0.31555555555555553,-0.7355555555555555,-0.007505622967227154,0.0020514690547448746,0.001090830782496456
1589543397.8411129,-0.87,-3.9197333873581846,8.724265802269045,0.5522222222222222,0.31555555555555553,-0.7355555555555555,-0.009730228259459676,0.004276074346977396,0.001090830782496456
