time,acc_x,acc_y,acc_z,mag_x,mag_y,mag_z,gyr_x,gyr_y,gyr_z
1589543576.0187476,0.01,-4.11,8.8,0.48,0.3088888888888889,-0.6588888888888889,0.002181661564992912,0.001090830782496456,0.0
1589543576.0287476,0.007249964287900741,-4.1,8.835500071424198,0.487333428565598,0.31072224603028836,-0.6628611626952544,0.0,0.0013908131432686993,-0.001090830782496456
1589543576.0387475,0.0,-4.09774092461533,8.840963698461321,0.5066666666666667,0.31555555555555553,-0.6733333333333333,-0.00024642689695775715,0.0014423808741196404,-0.0008444038855386989
1589543576.0487475,0.0036492293064672434,-4.093649229306467,8.791753853467664,0.5066666666666667,0.31555555555555553,-0.6733333333333333,-0.0014888999484847223,-0.0002946924505199235,-0.00039806916598826624
1589543576.0587475,0.01,-4.1,8.773108137589993,0.5066666666666667,0.31555555555555553,-0.6733333333333333,-0.0018956863653056366,0.0005188803831219052,-0.001090830782496456
1589543576.0687475,0.014162933338460651,-4.112488800015382,8.81416293333846,0.5066666666666667,0.31555555555555553,-0.6733333333333333,-0.0015449363656038174,-0.0006367251993890944,-0.0015449363656038174
1589543576.0787475,0.01625553508516759,-4.126255535085168,8.831233394744498,0.5091629766098883,0.32096422709920236,-0.6654283518464649,-0.0013647460463774787,-0.00040845775930771657,-0.0025901193243006286
1589543576.0887475,0.01,-4.114659179572054,8.855340820427946,0.5133333333333333,0.33,-0.6522222222222223,-0.0005825931326590009,-0.000508237649837455,-0.002689899214830367
1589543576.0987475,0.004627056805277019,-4.11,8.795524681663323,0.5133333333333333,0.33,-0.6522222222222223,-0.0016769279654373238,0.0011721943658817354,-0.0010094671991111766
1589543576.1087475,0.004391207182214003,-4.11,8.753173621546642,0.5133333333333333,0.33,-0.6522222222222223,-0.0026606679616607678,0.0012236487716572005,-0.0014370191900035672
1589543576.1187475,0.01283360572463448,-4.107166394275366,8.78983524007244,0.5133333333333333,0.33,-0.6522222222222223,-0.003272492347489368,0.0003090984349889467,-0.0026542954775114745
1589543576.1287475,0.01599367088607595,-4.102003164556962,8.844006329113924,0.5119978902953587,0.32866455696202534,-0.6522222222222223,-0.0034910037036033734,0.001090830782496456,-0.001090830782496456
1589543576.1387475,0.0,-4.109082856364132,8.863668574543471,0.5066666666666667,0.3233333333333333,-0.6522222222222223,-0.0049635922359712,0.0009907859314988933,-0.001090830782496456
1589543576.1487474,0.0007586528376646079,-4.102275958512993,8.889378860272696,0.5066666666666667,0.3233333333333333,-0.6522222222222223,-0.010991064011819844,-0.0001655123737105682,-0.0010080745956411719
1589543576.1587474,0.00534717416378316,-4.120694348327566,8.77395847750865,0.5066666666666667,0.3233333333333333,-0.6522222222222223,-0.013521772301783058,-0.0011665724354448835,-0.0020301782590960568
1589543576.1687474,0.007984773592409523,-4.106007613203795,8.79798477359241,0.5066666666666667,0.3233333333333333,-0.6522222222222223,-0.01352962358977736,-0.002177509206466279,-0.0030568176061060563
1589543576.1787474,0.013381467331477045,-4.106618532668523,8.800072200997215,0.50409279285113,0.32553951088950767,-0.6544283997783965,-0.010186337907986235,-0.005815138870971442,-0.00036886086551813073
1589543576.1887474,-0.0409313956945246,-4.112557928055541,8.76883689208331,0.4988888888888889,0.33,-0.6588888888888889,-0.012379764783127765,-0.010198103218134854,0.0019026348987533713
1589543576.1987474,-0.08960694910603087,-4.101274565680873,8.752549131361747,0.4988888888888889,0.33,-0.6588888888888889,-0.01951735813774668,-0.01733569657275377,0.004662827826499268
1589543576.2087474,0.05149927783844718,-4.110642547645049,8.771927642935147,0.4988888888888889,0.33,-0.6588888888888889,-0.026156575088233613,-0.023788003989790082,0.014134072789091269
1589543576.2187474,0.08552485112045044,-4.117016567413633,8.873790059551819,0.4988888888888889,0.33,-0.6588888888888889,-0.02609194942752411,-0.012175117312242679,0.010745586819828987
1589543576.2287474,-0.0165643305693933,-4.048957112953738,8.914625732227757,0.4988888888888889,0.33,-0.6588888888888889,-0.029061603346114916,-0.006235809475061076,0.007033519421590483
1589543576.2387474,-0.16889538831148485,-3.7572154906773907,8.956665273933254,0.5066666666666667,0.3422222222222222,-0.6522222222222223,-0.03963367035435248,0.006848271772360042,0.019393053656541162
1589543576.2487473,-0.6324303221469569,-3.287569677853043,8.780975748487513,0.5066666666666667,0.3422222222222222,-0.6522222222222223,-0.053569047604008824,0.003199108467866434,0.06985350019040376
1589543576.2587473,-0.5681637547105173,-2.720976361767729,8.812617334703667,0.5066666666666667,0.3422222222222222,-0.6522222222222223,-0.06571722941805602,-0.00782117075946157,0.16767160331453188
1589543576.2687473,-0.0354773365913256,-2.359045326817349,8.927589248625535,0.5066666666666667,0.3422222222222222,-0.6522222222222223,-0.05478558669096911,0.003910998184867564,0.26006162839302505
1589543576.2787473,-0.08094341214434861,-2.3789937358952185,8.586100647501741,0.49979035285681145,0.3405031437697584,-0.653941300674686,-0.026070172393833264,0.01897633276144843,0.2938176743463314
1589543576.2887473,-0.17206605504587158,-2.548924770642202,8.694132110091743,0.48,0.33555555555555555,-0.6588888888888889,-0.03176058903267938,-0.016326434298758883,0.32147003327851426
1589543576.2987473,-0.19029625021451863,-2.7320737515016305,8.620765831474172,0.48,0.33555555555555555,-0.6588888888888889,0.02342450059773452,-0.004137111932663161,0.4430278789550457
1589543576.3087473,-0.21,-2.866759555962463,8.573136873426414,0.48,0.33555555555555555,-0.6588888888888889,0.03201016590506266,-0.0099468711951412,0.5932564604709767
1589543576.3187473,-0.17933815990458454,-2.8944945701073426,8.948814630369736,0.48,0.33555555555555555,-0.6588888888888889,-0.015127239845116467,-0.04926984846431842,0.7299403592833649
1589543576.3287473,-0.15218025496590573,-3.0239341832196858,9.047582270975393,0.48492894554797905,0.33555555555555555,-0.6564244161148993,0.005314638822186112,-0.035283929053232826,0.8317664273123824
1589543576.3387473,-0.19490338794186682,-3.1794203276512008,8.943937267360536,0.4933333333333334,0.33555555555555555,-0.6522222222222223,0.009514452687255533,-0.03253522614234403,0.9059534432196948
1589543576.3487473,-0.19258840374821018,-3.206294201874105,8.951824624363367,0.4933333333333334,0.33555555555555555,-0.6522222222222223,-3.8573411934290144e-05,-0.04011696131569547,0.9547716228980743
1589543576.3587472,-0.16782808177585856,-3.2097375345793133,8.87,0.4933333333333334,0.33555555555555555,-0.6522222222222223,0.0059852540357192025,-0.0375907161920938,0.9984408523553358
1589543576.3687472,-0.149725242199795,-3.2118210825717215,8.853092649543033,0.4933333333333334,0.33555555555555555,-0.6522222222222223,0.005791509644583666,-0.04469409065573522,1.0287321914803504
1589543576.3787472,-0.1921157650048368,-3.1512631928502333,8.81675791571014,0.4933333333333334,0.33555555555555555,-0.6522222222222223,0.0018280050307101564,-0.049318179371920984,1.040622705321971
1589543576.3887472,-0.19543093525179855,-3.1827154676258993,8.80864226618705,0.5066666666666667,0.31555555555555553,-0.6522222222222223,-0.0005924231350407012,-0.051861469912374135,1.0552776840253533
1589543576.3987472,-0.22560575539568345,-3.1978028776978418,8.801098561151079,0.5066666666666667,0.31555555555555553,-0.6522222222222223,-0.0038839854019650792,-0.055153032179298504,1.0577463557255469
1589543576.4087472,-0.3133955578379766,-3.2332088843240467,8.758675568108872,0.5066666666666667,0.31555555555555553,-0.6522222222222223,0.0011111937040236075,-0.05563236990731925,1.0672232661044023
1589543576.4187472,-0.3405857989469278,-3.2105857989469277,8.8351798814743,0.5066666666666667,0.31555555555555553,-0.6522222222222223,0.007468769922868929,-0.053553853144566316,1.0802419784333226
1589543576.4287472,-0.3922151110104214,-3.263960126869053,8.811410285455368,0.5078300105724212,0.3097388360267834,-0.6522222222222223,0.008814439108970711,-0.047718409879391015,1.108020696469402
1589543576.4387472,-0.48103289346012035,-3.342413157384048,8.941380263923929,0.5133333333333333,0.2822222222222222,-0.6522222222222223,0.0006017509903151537,-0.05266100443506784,1.1526312257445457
1589543576.4487472,-0.5666240157480316,-3.372770669291339,8.877834645669292,0.5133333333333333,0.2822222222222222,-0.6522222222222223,0.005572255670429731,-0.044842163840302145,1.2023558830047514
1589543576.4587471,-0.6218623421931821,-3.3819770570321968,8.835816456257577,0.5133333333333333,0.2822222222222222,-0.6522222222222223,0.008079655859130168,-0.04929053523152702,1.2584528981608352
1589543576.4687471,-0.67,-3.3992270782269123,8.881545843546176,0.5133333333333333,0.2822222222222222,-0.6522222222222223,0.00545415391248228,-0.05621906928522588,1.3335731920238867
1589543576.4787471,-0.6813624963700203,-3.417727500725996,8.860452493466036,0.5178783318813415,0.2809597226255533,-0.6555047211735614,0.00396680661571159,-0.06297038763084646,1.4015672887368307
1589543576.4887471,-0.7449234173325139,-3.41,8.914422864167179,0.5333333333333333,0.2766666666666667,-0.6666666666666666,-0.0007509903971050586,-0.07240598165647975,1.4730371850233717
1589543576.498747,-0.8032822396458761,-3.396871041416496,8.804508488144853,0.5333333333333333,0.2766666666666667,-0.6666666666666666,0.001790184020625909,-0.07269418488289554,1.5409760475248322
1589543576.508747,-0.8252146292767039,-3.366957074144659,8.698686813685454,0.5333333333333333,0.2766666666666667,-0.6666666666666666,0.005122222193296272,-0.07735394993230994,1.611247943563613
1589543576.518747,-0.8583192012517696,-3.3667231949929213,8.818403993741152,0.5333333333333333,0.2766666666666667,-0.6666666666666666,0.0060134434423619165,-0.07908060701811592,1.6721527371232345
1589543576.528747,-0.852068847328813,-3.3917246106847476,8.849655763355935,0.5333333333333333,0.2766666666666667,-0.6666666666666666,0.012149714056954563,-0.07703518347991836,1.7123794000411199
1589543576.538747,-0.893920236504733,-3.476079763495267,8.912159526990534,0.5722222222222222,0.23777777777777775,-0.6588888888888889,0.011999138607461015,-0.07716389791364645,1.780861547667264
1589543576.548747,-0.9292888825296896,-3.456966661897267,8.85071111747031,0.5722222222222222,0.23777777777777775,-0.6588888888888889,0.011999138607461015,-0.07526732399225547,1.8211444105904715
1589543576.558747,-0.96,-3.474720923507013,8.823167445895793,0.5722222222222222,0.23777777777777775,-0.6588888888888889,0.0116536238589588,-0.07549766715792361,1.8467831132753543
1589543576.568747,-0.9643593041359236,-3.421281391728153,8.857628782237866,0.5722222222222222,0.23777777777777775,-0.6588888888888889,0.008726646259971648,-0.07804339344996457,1.8662716906972858
1589543576.578747,-1.0046893710985605,-3.3505210412331734,8.920521041233174,0.572106435281517,0.23534625202296863,-0.6596415040034727,0.008669809478362104,-0.0830736498145593,1.874729325708226
1589543576.588747,-1.0848386343369145,-3.359426514926324,8.929426514926323,0.5701274411274836,0.19378737478826655,-0.67250496600469,0.007698372994642013,-0.08598795926571957,1.886386563512867
1589543576.598747,-1.1182818996112895,-3.336255196890316,8.858765590670949,0.57,0.19111111111111112,-0.6733333333333333,0.004022155064059182,-0.08779504634478558,1.8968009783745527
1589543576.608747,-1.111193341220213,-3.2795467297617034,8.688640189285112,0.57,0.19111111111111112,-0.6733333333333333,0.007115122142663126,-0.08547532103583262,1.9006671872228078
1589543576.618747,-1.1678549098196391,-3.239818637274549,8.81981863727455,0.57,0.19111111111111112,-0.6733333333333333,0.004791742001235635,-0.09449364281031378,1.8845865240957418
1589543576.628747,-1.2037090982313656,-3.279381816961439,8.863709098231364,0.57,0.18829494393544466,-0.6736767683547561,0.007151884473890245,-0.08775039360330142,1.8683352950235663
1589543576.638747,-1.2793146618185165,-3.2667808896969137,8.916780889696915,0.57,0.14555555555555555,-0.6788888888888889,0.015660160815275277,-0.07783751541757326,1.840493185866195
1589543576.648747,-1.3384695085849616,-3.2520844963207307,8.896807493867884,0.57,0.14555555555555555,-0.6788888888888889,0.013605168500966536,-0.07635815477475191,1.8154619765370288
1589543576.658747,-1.3990051284642395,-3.2318010256928478,8.872607179849934,0.57,0.14555555555555555,-0.6788888888888889,0.011999138607461015,-0.07616169334816936,1.7822827947903808
1589543576.668747,-1.4417547201213083,-3.2242075189082238,8.917716959150841,0.57,0.14555555555555555,-0.6788888888888889,0.013147600241254553,-0.07354463154156515,1.7457491079757428
1589543576.678747,-1.4495108826303233,-3.154402056327089,8.863423821587736,0.57,0.14555555555555555,-0.6788888888888889,0.018223996732581606,-0.06593003680457457,1.7186749933553316
1589543576.688747,-1.5528778099807594,-3.130177792932122,8.842611120582577,0.5777777777777777,0.1111111111111111,-0.7088888888888889,0.0016120034233360523,-0.08617563181722003,1.6615425340116232
1589543576.698747,-1.702810755961441,-3.19,8.838940639269406,0.5777777777777777,0.1111111111111111,-0.7088888888888889,-0.0035590637220082235,-0.08244323060100689,1.6365327451192027
1589543576.708747,-1.78,-3.183698468153722,8.715403744513123,0.5777777777777777,0.1111111111111111,-0.7088888888888889,0.0060867243673252925,-0.0706533140138045,1.6252066691618066
1589543576.718747,-1.78,-3.116066648750336,8.8807259697214,0.5777777777777777,0.1111111111111111,-0.7088888888888889,0.0011683996685616432,-0.07967024262820452,1.6120911366317703
1589543576.728747,-1.8049260489579626,-3.016481393601455,8.86633349151738,0.5777777777777777,0.10704516593945944,-0.7092798451553939,0.0006908767507838807,-0.07496026765857375,1.6103732912984505
1589543576.738747,-1.862979791987978,-2.9750144342943017,8.940974018270257,0.5777777777777777,0.05912779074008165,-0.7138872850784109,0.008832895171162727,-0.07134159280507203,1.6139919661519524
1589543576.7487469,-1.8973825470060028,-2.954765094012006,8.877382547006004,0.5777777777777777,0.05333333333333334,-0.7144444444444444,0.010337268165446644,-0.07592987503011348,1.6227791731466275
1589543576.7587469,-1.883510443022275,-2.9270208860445504,8.863510443022275,0.5777777777777777,0.05333333333333334,-0.7144444444444444,0.007310844556758258,-0.07366005732359719,1.626562202657488
1589543576.7687469,-2.0234503397967454,-2.945399546937673,8.951150113265582,0.5777777777777777,0.05333333333333334,-0.7144444444444444,0.010657392034273728,-0.07102945875761506,1.6357443421633024
1589543576.7787468,-2.049600972629216,-2.9105320364943785,8.959866990876407,0.5777777777777777,0.05333333333333334,-0.7144444444444444,0.008755664349245615,-0.07198032260012908,1.6319408867932463
1589543576.7887468,-2.197938270807774,-2.9186255138718495,9.023281892339812,0.5822222222222222,0.02666666666666667,-0.7233333333333334,0.007710782066410238,-0.07141193295905035,1.6230812377657915
1589543576.7987468,-2.2869234901951208,-2.960002686268285,9.055390607829251,0.5822222222222222,0.02666666666666667,-0.7233333333333334,0.00486671586965799,-0.07207887694791822,1.6277710773413414
1589543576.8087468,-2.2484335861397162,-2.8322394238797663,8.8252233509602,0.5822222222222222,0.02666666666666667,-0.7233333333333334,0.006390357989465174,-0.06875482437763496,1.6357088796235255
1589543576.8187468,-2.1244023100473144,-2.730096020038965,8.912774839966602,0.5822222222222222,0.02666666666666667,-0.7233333333333334,-0.000772431455153523,-0.0814886722791793,1.6388923415989114
1589543576.8287468,-2.118043594687232,-2.6498546843758923,8.94202906312482,0.5822222222222222,0.02666666666666667,-0.7233333333333334,-0.004805996033222567,-0.0833378866351697,1.6441112514115752
1589543576.8387468,-2.317866890112521,-2.6726222967041737,8.871722129119782,0.5770036974968744,0.0005740430399276512,-0.7442074322347245,0.004555443753796347,-0.07180271102095556,1.6608165473527563
1589543576.8487468,-2.5139065503774005,-2.6839065503774004,8.880859825566102,0.5755555555555556,-0.006666666666666667,-0.75,0.017568496717969256,-0.0660931274132617,1.6971960815879417
1589543576.8587468,-2.4798066941113297,-2.6498389117594416,8.830273850008949,0.5755555555555556,-0.006666666666666667,-0.75,3.5144002299867917e-06,-0.08181582308746418,1.7268659598971796
1589543576.8687468,-2.3771152398612054,-2.5406644146211605,8.982884760138795,0.5755555555555556,-0.006666666666666667,-0.75,0.005745901931344537,-0.08178753573972372,1.7856193570050092
1589543576.8787467,-2.4618190163212104,-2.4944623547338853,8.89818098367879,0.5755555555555556,-0.006666666666666667,-0.75,0.02338542213026917,-0.07086783275943705,1.828458191773826
1589543576.8887467,-2.509145436889192,-2.4978290873778386,9.070069009690283,0.552938192019578,-0.0432024077632458,-0.7595688845729136,0.007154668025157285,-0.08091544244355392,1.8650485107343284
1589543576.8987467,-2.4900210157038605,-2.388773642666843,8.995634194370439,0.5466666666666666,-0.05333333333333334,-0.7622222222222222,0.005113985685973605,-0.09074305588311103,1.9273550480076282
1589543576.9087467,-2.3789707269447797,-2.2638420678128774,8.947049693038341,0.5466666666666666,-0.05333333333333334,-0.7622222222222222,0.00132845214273844,-0.09301437600905214,1.9621819566053913
1589543576.9187467,-2.3079256428838084,-2.114195928585546,8.954662142872827,0.5466666666666666,-0.05333333333333334,-0.7622222222222222,-0.0028147875412623488,-0.09589139668052656,2.039022163220761
1589543576.9287467,-2.4645084217229947,-2.1970926938533504,9.046769659837055,0.5466666666666666,-0.05333333333333334,-0.7622222222222222,0.00622784679108804,-0.0938819223844487,2.0872495463266296
1589543576.9387467,-2.2453291492490646,-1.971880869394041,8.845548582081774,0.5422222222222223,-0.09888888888888887,-0.7833333333333333,-0.0017200236047583335,-0.11385674342620652,2.1513884497723574
1589543576.9487467,-2.1870473256985377,-1.860174040922197,8.748412209497562,0.5422222222222223,-0.09888888888888887,-0.7833333333333333,0.013114284739328186,-0.08948609400377867,2.200129748617213
1589543576.9587467,-2.117868438230402,-1.75723179128677,8.719370407024488,0.5422222222222223,-0.09888888888888887,-0.7833333333333333,0.0216535457389916,-0.07547720515447696,2.2448610724378932
1589543576.9687467,-2.0030553157440356,-1.6909934513907898,8.975491987955612,0.5422222222222223,-0.09888888888888887,-0.7833333333333333,0.0038306901044586616,-0.10486083201140964,2.272799602892026
1589543576.9787467,-1.8882421932576698,-1.6247551114948096,9.231613568886736,0.5422222222222223,-0.09888888888888887,-0.7833333333333333,-0.013992165530074274,-0.1342444588683423,2.3007381333461585
1589543576.9887466,-1.93,-1.63,9.37,0.4988888888888889,-0.15222222222222226,-0.8122222222222222,0.014180800172453925,-0.09381144729469522,2.3681936287998058
1589543576.9987466,-1.9110968518147182,-1.5959743332664929,9.184749147784238,0.4988888888888889,-0.15222222222222226,-0.8122222222222222,0.024490868135752596,-0.0707168950569062,2.3941750000673183
1589543577.0087466,-1.7703007420340462,-1.4732265386294194,8.608136621562638,0.4988888888888889,-0.15222222222222226,-0.8122222222222222,0.040931294398316276,-0.03428574948454083,2.4660513869438296
1589543577.0187466,-1.4706644275215324,-1.4597785241594892,9.734721492467827,0.4988888888888889,-0.15222222222222226,-0.8122222222222222,-0.027021123809189335,-0.14576464386943758,2.515391359726319
1589543577.0287466,-1.7002209539339583,-1.4514732980024458,9.492725642070933,0.4988888888888889,-0.15222222222222226,-0.8122222222222222,-0.011458748241831303,-0.13407977913878738,2.5359184002634607
1589543577.0387466,-1.854317107988017,-1.2653648189476647,8.102188913685989,0.4544444444444444,-0.2222222222222222,-0.7911111111111111,0.08178476212305028,-0.0028913584363523155,2.5556711143760276
1589543577.0487466,-2.048275127168908,-1.4087250939944105,8.962350563966464,0.4544444444444444,-0.2222222222222222,-0.7911111111111111,-0.004685174904985018,-0.11787797682469711,2.536353362486786
1589543577.0587466,-1.850114406990433,-1.2514700469234468,8.72875876705742,0.4544444444444444,-0.2222222222222222,-0.7911111111111111,-0.022747089188844577,-0.13168229006159887,2.5391890363088447
1589543577.0687466,-1.852053164054751,-1.1615893671890498,8.647615949216426,0.4544444444444444,-0.2222222222222222,-0.7911111111111111,0.022676383327972144,-0.05912142711240084,2.525482728687679
1589543577.0787466,-1.9946854224877155,-1.1792407746411022,9.041229084369078,0.4544444444444444,-0.2222222222222222,-0.7911111111111111,0.022373469402306716,-0.07194907820024862,2.4857036437245483
1589543577.0887465,-2.1533007646559046,-1.078932313792127,9.183640965732087,0.4027671182227257,-0.27235694169105384,-0.7911111111111111,0.0037332223838092912,-0.07835978755512296,2.4073948387268977
1589543577.0987465,-2.2412245391224097,-1.0373177913032015,9.15,0.38,-0.29444444444444445,-0.7911111111111111,-0.006465481152856156,-0.08673536839219396,2.3121286752541907
1589543577.1087465,-2.246413242388954,-0.917538013641657,8.848206621194477,0.38,-0.29444444444444445,-0.7911111111111111,0.011103935105538703,-0.06471709756805982,2.197301276479577
1589543577.1187465,-2.385967393112627,-0.896604891033106,8.917983696556313,0.38,-0.29444444444444445,-0.7911111111111111,0.0034924369338120605,-0.06776169683675048,2.144781939094663
1589543577.1287465,-2.184414029084688,-0.6444140290846877,8.702600228115198,0.38,-0.29444444444444445,-0.7911111111111111,-0.005159999743389922,-0.07140126666551372,2.073739333496433
1589543577.1387465,-2.2405268691309645,-0.7430372034121049,9.483202551910349,0.3374896657188598,-0.35773760881858657,-0.7911111111111111,-0.017674164184918448,-0.11001952823539342,1.971709311374622
1589543577.1487465,-2.6288125294511544,-0.6382187941767318,9.004749882195382,0.33,-0.3688888888888889,-0.7911111111111111,-0.021406427997732715,-0.0778921516257505,1.8352535206438472
1589543577.1587465,-2.5407362181387074,-0.5368026081802015,9.199260225251926,0.33,-0.3688888888888889,-0.7911111111111111,0.0001610058475646813,-0.045564525538838926,1.743522753452457
1589543577.1687465,-2.0652441518599005,-0.3193007797520133,8.548529336571647,0.33,-0.3688888888888889,-0.7911111111111111,0.02057323867338292,-0.04133716008932802,1.6178400949871339
1589543577.1787465,-2.1657722421066086,-0.3058970343857855,8.903728588776683,0.33,-0.3688888888888889,-0.7911111111111111,0.01764899506413782,-0.039143977382394196,1.4950218633988395
1589543577.1887465,-2.2907493984187006,-0.3094999292257295,9.16924918609589,0.28355590156310034,-0.3894720688779694,-0.8043054572579577,0.0003000981294535056,-0.05320515947227295,1.3368411706066357
1589543577.1987464,-2.221398323775915,-0.2906293192177621,9.078531098367886,0.23222222222222225,-0.4122222222222222,-0.8188888888888889,-0.007200990855897793,-0.041619340503648045,1.1153628466315584
1589543577.2087464,-2.552230151923548,-0.34527321734868904,9.344002695417789,0.23222222222222225,-0.4122222222222222,-0.8188888888888889,0.0030791378468061105,-0.04131782201303448,0.9000386048308066
1589543577.2187464,-2.430978233882314,-0.2589311429280808,8.889818753620789,0.23222222222222225,-0.4122222222222222,-0.8188888888888889,0.021334440096729284,-0.009127797181267931,0.7864494523540129
1589543577.2287464,-2.6578314942958667,-0.2337114269683935,9.035254348232653,0.23222222222222225,-0.4122222222222222,-0.8188888888888889,0.023031177285162456,0.012223853420799307,0.7015625033541639
1589543577.2387464,-2.732550722380155,-0.18697262354453054,9.076734296506874,0.1786770426331936,-0.4208276975133161,-0.7643875453786275,-0.008222159855792052,-0.01588397278016501,0.5798318904305009
1589543577.2487464,-3.0239709311539245,-0.17131511625274504,8.93841162753843,0.17,-0.4222222222222222,-0.7555555555555555,-0.008353100123003016,-0.017079746382974662,0.4827722770172622
1589543577.2587464,-2.894402807775378,-0.17975539956803455,9.134618790496761,0.17,-0.4222222222222222,-0.7555555555555555,-0.01614900759296697,-0.03126054793955746,0.39565763624541944
1589543577.2687464,-3.0668805710246376,-0.109247771590145,9.125849554318028,0.17,-0.4222222222222222,-0.7555555555555555,-0.014818887563853035,-0.023144434737631316,0.3459391130998128
1589543577.2787464,-2.784173789173789,-0.07209275087052866,8.874875276986389,0.17,-0.4222222222222222,-0.7555555555555555,0.0022075942626078194,0.0036538169543620623,0.26836774990595946
1589543577.2887464,-2.590212761951385,-0.05004255239027697,8.90313475551204,0.1810874708942906,-0.4074389276965015,-0.7149014956098234,0.002916618329521035,0.0018350710384611637,0.18413378059548147
1589543577.2987463,-2.4516418153008575,-0.14799333685450777,9.342703043107301,0.18666666666666668,-0.4,-0.6944444444444444,-0.03746270031963645,-0.042877055506133195,0.001655281310505019
1589543577.3087463,-2.600079794265388,-0.059740668637488885,9.08812483476338,0.18666666666666668,-0.4,-0.6944444444444444,0.008800631994780815,0.00998503297130063,-0.13656492476136547
1589543577.3187463,-2.6414917933563573,0.06888115498273223,8.157757325453057,0.18666666666666668,-0.4,-0.6944444444444444,0.04535111404229333,0.09322562141356955,-0.24293739841847628
1589543577.3287463,-2.790824224730302,-0.043118168547726723,8.934285968597571,0.18666666666666668,-0.4,-0.6944444444444444,-0.0010743636535122808,0.03458291274518351,-0.32031319457815227
1589543577.3387463,-2.803297360769403,-0.14816204428539476,9.363026727801387,0.2029789507691543,-0.39883483684982235,-0.6833753945177564,-0.03752454232100548,-0.017329412106207538,-0.4087076516781725
1589543577.3487463,-2.6471050454921423,-0.1388502894954508,9.080165425971877,0.21777777777777774,-0.3977777777777778,-0.6733333333333333,-0.04684527231366087,-0.02362203533212549,-0.541280339572313
1589543577.3587463,-2.4536724586126692,-0.09097660418661924,9.110701874401423,0.21777777777777774,-0.3977777777777778,-0.6733333333333333,0.015637818177269898,0.044212480503993574,-0.6612476211801905
1589543577.3687463,-2.5687880186265053,-0.17049251164156565,9.429773041909636,0.21777777777777774,-0.3977777777777778,-0.6733333333333333,0.0007437253797513282,0.04051980795433882,-0.7663541808578055
1589543577.3787463,-2.801361360886379,-0.1822553322736008,9.31412797456642,0.21777777777777774,-0.3977777777777778,-0.6733333333333333,0.009153671999875122,0.08802299692873819,-0.8480535280249595
1589543577.3887463,-2.7781186042447423,-0.15480572438299772,9.140327190819239,0.23947284844797417,-0.3900795268948048,-0.6775323792695004,0.009654632966741725,0.055817518198932714,-0.8952597710439881
1589543577.3987463,-2.889116828929068,-0.2073186583930673,8.978201829464,0.25222222222222224,-0.3855555555555555,-0.68,-0.001042661272977313,0.031031900883508625,-0.9637610751829482
1589543577.4087462,-3.0375724788458873,-0.48786239422943545,9.500384241919821,0.25222222222222224,-0.3855555555555555,-0.68,-0.027302394424880774,0.0026266793665357217,-1.0737687909063969
1589543577.4187462,-2.492999409731006,-0.10684332574416061,8.777874188380133,0.25222222222222224,-0.3855555555555555,-0.68,-0.02836160034490785,0.0017123777428184872,-1.0970087688764816
1589543577.4287462,-1.947438135516962,-0.07002519571672816,9.188918383874743,0.25222222222222224,-0.3855555555555555,-0.68,-0.03169858255328988,0.002181661564992912,-1.1788523752329263
1589543577.4387462,-1.6486772456570962,-0.1664002892098103,9.172955648153433,0.2817606281434126,-0.3783350563303757,-0.6760615458771746,-0.03748429723546339,0.0266699274229725,-1.4974517433102745
1589543577.4487462,-1.569857616539887,-0.5303198751706651,9.649927833040763,0.3022222222222222,-0.37333333333333335,-0.6733333333333333,-0.02883520856059678,0.07493733012768515,-2.0602878641935347
1589543577.4587462,-1.9846491084190545,-0.6930477774913888,8.278355788832393,0.3022222222222222,-0.37333333333333335,-0.6733333333333333,-0.045902231918294234,0.08290313946973066,-2.571043960834225
1589543577.4687462,-1.976112650046168,-0.7369436749769159,8.795053093259463,0.3022222222222222,-0.37333333333333335,-0.6733333333333333,0.0022942195889485775,0.16954662991896324,-2.9297987417308198
1589543577.4787462,-1.758354155350353,-0.9365282843175293,8.723941957010942,0.3022222222222222,-0.37333333333333335,-0.6733333333333333,-0.02726095064638986,0.10910271608168867,-3.1609280460902447
1589543577.4887462,-1.8295301311703949,-1.2418522273620176,8.893946201127939,0.3445980398369347,-0.35989709847988793,-0.6785011159692739,-0.0006354827196553559,0.19279440436844464,-3.4621620791433227
1589543577.4987462,-1.84,-1.36717006573403,8.88990561267487,0.3477777777777778,-0.3588888888888889,-0.6788888888888889,0.006565576814924734,0.19486764364610545,-3.5944626452035773
1589543577.5087461,-1.929702036584958,-1.5321275457311976,8.969702036584959,0.3477777777777778,-0.3588888888888889,-0.6788888888888889,0.007095817213980056,0.16507753846051498,-3.7537528589131086
1589543577.5187461,-2.0239536613485067,-1.8833729406076836,9.127907322697013,0.3477777777777778,-0.3588888888888889,-0.6788888888888889,-0.006012287346436174,0.1573840543460393,-3.8721704545529585
1589543577.5287461,-2.079208651471715,-2.0920144191195256,9.22561153529562,0.3477777777777778,-0.3588888888888889,-0.6788888888888889,-0.026360448656499606,0.1490906618585625,-3.989898075505596
1589543577.538746,-2.1985883880541643,-2.1039673117747686,8.84184257713473,0.4034125691882447,-0.3354284346796559,-0.6842512784224279,-0.02065447022281759,0.1808412585863353,-4.078225661469827
1589543577.548746,-2.255037251928529,-2.2496274807147096,9.111177556537218,0.44,-0.32,-0.6877777777777778,-0.011183047298106015,0.18548999568481372,-4.154319319151816
1589543577.558746,-2.7950426115845732,-2.5642630844046415,9.009220472820068,0.44,-0.32,-0.6877777777777778,-0.02532162318226666,0.17529291949009324,-4.203386874675047
1589543577.568746,-2.5510290885585003,-2.5526929541047187,8.748078862314156,0.44,-0.32,-0.6877777777777778,-0.02101954059076041,0.19533542783618404,-4.194699024302334
1589543577.578746,-2.2089670132910957,-2.5457747400316784,8.666291233386131,0.44,-0.32,-0.6877777777777778,-0.01860046398743888,0.1977510341689437,-4.135641557636574
1589543577.588746,-2.3120404046976155,-2.833060607046423,9.370157129379615,0.5000149647028206,-0.2719880282377436,-0.6797757824840683,-0.035564511540666845,0.13426878149707075,-4.021875954908022
1589543577.598746,-2.048474733530969,-2.6664513793025413,8.74498449840458,0.5066666666666667,-0.26666666666666666,-0.6788888888888889,-0.05628177327456301,0.14215350100336022,-3.9470799362430657
1589543577.608746,-2.01,-2.64,8.65,0.5066666666666667,-0.26666666666666666,-0.6788888888888889,-0.05890486225480863,0.14398966328953214,-3.937899124812206
1589543577.618746,-2.1415339470313106,-2.812638305478595,8.608895641552715,0.5066666666666667,-0.26666666666666666,-0.6788888888888889,-0.004202624878147855,0.1637183390647213,-3.7011550155099364
1589543577.628746,-2.0298097093959164,-2.9231427603151743,8.764571210709141,0.5066666666666667,-0.26666666666666666,-0.6788888888888889,-0.03890623629584687,0.10748327319913553,-3.542208192700597
1589543577.638746,-1.7475850132355935,-2.854551007941356,8.077250254530645,0.596460327156723,-0.29403235367316005,-0.6857303106405123,-0.012471232222838323,0.1342087027570707,-3.189430969809609
1589543577.648746,-1.9629371944339977,-3.122604280785519,8.777479928708079,0.6233333333333333,-0.3022222222222222,-0.6877777777777778,0.004363323129985824,0.1538071403320003,-3.1045044069849137
1589543577.658746,-2.1553339790052486,-3.2393223569107725,8.945275868532866,0.6233333333333333,-0.3022222222222222,-0.6877777777777778,-0.028220100425858693,0.09154952746636878,-3.023045848095302
1589543577.668746,-1.9909632027624906,-3.031765188302579,8.186097550447826,0.6233333333333333,-0.3022222222222222,-0.6877777777777778,-0.014122627239173492,0.11402361059783035,-2.723525323274506
1589543577.678746,-1.9334276681454285,-3.095686094538779,8.874116567232676,0.6233333333333333,-0.3022222222222222,-0.6877777777777778,-0.03332771441823741,0.10555082455626574,-2.4721213064964505
1589543577.688746,-1.8405416479797774,-3.0653765238308806,8.997001467770213,0.8477292824687532,-0.5065315774452644,-0.5563540633225063,-0.04727606441164198,0.06284885574673159,-2.308300272029901
1589543577.698746,-1.9209411984319582,-3.2634231846182566,9.061996266567109,1.0577777777777777,-0.6977777777777778,-0.43333333333333335,-0.003912085307694962,0.07025198664432046,-2.0855815073290187
1589543577.708746,-1.8712664008375843,-3.2415196810051015,8.834305762847787,1.0577777777777777,-0.6977777777777778,-0.43333333333333335,-0.0048120384900709095,0.10768833308349354,-1.8842415743838803
1589543577.718746,-1.7433060350258285,-3.0726284490361597,8.598644828020662,1.0577777777777777,-0.6977777777777778,-0.43333333333333335,-0.010399849016482275,0.09071033783567417,-1.7053583919337063
1589543577.728746,-1.6999361767413317,-3.1403191162933415,9.068219699294263,1.0577777777777777,-0.6977777777777778,-0.43333333333333335,-0.014556013829151847,0.03439213063279944,-1.571587789964056
1589543577.738746,-1.6974339655321729,-3.2792075863860743,9.25796224127479,1.0693417241611578,-0.3640753250002406,-0.6315724141912762,-0.009064183142786217,0.03929050235975587,-1.4211836939170943
1589543577.748746,-1.626576036252166,-3.185179261628682,8.784771424763427,1.0733333333333333,-0.2488888888888889,-0.7,-0.018558952669334945,0.06991159636789128,-1.2948498683636824
1589543577.758746,-1.5394623520205972,-3.1854032359845523,8.52162632203347,1.0733333333333333,-0.2488888888888889,-0.7,-0.005572909829510506,0.03947809585562489,-1.172942169961979
1589543577.768746,-1.52,-3.328080087223709,8.643696104668452,1.0733333333333333,-0.2488888888888889,-0.7,0.01397137017684528,0.04822782482767932,-1.0569604272334994
1589543577.778746,-1.5578399335853323,-3.442044370650369,8.62068463630904,1.0733333333333333,-0.2488888888888889,-0.7,0.0007195005313170369,0.045319439041748844,-0.9583952857917231
1589543577.7887459,-1.6027304569336094,-3.4745565992676326,8.615390861327814,0.9190574749243751,-0.15600028304056324,-0.7129236321180279,-0.034705473426109974,0.0005065998077602545,-0.8461072990162682
1589543577.7987459,-1.6235637344567004,-3.5019222881215013,9.172073610110305,0.6488888888888888,0.006666666666666667,-0.7355555555555555,-0.019663210921346975,-0.010637348546286687,-0.6942418913015795
1589543577.8087459,-1.510933327987812,-3.4254123401355088,8.898212324098946,0.6488888888888888,0.006666666666666667,-0.7355555555555555,0.0014996900610739876,0.02158929181528948,-0.5371638596745827
1589543577.8187459,-1.4557781103035485,-3.475408294142796,9.177411286874733,0.6488888888888888,0.006666666666666667,-0.7355555555555555,-0.009944095493707002,-0.009066160928487006,-0.40305218044007945
1589543577.8287458,-1.5649743233865372,-3.5460695945276095,9.302190542282146,0.6488888888888888,0.006666666666666667,-0.7355555555555555,-0.006040328114271095,0.02737343980578426,-0.312113884645786
1589543577.8387458,-1.4917795514335401,-3.471095108574486,8.938627547152985,0.6056007887318361,0.041735507300228396,-0.7426789138092478,-0.0016437122871398417,0.02984066902395252,-0.2323316353315531
1589543577.8487458,-1.4037648092696264,-3.521294427808879,9.11390020830621,0.5611111111111111,0.07777777777777778,-0.75,-0.001090830782496456,-0.030963169983868527,-0.16034104771920207
1589543577.8587458,-1.3821120553981745,-3.4768595710238768,8.990055308242278,0.5611111111111111,0.07777777777777778,-0.75,-0.0078070993073451325,-0.015850621312277068,-0.1138520968426481
1589543577.8687458,-1.2661744353676117,-3.1653306102835175,8.508417827967323,0.5611111111111111,0.07777777777777778,-0.75,-0.016756754344171412,-0.024855897706629118,-0.08170875576984726
1589543577.8787458,-1.2938891686642628,-3.193462119533469,8.780599883165804,0.5611111111111111,0.07777777777777778,-0.75,-0.016534931789857342,-0.037708251063895276,-0.047814657743150954
1589543577.8887458,-1.240568363657915,-3.2248865050672673,9.03920464647662,0.5658396386073741,0.09601638383479194,-0.7540530235682253,-0.006222707005726982,-0.010325751303831648,0.00039041824782173537
1589543577.8987458,-1.2346980621901757,-3.246461346224753,8.82355073948134,0.5688888888888889,0.10777777777777778,-0.7566666666666667,0.00917457108003646,0.01020216594310842,0.037599407344368806
1589543577.9087458,-1.2160938780287955,-3.383077958562566,8.974796324476179,0.5688888888888889,0.10777777777777778,-0.7566666666666667,0.004511631681299137,-0.01518805975664254,0.04878400069411371
1589543577.9187458,-1.1180095985054677,-3.329861659124217,8.905880856135152,0.5688888888888889,0.10777777777777778,-0.7566666666666667,-0.01050425087816833,-0.02378115809294574,0.04019412694874211
1589543577.9287457,-1.0558645917291836,-3.24736809473619,8.790975881951764,0.5688888888888889,0.10777777777777778,-0.7566666666666667,-0.016009830346787997,-0.015509491446117846,0.027582483808584517
1589543577.9387457,-1.0539755587861168,-3.301102580410685,9.182071597310557,0.5688888888888889,0.10412522462495205,-0.7557535283784602,-0.0012402426855142106,-0.011700314801425506,0.00478241980123662
1589543577.9487457,-0.9363844482253255,-3.103941680844971,8.675190775398818,0.5688888888888889,0.0811111111111111,-0.75,-0.017360936750982374,-0.03595956208500551,-0.05869289970109508
1589543577.9587457,-1.0642234969996605,-3.3549737706155414,9.289519945654225,0.5688888888888889,0.0811111111111111,-0.75,-0.03394423985470951,-0.06220683095208353,-0.11000450235704778
1589543577.9687457,-1.291400363951768,-3.277833636626473,9.042166363373527,0.5688888888888889,0.0811111111111111,-0.75,0.00855235154064727,0.010032251919063987,-0.1654028502043439
1589543577.9787457,-2.7956170533602935,-3.1111049042119334,6.373582028170945,0.5688888888888889,0.0811111111111111,-0.75,0.04581784620909931,0.20094924367151434,-0.1749641508437695
1589543577.9887457,-6.13940367681137,0.476782679702501,-4.308024100108141,0.5535735006706736,0.08980362874847657,-0.7446189176530594,-0.6011946144091332,0.4165955968312025,-1.7445258443256955
1589543577.9987457,2.2751405931325017,2.456068741850279,10.31032866361296,0.5277777777777778,0.10444444444444444,-0.7355555555555555,-1.5129477201919612,-0.7911973027113695,-3.6678274181815365
1589543578.0087457,1.6262175905129819,-0.11016153085976102,12.108141047524931,0.5277777777777778,0.10444444444444444,-0.7355555555555555,-0.26532360128112076,-0.4974756960421737,-2.496146658596042
1589543578.0187457,1.4596973594612999,-0.15046379662555798,10.548784141635771,0.5277777777777778,0.10444444444444444,-0.7355555555555555,1.0958203615073212,0.22248045538135358,-2.309479416398032
1589543578.0287457,-0.3089288048321615,1.1837880978314685,7.966602237845331,0.5277777777777778,0.10444444444444444,-0.7355555555555555,1.2766568684843185,0.8440920316082398,-2.137637043110553
1589543578.0387456,0.12769531755271002,0.10537446643383763,7.400816194541456,0.5176502608545682,0.14900551890656663,-0.7267783742221072,-0.0791313708676995,-0.022348132860854464,-1.4820354923393504
1589543578.0487456,0.83,-1.26,11.34,0.5111111111111111,0.17777777777777778,-0.7211111111111111,-0.8366672101747817,-0.5530512067257032,-1.1704614296186973
1589543578.0587456,1.8455927562387207,-1.1322969693198084,11.995419130001867,0.5111111111111111,0.17777777777777778,-0.7211111111111111,0.0571831159646563,0.13301835895164482,-0.7352436389791308
1589543578.0687456,0.21870868341584665,-2.3096694673267737,9.286353869224923,0.5111111111111111,0.17777777777777778,-0.7211111111111111,0.10205908620433829,0.047479250692833624,-0.3712790767848292
1589543578.0787456,0.1461503280494229,-2.3808380824673145,10.708886308127006,0.5111111111111111,0.17777777777777778,-0.7211111111111111,-0.1525249270212879,-0.12874310770336672,-0.14758123970480988
1589543578.0887456,-0.35640488044316665,-2.1165584461117732,8.153113386158054,0.5122916423189896,0.18013884019353482,-0.72199650951702,0.032025876947915546,0.06594481686729206,-0.0331856256558751
1589543578.0987456,-0.5468339598691598,-2.5438226822242838,9.170117170336377,0.5155555555555555,0.18666666666666668,-0.7244444444444444,0.03344941021829464,-0.007915938990433809,0.07777107434173006
1589543578.1087456,-0.5624520001644534,-2.3310340007400403,8.187622003864655,0.5155555555555555,0.18666666666666668,-0.7244444444444444,-0.025803711364120723,0.0234592974696586,0.16503288022860524
1589543578.1187456,-0.6163761782347901,-2.53275235646958,9.030697172236504,0.5155555555555555,0.18666666666666668,-0.7244444444444444,-0.018080702492374534,-0.013470217858097624,0.2692221033607775
1589543578.1287456,-0.6470901786354832,-2.61842886864194,8.987827677738718,0.5155555555555555,0.18666666666666668,-0.7244444444444444,0.052742869585767016,0.025570469654864196,0.3467678982432431
1589543578.1387455,-0.62,-2.7585349195031337,9.192114121664728,0.5159051675610763,0.1933092947715607,-0.7244444444444444,0.023641107605687155,-0.02278516957021531,0.4757287758787068
1589543578.1487455,-0.6296519043716821,-2.69,8.87965190437168,0.5166666666666667,0.20777777777777776,-0.7244444444444444,-0.0043253517873236575,-0.0272707695624114,0.5529407517043665
1589543578.1587455,-4.476979620685594,-12.872249970550122,8.234364864334237,0.5166666666666667,0.20777777777777776,-0.7244444444444444,-0.004181325250580027,-0.03966709958802491,0.6171458141122051
1589543578.1687455,-7.073471237319936,-20.275119407256653,7.414696473431488,0.5166666666666667,0.20777777777777776,-0.7244444444444444,-0.0478342149996255,-0.10538416739453296,0.2704036204161207
1589543578.1787455,0.7082507624260296,-0.6371041948579161,9.480845232565185,0.5166666666666667,0.20777777777777776,-0.7244444444444444,-0.045032983562211804,-0.017073342452790546,-0.6794967648908155
1589543578.1887455,0.5107940273513816,-0.45074518559866017,9.09317366731789,0.5233330619902626,0.20623937885694793,-0.718290848761125,0.14793163286021713,0.19668667697489015,-0.8878571009366395
1589543578.1987455,-0.2,-1.14,6.32,0.5311111111111111,0.20444444444444448,-0.7111111111111111,0.19962203319685146,0.1538071403320003,-0.7515824091400581
1589543578.2087455,-0.5970283943743797,-3.6146290334293534,7.353361574399071,0.5311111111111111,0.20444444444444448,-0.7111111111111111,0.07918719593100298,0.08973343380632721,-0.35408811865671597
1589543578.2187455,-2.0806298194357966,-7.71466593227645,8.269786867187126,0.5311111111111111,0.20444444444444448,-0.7111111111111111,0.0011138709843778218,0.009446326035290803,-0.0768451337356049
1589543578.2287455,-3.01,-9.35,8.31,0.5311111111111111,0.20444444444444448,-0.7111111111111111,0.01963495408493621,-0.011999138607461015,-0.12217304763960307
1589543578.2387455,-1.0313694045460884,-3.468994561427974,8.885342351136522,0.5276205085297262,0.2053170950897907,-0.7137290630471498,0.011799865378473376,-0.019176777775233335,-0.2661926779719678
1589543578.2487454,-1.5890318635339558,-4.550063083360155,9.01968780173801,0.5133333333333333,0.2088888888888889,-0.7244444444444444,0.053120123770456794,0.06997003625087693,-0.15886259857772914
1589543578.2587454,-1.0400514966205343,-4.028081750885098,8.749697457354362,0.5133333333333333,0.2088888888888889,-0.7244444444444444,-0.012654620123689175,0.01695755609738616,-0.03418509895748226
1589543578.2687454,-0.926953842994301,-3.9878276942034194,8.843337440742072,0.5133333333333333,0.2088888888888889,-0.7244444444444444,-0.021959599219663346,-0.005280740362506931,-0.0013595667122946193
1589543578.2787454,-1.0346269959439338,-3.9232238024336397,8.6782386062193,0.5133333333333333,0.2088888888888889,-0.7244444444444444,0.006229166304954729,0.014294791251811177,-0.0021425879768673436
1589543578.2887454,-0.9724336069531627,-3.980722678255271,8.923915982617094,0.5195141012572205,0.2137684425130104,-0.721842015844913,0.004736589868049153,-0.004549956499017489,-0.0009580981136460905
1589543578.2987454,-0.9564819911805618,-3.9033795022048596,8.980346266536447,0.5344444444444445,0.2255555555555556,-0.7155555555555555,0.01018612354592565,-0.0025805255242028237,-0.002911400207969913
1589543578.3087454,-0.9999035901362616,-3.9068273497728976,8.832883420635888,0.5344444444444445,0.2255555555555556,-0.7155555555555555,0.002118561456731627,0.006167352187866298,-0.0025487773873951354
1589543578.3187454,-0.9847582855718914,-3.9459478569648643,8.73167300024919,0.5344444444444445,0.2255555555555556,-0.7155555555555555,-0.012076166809053324,0.002623681800773388,-0.003012968128802976
1589543578.3287454,-0.9971275460007117,-3.995718113499822,8.730040191748133,0.5344444444444445,0.2255555555555556,-0.7155555555555555,-0.01823078717806688,-0.0046766592543586935,-0.0014027054936671787
1589543578.3387454,-0.9549370469286531,-3.9826154139641354,8.882489507821443,0.5344444444444445,0.2255555555555556,-0.7210877951587604,-0.0043953696657554634,-0.007921112883580236,-0.001910098388503428
1589543578.3487453,-0.9848245014598993,-3.8924122507299495,8.893793874635026,0.5344444444444445,0.2255555555555556,-0.7377777777777778,0.01606103816034898,0.00026313573513286567,-0.0006769832588146608
1589543578.3587453,-0.9764004712070571,-3.90296065968988,8.85079858637883,0.5344444444444445,0.2255555555555556,-0.7377777777777778,0.004485280294617024,-0.001090830782496456,0.0
1589543578.3687453,-0.9895687065890745,-3.954086258682185,8.762258776046554,0.5344444444444445,0.2255555555555556,-0.7377777777777778,-0.01179979117611874,-0.0024280558092277275,-0.0004457416755770904
1589543578.3787453,-0.9568752216518899,-3.9756238917405504,8.808123005132991,0.5344444444444445,0.2255555555555556,-0.7377777777777778,-0.011385667184658995,-0.004022462688926129,-0.001090830782496456
1589543578.3887453,-0.9531534441609744,-4.000539667517077,8.872102296107316,0.5331597079344179,0.22345325944823932,-0.7377777777777778,-0.005801216031248743,-0.003157829882100215,-0.0008615058517181499
1589543578.3987453,-0.9790420541519216,-3.922873837544235,8.889361369434615,0.5226124964566246,0.20619418612094112,-0.7377777777777778,0.009260166738975555,-0.0022164934589611962,0.001021166994559887
1589543578.4087453,-0.9879210464386571,-3.896236860684029,8.905842092877315,0.5222222222222223,0.20555555555555555,-0.7377777777777778,0.012409633427929412,0.003866703334416809,-0.0006372734744777499
1589543578.4187453,-0.9911043564597886,-3.9644174258391542,8.764417425839154,0.5222222222222223,0.20555555555555555,-0.7377777777777778,-0.008111050522520723,0.0019407283607556832,-0.001090830782496456
1589543578.4287453,-0.9984103537772823,-3.993641415109129,8.79364141510913,0.5222222222222223,0.20555555555555555,-0.7377777777777778,-0.018471539324507083,0.00034680700660393526,-0.001090830782496456
1589543578.4387453,-0.9883558333333333,-3.9649325,8.776441666666667,0.5222222222222223,0.20646898148148146,-0.7355855555555555,-0.00929415097456543,-0.003989895392111204,0.000732129260185538
1589543578.4487453,-0.9744911180773249,-3.9707189132706375,8.865508881922675,0.5222222222222223,0.2111111111111111,-0.7244444444444444,0.0019137982066996342,-0.006433963881796756,-0.001090830782496456
1589543578.4587452,-0.9619557141816593,-3.9180442858183406,8.862398572365066,0.5222222222222223,0.2111111111111111,-0.7244444444444444,0.008324129780684954,-0.0030591570243774895,-0.0008774954593845772
1589543578.4687452,-0.9695933789788039,-3.9104066210211963,8.793659589190764,0.5222222222222223,0.2111111111111111,-0.7244444444444444,0.002492149873704436,-0.002226017037665987,-4.435547267307499e-05
1589543578.4787452,-0.9938791570504332,-3.96581873557565,8.781939578525217,0.5222222222222223,0.2111111111111111,-0.7244444444444444,-0.010729687431235806,0.0013024059785339908,0.0006676803904213863
1589543578.4887452,-1.009748023154629,-3.9896220347319438,8.789874011577314,0.5222222222222223,0.2111111111111111,-0.7244444444444444,-0.005536613142304379,0.002167918360022562,-0.0010633443725557563
1589543578.4987452,-0.9647218453188602,-3.9447218453188606,8.871112618724558,0.5155555555555555,0.21777777777777774,-0.7322222222222222,0.002015150760337754,-0.0035603710275376186,-0.0013787094625447066
1589543578.5087452,-0.9515399853712057,-3.925380043886383,8.911520175545531,0.5155555555555555,0.21777777777777774,-0.7322222222222222,0.00729984278797412,-0.0036913777509836793,-0.0018456888754918397
1589543578.5187452,-0.9692877878424097,-3.915479646404016,8.803808141438394,0.5155555555555555,0.21777777777777774,-0.7322222222222222,0.00038845147258386326,0.0006754269919864556,-0.0003377134959932278
1589543578.5287452,-0.9961015344562345,-3.95406768963749,8.792033844818745,0.5155555555555555,0.21777777777777774,-0.7322222222222222,-0.011573881985496892,0.0026253776720144674,-0.0013126888360072337
1589543578.5387452,-1.0190371977681338,-3.9709628022318664,8.80032093407729,0.5157695116070813,0.21777777777777774,-0.732400518931827,-0.013760698447663597,0.004293306175854102,-0.002146653087927051
1589543578.5487452,-0.9930340979541228,-3.9969659020458774,8.808988634015293,0.5215479782324172,0.21777777777777774,-0.7372159077862735,-0.002414705760683103,0.0024023073946906866,-0.0012011536973453433
1589543578.5587451,-0.9666105919003115,-3.9567788161993773,8.870168224299066,0.5222222222222223,0.21777777777777774,-0.7377777777777778,0.006175257626020435,0.00024036790451271853,0.00036972706895830026
1589543578.5687451,-0.9895700135820055,-3.910644979626992,8.800644979626993,0.5222222222222223,0.21777777777777774,-0.7377777777777778,0.008445220807489374,0.0011377350245768349,-0.002134757322912533
1589543578.5787451,-0.9768577588589751,-3.95371551771795,8.825428160760683,0.5222222222222223,0.21777777777777774,-0.7377777777777778,-0.006108809171190972,0.0025244269012585905,-0.00024935514874359257
1589543578.588745,-0.9999513133377412,-3.9999026266754822,8.81004868666226,0.5222222222222223,0.21776154889035812,-0.737723681486379,-0.01197258415251655,-2.655445494446503e-06,-0.0010881753370020095
1589543578.598745,-0.98,-3.954796003330558,8.836938662225922,0.5222222222222223,0.2111111111111111,-0.7155555555555555,-0.0001447174893237041,-0.0012800534411310063,-0.00018922265863455037
1589543578.608745,-0.9799421432358297,-3.9298842864716597,8.869826429707489,0.5222222222222223,0.2111111111111111,-0.7155555555555555,0.004363323129985824,-0.0022005951467926914,-0.0010845195885631962
1589543578.618745,-0.9702740704884402,-3.9105481409768803,8.840822211465321,0.5222222222222223,0.2111111111111111,-0.7155555555555555,0.004363323129985824,-0.005364464554872966,-2.989645253643797e-05
1589543578.628745,-0.9663986265714127,-3.936398626571413,8.837867124476196,0.5222222222222223,0.2111111111111111,-0.7155555555555555,-0.0036500976867552765,-0.0001601882718568849,-0.00023266062765989277
1589543578.638745,-0.9896267375533034,-3.9596267375533034,8.830124420815565,0.5222222222222223,0.2111111111111111,-0.7155555555555555,-0.012940675128795065,0.0032182035252484925,-0.001077258576936237
1589543578.648745,-1.0,-4.003448028101548,8.82393118313907,0.5155555555555555,0.21777777777777774,-0.7466666666666667,-0.006349338803556372,-0.0013767144878117496,0.0009478889298388093
1589543578.658745,-1.0,-3.9699632763851187,8.844022034168928,0.5155555555555555,0.21777777777777774,-0.7466666666666667,0.00022537682141951336,-0.0028377624044730577,0.00021736497150815534
1589543578.668745,-0.9787672786177105,-3.928767278617711,8.81246544276458,0.5155555555555555,0.21777777777777774,-0.7466666666666667,0.004228854086981536,-0.002734616175472217,-0.0009563617394921682
1589543578.678745,-0.9735951856633002,-3.92179759283165,8.82820240716835,0.5155555555555555,0.21777777777777774,-0.7466666666666667,0.0017037966713622603,0.0016790916610441215,-0.00019608695951588848
1589543578.688745,-0.9895200850482193,-3.92976004252411,8.820239957475891,0.5155555555555555,0.21777777777777774,-0.7466666666666667,-0.005244751511529204,0.00428479722962842,-0.0010646554823773215
1589543578.698745,-1.0,-3.9812603506773914,8.811747929864522,0.5077777777777778,0.2111111111111111,-0.7322222222222222,-0.007910781340602873,-0.001090830782496456,-0.00019066957018652313
1589543578.708745,-0.9984277530235519,-3.938427753023552,8.816855506047103,0.5077777777777778,0.2111111111111111,-0.7322222222222222,0.0016053474023754336,-0.0012623363224561152,-0.0016053474023754336
1589543578.718745,-0.9879927564936902,-3.928996378246845,8.803010865259465,0.5077777777777778,0.2111111111111111,-0.7322222222222222,0.0041443668295209415,-0.002181661564992912,-0.004034888679288501
1589543578.728745,-0.973839213089946,-3.921919606544973,8.835758819634918,0.5077777777777778,0.2111111111111111,-0.7322222222222222,0.000925282019269953,-0.002181661564992912,-0.0006720376005888031
1589543578.738745,-0.9897071786626312,-3.929853589331316,8.859560767993946,0.5077777777777778,0.2111111111111111,-0.7322222222222222,-0.004267497571413734,-0.002181661564992912,0.0010588889296390925
1589543578.748745,-0.9831548449783588,-3.9631548449783587,8.82684515502164,0.5222222222222223,0.2111111111111111,-0.7022222222222222,-0.010047957320865022,-0.001090830782496456,0.0003441402016398147
1589543578.758745,-0.9979743838883491,-3.9779743838883492,8.81202561611165,0.5222222222222223,0.2111111111111111,-0.7022222222222222,-0.006006555014509678,-0.001090830782496456,0.0019607011241819525
1589543578.768745,-1.0,-3.944752263214251,8.78885135792855,0.5222222222222223,0.2111111111111111,-0.7022222222222222,-0.0008402359565749494,-0.001859817108481011,-0.00012529741296075318
1589543578.778745,-0.9724119464469618,-3.9208039821489873,8.835176107106076,0.5222222222222223,0.2111111111111111,-0.7022222222222222,0.006106480456632237,-0.002181661564992912,0.0009154290871578564
1589543578.788745,-0.9784913266290713,-3.9454739798872143,8.848491326629071,0.5222222222222223,0.2111111111111111,-0.7022222222222222,0.000987424412245007,-0.0003291414707483355,0.00016457073537416776
1589543578.798745,-0.9731045741324921,-3.96,8.838965141955835,0.5077777777777778,0.20555555555555555,-0.7322222222222222,-0.008500875257954005,0.000865059780478814,-0.001090830782496456
1589543578.808745,-0.9929514195583596,-3.96,8.83234952681388,0.5077777777777778,0.20555555555555555,-0.7322222222222222,-0.007057571929554988,-0.0005782435479202036,-0.001090830782496456
1589543578.818745,-0.9897921400537079,-3.940207859946292,8.791247159677752,0.5077777777777778,0.20555555555555555,-0.7322222222222222,0.003340514355848409,-0.003272492347489368,0.0
1589543578.828745,-0.9791985645933015,-3.95,8.852404306220095,0.5077777777777778,0.20555555555555555,-0.7322222222222222,0.006020446447893119,-0.003097646265127496,-0.00017484608236187214
1589543578.8387449,-0.9708367224880382,-3.95,8.877489832535886,0.5077777777777778,0.20555555555555555,-0.7322222222222222,0.000547633587815506,-0.001273375311768291,-0.001999117035721077
1589543578.8487449,-0.9991058459038041,-3.9773175377114125,8.837317537711412,0.5155555555555555,0.21777777777777774,-0.7233333333333334,-0.009524865798740387,0.002181661564992912,0.001986587402507767
1589543578.8587449,-0.9913027377614144,-3.95,8.804789048954342,0.5155555555555555,0.21777777777777774,-0.7233333333333334,-0.005692344823975876,0.002039554919825769,-0.00014210664516714326
1589543578.8687449,-0.9996544185433952,-3.948963255630186,8.77138232582642,0.5155555555555555,0.21777777777777774,-0.7233333333333334,0.00015078835628977745,0.0009777395152791228,-0.0010531336934240115
1589543578.8787448,-0.9890079141817636,-3.92,8.81595251490942,0.5155555555555555,0.21777777777777774,-0.7233333333333334,0.004255103355044781,-0.0019652220151108275,-0.00010821977494104219
1589543578.8887448,-0.981141930160159,-3.92,8.863148419039046,0.5155555555555555,0.21777777777777774,-0.7233333333333334,0.0033970576045056263,-0.0002491305140325164,-0.0009662655254801978
1589543578.8987448,-0.99,-3.9616917109877603,8.84830828901224,0.5155555555555555,0.2111111111111111,-0.7377777777777778,-0.0024584671280733932,0.003087955305435714,0.001183099303523283
1589543578.9087448,-0.99,-3.9774242192674105,8.826780274084262,0.5155555555555555,0.2111111111111111,-0.7377777777777778,-0.005102936298473537,0.0009503437368929591,0.0021114180421911636
1589543578.9187448,-0.9879540013344322,-3.937954001334432,8.790229993327838,0.5155555555555555,0.2111111111111111,-0.7377777777777778,0.0004463676650695887,-0.001090830782496456,0.0008676469499616617
1589543578.9287448,-0.9714922092703795,-3.9214922092703794,8.872538953648103,0.5155555555555555,0.2111111111111111,-0.7377777777777778,0.004037773568774511,-0.001090830782496456,-0.0009280560018907994
1589543578.9387448,-0.97,-3.92,8.886113711409612,0.5155555555555555,0.2111111111111111,-0.7377777777777778,0.0023626157497147375,0.0009098765977746304,-0.0024246357026771804
1589543578.9487448,-0.9833393631053325,-3.9333393631053326,8.883330318447335,0.5155555555555555,0.20740573247074096,-0.7288848690408893,-0.0025469161910521175,0.0029092109597026266,-0.0018173935580699386
1589543578.9587448,-0.9801943787759391,-3.969416863672183,8.779028106120304,0.5155555555555555,0.20555555555555555,-0.7244444444444444,-0.0075722051717977,0.005369340171578956,-0.0031664751713602144
1589543578.9687448,-0.9886692529954941,-3.9439922410135178,8.73665373502253,0.5155555555555555,0.20555555555555555,-0.7244444444444444,-0.00479880906885481,0.0016714787009884367,0.0014558516668779359
1589543578.9787447,-0.9755544206569701,-3.932777210328485,8.78778231737212,0.5155555555555555,0.20555555555555555,-0.7244444444444444,-0.0012117866063114332,-0.0012728216102593371,0.002181661564992912
1589543578.9887447,-0.97,-3.9222056640087986,8.841177343964805,0.5155555555555555,0.20555555555555555,-0.7244444444444444,0.0025506904884968,-0.00048120123932837906,0.0013314314021606456
1589543578.9987447,-0.9840941103147398,-3.9340941103147395,8.85704705515737,0.5202535923271355,0.21964966587029539,-0.7244444444444444,0.00019763447084557208,0.001537428938321898,0.00032211631333550696
1589543579.0087447,-0.989508926279034,-3.960491073720966,8.84361604162744,0.5222222222222223,0.2255555555555556,-0.7244444444444444,-0.006330713362456795,0.0,-0.00010713566626097023
1589543579.0187447,-0.9823297331530391,-3.967670266846961,8.750286530989507,0.5222222222222223,0.2255555555555556,-0.7244444444444444,-0.003198199420327918,0.0,-0.001673392637325409
1589543579.0287447,-0.9605433250983622,-3.957826699606551,8.853259950590173,0.5222222222222223,0.2255555555555556,-0.7244444444444444,-0.0007944929113982788,-0.0011500983567160913,0.0
1589543579.0387447,-0.9682188672339647,-3.927124531064141,8.899313203403787,0.5222222222222223,0.2255555555555556,-0.7244444444444444,0.0033918659055336316,-0.0019873701201024736,0.0
1589543579.0487447,-0.99,-3.95988239486814,8.89,0.5155555555555555,0.2111111111111111,-0.7377777777777778,0.0009753722142849636,0.002207319024595466,-0.001078002052695179
1589543579.0587447,-0.99,-3.9493021487825057,8.879532231737585,0.5155555555555555,0.2111111111111111,-0.7377777777777778,-0.008574398742042553,0.004287199371021276,0.0
1589543579.0687447,-0.9898016519311308,-3.940132232045913,8.740264464091826,0.5155555555555555,0.2111111111111111,-0.7377777777777778,-0.006501711859144476,0.003236431650960819,-2.163641791712957e-05
1589543579.0787446,-0.965404839460214,-3.9563967736931906,8.772793547386382,0.5155555555555555,0.2111111111111111,-0.7377777777777778,-0.0011791530515306032,-0.0011990340220507422,-0.0026829158217240665
1589543579.0887446,-0.9717049650474995,-3.9482950349525003,8.832672342713748,0.5155555555555555,0.2111111111111111,-0.7377777777777778,0.0019152204272786405,-0.0015432547559000318,-0.001995678729303608
1589543579.0987446,-0.9860406694721964,-3.94,8.882081338944392,0.5195826685370198,0.2111111111111111,-0.7297235518148493,0.0019546227060576894,-0.001090830782496456,-0.001090830782496456
1589543579.1087446,-0.9802898170611763,-3.9497101829388237,8.831738902367057,0.5222222222222223,0.2111111111111111,-0.7244444444444444,-0.002086819153505777,0.0010276025081716992,-3.1614137162378365e-05
1589543579.1187446,-0.988384521135389,-3.966769042270778,8.762923830916888,0.5222222222222223,0.2111111111111111,-0.7244444444444444,-0.002181661564992912,-0.0016529973427958854,-0.0009146093750974471
1589543579.1287446,-0.99,-3.9605057888129447,8.797471055935278,0.5222222222222223,0.2111111111111111,-0.7244444444444444,-0.0032173193468291346,-0.00011034600132046749,-5.5173000660233744e-05
1589543579.1387446,-0.99,-3.943643774200122,8.881781128999389,0.5222222222222223,0.2111111111111111,-0.7244444444444444,0.0011879762995029679,0.000892093729398467,-0.000892093729398467
1589543579.1487446,-0.9824101372950348,-3.9248202745900698,8.877230411885105,0.5019825883423151,0.22207424612939414,-0.734564261384398,0.002181661564992912,0.00026290519514667477,-0.00026290519514667477
1589543579.1587446,-0.9801364690824734,-3.94040940724742,8.887816494680425,0.4955555555555556,0.2255555555555556,-0.7377777777777778,-0.0032873788150914714,-0.0010163984444859387,-0.0010759443148943525
1589543579.1687446,-0.9868468122550196,-3.9605404367650587,8.780451003919687,0.4955555555555556,0.2255555555555556,-0.7377777777777778,-0.0040193637044643035,0.0026435260023782202,-0.0003439594255215207
1589543579.1787446,-0.9721284462663773,-3.9610642231331887,8.79255043806768,0.4955555555555556,0.2255555555555556,-0.7377777777777778,-0.004363323129985824,0.0004643549412508023,-0.0019494840943675108
1589543579.1887445,-0.98555991130118,-3.93666013304823,8.85445968955413,0.4955555555555556,0.2255555555555556,-0.7377777777777778,-0.00012001557492541393,-0.0016973230220241639,-0.002181661564992912
1589543579.1987445,-0.9709827340800792,-3.9395086329599605,8.898525898879882,0.5145728214754763,0.21815995214225298,-0.7124214232178834,5.359982927793721e-05,-0.002181661564992912,-0.0042561234714299494
1589543579.2087445,-0.9884282028449437,-3.94,8.817073087197754,0.5155555555555555,0.21777777777777774,-0.7111111111111111,0.002010205092935337,0.0038489537138131,-0.001348015490582818
1589543579.2187445,-0.9801828242133714,-3.9498171757866287,8.760914121066858,0.5155555555555555,0.21777777777777774,-0.7111111111111111,-0.004243664962147084,7.977211189249406e-05,-1.9943027973123514e-05
1589543579.2287445,-0.9706932749396121,-3.9686134501207757,8.778613450120774,0.5155555555555555,0.21777777777777774,-0.7111111111111111,-0.005378529347996048,0.002030412436020448,0.001015206218010224
1589543579.2387445,-0.975877052402407,-3.975877052402407,8.79763115720722,0.5155555555555555,0.21777777777777774,-0.7111111111111111,-0.002248719077037159,-0.0010237732704522092,0.00044974381540743174
1589543579.2487445,-0.98,-3.9609404429434303,8.852884003377282,0.5118495305723337,0.2214838027609996,-0.7132288396729521,0.000519768788451338,-0.004312029924392044,0.001039537576902676
1589543579.2587445,-0.989440971079668,-3.94,8.843354173521991,0.5077777777777778,0.2255555555555556,-0.7155555555555555,0.004180381343604659,-0.00030490297730194175,0.00012196119092077688
1589543579.2687445,-0.9996580236587406,-3.9593160473174813,8.753077787071335,0.5077777777777778,0.2255555555555556,-0.7155555555555555,-0.004064892474040803,0.0010535269505033283,0.0010535269505033283
1589543579.2787445,-0.9904715760754521,-3.96,8.807170543547288,0.5077777777777778,0.2255555555555556,-0.7155555555555555,-0.004363323129985824,5.144096993920993e-05,5.144096993920993e-05
1589543579.2887444,-0.9824542775090689,-3.952454277509069,8.840182889963724,0.5077777777777778,0.2255555555555556,-0.7155555555555555,-0.0035402124930574786,-0.003292442547713381,0.0
1589543579.2987444,-0.9861020485584219,-3.95,8.88051024279211,0.5240499072669027,0.2167414854156129,-0.7155555555555555,-0.001275601626344964,-0.003032062649222888,0.0006656302403814679
1589543579.3087444,-0.9808374037747646,-3.9408374037747644,8.890837403774766,0.5344444444444445,0.2111111111111111,-0.7155555555555555,0.0009994842010072644,-0.004180629967007441,0.001090830782496456
