time,acc_x,acc_y,acc_z,mag_x,mag_y,mag_z,gyr_x,gyr_y,gyr_z
1589543611.539692,0.18,-4.12,8.78,0.4811111111111111,0.2966666666666667,-0.6944444444444444,-0.001090830782496456,0.0,0.0
1589543611.549692,0.15,-4.132434872962074,8.794869745924148,0.4811111111111111,0.2966666666666667,-0.6944444444444444,-0.001887641096046105,0.002418847971745871,0.000825227344646573
1589543611.559692,0.1523339015423795,-4.14,8.817001704627138,0.47773991999434073,0.2948514099114826,-0.6923698652956627,-0.004108733965411473,0.005781217201255682,0.00025458916457435105
1589543611.569692,0.16,-4.138114610137646,8.832458440550585,0.4666666666666667,0.2888888888888889,-0.6855555555555556,-0.003066828217603176,0.003272492347489368,0.001090830782496456
1589543611.579692,0.15586723327779545,-4.134132766722204,8.754539566055751,0.4666666666666667,0.2888888888888889,-0.6855555555555556,-0.002181661564992912,0.0019200476002520601,0.001090830782496456
1589543611.5896919,0.1608969439495683,-4.132735370700288,8.719058517198848,0.4666666666666667,0.2888888888888889,-0.6855555555555556,-0.0029741096913480872,-0.00039622406317758754,-0.0004940654702138942
1589543611.5996919,0.17574654453408117,-4.12,8.787013821863676,0.4666666666666667,0.2888888888888889,-0.6855555555555556,-0.0029713830837252084,-0.002018790813336866,-0.0018805523012287528
1589543611.6096919,0.16323322475570035,-4.1267667752443,8.8167667752443,0.46929819037278325,0.29152041259500544,-0.6814203040173724,-0.001459901119232309,-0.002534351674017662,0.00036907033673585306
1589543611.6196918,0.15801244651886426,-4.14,8.821987553481137,0.4744444444444445,0.2966666666666667,-0.6733333333333333,-0.002181661564992912,-0.000653819617202271,0.000653819617202271
1589543611.6296918,0.16771541652758573,-4.137715416527586,8.798577082637928,0.4744444444444445,0.2966666666666667,-0.6733333333333333,-0.002181661564992912,-0.0004984187953784293,-0.0007476281930676441
1589543611.6396918,0.1569608651528606,-4.133039134847139,8.772156539388558,0.4744444444444445,0.2966666666666667,-0.6733333333333333,-0.0028446979336763786,-0.002181661564992912,-0.0029409741631476346
1589543611.6496918,0.15291891734065227,-4.14,8.805837834681306,0.4744444444444445,0.2966666666666667,-0.6733333333333333,-0.0050001321073350645,-0.0025000660536675322,-0.0015448525876436713
1589543611.6596918,0.15904216181494352,-4.14,8.818084323629888,0.4744444444444445,0.2966666666666667,-0.6733333333333333,-0.006336016819596703,-0.0031680084097983514,-0.00020896787538203293
1589543611.6696918,0.18154441555300235,-4.147181471851001,8.808725887404004,0.46,0.2822222222222222,-0.6588888888888889,-0.002181661564992912,-0.003272492347489368,0.001090830782496456
1589543611.6796918,0.16,-4.14,8.747018402683347,0.46,0.2822222222222222,-0.6588888888888889,-0.001731944794881566,-0.0010239084969326379,0.00064111401238511
1589543611.6896918,0.1570748908336835,-4.142925109166316,8.738026419162114,0.46,0.2822222222222222,-0.6588888888888889,-0.00045267095834034313,0.001543501740836799,-0.0003190799120780564
1589543611.6996918,0.15091929083278613,-4.149080709167214,8.831838581665572,0.46,0.2822222222222222,-0.6588888888888889,0.000890272634802472,0.0004011162953879679,-0.00078999356095548
1589543611.7096918,0.15553312914527467,-4.135533129145275,8.85,0.4614889569515751,0.2822222222222222,-0.6653410356790477,-0.0015780908054735215,0.0053378431759399545,0.0012071415190387813
1589543611.7196918,0.14232952964096857,-4.129318118563874,8.856988588922906,0.4666666666666667,0.2822222222222222,-0.6877777777777778,-0.004288941403931932,0.00694786041119716,-0.0016734370367716296
1589543611.7296917,0.1535795894132676,-4.152840821173465,8.83704492704079,0.4666666666666667,0.2822222222222222,-0.6877777777777778,-0.007635815477475192,-0.0004710597457798348,0.0
1589543611.7396917,0.1580199304017716,-4.1380199304017715,8.767920278392914,0.4666666666666667,0.2822222222222222,-0.6877777777777778,-0.007635815477475192,-0.0037044765213359557,0.0
1589543611.7496917,0.14669942311517803,-4.133300576884822,8.786797692460713,0.4666666666666667,0.2822222222222222,-0.6877777777777778,-0.006915741304283181,-0.00545415391248228,-0.0003600370865960055
1589543611.7596917,0.1483778213272064,-4.14,8.773963035545345,0.463253480200027,0.2822222222222222,-0.6856057500262799,-0.006672658631678551,-0.006368032451879483,-0.0013954569622955236
1589543611.7696917,0.2390750670241287,-4.199207200306396,9.017225201072387,0.4544444444444444,0.2822222222222222,-0.68,-0.014123146151778128,-0.020029027671910466,-0.0032580788423204185
1589543611.7796917,0.18891512277458505,-4.163967166338464,8.870920708917735,0.4544444444444444,0.2822222222222222,-0.68,-0.004880353160479061,-0.010682978474724165,-0.002541487111057732
1589543611.7896917,0.06836239076017742,-4.058448465153045,8.472414474550963,0.4544444444444444,0.2822222222222222,-0.68,0.00983625556193315,0.012337631001695784,-0.0009309738451115948
1589543611.7996917,0.17824128180961357,-4.125590480678605,8.732939679547597,0.4544444444444444,0.2822222222222222,-0.68,-0.0014115000766158196,-0.004074165582787777,-0.0029518230533700047
1589543611.8096917,0.1255325164938737,-4.105824693685203,8.746116870876532,0.4544444444444444,0.2822222222222222,-0.68,-0.002848908669460584,-0.0076676870648996875,-0.0015144144605252399
1589543611.8196917,0.10734571788413098,-4.097709207948503,8.777345717884131,0.4866666666666667,0.2822222222222222,-0.6666666666666666,-0.004625192736391179,-0.004795778154728682,3.9650615134824386e-05
1589543611.8296916,0.26002639081976486,-4.125554089398902,8.992269139235137,0.4866666666666667,0.2822222222222222,-0.6666666666666666,-0.019633514689007467,-0.02314777414552772,-0.006303217585947853
1589543611.8396916,0.3211240424901604,-4.04224808498032,9.010608574209657,0.4866666666666667,0.2822222222222222,-0.6666666666666666,-0.004851240119287318,-0.0004291490521853257,-0.013391426286554951
1589543611.8496916,0.21776256200129396,-3.863683416001725,8.76,0.4866666666666667,0.2822222222222222,-0.6666666666666666,0.0027528127525760808,0.012771188973015279,-0.024718855987806414
1589543611.8596916,0.1483274117556191,-3.7583274117556194,8.801660230169151,0.48777760613784404,0.28333316169339956,-0.6688885456090213,-0.015271630954950384,-0.012544638252264699,-0.036906132544760085
1589543611.8696916,0.3346039623078706,-3.9446039623078706,9.004134741638989,0.4931769264437065,0.288732481999262,-0.6796871862207462,-0.015271630954950384,-0.009894253094877922,-0.04662421145517828
1589543611.8796916,0.10106744868035192,-3.8479193548387096,8.688986803519061,0.4933333333333334,0.2888888888888889,-0.68,-0.00962378260293684,0.00450711446040581,-0.06603684826529499
1589543611.8896916,0.29240078201368525,-3.9230860215053767,8.955486803519062,0.4933333333333334,0.2888888888888889,-0.68,-0.023786402262349158,-0.018600317615477452,-0.0734908586123541
1589543611.8996916,0.2,-3.810121420906986,8.719757158186027,0.4933333333333334,0.2888888888888889,-0.68,-0.014719593080553208,-0.002746944405687975,-0.08886959635771645
1589543611.9096916,0.19471322957198445,-3.753566147859922,8.782265758754864,0.4908158236057069,0.2888888888888889,-0.6794964980544748,-0.01677438830336622,0.001934505625441283,-0.09716632495536845
1589543611.9196916,0.04125736396277059,-3.182788371039147,8.724426743821244,0.46,0.2888888888888889,-0.6733333333333333,-0.02112516422771991,-0.0007451050713918519,-0.08711154766933371
1589543611.9296916,-0.13865550310931296,-2.642780774705926,8.6018790739492,0.46,0.2888888888888889,-0.6733333333333333,-0.02188494070680835,-0.005062469899212311,-0.06056820143854788
1589543611.9396915,-0.024246083836527522,-2.598904699396167,9.058079635949944,0.46,0.2888888888888889,-0.6733333333333333,-0.03560871845823069,-0.03705798552515155,-0.023684058382011788
1589543611.9496915,0.016475213872166376,-2.6667102572226864,8.893759829478354,0.46,0.2888888888888889,-0.6733333333333333,-0.021583065942111734,-0.010378555628839024,0.009162419285361035
1589543611.9596915,0.09802398560863482,-3.000089946032381,8.987814111533082,0.4588855575543563,0.2888888888888889,-0.6775682146267795,-0.0019497591823698403,-0.0030504015549547106,0.063741801740129
1589543611.9696915,0.12928801052093228,-3.1264079053116096,8.734304084167459,0.4544444444444444,0.2888888888888889,-0.6944444444444444,0.01706145577396946,0.0024923255812251896,0.11981501371239309
1589543611.9796915,0.12393848354792561,-3.198184549356223,8.72301573676681,0.4544444444444444,0.2888888888888889,-0.6944444444444444,0.01114317196339906,-0.006773294485363904,0.22953108390502608
1589543611.9896915,0.13646096087288087,-3.1993828826186426,8.787695195635596,0.4544444444444444,0.2888888888888889,-0.6944444444444444,-0.0031893698516564997,-0.019165782307071243,0.2888503530711945
1589543611.9996915,0.1391783655977538,-3.259839663070785,8.756072114674154,0.4544444444444444,0.2888888888888889,-0.6944444444444444,0.013697688031898012,-0.0049360616803345615,0.33551243509496176
1589543612.0096915,0.06418626660590977,-3.3439261803778613,8.916963090188931,0.4544444444444444,0.2878765856185324,-0.6890454936692099,0.005385520548025722,-0.018115843461059305,0.37886144834855295
1589543612.0196915,-0.06077973290336147,-3.314522415787444,8.902261207893723,0.4544444444444444,0.2829759581867963,-0.6629088140332838,-0.00022752247086281138,-0.021323296614709893,0.40692666344299566
1589543612.0296915,-0.02038233627041789,-3.3084588035245015,8.866535270778586,0.4544444444444444,0.2822222222222222,-0.6588888888888889,-0.0015938933631809145,-0.03071138036563565,0.5397148771914843
1589543612.0396914,0.013655941878567723,-3.26,8.78462376751427,0.4544444444444444,0.2822222222222222,-0.6588888888888889,0.00753024207792377,-0.03345997473128788,0.6424758386862228
1589543612.0496914,-0.014040024324174914,-3.2662844822820496,8.691346674774724,0.4544444444444444,0.2822222222222222,-0.6588888888888889,0.01483093266546594,-0.024487941981015858,0.6724278584868206
1589543612.0596914,-0.08360108353142795,-3.374490574382221,8.714533694510477,0.4544444444444444,0.2822222222222222,-0.6588888888888889,0.007242998200832929,-0.03291898027505254,0.6994071810277381
1589543612.0696914,-0.06358468065140467,-3.3923016167816855,8.865396766436628,0.4744444444444445,0.2822222222222222,-0.68,0.009257634816468673,-0.03672607227438474,0.7839494660754692
1589543612.0796914,-0.02258548219976149,-3.3431025786397135,8.963794842720572,0.4744444444444445,0.2822222222222222,-0.68,0.005679779798169998,-0.04835410108385543,0.830461581313352
1589543612.0896914,0.014080577399547562,-3.4339462817336353,8.693543394735897,0.4744444444444445,0.2822222222222222,-0.68,0.01419544955708726,-0.03553764449397113,0.8635221565626812
1589543612.0996914,-0.008510718517720561,-3.4490071456784808,8.821560738267083,0.4744444444444445,0.2822222222222222,-0.68,0.010088236056580165,-0.04210918609478248,0.8577720576619712
1589543612.1096914,-0.019974286514422464,-3.48989714605769,8.90979429211538,0.4744444444444445,0.2822222222222222,-0.68,0.005465373537119581,-0.043630426393698914,0.846512736278843
1589543612.1196914,-0.07495523498894556,-3.5541144408204364,8.845885559179564,0.48563902934960007,0.27611608500122825,-0.6738938627790061,0.009450611378166822,-0.03564031636848916,0.8285006286216694
1589543612.1296914,-0.0920026875383092,-3.518024187844783,8.877943561695506,0.4866666666666667,0.27555555555555555,-0.6733333333333333,0.0017462087468493766,-0.0401422796309179,0.8089551244951932
1589543612.1396914,-0.10197941604758497,-3.59395883209517,8.719897080237926,0.4866666666666667,0.27555555555555555,-0.6733333333333333,0.005874768699237028,-0.0375425418050139,0.7889427105628444
1589543612.1496913,-0.1192693266343493,-3.6137077306537395,8.782246383922438,0.4866666666666667,0.27555555555555555,-0.6733333333333333,0.010785786588369517,-0.03256551527505327,0.7641025894837152
1589543612.1596913,-0.16055540390529746,-3.6294445960947024,8.880238030245128,0.486719562276695,0.2753968687254706,-0.673500836098423,0.005497429032240651,-0.041416949639058634,0.7470373305070871
1589543612.1696913,-0.21398500482247823,-3.576014995177522,8.903136430638206,0.49180809569737893,0.2601312684634189,-0.689614525263922,0.009660475702023625,-0.03808651230323225,0.7295525344939987
1589543612.1796913,-0.2407141163380333,-3.5092858836619665,8.779761961220656,0.4933333333333334,0.25555555555555554,-0.6944444444444444,0.00971361303129339,-0.03168602469798459,0.7054818902444766
1589543612.1896913,-0.2636659796070992,-3.4863340203929005,8.772111340130966,0.4933333333333334,0.25555555555555554,-0.6944444444444444,0.006375399835353811,-0.03335513129595437,0.6963018039556427
1589543612.1996913,-0.3490521119034558,-3.569763027975864,8.810236972024137,0.4933333333333334,0.25555555555555554,-0.6944444444444444,0.006674232884237778,-0.03366065643027928,0.6905992838716639
1589543612.2096913,-0.31837520570488204,-3.5620938014262205,8.81790619857378,0.4933333333333334,0.25555555555555554,-0.6944444444444444,0.010857147083382854,-0.028641159391305192,0.6939456152309799
1589543612.2196913,-0.3761647567331965,-3.547397708079836,8.872465902693278,0.5077777777777778,0.2433333333333333,-0.68,0.010639319568517637,-0.029168565114248618,0.6962190274891858
1589543612.2296913,-0.4142511305232188,-3.5931013566278627,8.887700452209288,0.5077777777777778,0.2433333333333333,-0.68,0.008977488011564734,-0.03415405978510733,0.6978808590461387
1589543612.2396913,-0.4027565718100643,-3.5827565718100645,8.817243428189936,0.5077777777777778,0.2433333333333333,-0.68,0.006695332364207739,-0.030843957248358776,0.7043375930563591
1589543612.2496912,-0.41675740632562797,-3.596757406325628,8.803242593674373,0.5077777777777778,0.2433333333333333,-0.68,0.007458959427718527,-0.032371211375380356,0.708155728373913
1589543612.2596912,-0.4391264354173467,-3.5808735645826535,8.866942523960713,0.5077777777777778,0.2433333333333333,-0.68,0.01180855638000963,-0.0348112939261609,0.7038240824945283
1589543612.2696912,-0.3728077041919868,-3.4899567411679886,8.812850963024,0.5011111111111111,0.2288888888888889,-0.6877777777777778,0.008104662614704331,-0.03412674608002379,0.7062387228157149
1589543612.2796912,-0.48676276549541914,-3.5814003267635925,8.808550245072695,0.5011111111111111,0.2288888888888889,-0.6877777777777778,0.005338242002973732,-0.03482751317479755,0.694975120359751
1589543612.2896912,-0.3830027162950811,-3.4566059758491785,8.714203802813115,0.5011111111111111,0.2288888888888889,-0.6877777777777778,0.00994849525709923,-0.02951794023471988,0.6895132487105232
1589543612.2996912,-0.4509008308924622,-3.56,8.79672066471397,0.5011111111111111,0.2288888888888889,-0.6877777777777778,0.011239162950219327,-0.030847252172797445,0.6704855404280496
1589543612.3096912,-0.5762609839201387,-3.56,8.89700878713611,0.5011111111111111,0.2288888888888889,-0.6877777777777778,0.006680939156184134,-0.032670541690411524,0.6486060662166807
1589543612.3196912,-0.6012414068390473,-3.54,8.861172661551425,0.5277777777777778,0.21666666666666667,-0.7088888888888889,0.011449973742418337,-0.022087448608656007,0.6431839122348186
1589543612.3296912,-0.6076063192389524,-3.541196840380524,8.926236335623976,0.5277777777777778,0.21666666666666667,-0.7088888888888889,0.014945243372747842,-0.02438994231356508,0.6405135018747412
1589543612.3396912,-0.5796661908927666,-3.5632220636309224,8.72127722270823,0.5277777777777778,0.21666666666666667,-0.7088888888888889,0.009466004423290878,-0.030718998219489382,0.6430629527441432
1589543612.3496912,-0.6884850603821366,-3.597348855668739,8.845833916050875,0.5277777777777778,0.21666666666666667,-0.7088888888888889,0.005867289604679452,-0.03214653350581764,0.6368799227010514
1589543612.3596911,-0.6567779184699413,-3.541861357322397,8.758639275792339,0.5277777777777778,0.21666666666666667,-0.7088888888888889,0.014514071210381046,-0.020041039257835402,0.6334212100587708
1589543612.3696911,-0.6612475222083548,-3.5199801776668376,8.907465310916967,0.5344444444444445,0.20444444444444448,-0.7355555555555555,0.009955722886259639,-0.028359438063788447,0.6262751149967574
1589543612.3796911,-0.6689457455399751,-3.5815659643198003,9.01524043755965,0.5344444444444445,0.20444444444444448,-0.7355555555555555,0.004077501599794952,-0.03507740524831951,0.6203968937102926
1589543612.389691,-0.6025036353607782,-3.3558418158418157,8.498374534088821,0.5344444444444445,0.20444444444444448,-0.7355555555555555,0.017453292519943295,-0.012907899888645238,0.6198634024845783
1589543612.399691,-0.6235350749636464,-3.4049151749151747,8.736730849587993,0.5344444444444445,0.20444444444444448,-0.7355555555555555,0.017453292519943295,-0.011378450440710328,0.6129808799688713
1589543612.409691,-0.63,-3.4109981097579873,8.927024573146168,0.5344444444444445,0.20444444444444448,-0.7355555555555555,0.002723984054979995,-0.038403016959562726,0.5941720219377236
1589543612.419691,-0.7612839512112974,-3.5641049390141215,8.988716048788703,0.54,0.21666666666666667,-0.73,0.008726646259971648,-0.026501464479319437,0.5753432090916552
1589543612.429691,-0.826606780275562,-3.6251163886874544,8.890592095721537,0.54,0.21666666666666667,-0.73,0.00959031291631624,-0.019595758533614453,0.5720888538317683
1589543612.439691,-0.8037951414068165,-3.4578310369833214,8.692891225525743,0.54,0.21666666666666667,-0.73,0.015396495087667616,-0.00466557580728234,0.5754066722153977
1589543612.449691,-0.7721243877434788,-3.324956904734784,8.578238979382617,0.54,0.21666666666666667,-0.73,0.014585828619962483,-0.015552404842429727,0.5804764661244175
1589543612.459691,-0.7960126438090899,-3.3806961688878765,9.008227588563617,0.54,0.21666666666666667,-0.73,-0.005392005923374337,-0.05550807392910337,0.5822136691281861
1589543612.469691,-0.8670009067026248,-3.3609996977657914,8.819500151117104,0.5188888888888888,0.18444444444444444,-0.7511111111111111,-0.0010911604688743522,-0.037034051236451475,0.5993564953974297
1589543612.479691,-0.8153691910702873,-3.3825567576525177,8.810767027295755,0.5188888888888888,0.18444444444444444,-0.7511111111111111,0.019244495491831257,-0.015801539045592825,0.6301623887871576
1589543612.489691,-1.0198301181786584,-3.479490354535975,8.83813129996524,0.5188888888888888,0.18444444444444444,-0.7511111111111111,0.004344791897975217,-0.035997415822383035,0.6595289169802412
1589543612.499691,-1.0107184132777198,-3.45215523983316,8.737902546054919,0.5188888888888888,0.18444444444444444,-0.7511111111111111,0.0033508590792784665,-0.035997415822383035,0.6953104984533243
1589543612.509691,-1.1067254155818147,-3.5660704986981773,8.913778289605448,0.5188888888888888,0.18444444444444444,-0.7511111111111111,0.010658266601137762,-0.031776973391726825,0.754052563003927
1589543612.519691,-1.2045131878866817,-3.522743406056659,8.929451318788669,0.5440924056586707,0.15294004848221715,-0.7700137486884474,0.0036914551960580974,-0.0367889874273304,0.8178044690892423
1589543612.529691,-1.3599710442742388,-3.5993050625817298,8.979507752662059,0.5455555555555556,0.1511111111111111,-0.7711111111111111,0.015258996636154423,-0.038207504604666875,0.9078681175287563
1589543612.539691,-1.3501767700354943,-3.3642424808518587,8.8130050906034,0.5455555555555556,0.1511111111111111,-0.7711111111111111,0.01098543830342055,-0.04782301085331808,1.0082967383480024
1589543612.549691,-1.3357164160987707,-3.352858208049385,8.81,0.5455555555555556,0.1511111111111111,-0.7711111111111111,0.01324545377553934,-0.04488035982907768,1.0996998993637515
1589543612.559691,-1.4106870761234709,-3.438755783735818,8.874549660898778,0.5455555555555556,0.1511111111111111,-0.7711111111111111,0.013300640708602759,-0.04979434754681642,1.2446946180963556
1589543612.569691,-1.4088264130884176,-3.4035371015691136,8.98175220995019,0.5494765901688116,0.15973738726027428,-0.7860110426414839,0.007700715968186594,-0.05896798023700611,1.3555061296647706
1589543612.579691,-1.503965903521669,-3.38,9.038902891549393,0.5511111111111111,0.16333333333333333,-0.7922222222222223,0.016795074701631618,-0.07145628979342016,1.4928775347853254
1589543612.589691,-1.5102899353647277,-3.3171006463527237,8.692609418282547,0.5511111111111111,0.16333333333333333,-0.7922222222222223,0.022686057137880127,-0.06872233929727672,1.6089288701267312
1589543612.599691,-1.5199720683287166,-3.2202793167128347,8.779748614958448,0.5511111111111111,0.16333333333333333,-0.7922222222222223,0.015292959063740192,-0.06872233929727672,1.716656870635627
1589543612.609691,-1.52,-3.22,8.820622025370554,0.5511111111111111,0.16333333333333333,-0.7922222222222223,0.019702806527105595,-0.07049480952613882,1.803818692863664
1589543612.619691,-1.4818543046357615,-3.0923334631865993,8.938500194779898,0.5333333333333333,0.11333333333333333,-0.8066666666666666,0.01267862377349601,-0.08679604979246147,1.9370039858946295
1589543612.629691,-1.4001577717179587,-3.015442608675726,8.82316391301359,0.5333333333333333,0.11333333333333333,-0.8066666666666666,0.01949346029167052,-0.08207808604910989,2.021403115081252
1589543612.6396909,-1.3223300970873788,-2.942718446601942,8.7173786407767,0.5333333333333333,0.11333333333333333,-0.8066666666666666,0.025798677535547248,-0.07797851506331462,2.1047421089417298
1589543612.6496909,-1.44,-3.0781249885558384,9.088124988555839,0.5333333333333333,0.11333333333333333,-0.8066666666666666,0.006054107846780817,-0.10541516398794015,2.1325469155025036
1589543612.6596909,-1.44,-3.039724790800725,9.049724790800724,0.5333333333333333,0.11333333333333333,-0.8066666666666666,-0.003999040416874103,-0.11965712402811797,2.1543287367404225
1589543612.6696908,-1.4648018371144633,-2.9865967850496893,8.971794947935225,0.5443563720508726,0.07130799822271493,-0.8163118255445134,0.011040510106519047,-0.09620927103517987,2.1754013485904613
1589543612.6796908,-1.5138985576349981,-3.021017403742997,9.004576826796995,0.5511111111111111,0.045555555555555564,-0.8222222222222222,0.022556167452938845,-0.08037019892525102,2.1841945055373917
1589543612.6896908,-1.6095362608271602,-3.05,8.794160648352413,0.5511111111111111,0.045555555555555564,-0.8222222222222222,0.018963782721746786,-0.0775665469361947,2.175955899136547
1589543612.6996908,-1.649493642861661,-2.907595357075084,8.785442785754949,0.5511111111111111,0.045555555555555564,-0.8222222222222222,0.01952448409424883,-0.0649666011160715,2.155329790351343
1589543612.7096908,-1.5734222681543037,-2.7128099888216313,8.56026680446291,0.5511111111111111,0.045555555555555564,-0.8222222222222222,0.011281619369831738,-0.07920938899414329,2.1478937573187524
1589543612.7196908,-1.7916100556515064,-2.8612900061835007,9.118069894880488,0.5333333333333333,-0.02666666666666667,-0.8355555555555556,-0.017453292519943295,-0.12217304763960307,2.1282108566505853
1589543612.7296908,-1.869037522544319,-2.8673531869968767,8.965428232085515,0.5333333333333333,-0.02666666666666667,-0.8355555555555556,-0.016770857496467968,-0.12159560261973934,2.1283420941550997
1589543612.7396908,-1.832136981480667,-2.7658766990718338,8.790150662033167,0.5333333333333333,-0.02666666666666667,-0.8355555555555556,0.009393102457485977,-0.09945686727408598,2.133373624915476
1589543612.7496908,-1.9331893072503679,-2.76,9.098948767864773,0.5333333333333333,-0.02666666666666667,-0.8355555555555556,-0.005464357305680694,-0.09612818728335037,2.1050128465844384
1589543612.7596908,-2.035653231199465,-2.823768820799643,9.199711025999555,0.5333333333333333,-0.02666666666666667,-0.8355555555555556,0.02127941238172175,-0.049908951201402936,2.097035161792639
1589543612.7696908,-2.031907690522468,-2.6061846189550635,8.566753793043427,0.54,-0.10666666666666667,-0.8211111111111111,0.012099832627068907,-0.06036489389423948,2.072472761187167
1589543612.7796907,-2.056242928838734,-2.557514142322532,9.290727132952336,0.54,-0.10666666666666667,-0.8211111111111111,-0.014445794427701103,-0.106819741240087,2.057209025630674
1589543612.7896907,-1.9468842105263158,-2.3706736842105265,8.888884210526315,0.54,-0.10666666666666667,-0.8211111111111111,0.010047125628256829,-0.06040217103415113,2.0604300765550425
1589543612.7996907,-1.805802952197586,-2.186819245181459,8.333638490362917,0.54,-0.10666666666666667,-0.8211111111111111,-0.0033655798262267195,-0.09042470711728536,2.0451824713882596
1589543612.8096907,-1.7774356777526807,-2.117692966741958,8.961260742010023,0.54,-0.10666666666666667,-0.8211111111111111,-0.019047439881262788,-0.10586671765205649,2.0319941553764362
1589543612.8196907,-1.8588655114589154,-2.1028304080491895,8.64360223588597,0.5224743307869076,-0.16641326625675423,-0.8107550338488293,0.0035187310860043883,-0.0567040547498658,2.0292540050661163
1589543612.8296907,-2.0165303951872904,-2.1194662146441985,8.984520224681756,0.5155555555555555,-0.19,-0.8066666666666666,-0.017699832531276292,-0.10082039853747224,2.0077109092908336
1589543612.8396907,-1.9912996767667372,-2.0530325791223865,9.0,0.5155555555555555,-0.19,-0.8066666666666666,-0.0206312697058025,-0.10566881315971098,2.0071286397934793
1589543612.8496907,-1.8194468085106383,-1.956195744680851,9.0,0.5155555555555555,-0.19,-0.8066666666666666,0.0025297990487683775,-0.07790388520271499,2.027593553639736
1589543612.8596907,-1.8403896984769696,-1.839220603046061,8.784044149384416,0.5155555555555555,-0.19,-0.8066666666666666,0.01596783627544614,-0.05895138505656143,2.033482629903517
1589543612.8696907,-1.8404028378612218,-1.7902014189306108,8.846978716040837,0.4905147372671166,-0.22810559304762454,-0.8131990540462595,-0.010293108709838676,-0.097273943148961,2.0237108155006136
1589543612.8796906,-1.8204785840707964,-1.8778463716814158,9.464924601769912,0.49,-0.2288888888888889,-0.8133333333333334,0.0008037009524559727,-0.07475075286983998,2.0107143646828307
1589543612.8896906,-1.9040749687630154,-1.8589812578092462,9.259303206997085,0.49,-0.2288888888888889,-0.8133333333333334,0.004912145947668339,-0.07264796714369026,2.0046691593932104
1589543612.8996906,-1.9832965699396796,-1.7739779419638078,8.926703430060321,0.49,-0.2288888888888889,-0.8133333333333334,0.010744081667968091,-0.07357834089825195,1.9919469088376998
1589543612.9096906,-2.0203140737531813,-1.6666012346347538,8.809528889370227,0.49,-0.2288888888888889,-0.8133333333333334,0.006540702178504431,-0.0854598313394872,1.985669924382416
1589543612.9196906,-2.0182269025898485,-1.704515398273434,9.362356578705688,0.3850073811030158,-0.31268107512398213,-0.8133333333333334,-0.01833267591020417,-0.09727735456572034,1.9951234903631179
1589543612.9296906,-2.0232619574468083,-1.6503211914893618,9.111713021276595,0.3744444444444445,-0.3211111111111111,-0.8133333333333334,0.013270610967538888,-0.04681851288674529,2.003453607678083
1589543612.9396906,-2.0385103930533677,-1.5008544972528528,8.320230914050795,0.3744444444444445,-0.3211111111111111,-0.8133333333333334,0.03518496126677948,-0.05136100062283222,1.9904185221087152
1589543612.9496906,-2.078553704360156,-1.537830556540234,8.775454330615622,0.3744444444444445,-0.3211111111111111,-0.8133333333333334,-0.006759077797865033,-0.11069451230881736,1.9643631235861132
1589543612.9596906,-2.0704142686192943,-1.4930770984101658,9.054497122343154,0.3744444444444445,-0.3211111111111111,-0.8133333333333334,-0.01440674865352833,-0.1136078286713371,1.9527871909466692
1589543612.9696906,-2.1846381388005294,-1.44,9.19669483851494,0.36518362008250327,-0.34889358419693467,-0.7542065316378628,0.01980667464276959,-0.07951616675035236,1.9536779314511523
1589543612.9796906,-2.080860869565217,-1.3376347826086956,8.854947826086956,0.36,-0.3644444444444445,-0.7211111111111111,0.008531245267628804,-0.06532084435290081,1.9471642488568888
1589543612.9896905,-2.024015802766643,-1.3113386009222143,9.195747155733716,0.36,-0.3644444444444445,-0.7211111111111111,0.0024736989832787994,-0.10026187495472436,1.9101392571862439
1589543612.9996905,-2.240843086568015,-1.3247228724378677,9.120132711840258,0.36,-0.3644444444444445,-0.7211111111111111,0.015029791534588655,-0.07609928534746607,1.8933484325154157
1589543613.0096905,-2.005451308991447,-1.1853076021360658,8.77432423045196,0.36,-0.3644444444444445,-0.7211111111111111,0.015517521347983058,-0.06750856331826394,1.8797115722309712
1589543613.0196905,-1.828261982317357,-1.0917380176826432,8.913955328059563,0.35173801768264307,-0.37913241300863454,-0.7036691484411354,0.018497424171686067,-0.10296955291489113,1.8199727365116254
1589543613.0296905,-1.9102628254955305,-1.0543276331130975,9.318887485425574,0.35,-0.38222222222222224,-0.7,-0.008576619931500627,-0.10141859295807544,1.7268811540211688
1589543613.0396905,-2.1274354656337957,-1.059018933288426,9.026299468328242,0.35,-0.38222222222222224,-0.7,0.008660934510762632,-0.05116578170818908,1.6579388713116399
1589543613.0496905,-2.2028873611024893,-0.9953598919858464,8.860719783971692,0.35,-0.38222222222222224,-0.7,0.03334375951769829,-0.03235362184921091,1.6175441207077805
1589543613.0596905,-2.128666321779617,-0.8768378685980341,8.843162131401966,0.35,-0.38222222222222224,-0.7,0.03590179742207979,-0.045461741336818934,1.5638627061230481
1589543613.0696905,-1.594680175691138,-0.4445893773299376,8.953545196176133,0.35516164486931845,-0.37964139978756306,-0.700737377838474,0.005826017977264226,-0.10358435379583443,1.436187453925201
1589543613.0796905,-1.302585331562915,-0.0017238147309224378,9.209136921034132,0.3655555555555556,-0.3744444444444445,-0.7022222222222222,-0.01965369834582422,-0.1278340700313403,1.1017396867297216
1589543613.0896904,-1.41250356546188,-0.2784352715863249,9.33094168941771,0.3655555555555556,-0.3744444444444445,-0.7022222222222222,-0.0350089962750796,-0.05212247373727524,0.688214612827283
1589543613.0996904,-1.4407800379712503,-0.7355446162191484,9.009922701383239,0.3655555555555556,-0.3744444444444445,-0.7022222222222222,0.049206202039639296,0.0013805947283540715,0.336420497363651
1589543613.1096904,-1.3741046998077866,-0.72230919986432,8.984359099988694,0.3655555555555556,-0.3744444444444445,-0.7022222222222222,0.054112820796707886,0.004782791206487212,0.2428183648349455
1589543613.1196904,-1.256962445692969,-0.5274408024930055,8.973920114641858,0.3557599193261,-0.3801156022614977,-0.7053155810315239,-0.011938348046827835,0.016676587654841125,-0.20258196281279134
1589543613.1296904,-1.2750300587028787,-0.5880048093924606,8.730024046962303,0.34444444444444444,-0.38666666666666666,-0.7088888888888889,-0.027218654406206823,-0.013523940897952561,-0.629990497568717
1589543613.1396904,-0.7933367039237283,-0.36905870244307615,8.41063090229501,0.34444444444444444,-0.38666666666666666,-0.7088888888888889,0.02793579402403954,0.02259131212536959,-0.9516549091034124
1589543613.1496904,-0.6430764698951338,-0.3323070578531872,8.396922351832213,0.34444444444444444,-0.38666666666666666,-0.7088888888888889,0.0028113281142388355,0.04296204968725113,-1.4990927432416983
1589543613.1596904,-1.0736877387289265,-0.5799176241390418,9.575708171624047,0.34444444444444444,-0.38666666666666666,-0.7088888888888889,-0.026847532774277164,0.045308206827421635,-1.948607657472114
1589543613.1696904,-0.7997068131388454,-0.7858455494525481,9.361104725182788,0.37220447904162574,-0.3814018325189254,-0.6964447354487732,0.0031541282201681675,0.074914374306529,-2.435568132804811
1589543613.1796904,-0.4320458452722063,-1.277068576886342,8.91509188156638,0.4088888888888889,-0.3744444444444445,-0.68,-0.011200904689297235,0.1266355561473288,-3.0503052657859357
1589543613.1896904,-0.958109738110066,-1.8914267920941361,9.98313415713396,0.4088888888888889,-0.3744444444444445,-0.68,-0.014488109182108695,0.20515599091498227,-3.6276880740780246
1589543613.1996903,-0.7269384359400999,-1.8675684204486775,8.132081014401285,0.4088888888888889,-0.3744444444444445,-0.68,0.02150224058420649,0.26142593049929536,-4.119919221097099
1589543613.2096903,-0.6122483336600666,-2.1759439325622427,8.360416584983337,0.4088888888888889,-0.3744444444444445,-0.68,-0.06071456463683648,0.15298107819537296,-4.553173128512542
1589543613.2196903,-0.9836665625075114,-2.899656515155157,10.016101723433406,0.4195308564820379,-0.3536442350578351,-0.6862884353959517,-0.10257008195825906,0.11056167665568699,-4.991174367811308
1589543613.2296903,-1.131088148460565,-3.054853085899058,8.515175968883266,0.43333333333333335,-0.32666666666666666,-0.6944444444444444,-0.02196736591833823,0.2662204755284239,-5.321165900520634
1589543613.2396903,-0.9127827695560253,-3.3807928118393233,8.300264270613107,0.43333333333333335,-0.32666666666666666,-0.6944444444444444,-0.03502910171075364,0.23184161143873344,-5.6703393347568
1589543613.2496903,-1.1156999071181288,-3.7520881533395256,8.855380224605252,0.43333333333333335,-0.32666666666666666,-0.6944444444444444,-0.06506120797286719,0.24108428741797613,-5.870717125828787
1589543613.2596903,-1.3931950485112077,-3.9741795675050944,9.34221052951732,0.43333333333333335,-0.32666666666666666,-0.6944444444444444,-0.02564499077246421,0.29936044165124925,-6.015196892088828
1589543613.2696903,-1.5664388300456709,-4.024258089592848,8.590670100087454,0.46082583487189455,-0.2835411740571589,-0.7014523369934894,0.017712268107135533,0.3433850928475904,-6.096999519342011
1589543613.2796903,-1.9634652141424471,-4.366004247453494,8.733090808982578,0.49,-0.23777777777777775,-0.7088888888888889,-0.040327834275837034,0.26971101053271734,-6.10029463704156
1589543613.2896903,-2.0476719796386216,-4.356491452914312,8.62098232820087,0.49,-0.23777777777777775,-0.7088888888888889,-0.060035014849479394,0.2523253120607976,-5.9862896169342905
1589543613.2996902,-1.7383905265168398,-4.070355892277329,8.456611065130197,0.49,-0.23777777777777775,-0.7088888888888889,-0.06669665951986177,0.2190226673569043,-5.8201851782605125
1589543613.3096902,-1.6309221926199418,-4.144489920073843,9.495435188487278,0.49,-0.23777777777777775,-0.7088888888888889,-0.0462147581251533,0.21502066725324837,-5.6382609950885625
1589543613.3196902,-1.6013838657990256,-4.097519701775612,8.439948987933684,0.560310359736801,-0.19033946277463493,-0.6927937462985368,-0.024516636749640924,0.2871277002446704,-5.413539808007264
1589543613.3296902,-1.58,-4.05,7.96,0.5822222222222222,-0.17555555555555555,-0.6877777777777778,-0.02399827721492203,0.3021601267515183,-5.366887449882563
1589543613.3396902,-1.5660559634487305,-4.036055963448731,8.768754119973632,0.5822222222222222,-0.17555555555555555,-0.6877777777777778,-0.034645686226588396,0.24435990640247235,-5.11895492575376
1589543613.3496902,-1.2739263632560085,-3.8969424945376785,8.28839059086049,0.5822222222222222,-0.17555555555555555,-0.6877777777777778,-0.01024126360977427,0.2526399285259005,-4.861053379190211
1589543613.3596902,-1.170389014580191,-4.020405354449472,8.902804801407743,0.5822222222222222,-0.17555555555555555,-0.6877777777777778,-0.040953045259606774,0.1989430746705917,-4.6797364499029035
1589543613.3696902,-1.0660871349829952,-4.064347953559282,9.373043860677848,0.7345569628500319,-0.23790651916135672,-0.6289694825586698,-0.05748206174314853,0.17160820152582848,-4.465877214375229
1589543613.3796902,-0.9762724172331392,-3.9825448344662786,8.5098932788901,0.8211111111111111,-0.2733333333333333,-0.5955555555555555,-0.006816762338605148,0.21539017272711672,-4.255139456306142
1589543613.3896902,-0.8514983115854421,-3.804097636219619,8.81213386417643,0.8211111111111111,-0.2733333333333333,-0.5955555555555555,-0.03518269206018623,0.17090508404907423,-4.119270490788638
1589543613.3996902,-0.7280782499398283,-3.69,9.120223571256652,0.8211111111111111,-0.2733333333333333,-0.5955555555555555,-0.05391264788825289,0.15507101976536106,-3.988007940479934
1589543613.4096901,-0.7056069087503901,-3.69560690875039,8.630695661221518,0.8211111111111111,-0.2733333333333333,-0.5955555555555555,-0.021482545175972183,0.1877741422327943,-3.8441070403030158
1589543613.4196901,-0.9061824985750044,-3.932321379891453,8.79529354910659,1.1916780528638973,-0.07026723831710077,-0.5227041598858901,-0.0274884977753981,0.15622299354202718,-3.6842039357806
1589543613.4296901,-1.1247344778623982,-3.906858654963212,8.786873628501356,1.5388888888888892,0.12,-0.4544444444444444,-0.05080970662260774,0.12716704471754314,-3.4385393216837152
1589543613.43969,-1.1803672695679646,-3.9324484637864305,8.71318300292236,1.5388888888888892,0.12,-0.4544444444444444,-0.03801882580729197,0.12641618208452587,-3.1327774381769578
1589543613.44969,-1.3012476421449743,-4.02354441749753,9.020693134524986,1.5388888888888892,0.12,-0.4544444444444444,-0.017347439573266118,0.11450698846307725,-2.723992098937977
1589543613.45969,-1.4989872876176507,-4.0289872876176505,9.089462015646008,1.5388888888888892,0.12,-0.4544444444444444,-0.010666667672711877,0.104712854924941,-2.2850316986938477
1589543613.46969,-1.6682755602240895,-4.222417717086835,9.133795518207283,1.4691448801742921,0.13369971599751013,-0.4786824035169623,-0.01077644181388021,0.08905252613145634,-1.8823687839668475
1589543613.47969,-1.4563675281016915,-4.4765970690198555,8.793152642084252,0.73,0.2788888888888889,-0.7355555555555555,0.028131579325035384,0.06707583686184138,-0.8574068610496399
1589543613.48969,-0.9122364989352284,-4.28120426865743,9.050249563324002,0.73,0.2788888888888889,-0.7355555555555555,0.02500981376352228,0.0026320569896515766,-0.1681000173445959
1589543613.49969,-0.6073741455493032,-4.073693115298916,9.234244873295818,0.73,0.2788888888888889,-0.7355555555555555,-0.0026394323137032324,-0.05534461534650737,0.2865730574755748
1589543613.50969,-0.5491301772099733,-4.0,8.62752859056254,0.73,0.2788888888888889,-0.7355555555555555,0.007256929914370807,-0.037767487130504165,0.6443361040396023
1589543613.51969,-0.5141408797293141,-4.084581974776992,8.652073823438942,0.6119376602071158,0.3170682525035032,-0.7355555555555555,0.029606107072769852,-0.0417065107464128,1.0077122282736146
1589543613.52969,-0.23502886721083022,-3.8891406198155156,8.773710929723272,0.5066666666666667,0.3511111111111111,-0.7355555555555555,0.017392340929335955,-0.06832383750832968,1.298762066619025
1589543613.53969,0.054297807894685746,-3.6410490651030036,8.508138749199075,0.5066666666666667,0.3511111111111111,-0.7355555555555555,0.027054818828311754,-0.052968970460108185,1.483158876252998
1589543613.54969,0.22210071210579857,-3.5980671414038654,8.801315700237367,0.5066666666666667,0.3511111111111111,-0.7355555555555555,0.021199439942707905,-0.06979781929053154,1.5697757767342293
1589543613.55969,0.28365116238753185,-3.5890465128374043,9.023542638212298,0.5066666666666667,0.3511111111111111,-0.7355555555555555,0.01280161774785311,-0.07474727741841823,1.5373433381166308
1589543613.56969,0.3271244192049561,-3.440543796248494,8.901917053863363,0.5043225810563619,0.34039529117828893,-0.7419180736406688,0.01830484509947604,-0.05687299985767531,1.4620852435548273
1589543613.57969,0.3536247672895263,-3.2544586177572454,9.066126318692683,0.4988888888888889,0.31555555555555553,-0.7566666666666667,-0.0033861910672627824,-0.09817035786135575,1.3083147466771066
1589543613.58969,0.30581124956920785,-3.2241143821080698,9.16370064029312,0.4988888888888889,0.31555555555555553,-0.7566666666666667,-0.008224592238185991,-0.10494644515385218,1.1651807211840652
1589543613.59969,0.3290450495225248,-2.9729149064574534,8.698190209095104,0.4988888888888889,0.31555555555555553,-0.7566666666666667,0.02018309955429037,-0.04723461092896011,1.0379559463741765
1589543613.60969,0.36638226264549917,-2.8363566515079377,9.01819113132275,0.4988888888888889,0.31555555555555553,-0.7566666666666667,0.011409981458792162,-0.06415471484952039,0.8490833326429517
1589543613.61969,0.2562070890315378,-2.8776723416131733,8.96310354451577,0.4988888888888889,0.31555555555555553,-0.7566666666666667,-0.023142478909145437,-0.09945831566023923,0.7289008617979513
1589543613.62969,-0.06442863916548128,-3.5125378629403397,9.027411653139207,0.5366666666666666,0.2644444444444444,-0.7511111111111111,0.013920483095081322,-0.03427681608423729,0.5270444779880372
1589543613.63969,-0.20171856674405803,-3.6321482084300727,8.885644462529022,0.5366666666666666,0.2644444444444444,-0.7511111111111111,0.02803353388132404,-0.01284918714346564,0.44165876511453556
1589543613.64969,-0.27888298437666065,-3.796648953129982,9.036090445318312,0.5366666666666666,0.2644444444444444,-0.7511111111111111,0.018605047053763153,-0.027269610214146447,0.4077293363449109
1589543613.65969,-0.34917527362417144,-3.9937629104362573,9.128427624479729,0.5366666666666666,0.2644444444444444,-0.7511111111111111,0.023278567680609586,-0.024507118581938263,0.407071075735784
1589543613.66969,-0.469139183792734,-4.419666893932016,8.795933378786403,0.5241945174940207,0.2556405744402238,-0.7511111111111111,0.05377954064697488,0.02148778334528058,0.46626504115874734
1589543613.67969,-7.220184861163942,-12.08495777862305,7.329009509319132,0.4988888888888889,0.23777777777777775,-0.7511111111111111,0.018134926909249185,0.08095956033265575,0.5200257135213152
1589543613.6896899,-11.472687470430532,-13.400185893392209,3.4381051884560794,0.4988888888888889,0.23777777777777775,-0.7511111111111111,-1.0336059045838906,0.08133383376724271,-2.5171743245982046
1589543613.6996899,1.0291198926084402,0.43302038761641093,5.792506921721621,0.4988888888888889,0.23777777777777775,-0.7511111111111111,-2.5732991024139134,-0.5968098208741243,-8.544087551179611
1589543613.7096899,-4.996504795536703,-10.703294397893725,10.001754184340848,0.4988888888888889,0.23777777777777775,-0.7511111111111111,-2.582154193514889,-0.055318730699530416,-10.939190528377544
1589543613.7196898,-5.1045543720286455,-8.624690979117773,8.995947523620389,0.49594090389360296,0.24465640943344497,-0.7471804644507298,-1.591966137624465,1.8693032174703053,-7.844418467484545
1589543613.7296898,0.6466078819859937,-0.45630911979912503,6.30987759185515,0.4922222222222222,0.2533333333333333,-0.7422222222222222,-0.5229646527701902,1.2309523050939202,-5.296547427600898
1589543613.7396898,0.356734401781139,-1.6858659198134045,5.974195041789621,0.4922222222222222,0.2533333333333333,-0.7422222222222222,0.7502821553467331,0.24243865931707184,-4.495288173101367
1589543613.7496898,-1.1996471295036488,-1.848915413567049,4.410402169879667,0.4922222222222222,0.2533333333333333,-0.7422222222222222,1.5837960120262973,0.7048731171451132,-4.285090692270439
1589543613.7596898,2.4961002966258805,-5.795020084043999,14.731621245828698,0.4922222222222222,0.2533333333333333,-0.7422222222222222,3.112700636608371,0.7071615915438647,-3.7264719256674312
1589543613.7696898,0.35773822766036334,3.548974168829563,5.750500556173527,0.4922222222222222,0.2533333333333333,-0.7422222222222222,3.173489376162836,0.7538134149228726,-3.227438784673801
1589543613.7796898,2.5431234158705402,-2.3631615742417065,5.0741960281870595,0.3566666666666667,0.4511111111111111,-0.7211111111111111,-0.6101860021182033,-0.04555557635289928,-1.9148718762617098
1589543613.7896898,4.455306690525897,-4.576432050899692,8.569706730291282,0.3566666666666667,0.4511111111111111,-0.7211111111111111,-0.21775569874884387,-0.19555226597980108,-1.7563095661459247
1589543613.7996898,2.0163728902953584,-0.49748892405063294,8.094743143459915,0.3566666666666667,0.4511111111111111,-0.7211111111111111,0.3517628182776015,0.24192095291930157,-1.7042290571117304
1589543613.8096898,2.46337887973939,-1.0183024160709437,7.920732060447018,0.3566666666666667,0.4511111111111111,-0.7211111111111111,0.15089885049805277,0.23605034576847508,-1.5340055884678603
1589543613.8196898,3.5862612500239868,-3.4821912839899447,9.237992554355126,0.34749948294132826,0.45661142134631416,-0.7245160650662368,-0.09679464791080156,0.03934022155089379,-1.1203876265874013
1589543613.8296897,2.1651900037053813,-2.2401482152414673,8.833521758820865,0.31777777777777777,0.4744444444444445,-0.7355555555555555,-0.029861880023777994,0.04742232896214264,-0.8182029826260602
1589543613.8396897,1.9126296810961987,-3.3442908655960317,8.996539726653884,0.31777777777777777,0.4744444444444445,-0.7355555555555555,0.0330646004786849,0.019682136243458638,-0.34178851571345037
1589543613.8496897,1.7355712157671594,-3.8548565753790918,8.832571712310454,0.31777777777777777,0.4744444444444445,-0.7355555555555555,-0.027738500602643063,0.01837283857890578,-0.08655057495200041
1589543613.8596897,1.7730286327958433,-3.8939427344083133,8.783714209005197,0.31777777777777777,0.4744444444444445,-0.7355555555555555,-0.003933237524006197,0.003983094032866803,0.018974208908419377
1589543613.8696897,1.7995249451191586,-3.8409501097616827,8.750593818601052,0.31777777777777777,0.4744444444444445,-0.7355555555555555,-0.009713836144988696,0.005428243688112427,0.01319361028743688
1589543613.8796897,1.7565921896250243,-3.833798814843598,8.727485914124733,0.2788888888888889,0.4711111111111111,-0.7233333333333334,0.00616106397174339,0.00037782758451438856,0.0058076089421128345
1589543613.8896897,1.7339919443226655,-3.9640725010960107,8.920201391933363,0.2788888888888889,0.4711111111111111,-0.7233333333333334,0.008489147865689623,0.0037123396128120835,0.0008753008402402648
1589543613.8996897,1.7729596772533602,-3.8440806454932797,8.74940020171665,0.2788888888888889,0.4711111111111111,-0.7233333333333334,0.011222581510463661,0.001989666545724296,-0.00019199501926861647
1589543613.9096897,1.812028486717621,-3.751992878320595,8.696085460152863,0.2788888888888889,0.4711111111111111,-0.7233333333333334,-0.0050193753089073576,0.002185545838552063,0.0006560521789215339
1589543613.9196897,1.787032285939898,-3.7582419285150253,8.621096857819694,0.2788888888888889,0.4711111111111111,-0.7233333333333334,-0.003656044046217245,-0.00122278231817322,-0.0007072790837685792
1589543613.9296896,1.775163390509578,-3.7517647427068987,8.661764742706898,0.2788888888888889,0.5044444444444445,-0.7355555555555555,-0.0038713771579622558,0.0009589327196197874,-0.002049763502116243
1589543613.9396896,1.7530119011290815,-3.8514464449191332,8.793976197741838,0.2788888888888889,0.5044444444444445,-0.7355555555555555,0.009055193706515438,0.00035484455726006166,-0.001090830782496456
1589543613.9496896,1.7750575680988487,-3.737413647851727,8.720230272395394,0.2788888888888889,0.5044444444444445,-0.7355555555555555,0.010381731550010499,-0.0002570084320456408,-0.001090830782496456
1589543613.9596896,1.7618063504508037,-3.7609031752254016,8.658193649549197,0.2788888888888889,0.5044444444444445,-0.7355555555555555,0.004813766542875579,-0.004215541429307354,-0.001090830782496456
1589543613.9696896,1.7978577797150839,-3.7907111014245802,8.638208872421785,0.2782938276986344,0.5028972853497828,-0.7340083964608939,-0.008025606311069208,-0.001090830782496456,-0.001207670773980196
1589543613.9796896,1.7812371460838898,-3.873814269580551,8.779484258286937,0.2736769850233027,0.4908934943939204,-0.7220046055050315,-0.0025865166742184784,-0.001090830782496456,-0.0021141857134553176
1589543613.9896896,1.7764988876529477,-3.7854004449388206,8.773501112347052,0.2733333333333333,0.49,-0.7211111111111111,0.0060432510703265835,0.002770758722837216,0.0
1589543613.9996896,1.7429933558689823,-3.7970066441310175,8.800271593425808,0.2733333333333333,0.49,-0.7211111111111111,0.007717446595596503,0.004281692011864513,-0.00016326223624262145
1589543614.0096896,1.7739543388021348,-3.786197865190749,8.696121763194308,0.2733333333333333,0.49,-0.7211111111111111,0.005649076036889632,0.002173360124960077,-0.001961835120487054
1589543614.0196896,1.752457532941737,-3.8850849341165263,8.757542467058263,0.27387945176483036,0.48967232894110174,-0.7215480058563088,-0.006384139540068002,-0.0021280465133560007,-0.001090830782496456
1589543614.0296896,1.7884553940910404,-3.79865845443172,8.7388615147724,0.28444444444444444,0.4833333333333333,-0.73,-0.0010686803354647218,-0.0014056610699285483,-0.00014633992020017896
