time,acc_x,acc_y,acc_z,mag_x,mag_y,mag_z,gyr_x,gyr_y,gyr_z
1589543656.5192144,-0.17,-4.13,8.78,0.4777777777777778,0.27555555555555555,-0.6766666666666666,-0.001090830782496456,-0.001090830782496456,-0.0643590161672909
1589543656.5292144,-0.23490338304415948,-4.14622584576104,8.853016305924678,0.4777777777777778,0.27555555555555555,-0.6766666666666666,-0.001975813383905552,-0.00020584818108735996,-0.07409382478279095
1589543656.5392144,-0.2825048979014764,-4.143499020419704,8.876500979580296,0.5030593650344817,0.2704992381042148,-0.6766666666666666,-5.422097222281463e-05,0.0,-0.07635815477475191
1589543656.5492144,-0.29435977914728856,-4.111798895736443,8.846158674883732,0.5166666666666667,0.2677777777777778,-0.6766666666666666,0.00047557812987485517,0.0006152526526216008,-0.0702056282485359
1589543656.5592144,-0.27356194848984866,-4.155752206040606,8.828219025755075,0.5166666666666667,0.2677777777777778,-0.6766666666666666,-0.004482783147883868,-0.0015988391062338651,-0.05469116739486607
1589543656.5692143,-0.28834532773389077,-4.150827336133055,8.852482008399164,0.5166666666666667,0.2677777777777778,-0.6766666666666666,-0.007455318733193685,-0.005048036237848889,-0.03527542884525701
1589543656.5792143,-0.2573069024845984,-4.1663465487577005,8.899039646273103,0.5166666666666667,0.2677777777777778,-0.6766666666666666,-0.004069551762979351,0.0025699394451333636,-0.021732360964399677
1589543656.5892143,-0.1995806313033161,-4.17,8.929580631303315,0.4777777777777778,0.2677777777777778,-0.6844444444444444,-0.00772730753418684,9.14920567116476e-05,-0.0005418784422265704
1589543656.5992143,-0.1910003477691631,-4.17,8.921000347769162,0.4777777777777778,0.2677777777777778,-0.6844444444444444,-0.00959923501450715,0.0019634195370319576,0.010689686439695287
1589543656.6092143,-0.11633731542896388,-4.116427138493791,8.826247492364136,0.4777777777777778,0.2677777777777778,-0.6844444444444444,-0.012008936783870276,-9.798176409259694e-06,0.0207649775730697
1589543656.6192143,-0.012891425330544826,-4.014502853496863,8.838720002835773,0.4777777777777778,0.2677777777777778,-0.6844444444444444,-0.01766522557863895,-0.003835984495705342,0.03057941542383626
1589543656.6292143,0.06312582289591843,-3.9936874177104085,8.843687417710408,0.4777777777777778,0.2677777777777778,-0.6844444444444444,-0.022675698749556994,-0.005051919037838698,0.02612532542957423
1589543656.6392143,0.12460276655649406,-3.8833880115885258,8.848200922185498,0.49417962214877387,0.2677777777777778,-0.6780659494112793,-0.029562017179818163,-0.008137899421922085,0.012172464394666354
1589543656.6492143,-0.4317201241593379,-3.6034117951370925,8.593411795137094,0.4977777777777778,0.2677777777777778,-0.6766666666666666,-0.03432561748138679,-0.020073712974429735,0.0045221792423876615
1589543656.6592143,-0.28405622204869735,-3.759961666784979,9.028922055796125,0.4977777777777778,0.2677777777777778,-0.6766666666666666,-0.0546479739165131,-0.05061092433675434,0.0012000532442492245
1589543656.6692142,-0.31913185946317685,-3.4972121199862456,8.638948401059892,0.4977777777777778,0.2677777777777778,-0.6766666666666666,-0.06449195282589121,-0.07157779665983585,0.03993459146287401
1589543656.6792142,-0.3235568149322796,-3.6830909610835265,9.111954662437935,0.4977777777777778,0.2677777777777778,-0.6766666666666666,-0.04142925232446615,-0.06828662517938196,0.05914658221191471
1589543656.6892142,-0.27345591160220994,-3.654669171270718,8.81334585635359,0.4917442848373235,0.2634681399631676,-0.6697712461632904,-0.052075128538772456,-0.06315589610778077,0.09324194925258039
1589543656.6992142,-0.1384663699006037,-3.5861345203975854,8.843336331483627,0.49,0.26222222222222225,-0.6677777777777778,-0.05976480861471558,-0.03445655664431493,0.17109313975980514
1589543656.7092142,-0.24077260808585887,-3.1769095676565646,9.246167144338068,0.49,0.26222222222222225,-0.6677777777777778,-0.056974838768368306,-0.055381330491919435,0.1822530191451942
1589543656.7192142,-0.3701536967586392,-2.812405906777391,8.878924122689526,0.49,0.26222222222222225,-0.6677777777777778,0.003981802653051203,-0.010604808194246536,0.21703255305250652
1589543656.7292142,-0.21071472964574273,-2.7780422622747047,8.859285270354256,0.49,0.26222222222222225,-0.6677777777777778,0.02465047063491059,0.005229072607455044,0.29145656155944
1589543656.7392142,-0.3034742010011552,-2.8865623796688484,9.042665575664229,0.4633333333333333,0.26222222222222225,-0.6888888888888889,-0.022654795405982905,-0.043422688777822675,0.38657917237990497
1589543656.7492142,-0.3640387947631883,-3.0009621678860223,8.914806988833268,0.4633333333333333,0.26222222222222225,-0.6888888888888889,-0.018250413858981667,-0.03975237082198832,0.4130054616619123
1589543656.7592142,-0.38502150202555313,-3.0649354939233406,8.755451542536616,0.4633333333333333,0.26222222222222225,-0.6888888888888889,-0.0033287845187518813,-0.025145400168681005,0.4628911361630939
1589543656.7692142,-0.3454442932140774,-3.169844837643399,8.774400544429321,0.4633333333333333,0.26222222222222225,-0.6888888888888889,0.011325254189388345,-0.015768581474761623,0.5643549115455598
1589543656.7792141,-0.32282594475977466,-3.2386962209609016,8.944784883843607,0.4633333333333333,0.26222222222222225,-0.6888888888888889,-0.004434790004411403,-0.03623492521922606,0.64475317284774
1589543656.7892141,-0.3722383508172725,-3.2587063918028787,8.894229690168334,0.4633333333333333,0.25641796102030306,-0.6656718440812123,-0.0023608276602150972,-0.034136031116803287,0.7176413783296405
1589543656.7992141,-0.39257202881152464,-3.316574129651861,8.88,0.4633333333333333,0.25555555555555554,-0.6622222222222223,0.008508938435733908,-0.027925038865778497,0.7672300362395755
1589543656.809214,-0.407538231574106,-3.334923536851788,8.84230884212947,0.4633333333333333,0.25555555555555554,-0.6622222222222223,0.0034909846118459063,-0.03824580407201297,0.8421030518768184
1589543656.819214,-0.4729070208728653,-3.3569601518026566,8.78506641366224,0.4633333333333333,0.25555555555555554,-0.6622222222222223,0.000980298782903836,-0.044502998083169445,0.9133805576673257
1589543656.829214,-0.48708697601434653,-3.409608832100426,8.872130688186505,0.4633333333333333,0.25555555555555554,-0.6622222222222223,0.01114072985113871,-0.040085647127596734,0.9698198449877236
1589543656.839214,-0.5017372711479353,-3.447605906721903,8.980423626887612,0.4874599462485337,0.2438182844076202,-0.665482575318871,0.008869942619612704,-0.047141441056848706,1.032085324686477
1589543656.849214,-0.5190209385724752,-3.414895307137624,8.97587436856515,0.5044444444444445,0.23555555555555555,-0.6677777777777778,0.00042719613723957856,-0.05640280358688601,1.109595907030193
1589543656.859214,-0.5331171770972037,-3.4034414114513982,8.83226964047936,0.5044444444444445,0.23555555555555555,-0.6677777777777778,0.007869741306398033,-0.05028432143912641,1.149885180076242
1589543656.869214,-0.5472566281093254,-3.4072566281093253,8.83982290920258,0.5044444444444445,0.23555555555555555,-0.6677777777777778,0.00645811128431416,-0.05323832630237258,1.2094416853113668
1589543656.879214,-0.5854515225029279,-3.41,8.898361218002343,0.5044444444444445,0.23555555555555555,-0.6677777777777778,0.002816458648683442,-0.061819827832528776,1.2598074195728237
1589543656.889214,-0.6526714688380834,-3.480228625117445,8.874885687441276,0.4985920590179908,0.23165396527125307,-0.6755809583463827,0.006012038869518519,-0.059571044536633894,1.3143093156533794
1589543656.899214,-0.715130216959258,-3.513627235839682,8.87,0.4977777777777778,0.2311111111111111,-0.6766666666666666,0.006544984694978735,-0.06405952548665435,1.3568469999822725
1589543656.909214,-0.7551278255122273,-3.5618797091870453,8.87837594183741,0.4977777777777778,0.2311111111111111,-0.6766666666666666,0.006544984694978735,-0.06544984694978735,1.4079262788169653
1589543656.919214,-0.7183643468552289,-3.461747301823595,8.796728693710458,0.4977777777777778,0.2311111111111111,-0.6766666666666666,0.00745333373697197,-0.06817489407576706,1.4540490154441157
1589543656.929214,-0.7395635775862068,-3.4498545258620688,8.927817887931035,0.4977777777777778,0.2311111111111111,-0.6766666666666666,0.007098334469612579,-0.06818485828941412,1.4810625648283051
1589543656.939214,-0.7755649819494586,-3.4544350180505417,8.996525270758122,0.5051977537103891,0.21967198154833534,-0.6800674889691135,0.008973166140781317,-0.06641741779187899,1.5073571330103552
1589543656.949214,-0.8200474756831866,-3.4550237378415933,8.930237378415933,0.5244444444444445,0.19,-0.6888888888888889,0.015271630954950384,-0.06326818538479445,1.523890603147549
1589543656.959214,-0.8578549949883061,-3.46,8.931253758770465,0.5244444444444445,0.19,-0.6888888888888889,0.010713868058021072,-0.0655470668332591,1.5421216547352663
1589543656.969214,-0.9291021920708992,-3.4277624406886003,8.893881220344301,0.5244444444444445,0.19,-0.6888888888888889,0.011071027729933638,-0.06712677309977431,1.554759304867388
1589543656.979214,-0.98,-3.416094051587998,8.88,0.5244444444444445,0.19,-0.6888888888888889,0.011334380701230065,-0.06997229343308348,1.5658195429423454
1589543656.989214,-1.0290449438202247,-3.435449438202247,8.912696629213483,0.537765293383271,0.17546816479400748,-0.6967602996254681,0.007439711067138751,-0.07437259762009543,1.5754538065403871
1589543656.999214,-1.1093617436818874,-3.37702121010898,8.78255302527245,0.5488888888888889,0.16333333333333333,-0.7033333333333334,0.011465334145013627,-0.06948823450900181,1.5938894628703095
1589543657.009214,-1.1142538652895426,-3.3082847876058823,8.826192020656864,0.5488888888888889,0.16333333333333333,-0.7033333333333334,0.00995593907868825,-0.07577998732408026,1.610603217602385
1589543657.019214,-1.1284822091967308,-3.3192858911912824,8.970089573185833,0.5488888888888889,0.16333333333333333,-0.7033333333333334,0.00897987965883073,-0.07710808405248983,1.634668418002148
1589543657.029214,-1.126858569185555,-3.2908635613349975,8.895156407262773,0.5488888888888889,0.16333333333333333,-0.7033333333333334,0.01196773863123472,-0.06987597003222579,1.6503327739884588
1589543657.039214,-1.2245161394448032,-3.3645161394448033,8.990794060684312,0.5533553905745642,0.13921422423068647,-0.6988668316476581,0.007827996058845935,-0.08604841517367064,1.6651004084820353
1589543657.049214,-1.3084664462348066,-3.364942951613654,9.021647650537885,0.5544444444444444,0.13333333333333333,-0.6977777777777778,0.008367184674867334,-0.08325015502765146,1.6788134663164127
1589543657.0592139,-1.3113462063488124,-3.3080772380928742,8.829616539673873,0.5544444444444444,0.13333333333333333,-0.6977777777777778,0.011558593609998,-0.07426044908716392,1.6866341305270913
1589543657.0692139,-1.4355970676079284,-3.3793244637523756,8.9123763236492,0.5544444444444444,0.13333333333333333,-0.6977777777777778,0.0062305008163866275,-0.08029645966610553,1.6997735758280503
1589543657.0792139,-1.4565817103470384,-3.3021503566562473,9.00101306403783,0.5544444444444444,0.13333333333333333,-0.6977777777777778,0.006655492838689206,-0.07722796926982743,1.7297403472628559
1589543657.0892138,-1.4366637027780447,-3.1766903777756417,8.88006224166106,0.5544444444444444,0.1059381108013714,-0.7014798348766916,0.01817631001037958,-0.06945117636941335,1.7704067208283474
1589543657.0992138,-1.44,-3.069184355289306,8.882734080239624,0.5544444444444444,0.09222222222222222,-0.7033333333333334,0.009684017488767318,-0.08614430903590183,1.815244558846485
1589543657.1092138,-1.535445870837637,-3.0586768973488763,8.847938615906743,0.5544444444444444,0.09222222222222222,-0.7033333333333334,0.0027589740050923597,-0.08959245227473425,1.8625313497953846
1589543657.1192138,-1.533235910292956,-3.026471820585912,8.80228079815915,0.5544444444444444,0.09222222222222222,-0.7033333333333334,0.00492467932893925,-0.09401982043795327,1.890080102900675
1589543657.1292138,-1.4991642314436002,-2.9691642314436004,8.950461718293395,0.5544444444444444,0.09222222222222222,-0.7033333333333334,0.0010436528293084162,-0.11394942036700122,1.931091167592424
1589543657.1392138,-1.545186047937228,-2.934529516336664,9.094529516336664,0.5572744981848151,0.07335519728641779,-0.7155968995416062,-0.005917220372899613,-0.11803647662041512,1.9540168894132977
1589543657.1492138,-1.6957726289547972,-2.8696909484180813,9.080206034387945,0.5611111111111111,0.04777777777777778,-0.7322222222222222,-0.001034643619340408,-0.10799224746714917,1.9970185895939647
1589543657.1592138,-1.7142423864426108,-2.7943801343621364,9.034104638523086,0.5611111111111111,0.04777777777777778,-0.7322222222222222,0.011551392002260748,-0.10522760559319726,2.0566968559525174
1589543657.1692138,-1.653906750352248,-2.707347252465736,8.866414755988217,0.5611111111111111,0.04777777777777778,-0.7322222222222222,0.013891430305597238,-0.10320276398278723,2.1243561314517243
1589543657.1792138,-1.5896733840622126,-2.5812837193745297,8.97001137218831,0.5611111111111111,0.04777777777777778,-0.7322222222222222,0.0067206450278603875,-0.11140601238892822,2.165405988071163
1589543657.1892138,-1.5291496005809733,-2.4837244008714596,9.034047204066812,0.5611111111111111,0.025474178972000324,-0.7273998224804326,0.010965859645115879,-0.11011635721199074,2.188171337321673
1589543657.1992137,-1.6055863694917725,-2.4771321974576477,8.991396592372944,0.5611111111111111,0.006666666666666667,-0.7233333333333334,0.02212130484013035,-0.09818290996361174,2.181212670746541
1589543657.2092137,-1.6791694170846436,-2.5583388341692874,8.93732893266457,0.5611111111111111,0.006666666666666667,-0.7233333333333334,0.01801646839054998,-0.09684765297745555,2.148861999311872
1589543657.2192137,-1.7260724712347586,-2.4573535978018204,8.855069551777435,0.5611111111111111,0.006666666666666667,-0.7233333333333334,0.02423225414216539,-0.08213133407321933,2.1200523865478034
1589543657.2292137,-1.7459557538499497,-2.3861769846002017,8.889557538499496,0.5611111111111111,0.006666666666666667,-0.7233333333333334,0.024672081709412666,-0.07830717066450096,2.0930079079788984
1589543657.2392137,-1.8613575761615893,-2.355152323178455,9.033933737750816,0.5495629180276871,-0.04117584753609018,-0.7390058810894089,0.005901328360649868,-0.09177787431636679,2.068067075026616
1589543657.2492137,-1.8435583870717116,-2.2734006681687515,9.037747649755264,0.5455555555555556,-0.057777777777777775,-0.7444444444444445,0.003078412439796346,-0.09731242847674369,2.0770450366538507
1589543657.2592137,-1.7226437104708363,-2.127980323260717,9.038029515108924,0.5455555555555556,-0.057777777777777775,-0.7444444444444445,0.016949961886220756,-0.09751919875553769,2.1134586543240395
1589543657.2692137,-1.69,-2.1198077465782417,9.03378192465077,0.5455555555555556,-0.057777777777777775,-0.7444444444444445,0.020047498067550306,-0.08086827907008359,2.1289310866405664
1589543657.2792137,-1.7417323086775536,-2.136466538584694,8.673739993595902,0.5455555555555556,-0.057777777777777775,-0.7444444444444445,0.0012293240278566375,-0.09283658059154196,2.115193888744311
1589543657.2892137,-1.740391937745088,-2.06597984436272,8.894643517483797,0.5428140683097304,-0.08683754258352466,-0.7619899628177256,-0.0054826564296265685,-0.11977761719602799,2.089721509638402
1589543657.2992136,-1.7642737133134836,-1.9296958740961292,8.972296894938324,0.54,-0.11666666666666667,-0.78,-0.003272492347489368,-0.1139881048839124,2.061620416433647
1589543657.3092136,-1.9296160448098294,-2.0103577558948413,9.092556689854549,0.54,-0.11666666666666667,-0.78,0.008846579502567925,-0.09724575589883461,2.0571450395316657
1589543657.3192136,-2.072853182439617,-2.1214127297584686,9.239861385386602,0.54,-0.11666666666666667,-0.78,0.03200274312280266,-0.07749128155561268,2.056629995536333
1589543657.3292136,-2.1200568227290915,-2.061525570228091,8.643164785914365,0.54,-0.11666666666666667,-0.78,0.04159938843681995,-0.04206795242047861,2.0260917398939466
1589543657.3392136,-2.2576916512587113,-2.122884369222017,9.032498933295406,0.5394124433066263,-0.11853616523649237,-0.78,0.004510246291843901,-0.08104650855319885,1.9838333286254197
1589543657.3492136,-2.3762691766100943,-2.126030682576151,9.253015341288075,0.5277777777777778,-0.15555555555555556,-0.78,-0.010256040655370108,-0.10712069849110369,1.9138189439379363
1589543657.3592136,-2.2830141554880305,-1.9768226487808493,9.178411324390424,0.5277777777777778,-0.15555555555555556,-0.78,0.0005946737619422996,-0.10169534128244748,1.8609217111535383
1589543657.3692136,-2.3064284781188764,-1.8987302416721097,8.953651208360549,0.5277777777777778,-0.15555555555555556,-0.78,0.011150698832283496,-0.07672181253529156,1.820293622852217
1589543657.3792136,-2.373905857814544,-1.8513069607947115,8.768693039205289,0.5277777777777778,-0.15555555555555556,-0.78,0.012854542447293317,-0.06236471280064914,1.7787702898550173
1589543657.3892136,-2.45545798423304,-1.8216516420970765,8.798348357902924,0.5277777777777778,-0.15555555555555556,-0.78,-0.0065548182527804325,-0.08905258376325054,1.7253945479298145
1589543657.3992136,-2.232970133396293,-1.7091417778302442,9.179141777830244,0.4777777777777778,-0.18777777777777774,-0.8155555555555556,-0.004082470581688723,-0.07892377263571267,1.6102797824854442
1589543657.4092135,-2.0780433230183286,-1.5536519876219947,8.829368959771482,0.4777777777777778,-0.18777777777777774,-0.8155555555555556,0.03502756053656955,-0.03400068396062603,1.5335182688827083
1589543657.4192135,-2.0960096101737777,-1.5455608945409878,8.776233967990173,0.4777777777777778,-0.18777777777777774,-0.8155555555555556,0.031135003815286957,-0.03424142221077516,1.4925790423068788
1589543657.4292135,-2.250833577411985,-1.5699994142112355,8.960833577411986,0.4777777777777778,-0.18777777777777774,-0.8155555555555556,0.001090830782496456,-0.05135991206775051,1.3895361751225175
1589543657.4392135,-2.1596661880832735,-1.4470531227566403,8.970746590093324,0.4681510728244397,-0.20756600462630612,-0.8257170774507459,-0.004684777570915325,-0.04795583425705884,1.2979793914764837
1589543657.4492135,-2.2119603859827324,-1.4179939055358048,9.061975622143219,0.4577777777777778,-0.2288888888888889,-0.8366666666666667,-0.00861806178390801,-0.054431292641472465,1.2120315558733463
1589543657.4592135,-2.316042701595734,-1.43781281047872,9.111302135079786,0.4577777777777778,-0.2288888888888889,-0.8366666666666667,-0.006215406449475386,-0.053740341731016106,1.1874031581335236
1589543657.4692135,-2.48613130842069,-1.488839392526207,9.119806565421033,0.4577777777777778,-0.2288888888888889,-0.8366666666666667,0.00306148795435455,-0.03425886348297326,1.1484402016374378
1589543657.4792135,-2.5602753834668115,-1.4285886385231437,8.983373489887336,0.4577777777777778,-0.2288888888888889,-0.8366666666666667,0.006110029431834533,-0.0036104433325851123,1.1347249869542007
1589543657.4892135,-2.282723971765983,-1.3004879869689154,8.684471969594137,0.4577777777777778,-0.2288888888888889,-0.8366666666666667,0.02163626653996839,-0.0012815077663650334,1.1254092446893202
1589543657.4992135,-2.3026048292472057,-1.2630426727598345,8.9621743963441,0.3977777777777778,-0.27555555555555555,-0.8366666666666667,-0.01062376084631545,-0.04828190978059161,1.0388513787376228
1589543657.5092134,-2.509889155525083,-1.2977008341903782,8.983684150382814,0.3977777777777778,-0.27555555555555555,-0.8366666666666667,-0.010820677378147623,-0.014005539278820055,0.9774327461429482
1589543657.5192134,-2.650532825880114,-1.2737868696479544,9.101627021883921,0.3977777777777778,-0.27555555555555555,-0.8366666666666667,-0.00887506567186222,-0.014977905825124978,0.9222553917323509
1589543657.5292134,-2.6888797986154813,-1.2318969702418412,8.996639395846444,0.3977777777777778,-0.27555555555555555,-0.8366666666666667,0.0015421481663900718,0.0010248297830700312,0.8941993889392907
1589543657.5392134,-2.612414332522989,-1.19,9.019454814501637,0.3881446875477105,-0.2970110747043418,-0.8309743860761724,0.002477307722109223,0.004358226975183337,0.8433685153829101
1589543657.5492134,-2.515950345950346,-1.1650540058232366,9.126166369243291,0.37333333333333335,-0.33,-0.8222222222222222,-0.001825906132750165,-0.007022080153213466,0.777367728161927
1589543657.5592134,-2.5736062359523695,-1.1188661470039691,8.926700779494047,0.37333333333333335,-0.33,-0.8222222222222222,0.0014507199111102502,0.004599528083509996,0.6929481288406227
1589543657.5692134,-2.6142073327866933,-1.1154827222677757,9.011275389481082,0.37333333333333335,-0.33,-0.8222222222222222,-0.0059807222215683626,-0.0032009884344186153,0.6207957977334563
1589543657.5792134,-2.5470862776384773,-1.0683451105539092,8.988213091710357,0.37333333333333335,-0.33,-0.8222222222222222,-0.0019867401082087725,0.003163977021755495,0.5560135694416747
1589543657.5892134,-2.5342143838754008,-0.9915712322491983,8.778854786990381,0.3522614139563292,-0.342174886751158,-0.825500076347534,0.0065994512800873545,0.017913010485997687,0.476777999835983
1589543657.5992134,-2.610968238691049,-1.0236727622714148,9.005759384023099,0.3233333333333333,-0.3588888888888889,-0.83,-0.01389670122178642,-0.01063512768097459,0.38790236593446065
1589543657.6092134,-2.707608606836443,-1.0694021517091108,9.23948386218167,0.3233333333333333,-0.3588888888888889,-0.83,-0.01855303653231171,-0.026701659835086884,0.3204790424458599
1589543657.6192133,-2.7344960400166736,-1.0489920800333472,9.070852230095873,0.3233333333333333,-0.3588888888888889,-0.83,-0.007458231499941223,-0.006883169519689756,0.2549329058533311
1589543657.6292133,-2.5495571641473282,-0.9568038518858191,8.845664663205646,0.3233333333333333,-0.3588888888888889,-0.83,-0.006351671780067514,0.007349302906608712,0.19023607574219226
1589543657.6392133,-2.013772620821801,-0.812554167144331,8.564034326329407,0.3233333333333333,-0.3588888888888889,-0.83,-0.009348852665427981,-0.0008929445281325703,0.137036115027044
1589543657.6492133,-2.5429787624701636,-1.0080329273517352,9.389317583695453,0.24,-0.3922222222222223,-0.7733333333333333,-0.037735040693919565,-0.03632234840200299,0.01737885244879551
1589543657.6592133,-2.1263821221706443,-0.9123403031672349,8.93531939366553,0.24,-0.3922222222222223,-0.7733333333333333,-0.004587780731330142,0.013120799262132535,-0.03759080040784947
1589543657.6692133,-2.502595902676239,-0.9784412426686819,8.947272174670195,0.24,-0.3922222222222223,-0.7733333333333333,0.011904748922540795,0.03332941530364704,-0.1335014227162346
1589543657.6792133,-2.8729307974335474,-1.0562797891842346,9.075337992667277,0.24,-0.3922222222222223,-0.7733333333333333,-0.0021339189711668755,0.021250953399519063,-0.18876871684121532
1589543657.6892133,-2.226336294742674,-0.9384734561427809,8.681756663171017,0.2489765659523668,-0.3911450343079383,-0.7553802014285996,0.0003525089206302483,0.029213669574623766,-0.2625433430695562
1589543657.6992133,-2.4827939668574075,-1.055352760228889,9.276058280686668,0.2677777777777778,-0.3888888888888889,-0.7177777777777777,-0.009794890462577165,-0.008017550326111202,-0.3293344162586128
1589543657.7092133,-2.510463439752832,-1.0618537590113286,9.066683831101956,0.2677777777777778,-0.3888888888888889,-0.7177777777777777,-0.026367548193588383,-0.003611762065629357,-0.41060061467409076
1589543657.7192132,-2.327791175206533,-1.0298405042739125,8.8474480683826,0.2677777777777778,-0.3888888888888889,-0.7177777777777777,-0.015184639531103905,0.001334406769266593,-0.4647956724731214
1589543657.7292132,-2.106078204087941,-1.0479857810749198,9.03395734322476,0.2677777777777778,-0.3888888888888889,-0.7177777777777777,-0.02769469352247281,-0.008083005099293798,-0.5213667050994987
1589543657.7392132,-2.164451837042378,-1.0742230670905575,9.198007603815018,0.2910878043984137,-0.38059209975273034,-0.7102711590355391,-0.0180096301623158,0.014666420260902337,-0.5868440796714091
1589543657.7492132,-2.365155549608617,-1.1149066702348298,9.131866595303405,0.3333333333333333,-0.3655555555555556,-0.6966666666666667,0.020712210603329877,0.05553056292654835,-0.651083447377305
1589543657.7592132,-2.4691934987694832,-1.1796898072190318,8.944286556603775,0.3333333333333333,-0.3655555555555556,-0.6966666666666667,0.003936336480633424,0.0584440388220574,-0.7066553263573105
1589543657.7692132,-2.5785316114758436,-1.192430320082726,8.839949017627395,0.3333333333333333,-0.3655555555555556,-0.6966666666666667,-0.012344333573357437,0.03477125098493867,-0.7618307306327036
1589543657.7792132,-2.679285880041461,-1.2406933894398118,9.032416497779979,0.3333333333333333,-0.3655555555555556,-0.6966666666666667,-0.012496432833835273,0.019291195316399366,-0.7925160793733218
1589543657.7892132,-2.899905320317455,-1.389935951979455,9.739696468076549,0.3333333333333333,-0.3655555555555556,-0.6966666666666667,-0.01745116617704513,0.006550452433859735,-0.8137506508442213
1589543657.7992132,-2.1975011232766573,-1.2409376404095822,9.48687303426585,0.36,-0.34444444444444444,-0.6966666666666667,-0.02640113853302836,-0.002283452145259452,-0.8663065841139428
1589543657.8092132,-2.228116087016222,-1.2373822554385139,9.233975950881735,0.36,-0.34444444444444444,-0.6966666666666667,-0.02825287888693762,-0.0018244278037622477,-0.9247676247727136
1589543657.8192132,-2.4685107619619022,-1.277507687115644,8.668369206539673,0.36,-0.34444444444444444,-0.6966666666666667,0.016343666299297854,0.05797648214175437,-0.9606970180404932
1589543657.8292131,-2.633653067346633,-1.3954664766761662,9.218843557822108,0.36,-0.34444444444444444,-0.6966666666666667,0.006907640526597663,0.03996225112114492,-0.9967254800817121
1589543657.8392131,-2.68144725975976,-1.3165362237237237,8.954317942942943,0.3734124124124124,-0.33773823823823823,-0.6944312645979313,0.012534849535666762,0.0596954893630606,-0.9934789873901684
1589543657.8492131,-2.0814119120294277,-0.847752211004148,8.615648430774046,0.4133333333333333,-0.31777777777777777,-0.6877777777777778,0.004114968528257548,0.04070966478848557,-1.0046426006185778
1589543657.859213,-1.246044853338132,-1.1745118769120029,8.825263856397337,0.4133333333333333,-0.31777777777777777,-0.6877777777777778,-0.040977533386857196,-0.021075196203197227,-1.2270654771170473
1589543657.869213,-1.1872386566437725,-1.3370710075171706,8.715394516251148,0.4133333333333333,-0.31777777777777777,-0.6877777777777778,-0.004276191170343439,0.048097667617946344,-1.5430704888934998
1589543657.879213,-1.2381869328143966,-1.40456079844319,8.626163079709446,0.4133333333333333,-0.31777777777777777,-0.6877777777777778,0.026217497104577683,0.11718113224659912,-1.8866413030825693
1589543657.889213,-1.1802351255414074,-1.6368909369199205,9.184823655843944,0.42045939579466135,-0.3074845764447484,-0.6929243784442924,-0.0355574529721789,0.06251650077354538,-2.275101113129045
1589543657.899213,-0.7971160080891087,-1.9794934677238147,9.337796841395692,0.43333333333333335,-0.2888888888888889,-0.7022222222222222,-0.061751954057356916,0.06785371543371978,-2.7189809875608213
1589543657.909213,-0.46793391886240066,-2.2697256378084485,9.38138017565872,0.43333333333333335,-0.2888888888888889,-0.7022222222222222,-0.036456103094956005,0.11885566288349904,-3.0351297590917303
1589543657.919213,-0.7572509350960973,-2.3419198287421485,8.679599143710742,0.43333333333333335,-0.2888888888888889,-0.7022222222222222,0.03194125692741763,0.2315092733561222,-3.5315977740754074
1589543657.929213,-1.0724978448275864,-2.444339978448276,8.575317349137931,0.43333333333333335,-0.2888888888888889,-0.7022222222222222,0.030864046091520686,0.26161166616556675,-3.842589019428993
1589543657.939213,-2.0235398905713193,-2.9811884463672222,9.94544980277389,0.43882003647622686,-0.28366345732422843,-0.7040511232698533,-0.04626307871504596,0.16124988472938223,-4.133659736407193
1589543657.949213,-1.9015099933726323,-2.8422069133907706,8.117085353517737,0.48,-0.24444444444444444,-0.7177777777777777,-0.057294546569684794,0.1682286774105498,-4.268192785366016
1589543657.959213,-1.959343998813115,-3.0333645714850896,8.958884575441374,0.48,-0.24444444444444444,-0.7177777777777777,-0.03804718078170839,0.1523789617280142,-4.255759236300802
1589543657.969213,-1.8160601872375937,-3.154254570109787,9.205430672542832,0.48,-0.24444444444444444,-0.7177777777777777,-0.06706741811874134,0.1198302661551364,-4.252321006537106
1589543657.979213,-1.7688955927598193,-3.2888955927598196,8.583479442202421,0.48,-0.24444444444444444,-0.7177777777777777,-0.012355586209620916,0.20852032174800744,-4.185116676196852
1589543657.989213,-1.7449541673739604,-3.3248930572059074,8.620489730096757,0.4959837039551859,-0.22912672815405796,-0.7131158641241818,0.009290393385639691,0.2236536408379913,-4.108949390809942
1589543657.999213,-1.7085614065477222,-3.469504157283908,9.484790403602979,0.5333333333333333,-0.19333333333333333,-0.7022222222222222,-0.0323189088128654,0.16553281542829415,-4.081683111797088
1589543658.009213,-1.5094154117270104,-3.3373409163729573,8.98867045818648,0.5333333333333333,-0.19333333333333333,-0.7022222222222222,-0.02710824591170302,0.19567066383225792,-4.058470632941538
1589543658.019213,-1.6370855495033643,-3.4582915732137134,9.049145786606857,0.5333333333333333,-0.19333333333333333,-0.7022222222222222,-0.012448612617807202,0.19347171883817355,-4.032083293012525
1589543658.029213,-1.7096040282122957,-3.589472037616394,9.05791536311298,0.5333333333333333,-0.19333333333333333,-0.7022222222222222,-0.05087184132199909,0.14591809880420012,-3.942812093864344
1589543658.039213,-1.5698432033173513,-3.4031242710898018,8.910390047946093,0.5333333333333333,-0.19333333333333333,-0.7022222222222222,-0.03901419832336003,0.18487892579972848,-3.8801359808715383
1589543658.049213,-1.9073191322440903,-3.8385530579527236,8.855064297165466,0.5822222222222222,-0.16666666666666666,-0.6822222222222222,-0.006693612575071587,0.17699299660615692,-3.7259342242918345
1589543658.059213,-1.9001657741242282,-3.7813261929938258,9.05535832452161,0.5822222222222222,-0.16666666666666666,-0.6822222222222222,-0.04492881842836821,0.13407592881164032,-3.6260545028791413
1589543658.069213,-1.99,-3.852973093063441,9.113520118489262,0.5822222222222222,-0.16666666666666666,-0.6822222222222222,-0.03617473304535859,0.14640661686581746,-3.3317232203164724
1589543658.079213,-2.015029057575939,-3.9964316098496195,8.640904679168415,0.5822222222222222,-0.16666666666666666,-0.6822222222222222,0.008111072888673698,0.18541587550575822,-3.06036147648952
1589543658.089213,-2.034066516996801,-4.293585917787535,9.1789833707508,0.6251427713649318,-0.22489221782925714,-0.6293201500230685,-0.008865782286507463,0.12176573884167252,-2.8325749845459915
1589543658.099213,-1.8340720799475494,-4.035259769932251,9.228981980013113,0.864025015618205,-0.5489572778627673,-0.3348838954783365,-0.08249481207472109,0.03450170353712302,-2.62441390032993
1589543658.1092129,-1.6185989967008632,-4.053939078953315,8.917558412798844,0.8688888888888889,-0.5555555555555556,-0.3288888888888889,-0.02270921664183407,0.09480094474355306,-2.319404155207596
1589543658.1192129,-1.390107547220796,-4.183297484259734,8.367232955927257,0.8688888888888889,-0.5555555555555556,-0.3288888888888889,0.014401312645333545,0.13199052468207118,-2.1178726211722982
1589543658.1292129,-1.2244480056980058,-4.187838319088319,8.812083333333334,0.8688888888888889,-0.5555555555555556,-0.3288888888888889,-0.0029908497843448064,0.10232948382168944,-1.9260917222180192
1589543658.1392128,-1.1003581849280613,-4.132788006841735,9.513630143877654,0.9506034588769271,-0.39557914388883303,-0.36824999161552135,-0.030004706054210045,0.04365013319547193,-1.7587507838949943
1589543658.1492128,-1.14,-4.22,9.03,1.2633333333333334,0.21666666666666667,-0.5188888888888888,0.00545415391248228,0.09381144729469522,-1.6264286967022157
1589543658.1592128,-1.1050244138477103,-4.2060097655390845,9.372760744292437,1.2633333333333334,0.21666666666666667,-0.5188888888888888,0.0260564747583004,0.11059852353943592,-1.5157866032709704
1589543658.1692128,-1.047915529114543,-3.943506377083249,8.830298276353856,1.2633333333333334,0.21666666666666667,-0.5188888888888888,-0.04579291267570057,0.03267040638289531,-1.3486032618503239
1589543658.1792128,-0.885551118536327,-3.6016865653396355,7.58265596348967,1.2633333333333334,0.21666666666666667,-0.5188888888888888,0.01852674361799509,0.1044474141309325,-1.2227604560583103
1589543658.1892128,-0.7815153725314183,-3.6657574057450626,9.017269412028725,1.2633333333333334,0.21666666666666667,-0.5188888888888888,-0.0015866128835402074,-0.0038341869683237856,-1.14077778447108
1589543658.1992128,-0.8213354301572617,-3.735818316373728,8.72667715078631,0.6755555555555556,0.17555555555555555,-0.7177777777777777,-0.05102282780330091,-0.025059682811833288,-1.0103677941506861
1589543658.2092128,-0.8446155411655873,-4.18590046253469,8.843077705827936,0.6755555555555556,0.17555555555555555,-0.7177777777777777,-0.008698391623607263,0.032501550392550094,-0.9197935007261416
1589543658.2192128,-0.7115678763552787,-3.9605286211548387,9.122178605332845,0.6755555555555556,0.17555555555555555,-0.7177777777777777,-0.0026937668578165567,0.02549680470794266,-0.8185218270088147
1589543658.2292128,-0.4740610895524873,-3.345805172959379,8.703048981563214,0.6755555555555556,0.17555555555555555,-0.7177777777777777,-0.012599755926204798,0.04149878704918521,-0.7872798614854365
1589543658.2392128,-0.5263277577347765,-3.4909043402208373,8.950564556685253,0.6658445148986311,0.1768612416943017,-0.7198995177532402,0.002779537485509773,0.003420464670100235,-0.7226292057180969
1589543658.2492127,-0.4804733792500273,-3.252461572100142,9.207349076199847,0.5445851584611834,0.1931650207111014,-0.7463931586555398,-0.044238668024093285,-0.035594642029357616,-0.7016210713414657
1589543658.2592127,-0.39026236579527407,-3.212740501979001,9.101311828976371,0.5433333333333333,0.19333333333333333,-0.7466666666666667,-0.005549552807735329,0.016779088620103452,-0.6494004973143618
1589543658.2692127,-0.29792028365325834,-3.152876879814158,8.6749565961609,0.5433333333333333,0.19333333333333333,-0.7466666666666667,0.021145499315716847,0.05223891124124274,-0.6193215440745512
1589543658.2792127,-0.29,-3.2488518320516513,8.80983324423243,0.5433333333333333,0.19333333333333333,-0.7466666666666667,-0.0033541577436951003,0.01654398276230072,-0.614413611999317
1589543658.2892127,-0.29,-3.369590821236172,9.353158695562776,0.5433333333333333,0.19333333333333333,-0.7466666666666667,-0.019347005621192948,-0.010737934205195608,-0.6181766350293164
1589543658.2992127,-0.281699173553719,-3.337799449035813,8.721657300275483,0.5222222222222223,0.2255555555555556,-0.7588888888888888,0.005917531616782427,0.03858776330037739,-0.5987187322583956
1589543658.3092127,-0.22587692516452948,-3.3076461541940883,9.099415383223647,0.5222222222222223,0.2255555555555556,-0.7588888888888888,-0.010846213583393587,0.009621128981815205,-0.5911010629619672
1589543658.3192127,-0.18153581813375627,-3.290785091197462,9.022492730637062,0.5222222222222223,0.2255555555555556,-0.7588888888888888,-0.022330456637084464,-0.01252047671339641,-0.581416555630001
1589543658.3292127,-0.18945526981609456,-3.243268381103433,8.468131112873381,0.5222222222222223,0.2255555555555556,-0.7588888888888888,0.008769157395032121,0.041039969675248825,-0.5701861394517367
1589543658.3392127,-0.25678436317780584,-3.365220680958386,9.089495586380833,0.5222222222222223,0.2255555555555556,-0.7588888888888888,0.0008913724426957165,0.00738821202117082,-0.5666817769952585
1589543658.3492126,-0.24893130483479559,-3.225518013813702,8.762966212432332,0.5255555555555556,0.2311111111111111,-0.7677777777777778,-0.014252171497685403,-0.002926326148078508,-0.5525884639679612
1589543658.3592126,-0.2946037894343849,-3.3560108269553854,8.880409744259847,0.5255555555555556,0.2311111111111111,-0.7677777777777778,0.0021175699113078726,0.015578598922957366,-0.5390656341083582
1589543658.3692126,-0.47465624224373293,-3.619236606034819,8.747176364216573,0.5255555555555556,0.2311111111111111,-0.7677777777777778,-0.01250705584448344,0.0008327336363914724,-0.5002082430944134
1589543658.3792126,-0.3705534872176719,-3.604364783888239,9.081792362514626,0.5255555555555556,0.2311111111111111,-0.7677777777777778,-0.0011512068719719357,0.017055375025693622,-0.4482957906486466
1589543658.3892126,-0.7081502037550939,-3.934957873946849,8.71134253356334,0.5240439344316942,0.2309278843082188,-0.7674113241719932,0.016407432360720835,0.0199047778245802,-0.33630338386815495
1589543658.3992126,-2.2672001515479545,-5.640311755791297,7.827415566139857,0.4888888888888889,0.22666666666666666,-0.7588888888888888,0.015650168601734106,0.020664500912451533,-0.20615051609470375
1589543658.4092126,-17.706085769104455,-23.75484486543481,1.7808170708519868,0.4888888888888889,0.22666666666666666,-0.7588888888888888,-0.1249085057391353,0.06171304492053602,-0.421466408570826
1589543658.4192126,0.6362283719081105,2.069393462741779,3.2018026722901145,0.4888888888888889,0.22666666666666666,-0.7588888888888888,-0.7299043981792918,0.5124942981112408,-1.9691487111922457
1589543658.4292126,-14.85532337233959,-17.77319033220765,11.139264313201917,0.4888888888888889,0.22666666666666666,-0.7588888888888888,-3.565272747342992,-1.4418447591808765,-11.694554609819926
1589543658.4392126,-3.350891777271654,-1.4265212440116244,16.302670619649728,0.4888888888888889,0.22666666666666666,-0.7588888888888888,-2.6175558922555706,1.2782373613923101,-9.658086258651034
1589543658.4492126,0.7034860647605303,-1.8418575809506628,10.152276089113377,0.4755555555555556,0.2766666666666667,-0.7111111111111111,-2.164388175430107,1.7639739773058882,-5.611478581155619
1589543658.4592125,0.19654837013669824,-1.7218243953732912,7.538551524710831,0.4755555555555556,0.2766666666666667,-0.7111111111111111,-0.39737095738443184,0.19524007073961475,-4.945852862897082
1589543658.4692125,-0.7857738120291259,-2.886110105644177,10.065761606128204,0.4755555555555556,0.2766666666666667,-0.7111111111111111,0.8313174149629441,0.9217668408884793,-4.486715333338984
1589543658.4792125,1.7524947945818874,-6.7788091346692045,8.43636896899138,0.4755555555555556,0.2766666666666667,-0.7111111111111111,1.9881958080451823,0.7484720088983211,-4.097353283507363
1589543658.4892125,0.07158199932833309,-1.0693399753722153,13.028359789544385,0.4755555555555556,0.2766666666666667,-0.7111111111111111,2.9029428124256196,0.45038535909461763,-3.4048908255441206
1589543658.4992125,-1.171701884267553,5.685921952904104,7.629723079579547,0.3476903153396214,0.4624708438554459,-0.6851384841922494,3.710489124500568,0.630744276000595,-2.8116910832525774
1589543658.5092125,0.3421977621250216,2.055596414793774,4.480908201063278,0.3333333333333333,0.4833333333333333,-0.6822222222222222,1.753982831455251,0.6933569215640975,-1.9872640800967425
1589543658.5192125,4.795661424606845,-6.913283996299723,8.253829787234043,0.3333333333333333,0.4833333333333333,-0.6822222222222222,-1.2170361703829191,-0.7191077410158204,-1.072716533304417
1589543658.5292125,5.310645698427382,-6.37713598519889,7.92931914893617,0.3333333333333333,0.4833333333333333,-0.6822222222222222,-0.11583129450761676,-0.111174930434766,-1.168908433712812
1589543658.5392125,1.3216282563294621,0.583131938592313,8.023777158978492,0.3333333333333333,0.4833333333333333,-0.6822222222222222,0.3558486412403238,0.34449030027092986,-1.026201226866053
1589543658.5492125,3.444107104062568,-4.452719693678036,8.80932598305453,0.27555555555555555,0.4744444444444445,-0.7111111111111111,-0.08508566009654989,0.0009463602815667578,-0.6412102641857874
1589543658.5592124,1.5488322335532894,-3.533973205358928,8.926120775844831,0.27555555555555555,0.4744444444444445,-0.7111111111111111,-0.05742599148789681,-0.01140759030069629,-0.2517914897862515
1589543658.5692124,1.597755948810238,-3.666766146770646,8.849240651869627,0.27555555555555555,0.4744444444444445,-0.7111111111111111,0.01118935870743741,0.016038549777437395,-0.05738133089947128
1589543658.5792124,1.8042250401038882,-3.8572186998701397,8.785350240623329,0.27555555555555555,0.4744444444444445,-0.7111111111111111,0.012582759324030045,0.003260909926072592,0.05296666311923247
1589543658.5892124,1.7721854709342297,-3.897268161332213,8.593112825605377,0.27555555555555555,0.4744444444444445,-0.7111111111111111,-0.008387089660882734,-0.0028552960278603002,0.044229226042185474
1589543658.5992124,1.719123619522622,-3.9851015318845744,8.824741717135732,0.2766666666666667,0.48,-0.7377777777777778,-0.011655995187103205,-9.559828019028435e-05,0.02436357145629954
1589543658.6092124,1.71,-3.83,8.77,0.2766666666666667,0.48,-0.7377777777777778,0.003272492347489368,-0.001090830782496456,0.00545415391248228
1589543658.6192124,1.71,-3.7499199970908035,8.787795556202044,0.2766666666666667,0.48,-0.7377777777777778,0.012007865571065118,0.003762154341712294,0.0006011687882735298
1589543658.6292124,1.7184215993940049,-3.8410591927280597,8.70578400605995,0.2766666666666667,0.48,-0.7377777777777778,0.014927277361324298,0.0006887071872521723,0.0
1589543658.6392124,1.7274667068913503,-3.9048002413481013,8.787067189587553,0.2766666666666667,0.48,-0.7377777777777778,-0.01079209295213212,-0.000814491372096328,0.0
1589543658.6492124,1.7363103873570667,-3.9073792252858666,8.750585739072267,0.2724597417619556,0.4821034624523555,-0.7251570030636443,-0.012063032828514909,-0.00246754373820942,0.0
1589543658.6592124,1.7303132165001893,-3.856409474250852,8.729373566999621,0.27,0.4833333333333333,-0.7177777777777777,0.003987490309994171,-0.002215828184992153,-0.0005283320812486075
1589543658.6692123,1.7136381261375326,-3.8227237477249347,8.743638126137533,0.27,0.4833333333333333,-0.7177777777777777,0.011504652246969525,-0.0003968579981425541,-0.0017848035668503578
1589543658.6792123,1.6926656785941139,-3.8242218928647045,8.803559178488248,0.27,0.4833333333333333,-0.7177777777777777,0.0017934154194547925,-0.0025211748510970385,-0.002181661564992912
1589543658.6892123,1.7025780172954004,-3.9103120691816016,8.83306648702845,0.27,0.4833333333333333,-0.7177777777777777,-0.013124010856913431,-0.004363323129985824,-0.00033450184447589965
1589543658.6992123,1.7264167868012172,-3.9543328527951305,8.79754124619574,0.27463434602310144,0.480837916243971,-0.7195602185558937,-0.012676212014825064,-0.0015634717029918773,0.001090830782496456
1589543658.7092123,1.7360145076771698,-3.9159419692913207,8.763949223129906,0.28156603332240043,0.4771054692366562,-0.7222262521325472,-0.0006362992355325586,0.0026243240463272553,0.001090830782496456
1589543658.7192123,1.7138445131705236,-3.865126017560698,8.811029469268778,0.28444444444444444,0.4755555555555556,-0.7233333333333334,0.012922686179417862,0.004363323129985824,-0.0008112498951551085
1589543658.7292123,1.7007261731978713,-3.8507261731978715,8.857095307208514,0.28444444444444444,0.4755555555555556,-0.7233333333333334,-0.0030166985979605664,0.0013284704057950304,-0.0021024483572267202
1589543658.7392123,1.7240168989761935,-3.8259831010238066,8.763932404095227,0.28444444444444444,0.4755555555555556,-0.7233333333333334,-0.01222283494098764,-0.005895401938394049,-0.003054940655104225
1589543658.7492123,1.7210709241463347,-3.9182198343903183,8.731070924146335,0.2774996076693715,0.4755555555555556,-0.7233333333333334,-0.013206789092411535,-0.007635815477475192,0.0006235519726802002
1589543658.7592123,1.7287639828752934,-3.9124720342494133,8.800111863002348,0.2766666666666667,0.4755555555555556,-0.7233333333333334,0.005074072975562166,-0.0038118065584184266,-0.0008211736770319267
1589543658.7692122,1.691003358746068,-3.880752519059551,8.771003358746068,0.2766666666666667,0.4755555555555556,-0.7233333333333334,0.010826220729507197,0.0031083181565746435,-2.7362365152454023e-05
1589543658.7792122,1.7285483946787006,-3.812540309312274,8.78927419733935,0.2766666666666667,0.4755555555555556,-0.7233333333333334,0.004600841495262163,0.002221247959205635,0.0010512443882837326
1589543658.7892122,1.7083870104857692,-3.831612989514231,8.818817319352307,0.2766666666666667,0.4755555555555556,-0.7233333333333334,-0.008210604477425353,-0.0025335612877862798,-0.002052651119356338
1589543658.7992122,1.7108840774888636,-3.8944203874443177,8.775579612555683,0.2766666666666667,0.4834162781864015,-0.7348220817938005,-0.012496335051761016,-0.005550591806378734,-0.002678858009292913
1589543658.8092122,1.7250847716900797,-3.9298304566198405,8.73508477169008,0.2766666666666667,0.49,-0.7444444444444445,-0.0058978505778048826,-0.004326334502376506,-0.0005176739205412393
1589543658.8192122,1.7458163229700967,-3.848826546634565,8.708367354059806,0.2766666666666667,0.49,-0.7444444444444445,0.0086264659808436,0.0012689248273445287,0.00022818418441209582
1589543658.8292122,1.6956869460112811,-3.875260878323932,8.79957393231265,0.2766666666666667,0.49,-0.7444444444444445,0.006958551079478802,0.00020678319225003348,0.0
1589543658.8392122,1.7120939025095967,-3.88,8.802635365830135,0.2766666666666667,0.49,-0.7444444444444445,-0.0055053697864931314,-0.004016784827157288,0.0
1589543658.8492122,1.7285086346952283,-3.9140345387809132,8.774474095914314,0.28895691678199653,0.4777097498846702,-0.7264817711989624,-0.013530069299497077,-0.004526005848225036,-0.002784444192771732
1589543658.8592122,1.7222705899563227,-3.912270589956323,8.731352949781614,0.2911111111111111,0.4755555555555556,-0.7233333333333334,-0.005749321766273508,-0.0035201752893677823,0.00010009901498279905
1589543658.8692122,1.7085354876789138,-3.869874206876199,8.72,0.2911111111111111,0.4755555555555556,-0.7233333333333334,0.0029804291255858973,-0.0013966159055667881,-0.000159753512118597
1589543658.8792121,1.7073293837938963,-3.8326706162061037,8.800623221732861,0.2911111111111111,0.4755555555555556,-0.7233333333333334,0.00603679198565262,0.0,-0.0026898542743190278
1589543658.8892121,1.71,-3.8503245424357093,8.857099389914278,0.2911111111111111,0.4755555555555556,-0.7233333333333334,-0.0019360582638601282,-0.002956084870536963,-0.000316407476952405
1589543658.8992121,1.718535001690903,-3.86,8.801719986472776,0.27878277533536244,0.4926255589373615,-0.7309200015030248,-0.012902347970959262,-0.005294347387295447,0.0001598065251868328
1589543658.909212,1.7317954588220537,-3.8835909176441072,8.754613623533839,0.2766666666666667,0.4955555555555556,-0.7322222222222222,-0.009034060341747759,-0.0022374415182909255,0.0
1589543658.919212,1.7231550859216564,-3.8887700572811044,8.701925143202761,0.2766666666666667,0.4955555555555556,-0.7322222222222222,0.0006708296892393795,0.0030624918008608296,-0.0012249967203443318
1589543658.929212,1.71,-3.8606304362043034,8.744565212652322,0.2766666666666667,0.4955555555555556,-0.7322222222222222,0.008975639984461443,0.0033412622692947816,-0.0007730671362012466
1589543658.939212,1.71,-3.8434876410191405,8.812561794904298,0.2766666666666667,0.4955555555555556,-0.7322222222222222,0.0016732616890792387,5.049707209629946e-05,0.0014207763285977416
1589543658.949212,1.7220540563657358,-3.8701351409143396,8.817945943634264,0.28135435525334174,0.4922072065650734,-0.7355705712127044,-0.007874619855681553,-0.0030631711431502503,0.002181661564992912
1589543658.959212,1.747048929105703,-3.907048929105703,8.758853212682892,0.28444444444444444,0.49,-0.7377777777777778,-0.011838182658819585,-0.006223072797695876,0.0003219118972828598
1589543658.969212,1.7412020335677971,-3.8924040671355944,8.68841423497458,0.28444444444444444,0.49,-0.7377777777777778,0.0004770817824415168,-0.0007867291304083359,0.0009597092607617333
1589543658.979212,1.7152596397568471,-3.8570128530091297,8.78720822772033,0.28444444444444444,0.49,-0.7377777777777778,0.003980831333211758,0.0008995848841094233,-0.0007083389857223906
