time,acc_x,acc_y,acc_z,mag_x,mag_y,mag_z,gyr_x,gyr_y,gyr_z
1589543745.313599,0.13,-4.18,8.73,0.4711111111111111,0.2877777777777778,-0.6555555555555556,0.00545415391248228,0.01090830782496456,0.0
1589543745.323599,0.11102898905265732,-4.1759806739648955,8.815980673964896,0.4711111111111111,0.2877777777777778,-0.6555555555555556,0.005668103782182367,0.0124375790638592,0.0014170259455455918
1589543745.333599,0.0967899471655005,-4.203579894331001,8.877529630158504,0.4613034096498326,0.2824967077601663,-0.6555555555555556,0.005763972908110647,0.009426971149034059,0.0036629982409234125
1589543745.343599,0.10781625827264749,-4.202183741727352,8.93126503309059,0.4566666666666666,0.28,-0.6555555555555556,0.007773809181084405,0.007021403234422357,0.004363323129985824
1589543745.353599,0.09479517587317315,-4.1898634505821155,8.863975879365865,0.4566666666666666,0.28,-0.6555555555555556,0.0076209202466391455,0.007650710708311238,0.0032575971166533216
1589543745.363599,0.08,-4.183926972634201,8.829269726342014,0.4566666666666666,0.28,-0.6555555555555556,0.003546420852993071,0.006584814944267601,0.0030383940912745303
1589543745.373599,0.08953763713385712,-4.199537637133857,8.89,0.4566666666666666,0.28,-0.6555555555555556,-0.0016110281913910872,0.003272492347489368,0.0033229283121965613
1589543745.383599,0.0950087987758225,-4.205008798775823,8.894991201224178,0.4660944912012242,0.2838820453965825,-0.6588830230383406,-0.0010927503775995484,0.004361403534882732,0.0027261171586895937
1589543745.393599,0.09513756566645891,-4.2,8.864037040334788,0.4755555555555556,0.2877777777777778,-0.6622222222222223,-0.0005604214776070297,0.0020916250468401014,0.0010308064370612492
1589543745.403599,0.09439822433125407,-4.2,8.779584018981287,0.4755555555555556,0.2877777777777778,-0.6622222222222223,-0.0004797718488856824,-0.0017018897161072296,0.0013534049519466384
1589543745.413599,0.09,-4.194792201128784,8.750415597742432,0.4755555555555556,0.2877777777777778,-0.6622222222222223,-0.0005680827317772718,-0.0004774133696610963,0.0021363268839348242
1589543745.423599,0.10032735814068487,-4.193442452713562,8.790982074422054,0.4755555555555556,0.2877777777777778,-0.6622222222222223,-0.001090830782496456,0.00033980410504816047,-3.57092336759875e-05
1589543745.433599,0.1145887430696891,-4.19458874306969,8.866233770790933,0.4689417970851756,0.283569022387536,-0.6700384822326713,-0.002271383908812538,-0.002271383908812538,-0.0010011084386768302
1589543745.443599,0.09581000368686247,-4.19,8.88,0.4633333333333333,0.28,-0.6766666666666666,-0.0024985481083952864,-0.0024985481083952864,-0.0007739442390940813
1589543745.453599,0.09714329752673638,-4.175713404946527,8.837140214839582,0.4633333333333333,0.28,-0.6766666666666666,-0.0029608744480623967,-0.003740087331131881,-0.0018700436655659405
1589543745.463599,0.1,-4.198130792754646,8.86219618913197,0.4633333333333333,0.28,-0.6766666666666666,-0.00403964071430927,-0.005130471496805726,-0.0014145131981730097
1589543745.473599,0.11109643978661421,-4.198903560213386,8.902192879573228,0.4633333333333333,0.28,-0.6766666666666666,-0.005573756939521541,-0.0048489370077144205,0.00011960302703926192
1589543745.483599,0.12,-4.19,8.9257914936454,0.4633333333333333,0.28,-0.6644401800819317,-0.006544984694978735,-0.0062585849934965595,0.001090830782496456
1589543745.493599,0.12,-4.19,8.865476816296358,0.4633333333333333,0.28,-0.6555555555555556,-0.007184838103784257,-0.005076401842253108,-0.0008287294439201073
1589543745.503599,0.11261178861788618,-4.1936941056910575,8.794141260162602,0.4633333333333333,0.28,-0.6555555555555556,-0.007635815477475192,-0.00367545676764939,-0.00177869714483289
1589543745.513599,0.0967360365663631,-4.1983680182831815,8.753263963433637,0.4633333333333333,0.28,-0.6555555555555556,-0.007991858656110589,-0.004541344719303521,-0.0007347876038610603
1589543745.523599,0.08284687079623343,-4.1786125168150665,8.775693741592466,0.4633333333333333,0.28,-0.6555555555555556,-0.01105965876179675,-0.006385790201978764,0.001090830782496456
1589543745.533599,0.08956376913714688,-4.151744923451413,8.789127538274293,0.4633333333333333,0.28,-0.6555555555555556,-0.013990458551063858,-0.008583890043929097,0.001090830782496456
1589543745.543599,0.13,-4.158929974114077,8.878093367847898,0.4711111111111111,0.27555555555555555,-0.6555555555555556,-0.014297521889897257,-0.010050920477354763,0.0017402368258652068
1589543745.5535989,0.056394313388533054,-4.167732385564755,8.755948289329792,0.4711111111111111,0.27555555555555555,-0.6555555555555556,-0.013783390801296024,-0.008130532203234793,0.005948870638241882
1589543745.5635989,0.10113724887248875,-4.177479499794998,8.858155664889981,0.4711111111111111,0.27555555555555555,-0.6555555555555556,-0.021358375781444974,-0.024988515121856167,0.011316251255667546
1589543745.5735989,0.19485414521743394,-4.182452811687993,8.967204000588323,0.4711111111111111,0.27555555555555555,-0.6555555555555556,-0.02126090536601871,-0.029433713140745797,0.013636320680538624
1589543745.5835989,-0.017345181587371673,-4.140145711447179,8.58549177613423,0.4711111111111111,0.2766707142068661,-0.6594586108351425,-0.004640997904733239,0.0016302856787967235,0.015271630954950384
1589543745.5935988,0.12448115082950809,-4.2715849206636065,9.001584920663607,0.4711111111111111,0.28,-0.6711111111111111,-0.014097451190844157,-0.012750383401970263,0.013376052744054203
1589543745.6035988,0.11611645706691606,-4.245145571333645,8.87092215686757,0.4711111111111111,0.28,-0.6711111111111111,-0.02188544862131496,-0.021636559979459208,0.007529908273061328
1589543745.6135988,0.046438171087250235,-4.1664381710872505,8.734406361847876,0.4711111111111111,0.28,-0.6711111111111111,-0.019893977592937095,-0.018359874797946405,0.002883957085488035
1589543745.6235988,0.11254472373188407,-4.170848241243961,8.875427423007247,0.4711111111111111,0.28,-0.6711111111111111,-0.02373948485763139,-0.028454129110897466,0.0014421519057767063
1589543745.6335988,0.14900949753941636,-4.1405795693195,8.948155972792527,0.4711111111111111,0.2782859152918395,-0.6676829416947901,-0.021131542598551538,-0.020524632703265454,0.005796690438171072
1589543745.6435988,-0.022375364483322665,-3.9929215560770928,8.8388599672854,0.4711111111111111,0.27555555555555555,-0.6622222222222223,-0.014823382589879298,-0.0062910703822619376,0.009817477042468105
1589543745.6535988,-0.05434101382488479,-3.903410138248848,8.860387096774193,0.4711111111111111,0.27555555555555555,-0.6622222222222223,-0.02191815842323063,-0.015229405247240842,0.01290397520123688
1589543745.6635988,-0.06513476952896283,-3.8347753841183954,8.804775384118395,0.4711111111111111,0.27555555555555555,-0.6622222222222223,-0.02452899153109674,-0.014141597305591207,0.024076682948647475
1589543745.6735988,-0.074613610685487,-3.7965340267137173,8.831170698487874,0.4711111111111111,0.27555555555555555,-0.6622222222222223,-0.023788792323042693,-0.010405040969546182,0.0374254348915183
1589543745.6835988,-0.061630372537184064,-3.76407593134296,8.954511460896752,0.4711111111111111,0.27555555555555555,-0.6622222222222223,-0.02591316969734036,-0.011821292552411291,0.04875544755443918
1589543745.6935987,-0.010219675262655206,-3.533132760267431,8.982115568290354,0.4566666666666666,0.28,-0.6711111111111111,-0.014387610019947287,-0.007539964062012274,0.08154246611544184
1589543745.7035987,-0.054138038725796374,-3.2623274515927543,8.871680590256089,0.4566666666666666,0.28,-0.6711111111111111,-0.004683043520170997,0.005839709108637921,0.14627497421916422
1589543745.7135987,-0.12,-3.056552639603925,8.749633164116455,0.4566666666666666,0.28,-0.6711111111111111,-0.00557950347376221,-0.008686630672582095,0.3321512713930653
1589543745.7235987,-0.1331082660433489,-2.8668534849128773,8.971910858478537,0.4566666666666666,0.28,-0.6711111111111111,-0.010230189368909867,-0.034976065814866036,0.45286983847348794
1589543745.7335987,-0.20845465636437577,-2.990750305002033,8.868454656364376,0.45974244272739595,0.28,-0.6711111111111111,0.0036914796081920533,-0.027523625823502484,0.6074046562808723
1589543745.7435987,-0.25284508836172587,-3.0956901767234517,8.85002109536698,0.4633333333333333,0.28,-0.6711111111111111,0.0042081476317911756,-0.03209731803941421,0.7356532578312578
1589543745.7535987,-0.2301718666080758,-3.085193349934085,8.750300766564132,0.4633333333333333,0.28,-0.6711111111111111,0.005987851967069739,-0.03709293353954381,0.8505621073327129
1589543745.7635987,-0.23643190754458757,-3.118934242825799,8.879657202441726,0.4633333333333333,0.28,-0.6711111111111111,0.006700672098385025,-0.044101312468729524,0.9715834969019617
1589543745.7735987,-0.2736588824808547,-3.223072894015316,9.011953294885128,0.4633333333333333,0.28,-0.6711111111111111,0.006145862531013407,-0.04988562954027116,1.0679758304261644
1589543745.7835987,-0.235506270814143,-3.2612343229646426,8.859431021044427,0.46932497224780934,0.2772538321641985,-0.6691138981396191,0.011533141385915553,-0.04327768523598211,1.161755806952068
1589543745.7935987,-0.22,-3.2952475833965122,8.982475833965125,0.49,0.2677777777777778,-0.6622222222222223,0.012787618429845028,-0.05566464927728083,1.2830001320137088
1589543745.8035986,-0.2430607917608407,-3.280775683295664,8.846981149660973,0.49,0.2677777777777778,-0.6622222222222223,0.009145140768763133,-0.06402513558013724,1.3570552318502407
1589543745.8135986,-0.25793177154582764,-3.306204685362517,8.810341142270863,0.49,0.2677777777777778,-0.6622222222222223,0.010030681485763837,-0.06459702917660443,1.4138283326624868
1589543745.8235986,-0.2485089935173631,-3.368508993517363,8.891491006482637,0.49,0.2677777777777778,-0.6622222222222223,0.008030505855711462,-0.07004521688119325,1.4519869036967736
1589543745.8335986,-0.2740396262592446,-3.3940396262592447,8.865960373740755,0.49,0.2677777777777778,-0.6622222222222223,0.005941785848852245,-0.07074145688347964,1.478444023783657
1589543745.8435986,-0.33396396183079585,-3.481636634858997,8.895600596689793,0.49,0.2611111111111111,-0.6766666666666666,0.010146691854432677,-0.06748082287120571,1.5027602606463646
1589543745.8535986,-0.39432325295053905,-3.52,8.919842337607736,0.49,0.2611111111111111,-0.6766666666666666,0.008885755095389688,-0.07261406868736589,1.512681275950821
1589543745.8635986,-0.43,-3.5045673982787595,8.810124764475225,0.49,0.2611111111111111,-0.6766666666666666,0.012335825747691754,-0.06872233929727672,1.5241465209259755
1589543745.8735986,-0.4294089460754506,-3.4691134191131763,8.898226838226352,0.49,0.2611111111111111,-0.6766666666666666,0.012993258417705395,-0.06865786531577533,1.5270341475320357
1589543745.8835986,-0.41609771681717495,-3.441742204804907,8.846097716817175,0.49140344275950854,0.2591753279945476,-0.6764246937770962,0.009769965776702957,-0.06692076785840499,1.5220871033785754
1589543745.8935986,-0.5411620378258648,-3.477474867950247,8.971162037825865,0.5201880880710323,0.21947236894416994,-0.671461823895799,0.00879550855421512,-0.07471642563830769,1.5074702450412578
1589543745.9035985,-0.5776903023983315,-3.439225755995829,8.84769030239833,0.5222222222222223,0.21666666666666667,-0.6711111111111111,0.010404409976532933,-0.06326818538479445,1.4754760296222227
1589543745.9135985,-0.6090610306227175,-3.4928732367472612,8.86,0.5222222222222223,0.21666666666666667,-0.6711111111111111,0.011842427852995394,-0.06493157410074389,1.4544328506635908
1589543745.9235985,-0.6458421474943468,-3.4978681887810925,8.86876322124152,0.5222222222222223,0.21666666666666667,-0.6711111111111111,0.010136116758604005,-0.06667558936637258,1.4266113977135308
1589543745.9335985,-0.6634895406833917,-3.424652720911189,8.895815901138986,0.5228684334598874,0.21266015699314295,-0.6700771731308469,0.01090830782496456,-0.0643590161672909,1.401183549461218
1589543745.9435985,-0.7278594869424543,-3.4810330483013634,8.92317356135891,0.5277777777777778,0.18222222222222226,-0.6622222222222223,0.010449437894227318,-0.06481788609802813,1.3580401565276872
1589543745.9535985,-0.7521869040050858,-3.470267005721551,8.864240305149396,0.5277777777777778,0.18222222222222226,-0.6622222222222223,0.008950637577674354,-0.06414958775259673,1.3271804570808328
1589543745.9635985,-0.7714707748713248,-3.4330515405767468,8.813841923429457,0.5277777777777778,0.18222222222222226,-0.6622222222222223,0.00931217081381396,-0.06050099926595922,1.300029637760211
1589543745.9735985,-0.8607939292920431,-3.465396964646022,8.847618212123871,0.5277777777777778,0.18222222222222226,-0.6622222222222223,0.011748081974609059,-0.05731191820660825,1.2773803585441779
1589543745.9835985,-0.8362637073427494,-3.453131853671375,8.921208877971752,0.5277777777777778,0.18222222222222226,-0.6622222222222223,0.011079123944515061,-0.05597400214642025,1.2599874497617338
1589543745.9935985,-0.83,-3.371944331636,8.979027834182,0.5397029493333889,0.1637924116362778,-0.6904089913536666,0.002393755244985975,-0.05882532712481123,1.2289382538409876
1589543746.0035985,-0.9015744953324571,-3.313148990664914,8.785117109830486,0.54,0.16333333333333333,-0.6911111111111111,0.016362461737446838,-0.048958572114174925,1.1953102997175675
1589543746.0135984,-0.9490206081761428,-3.399020608176143,8.92578606430825,0.54,0.16333333333333333,-0.6911111111111111,0.01218047998041211,-0.04999687462188588,1.1549536484809213
1589543746.0235984,-0.9771759414647244,-3.4271759414647245,8.975057897563268,0.54,0.16333333333333333,-0.6911111111111111,-0.0008724193227064789,-0.06304977392500447,1.130383485086816
1589543746.0335984,-0.9896977344992051,-3.3384886724960254,8.843627186009538,0.5404366057233705,0.16148615527291998,-0.6905065801095213,0.007767703682576711,-0.04994741163590931,1.0864702124568792
1589543746.0435984,-0.981362480127186,-3.29681240063593,8.943650238473769,0.5524764175940646,0.11054848966613673,-0.6738360713654832,0.011404644502151342,-0.04358276520165371,1.0564654506953883
1589543746.0535984,-1.0353209708208344,-3.2417736569402784,8.882263430597218,0.5544444444444444,0.10222222222222224,-0.6711111111111111,0.0033425173178192468,-0.048120005418318575,1.0046219527748657
1589543746.0635984,-1.05819689119171,-3.24939896373057,8.806010362694302,0.5544444444444444,0.10222222222222224,-0.6711111111111111,0.008333268941516968,-0.043961045731903806,0.976341026907245
1589543746.0735984,-1.235830598619441,-3.355830598619441,8.86,0.5544444444444444,0.10222222222222224,-0.6711111111111111,0.005635362420879337,-0.04587648894502154,0.9365108146793497
1589543746.0835984,-1.2595620685753084,-3.379562068575308,8.86,0.5544444444444444,0.10222222222222224,-0.6711111111111111,0.010812766009229327,-0.03724748296443822,0.9166641009240082
1589543746.0935984,-1.28,-3.3977879712838703,8.995345565540644,0.5344444444444445,0.09222222222222222,-0.7122222222222222,0.007927370849554544,-0.04222571491000878,0.8986786605813685
1589543746.1035984,-1.28,-3.3620266698497687,8.952432003819721,0.5344444444444445,0.09222222222222222,-0.7122222222222222,0.005586799143967406,-0.0476870488897121,0.8854154209163748
1589543746.1135983,-1.3891111217595475,-3.335703675307873,8.898370310029229,0.5344444444444445,0.09222222222222222,-0.7122222222222222,0.008298394949367715,-0.040982913412288144,0.8691578054883868
1589543746.1235983,-1.4148867559467353,-3.2637108135108814,8.77185540675544,0.5344444444444445,0.09222222222222222,-0.7122222222222222,0.01070591434467588,-0.0333073978959126,0.8668303911439523
1589543746.1335983,-1.430798968094389,-3.210670106352037,8.745335053176019,0.5344444444444445,0.09222222222222222,-0.7122222222222222,0.013598836149388303,-0.02810013864743023,0.8691447285877222
1589543746.1435983,-1.4201057130004497,-3.16010571300045,8.9289428699955,0.5477073024441446,0.08116984055580546,-0.7078012695556556,0.0022508505619933637,-0.054024175537322985,0.9095453056110429
1589543746.1535983,-1.5682343499197433,-3.1198812199036916,8.81,0.5544444444444444,0.07555555555555556,-0.7055555555555556,-0.0031058035987033927,-0.0660276545873858,0.9339687906937949
1589543746.1635983,-1.652389646869984,-3.2208675762439807,8.81,0.5544444444444444,0.07555555555555556,-0.7055555555555556,0.009746082780579993,-0.03848789806034997,0.9807863767897559
1589543746.1735983,-1.66,-3.213612894912051,8.957483945791543,0.5544444444444444,0.07555555555555556,-0.7055555555555556,0.0100145298916676,-0.048510306888540494,1.1155117748556558
1589543746.1835983,-1.7483855238920794,-3.2683855238920794,8.97,0.5532784339220572,0.07376169321342146,-0.7055555555555556,0.013266081413569965,-0.05262404559524862,1.2328202150641128
1589543746.1935983,-1.706331781928526,-3.2297129559387368,8.96323765197958,0.54,0.05333333333333334,-0.7055555555555556,0.01453397321668745,-0.05784534312210805,1.3143327572374648
1589543746.2035983,-1.6345104576417537,-3.162193226518277,8.945365537753046,0.54,0.05333333333333334,-0.7055555555555556,0.01435382290978121,-0.06268289601022749,1.355849968284562
1589543746.2135983,-1.5401567061907884,-3.0503134123815765,8.935905976285527,0.54,0.05333333333333334,-0.7055555555555556,0.016826144440320562,-0.0643590161672909,1.3801327812094537
1589543746.2235982,-1.5016721442529757,-2.97,8.956321282643454,0.54,0.05333333333333334,-0.7055555555555556,0.009817477042468105,-0.06428605511033408,1.376373083811179
1589543746.2335982,-1.548242360987742,-2.97,8.853866805826968,0.54,0.05333333333333334,-0.7055555555555556,0.009817477042468105,-0.06225404607186149,1.3692610521765245
1589543746.2435982,-1.4875035105494232,-2.883703229705469,9.061497893670346,0.56,0.024444444444444446,-0.7477777777777778,0.011737400490307855,-0.062340749454749995,1.3468809865890197
1589543746.2535982,-1.673887022520841,-3.0551760607191736,8.949667786487495,0.56,0.024444444444444446,-0.7477777777777778,0.014990406445639365,-0.050141977122256834,1.3200436874575348
1589543746.2635982,-1.6133841906422552,-2.878932965223288,8.791128063547418,0.56,0.024444444444444446,-0.7477777777777778,0.01660190981970364,-0.04351683586181505,1.2765048063969395
1589543746.2735982,-1.7184621697670783,-2.9569243395341567,8.858844575582305,0.56,0.024444444444444446,-0.7477777777777778,0.009817477042468105,-0.054751302797844285,1.2502601264104947
1589543746.2835982,-1.6715794031056976,-2.8598245107660336,8.979473532298101,0.5598635083735818,0.02401547076141546,-0.747914269404196,0.009874905759990288,-0.055440940848911976,1.2324664980684286
1589543746.2935982,-1.7560002023933008,-2.8539997976066993,8.951999898803349,0.5522222222222222,0.0,-0.7555555555555555,0.01308996938995747,-0.04494221720001185,1.2204216008842985
1589543746.3035982,-1.7561172087627717,-2.879209833578727,8.953092624815955,0.5522222222222222,0.0,-0.7555555555555555,0.011331854645322182,-0.046568370612551986,1.2090640538264308
1589543746.3135982,-1.7939001648379094,-2.8839925739689307,8.913900164837909,0.5522222222222222,0.0,-0.7555555555555555,0.005994529167495426,-0.04800663470231423,1.2004844768185252
1589543746.3235981,-1.7031129389433723,-2.7373362859854478,8.823112938943373,0.5522222222222222,0.0,-0.7555555555555555,0.009041713803286822,-0.041912265430731434,1.1852485536395683
1589543746.3335981,-1.7971741778319124,-2.7390580592773044,8.780470970361348,0.5522222222222222,0.0,-0.7555555555555555,-0.002964242966808273,-0.06272874896860253,1.1504805807545773
1589543746.3435981,-2.0121188751424386,-2.9115244994302456,9.319482744587335,0.5522222222222222,-0.03888888888888889,-0.7911111111111111,-0.006285639365687498,-0.06836994572933529,1.1269944954094802
1589543746.353598,-2.025668068586218,-2.877165965706891,9.011497897120673,0.5522222222222222,-0.03888888888888889,-0.7911111111111111,0.01008392066614485,-0.033119471781212356,1.1226282704176775
1589543746.363598,-2.0749639930469335,-2.8449639930469335,8.962734045194933,0.5522222222222222,-0.03888888888888889,-0.7911111111111111,0.0013576468542021943,-0.05726468833178502,1.11593560149099
1589543746.373598,-2.0775246440306683,-2.83,9.02670317634173,0.5522222222222222,-0.03888888888888889,-0.7911111111111111,0.001203139756817011,-0.05257374252156796,1.1247588457281668
1589543746.383598,-2.159081286430995,-2.829081286430995,8.870918713569004,0.551932997580128,-0.03948435138731807,-0.7912131903965561,0.011798706399187444,-0.038496428383809116,1.1357552767870842
1589543746.393598,-2.11173814013862,-2.76021821655115,8.93586907006931,0.5333333333333333,-0.07777777777777778,-0.7977777777777778,0.00018960167674995335,-0.05655740274619021,1.1507788680675122
1589543746.403598,-2.1220475448339444,-2.6940325306758566,8.936030028316177,0.5333333333333333,-0.07777777777777778,-0.7977777777777778,0.0058899402952870186,-0.04734151003015235,1.160860480942147
1589543746.413598,-1.9861291549929092,-2.596641416761786,8.853282833523572,0.5333333333333333,-0.07777777777777778,-0.7977777777777778,0.0073253299699118654,-0.04908738521234052,1.1652701451352094
1589543746.423598,-2.1094439832589673,-2.6474181107536925,8.954836221507385,0.5333333333333333,-0.07777777777777778,-0.7977777777777778,0.0049515250767786885,-0.04908738521234052,1.158939998753521
1589543746.433598,-2.0193676470588233,-2.557926470588235,9.156308823529411,0.5333333333333333,-0.07777777777777778,-0.7977777777777778,0.0003144159314254491,-0.05111183881162071,1.147249192232339
1589543746.443598,-2.000795030766362,-2.4947701845981727,8.893850922990863,0.5261739128182816,-0.07777777777777778,-0.811073844448588,0.007028744654389516,-0.03721155746855439,1.134413875853393
1589543746.453598,-2.046886090963003,-2.49,8.948923862962456,0.5255555555555556,-0.07777777777777778,-0.8122222222222222,-0.0011626372155580126,-0.057036650947511314,1.1184412268420123
1589543746.463598,-2.038692277157853,-2.4834807921316107,9.116538614210736,0.5255555555555556,-0.07777777777777778,-0.8122222222222222,0.005192980935691294,-0.04417970514288678,1.120638781254877
1589543746.473598,-2.1134735042735042,-2.432026210826211,8.770131054131054,0.5255555555555556,-0.07777777777777778,-0.8122222222222222,0.011493937889504821,-0.02229024132301305,1.1232715305674994
1589543746.483598,-2.2090700854700853,-2.487790883190883,9.048954415954416,0.5255555555555556,-0.07777777777777778,-0.8122222222222222,-0.002410021239915532,-0.035325203006844635,1.1154505535572004
1589543746.493598,-1.9978023019634394,-2.2913239191411163,8.90881729374214,0.5111111111111111,-0.1511111111111111,-0.8266666666666667,0.0001444171752665779,-0.030189920939731447,1.1032140699460748
1589543746.503598,-2.168186865267434,-2.2994374697746394,8.779000483605763,0.5111111111111111,-0.1511111111111111,-0.8266666666666667,0.0010294682539056892,-0.02133941015334033,1.0855130483732927
1589543746.513598,-2.246398717790655,-2.3768006411046727,9.089598076685983,0.5111111111111111,-0.1511111111111111,-0.8266666666666667,-0.008770489292285032,-0.04488423708691064,1.0606803595355965
1589543746.523598,-2.2981099741092343,-2.350945012945383,9.167164961163852,0.5111111111111111,-0.1511111111111111,-0.8266666666666667,-0.0003092547632043644,-0.037363139727727826,1.055039536516209
1589543746.533598,-2.1028876640163894,-2.251443832008195,8.953176430418027,0.5111111111111111,-0.1511111111111111,-0.8266666666666667,0.006450486111021187,0.003764832098254678,1.0397822324150234
1589543746.543598,-2.12,-2.2,9.44,0.4722222222222222,-0.19111111111111112,-0.8266666666666667,-0.01308996938995747,-0.05017821599483697,0.9915651812892784
1589543746.553598,-2.2109724976861034,-2.230324165895368,9.318703336418528,0.4722222222222222,-0.19111111111111112,-0.8266666666666667,-0.013751540062201398,-0.03562366120547056,0.9796569091888878
1589543746.563598,-2.3043901481349276,-2.1640246296626806,8.517806889166518,0.4722222222222222,-0.19111111111111112,-0.8266666666666667,-0.007615879537420284,-0.0036716394597995985,0.9803708394493855
1589543746.573598,-2.4173027186281604,-2.23718345888538,9.15111903039712,0.4722222222222222,-0.19111111111111112,-0.8266666666666667,-0.013128997049518587,-0.026336049418159414,0.9839423750316569
1589543746.583598,-2.0793655589123867,-1.9381948640483384,8.103950151057402,0.4722222222222222,-0.19111111111111112,-0.8266666666666667,0.026249145566719857,0.04169214570804431,1.0095218707941955
1589543746.593598,-2.1243335181658187,-1.9917334072663275,8.817070806914343,0.4455555555555555,-0.25222222222222224,-0.7977777777777778,-0.021954839970496184,-0.06184286542168678,0.9791513697201163
1589543746.6035979,-2.1941873915558125,-2.017113938692886,9.76814921920185,0.4455555555555555,-0.25222222222222224,-0.7977777777777778,-0.0314921395830498,-0.06391549156341872,0.9395201241808456
1589543746.6135979,-2.444123770965876,-2.090624638519375,9.025691150954309,0.4455555555555555,-0.25222222222222224,-0.7977777777777778,0.0037904634709304275,-0.0029728135610892353,0.9315013507594865
1589543746.6235979,-2.418874354098235,-1.9734555024107263,9.00738220096429,0.4455555555555555,-0.25222222222222224,-0.7977777777777778,0.010948287562051387,-0.0019275136451154748,0.9650482854065892
1589543746.6335979,-2.281908411609904,-1.8928873009470024,8.975154920378802,0.4455555555555555,-0.25222222222222224,-0.7977777777777778,-0.015417594712050417,-0.025656807691807098,0.9474710305571881
1589543746.6435978,-2.27,-1.91,9.27,0.4033333333333333,-0.27111111111111114,-0.8311111111111111,-0.02181661564992912,-0.04472406208235469,0.8999353955595761
1589543746.6535978,-2.284252083944205,-1.8779328111255393,9.109664055627697,0.4033333333333333,-0.27111111111111114,-0.8311111111111111,-0.008213330253999831,-0.033064103171558154,0.8847774489755407
1589543746.6635978,-2.2532884020343564,-1.8483557989828219,9.13191378881104,0.4033333333333333,-0.27111111111111114,-0.8311111111111111,-0.014568916655296853,-0.0336511034823816,0.8017165139352757
1589543746.6735978,-2.348412889493702,-1.8281243239471021,8.810144282773301,0.4033333333333333,-0.27111111111111114,-0.8311111111111111,0.0011223084005963398,-0.015255892145900443,0.7534335557150024
1589543746.6835978,-2.2679193272619425,-1.7329955685822953,8.817461879339824,0.4033333333333333,-0.27111111111111114,-0.8311111111111111,0.0027187603183272046,-0.014457666187035006,0.7366708105788282
1589543746.6935978,-2.486641817919908,-1.788791054451167,9.056776145203113,0.3331774384583373,-0.33797844841384167,-0.7686285172380678,-0.0010322194483173754,-0.024942579661970783,0.7287042683747221
1589543746.7035978,-2.612080950817973,-1.818724929604229,9.110268626807402,0.3322222222222222,-0.3388888888888889,-0.7677777777777778,-0.012057743885564284,-0.03762272297235315,0.7318083664513663
1589543746.7135978,-2.49912776957164,-1.7448323485967503,8.694698670605613,0.3322222222222222,-0.3388888888888889,-0.7677777777777778,-0.00707211215508762,-0.03325205093500257,0.7567802903258698
1589543746.7235978,-2.7026254207405036,-1.8049493107869852,9.105757733611155,0.3322222222222222,-0.3388888888888889,-0.7677777777777778,0.012395830175282244,-0.022830319853017218,0.7608600001266678
1589543746.7335978,-2.9715338996634078,-1.8637730405513706,9.055337393813112,0.3322222222222222,-0.3388888888888889,-0.7677777777777778,0.0041458213679365225,-0.02191365220775658,0.7544433266098434
1589543746.7435977,-2.8199417597328047,-1.7760565702953763,8.909084855443064,0.34613976736364793,-0.34758735460227996,-0.7286346820675178,-0.0009973570248062785,-0.024378525273306504,0.7580339200773467
1589543746.7535977,-2.388184463285674,-1.5432737853142697,8.60691455745706,0.35,-0.35,-0.7177777777777777,0.0020626233717899074,-0.02477202547074156,0.7497968362420131
1589543746.7635977,-2.486602165003285,-1.582640866001314,8.810311141006789,0.35,-0.35,-0.7177777777777777,0.0006311959241082487,-0.03407630388067234,0.7283254245267882
1589543746.7735977,-2.8630681818181816,-1.7537237762237763,9.472194055944057,0.35,-0.35,-0.7177777777777777,-0.008384331355324596,-0.05308455535239746,0.6899781221079353
1589543746.7835977,-2.904093005702784,-1.7163720228111372,9.084836673934921,0.35,-0.35,-0.7177777777777777,0.021415833223049137,0.006834250623715218,0.699790794588713
1589543746.7935977,-2.9,-1.69,9.51,0.37666666666666665,-0.3233333333333333,-0.6822222222222222,-0.004363323129985824,-0.04254240051736178,0.6817692390602851
1589543746.8035977,-2.927607152994607,-1.6923005960828839,9.447883905762135,0.37666666666666665,-0.3233333333333333,-0.6822222222222222,-0.007123840257816409,-0.047812478670492896,0.6772520292147441
1589543746.8135977,-3.125841798625635,-1.677319614580221,8.899794218703315,0.37666666666666665,-0.3233333333333333,-0.6822222222222222,0.009202682923157752,-0.02421574265848963,0.6876994296359533
1589543746.8235977,-2.893877099911583,-1.5917285587975243,9.056122900088418,0.37666666666666665,-0.3233333333333333,-0.6822222222222222,-0.00047669594540130505,-0.03566876808663091,0.7172952635962444
1589543746.8335977,-2.918487543644428,-1.6381836840615267,9.236063508540152,0.37666666666666665,-0.3233333333333333,-0.6822222222222222,-0.0021485156263344367,-0.0441952196604357,0.7215679896520764
1589543746.8435977,-3.0881645252066927,-1.6323670949586615,9.021303854627954,0.3812721508402231,-0.32410091402892605,-0.6676381890059602,0.01850200444628437,-0.014581238653461111,0.7119963002014893
1589543746.8535976,-2.774313020812764,-1.4182948935666047,8.666820425733581,0.38333333333333336,-0.3244444444444444,-0.6611111111111111,-0.0015372266028917119,-0.04554245441974599,0.679041623603006
1589543746.8635976,-2.3933292523991945,-1.3768836143912169,8.832465542435132,0.38333333333333336,-0.3244444444444444,-0.6611111111111111,-0.012378674138987958,-0.06541844156925579,0.6392896493039864
1589543746.8735976,-2.251732270247587,-1.3112992026856904,8.97740159462862,0.38333333333333336,-0.3244444444444444,-0.6611111111111111,0.003961780216680791,-0.035638810352384004,0.5654475853470334
1589543746.8835976,-2.8957816574315514,-1.4777354954367667,9.307084216101694,0.38333333333333336,-0.3244444444444444,-0.6611111111111111,0.001618757503890041,-0.035821440248585176,0.4834522561851914
1589543746.8935976,-3.11,-1.53,9.3,0.3955555555555556,-0.3111111111111111,-0.6611111111111111,0.035997415822383035,0.029452431127404314,0.4439681284760576
1589543746.9035976,-3.086622449802435,-1.5285831787759052,9.339670994274655,0.3955555555555556,-0.3111111111111111,-0.6611111111111111,0.0323654621417212,0.02296127986834912,0.44072255284653
1589543746.9135976,-2.680068053799287,-1.4057231865731694,9.560204161397861,0.3955555555555556,-0.3111111111111111,-0.6611111111111111,-0.020959048854281712,-0.07355219040096064,0.376351466997103
1589543746.9235976,-2.7364884703788834,-1.3085838214577001,8.944927708163418,0.3955555555555556,-0.3111111111111111,-0.6611111111111111,-0.006615916599497857,-0.039955610206945526,0.3072895468023765
1589543746.9335976,-2.84,-1.4307011530071674,9.462938130738069,0.3955555555555556,-0.3111111111111111,-0.6611111111111111,0.00545415391248228,-0.03336958493453047,0.2678071546110975
1589543746.9435976,-2.2721993390614674,-1.1330844679444811,8.110055783212161,0.41467342292722337,-0.32640540500844534,-0.6687582580597783,0.024223076314712114,0.012344628436259622,0.27133623366264925
1589543746.9535975,-2.4787850663862234,-1.2727645589588537,9.315372420139344,0.4177777777777778,-0.3288888888888889,-0.67,-0.01898940366865613,-0.07074319402126904,0.2411666684211134
1589543746.9635975,-2.429942685531798,-1.3743757798786032,9.704605037751412,0.4177777777777778,-0.3288888888888889,-0.67,-0.03757182218240014,-0.08072772994335747,0.17353451385129304
1589543746.9735975,-2.474656460913863,-1.180483566496858,8.420916707610353,0.4177777777777778,-0.3288888888888889,-0.67,0.037146496082934244,0.04836009887205693,0.12676121657567818
1589543746.9835975,-2.7074612908483418,-1.3011828701817294,8.705705117757313,0.4177777777777778,-0.3288888888888889,-0.67,0.019056291956449478,0.025151645643534226,0.06508359947004769
1589543746.9935975,-2.256893641452562,-1.303992536242285,9.711184728003445,0.3967734239191107,-0.3108851570100314,-0.6810022805926351,-0.03513452123238815,-0.05935666379147745,-0.058927251920647156
1589543747.0035975,-2.437709695053835,-1.1537171107361015,8.402027190834977,0.3944444444444444,-0.3088888888888889,-0.6822222222222222,0.02147258899024368,0.0370862242912571,-0.1945706567474947
1589543747.0135975,-2.29914965034965,-1.274041958041958,9.172549184149183,0.3944444444444444,-0.3088888888888889,-0.6822222222222222,-0.012695236124981368,-0.001833307678741132,-0.35725801500270526
1589543747.0235975,-2.3337917636054013,-1.3079305878684673,9.297930587868468,0.3944444444444444,-0.3088888888888889,-0.6822222222222222,-0.030166796696811243,-0.022305243373861285,-0.4945571360693878
1589543747.0335975,-2.568278769114909,-1.3336150450808528,8.906415915319123,0.3944444444444444,-0.3088888888888889,-0.6822222222222222,0.002712598113250239,0.027521758993549174,-0.5761618589845022
1589543747.0435975,-2.279818825575617,-1.310155292363757,8.97054352327315,0.4155555555555556,-0.33555555555555555,-0.6844444444444444,-0.01093654077340999,0.019618014315868952,-0.6634199231021187
1589543747.0535975,-2.219026834520457,-1.3622627132681797,9.152919496438628,0.4155555555555556,-0.33555555555555555,-0.6844444444444444,-0.020409937226583928,0.013933976443964585,-0.7287863586290189
1589543747.0635974,-2.1451932498639086,-1.3405423863017767,9.015037363289949,0.4155555555555556,-0.33555555555555555,-0.6844444444444444,-0.012819299545673943,0.02080195462217619,-0.750703083034447
1589543747.0735974,-2.4002344558096773,-1.4701172279048387,9.121912423859326,0.4155555555555556,-0.33555555555555555,-0.6844444444444444,-0.0015612131633637926,0.0368594492048041,-0.771321669765741
1589543747.0835974,-2.149531927451025,-1.4902955530837854,9.322093614509795,0.4155555555555556,-0.33555555555555555,-0.6844444444444444,-0.006236007179168445,0.04254240051736178,-0.7973005824844128
1589543747.0935974,-1.8361483536240817,-1.3119530487491653,8.678300457183953,0.4296041734445187,-0.328531246611074,-0.6941028692431066,-0.00010652228476528205,0.04857648730000623,-0.8479049189734406
1589543747.1035974,-2.335967254145375,-1.5165658567108145,9.354174575033893,0.43333333333333335,-0.32666666666666666,-0.6966666666666667,-0.023753923839095314,0.007912817558545053,-0.9412237217682258
1589543747.1135974,-2.3158036051934956,-1.4872024034623303,8.002106180931971,0.43333333333333335,-0.32666666666666666,-0.6966666666666667,-0.011857920504142742,0.05955171083743736,-0.9762708160989351
1589543747.1235974,-2.6671800258155955,-1.7589038495608817,9.221071600313836,0.43333333333333335,-0.32666666666666666,-0.6966666666666667,0.005495235034305436,0.06038546674557074,-1.00559902258306
1589543747.1335974,-2.6791378493604925,-1.8447022092071832,9.649404418414367,0.43333333333333335,-0.32666666666666666,-0.6966666666666667,-0.032971171912163665,0.01342162028029057,-1.0601148836146042
1589543747.1435974,-2.260592380269915,-1.6906968828376927,9.069988454954418,0.42153310243242165,-0.35420053876879387,-0.6920776879829788,-0.0010135532882708659,0.07054544979114093,-1.0835332379047748
1589543747.1535974,-1.8971656189459534,-1.6728343810540465,9.411114537619104,0.4133333333333333,-0.37333333333333335,-0.6888888888888889,0.0003335070747260138,0.04835438556898822,-1.1658097541931447
1589543747.1635973,-1.9063696300923034,-1.8130582737640828,9.822486177620469,0.4133333333333333,-0.37333333333333335,-0.6888888888888889,-0.0802426449045788,-0.03604659872184602,-1.2646556657291719
1589543747.1735973,-2.0862678746633825,-1.722706511074463,8.403874078867712,0.4133333333333333,-0.37333333333333335,-0.6888888888888889,-0.005267654025029586,0.09045198998137169,-1.3080397550800955
1589543747.1835973,-2.446655788233161,-1.9409001903725862,8.761486719245761,0.4133333333333333,-0.37333333333333335,-0.6888888888888889,0.005520804256730544,0.08181408866675419,-1.3580167838740793
1589543747.1935973,-2.3333022688024774,-1.9479181801941283,9.007918180194128,0.4133333333333333,-0.5245656589716614,-0.6472999993383487,-0.02985727855501755,0.050716193755846656,-1.3773935165843227
1589543747.2035973,-2.3065830657655435,-2.037789927476031,9.421159709904124,0.4133333333333333,-0.5511111111111111,-0.64,-0.026766391667538605,0.05722757858468851,-1.392190733177198
1589543747.2135973,-2.3399533260632497,-2.050015557978917,8.89595681570338,0.4133333333333333,-0.5511111111111111,-0.64,-0.006029268767783209,0.08014296882497364,-1.4071530411858808
1589543747.2235973,-2.4822591747409377,-2.146646216003891,8.636422879802476,0.4133333333333333,-0.5511111111111111,-0.64,-0.0003801645867994828,0.08001750417278433,-1.4329471214132088
1589543747.2335973,-2.732254054772667,-2.3898032438181334,9.297102166976869,0.4133333333333333,-0.5511111111111111,-0.64,-0.03531832942957059,0.037853184077622545,-1.4707286995783337
1589543747.2435973,-2.5607976042957454,-2.2955786864931844,8.804113589425858,0.4581659552985451,-0.6619587406489513,-0.4952194226444536,-0.026911890290103074,0.06879799005662458,-1.4725823116939845
1589543747.2535973,-2.1429073975016517,-2.21183537333627,8.644742770837922,0.6555555555555556,-1.15,0.14222222222222222,-0.015121020040454477,0.05593359173631107,-1.4780532628036458
1589543747.2635972,-2.6137336606320956,-2.445440932801473,8.448461491254987,0.6555555555555556,-1.15,0.14222222222222222,-0.0063198565009599805,0.09448683187675147,-1.4846206949776766
1589543747.2735972,-2.4987968650709593,-2.504083880533785,8.99240626985808,0.6555555555555556,-1.15,0.14222222222222222,-0.010655066872281627,0.074951465979192,-1.4957212441097874
1589543747.2835972,-2.078323465703971,-2.420101083032491,9.294262815884476,0.6555555555555556,-1.15,0.14222222222222222,-0.025952951464741313,0.04101413477703245,-1.4998978391567983
1589543747.2935972,-1.5780643127364438,-2.2254293247735872,8.649002636707554,0.8176400830499191,-0.7866515724712446,-0.24044753970983482,-0.005741586510621465,0.07991582877986861,-1.5140448017703065
1589543747.3035972,-1.2492828607997517,-2.192792149866191,8.578074312531513,0.9911111111111112,-0.3977777777777778,-0.65,0.007038974541638498,0.09589025777051119,-1.5888381255470287
1589543747.3135972,-1.4212116788321167,-2.4797226277372264,9.477007299270072,0.9911111111111112,-0.3977777777777778,-0.65,-0.05966924002940467,0.0038648851228013092,-1.71989776645204
1589543747.3235972,-1.5794937776840328,-2.565860577937144,9.326378401181184,0.9911111111111112,-0.3977777777777778,-0.65,-0.06591369737322395,0.018806649757370862,-1.8414425800237826
1589543747.3335972,-1.551204501494637,-2.6436521892034466,8.859713381396167,0.9911111111111112,-0.3977777777777778,-0.65,0.015407241534029868,0.13120007037317932,-1.9195681304925905
1589543747.3435972,-1.4378105685532148,-2.6722632106915185,8.775658026728797,0.7138498959108609,-0.25007787809166315,-0.7095982051365024,0.0025640506491201517,0.12000748220886308,-2.0190875380653077
1589543747.3535972,-1.1715718395740295,-2.6349437478529714,8.8780906475438,0.6344444444444445,-0.20777777777777776,-0.7266666666666667,-0.013384153636327662,0.0989468723313832,-2.1222423194403537
1589543747.3635972,-1.1596551197924614,-2.8080075283585124,9.08478915509436,0.6344444444444445,-0.20777777777777776,-0.7266666666666667,-0.022869825837759893,0.06535374242182133,-2.2468689311186743
1589543747.3735971,-1.18,-2.8286585915092326,8.291617322871975,0.6344444444444445,-0.20777777777777776,-0.7266666666666667,-0.026798516654844725,0.10544134742646347,-2.349832288885649
1589543747.3835971,-1.2156780867817054,-2.899284637292679,8.3870491288323,0.6344444444444445,-0.20777777777777776,-0.7266666666666667,-0.029000492021169808,0.11111680422770083,-2.390050883333176
1589543747.3935971,-1.333840168149904,-3.202015115603059,9.652775367827916,0.6253611694964945,-0.19269954136418066,-0.7275749941614617,-0.03296547115113758,0.0821275427338552,-2.48141197088387
1589543747.403597,-1.2392754929577465,-3.188550985915493,9.15707661971831,0.5788888888888889,-0.11555555555555555,-0.7322222222222222,0.008252457509676285,0.14202948646482755,-2.583764591320841
1589543747.413597,-1.1680286316311355,-3.2729199719054702,9.056131424557925,0.5788888888888889,-0.11555555555555555,-0.7322222222222222,-0.008280944267594407,0.13211770715059723,-2.6514754965927354
1589543747.423597,-1.0834261251774187,-3.209648825603223,8.964334050638708,0.5788888888888889,-0.11555555555555555,-0.7322222222222222,-0.015675729295739668,0.13278423755215193,-2.709738585273805
1589543747.433597,-1.0141035260595987,-3.2115937314496024,9.114581977917608,0.5788888888888889,-0.11555555555555555,-0.7322222222222222,0.002333779555865564,0.14325953319508147,-2.773630707918801
1589543747.443597,-1.0659083613873013,-3.3275293588037265,9.348339857511938,0.5839854684795185,-0.08265945092512852,-0.7470486355767809,-0.022478198157116505,0.10824467235443981,-2.8445501142343694
1589543747.453597,-1.2248690671031097,-3.444659574468085,9.111309328968902,0.5911111111111111,-0.03666666666666667,-0.7677777777777778,-0.05026962440083341,0.10075045220849058,-2.907532324901744
1589543747.463597,-1.120964711569449,-3.337952948759265,8.59715033838221,0.5911111111111111,-0.03666666666666667,-0.7677777777777778,-0.017085405180632136,0.1485762850701921,-2.918165128096202
1589543747.473597,-1.0716781723720732,-3.2858195146252935,8.737831471069676,0.5911111111111111,-0.03666666666666667,-0.7677777777777778,-0.0018519513427124729,0.14722574544294348,-2.9158313616592886
1589543747.483597,-1.1517502244122308,-3.4428184266315247,9.168069099868218,0.5911111111111111,-0.03666666666666667,-0.7677777777777778,-0.0181201578633786,0.1134885270856649,-2.917718234752455
1589543747.493597,-1.040657516232432,-3.400588887975672,8.590068628256759,0.5857823529948951,-0.004102033734235594,-0.7600806827210214,-0.009983383376240579,0.1627190135498611,-2.8914487572879453
1589543747.503597,-1.1699717491956367,-3.70794632347171,8.873916660127128,0.5811111111111111,0.024444444444444446,-0.7533333333333333,-0.01264809004449355,0.14989108949570856,-2.8592884205959432
1589543747.513597,-1.0716149729458029,-3.7325821235327163,8.60669938795423,0.5811111111111111,0.024444444444444446,-0.7533333333333333,-0.02419186008818254,0.11890055529211367,-2.810429219587937
1589543747.523597,-0.996640028733052,-3.786540136481997,8.513140208314626,0.5811111111111111,0.024444444444444446,-0.7533333333333333,0.0268584880259812,0.14360135417242637,-2.739850533771965
1589543747.533597,-3.9295310457835084,-6.89623763728225,10.779850379415953,0.5811111111111111,0.024444444444444446,-0.7533333333333333,0.012108002510924566,0.10761339427378225,-2.6942845354437703
1589543747.543597,-2.4112554112554117,-5.8292363636363635,7.220128138528139,0.5700157768157768,0.06327811447811449,-0.7477856661856662,0.0026487826948827335,0.3584651284192652,-2.8481642730863204
1589543747.553597,2.0075162647039493,-1.243434645462312,-0.5231316948150095,0.5522222222222222,0.12555555555555556,-0.7388888888888889,-0.552892066005644,0.025248141189964324,-6.272339365312483
1589543747.563597,-1.4254118383964924,-4.984131694331349,8.702409176323208,0.5522222222222222,0.12555555555555556,-0.7388888888888889,-1.3926497043485009,-0.8126538157465413,-9.926567636620415
1589543747.573597,-2.5904122931065388,-6.020746708626287,15.148850359511624,0.5522222222222222,0.12555555555555556,-0.7388888888888889,-1.2040586570569114,0.0017410882065477251,-9.174452860476993
1589543747.583597,-3.083852297377243,-3.366756063892723,11.008275488069415,0.5522222222222222,0.12555555555555556,-0.7388888888888889,-0.04966119533111568,1.4465290604443894,-7.977597112261302
1589543747.593597,-1.4132375816065852,-1.5016003406187908,10.222913426057337,0.5277198725833412,0.17978206705143976,-0.7364788217112941,1.5955989639890322,1.2198773335537818,-6.952206533567538
1589543747.603597,-0.917624313438301,-2.0472273892347124,10.247789088246064,0.4844444444444445,0.27555555555555555,-0.7322222222222222,0.935397501453471,0.278097302391063,-5.994616268931801
1589543747.613597,0.176584823414287,-2.204975535984343,9.190579129970644,0.4844444444444445,0.27555555555555555,-0.7322222222222222,-0.5393382381698684,-0.00456138252212844,-4.573993791380515
1589543747.623597,0.5461388842906804,-1.8435308723721238,8.353217596424432,0.4844444444444445,0.27555555555555555,-0.7322222222222222,-0.12101301293434685,0.18648678557171583,-3.789858391187032
1589543747.633597,0.4213656618610747,-2.1406605504587155,8.635638269986893,0.4844444444444445,0.27555555555555555,-0.7322222222222222,0.1931782684486627,0.23950240630004754,-3.2371345616697225
1589543747.643597,1.2430157619655129,-8.524039672414503,9.086014650808675,0.4585682081109877,0.3183508694916572,-0.7262507830683476,-0.017384832215267917,0.1178673209495507,-2.8332939943390536
1589543747.6535969,1.3137570574362152,-8.262756509517114,7.9210203206517855,0.3977777777777778,0.4188888888888889,-0.7122222222222222,-0.1212894583343539,0.08905430039195923,-1.8032319750229857
1589543747.6635969,0.8957161877764893,0.9740918266546406,8.226388137267534,0.3977777777777778,0.4188888888888889,-0.7122222222222222,0.04088839783171713,0.14932699434601848,-0.8377331865257137
1589543747.6735969,1.634023407422617,-0.9430871105179404,9.511171911092859,0.3977777777777778,0.4188888888888889,-0.7122222222222222,0.1371165502446007,0.04039041608982197,-0.30699632426978923
1589543747.6835968,1.7132988220136205,-3.0661554389839867,9.20160730719676,0.3977777777777778,0.4188888888888889,-0.7122222222222222,0.03558531750081596,-0.05243165595201514,-0.1528280931015294
1589543747.6935968,1.8998665562304435,-5.208467697404749,8.59043714338303,0.3977777777777778,0.4188888888888889,-0.7122222222222222,-0.10897967720915494,-0.003307628623384254,-0.023000306590147762
1589543747.7035968,0.9232155992390615,-3.17827393785669,8.850666455294864,0.36,0.4655555555555556,-0.7122222222222222,0.06587186081180454,0.051454425756223124,0.36080255324292865
1589543747.7135968,1.0810510411876766,-4.045915883859949,8.969609636733889,0.36,0.4655555555555556,-0.7122222222222222,0.08377559629113811,0.01947772125011437,0.447819338691716
1589543747.7235968,1.1449574105621805,-4.257393526405451,8.810255536626917,0.36,0.4655555555555556,-0.7122222222222222,-0.005859266536986924,-0.0120270133293306,0.4752194083214458
1589543747.7335968,0.979684785963056,-4.013316580699202,8.918789401754617,0.36,0.4655555555555556,-0.7122222222222222,-0.02110338938641878,-0.02950263733191546,0.573317537495531
1589543747.7435968,0.8380642023346304,-3.768774319066148,8.799678988326848,0.3562581063553826,0.4711683960224817,-0.7091039775183744,0.028262916237152824,-0.03205641822881122,0.666124094063079
1589543747.7535968,0.8989264761450192,-4.004680707197264,8.984729033669431,0.3533333333333333,0.4755555555555556,-0.7066666666666667,0.018645411788080546,-0.029090578066687155,0.7376779883437156
1589543747.7635968,0.984078757518279,-4.193637793233144,9.124566898497156,0.3533333333333333,0.4755555555555556,-0.7066666666666667,0.00252866611428762,-0.0322782846563743,0.7917885505096152
1589543747.7735968,1.099674788839713,-4.180038260136504,8.920573902047567,0.3533333333333333,0.4755555555555556,-0.7066666666666667,0.003270405580757293,-0.03598698198872266,0.8474190104948406
1589543747.7835968,0.6378786106361919,-3.9847772878610637,8.524777287861063,0.3533333333333333,0.4755555555555556,-0.7066666666666667,-0.004923314996641297,-0.043372670667073496,0.9398606561742733
1589543747.7935967,0.5309421398362278,-4.047681094213983,8.587681094213984,0.3533333333333333,0.4755555555555556,-0.7066666666666667,-0.0008062704982836214,-0.03994180025177544,0.9858343197392674
1589543747.8035967,0.8568750372978456,-3.996624992540431,9.039208390523363,0.38666666666666666,0.4511111111111111,-0.72,0.0017862297103486014,-0.07868071884190593,1.098484760042817
1589543747.8135967,0.74,-4.03211757801536,8.734785027174606,0.38666666666666666,0.4511111111111111,-0.72,0.023159814647191603,-0.051769635984630996,1.1783110079603394
1589543747.8235967,0.696625662332812,-4.115061506500782,8.571687168833595,0.38666666666666666,0.4511111111111111,-0.72,0.01653308467046681,-0.03735127225748304,1.2330597780390153
1589543747.8335967,0.5520065768124094,-4.184696795967375,8.65738701512234,0.38666666666666666,0.4511111111111111,-0.72,-0.006421111930828337,-0.058685978679366646,1.2842097133376338
1589543747.8435967,0.3964025766528873,-4.078415459917324,8.838383251756232,0.39119914111570425,0.44733404907024643,-0.7173560565713948,-0.005194884147739899,-0.07677217860095065,1.3736730156382528
1589543747.8535967,0.44923594916808596,-3.9450218786846585,9.02668125245644,0.4,0.44,-0.7122222222222222,0.02072578486743266,-0.0818123086872342,1.4780757102826978
1589543747.8635967,0.4862327933327091,-4.021494053750351,8.897855136248713,0.4,0.44,-0.7122222222222222,0.008152731778142231,-0.06923925559794376,1.5268591562691447
1589543747.8735967,0.38739776208871723,-4.048996270147862,8.682193286266152,0.4,0.44,-0.7122222222222222,-0.007003214996377773,-0.06324791485140452,1.6145877263785895
1589543747.8835967,0.37968456704480535,-4.078107402268832,8.730073859462989,0.4,0.44,-0.7122222222222222,-0.0005929995790589174,-0.07632374637701791,1.6861996445905438
1589543747.8935966,0.36625999807266074,-4.152201663936269,8.911883331727218,0.40343648167778456,0.4350014811959497,-0.7122222222222222,0.020008200350560574,-0.0760861741594894,1.7714339248168127
1589543747.9035966,0.3691411648568608,-4.188473181967752,8.9687594603488,0.4122222222222222,0.4222222222222222,-0.7122222222222222,0.03436637433647851,-0.07737611992748636,1.867169199612163
1589543747.9135966,0.46,-4.35,9.1,0.4122222222222222,0.4222222222222222,-0.7122222222222222,0.03381575425739013,-0.08508480103472357,1.902408884673819
1589543747.9235966,3.115001314911092,-8.594774138733234,8.583525580078087,0.4122222222222222,0.4222222222222222,-0.7122222222222222,0.03205517239606881,-0.07364101893613494,1.9112117939804256
1589543747.9335966,2.202319433190752,-6.2700096101302085,7.190760142456048,0.4122222222222222,0.4222222222222222,-0.7122222222222222,-0.14516557102107147,-0.14575253824911358,1.1085374559177887
1589543747.9435966,0.06837871450375932,-4.523339614464189,8.842588328402645,0.4122222222222222,0.4222222222222222,-0.7122222222222222,0.06691997827364332,-0.006948581190377501,0.8085139959398995
1589543747.9535966,-0.4215478555138675,-3.476352534392702,8.386352534392701,0.46,0.3955555555555556,-0.7266666666666667,0.03695282565693108,0.03415344394566683,0.2846742128298914
1589543747.9635966,-0.08212830133156779,-3.8774847347899652,8.787484734789965,0.46,0.3955555555555556,-0.7266666666666667,-0.03120670418067204,-0.03989641563098842,0.08524447737912672
1589543747.9735966,0.25570122761332836,-4.040331969318524,8.748883810738516,0.46,0.3955555555555556,-0.7266666666666667,-0.0318413951783518,-0.046157073366462235,-0.05346881445990086
1589543747.9835966,0.1353693786892229,-4.194574027870748,8.703835270492302,0.46,0.3955555555555556,-0.7266666666666667,-0.025429971873041884,-0.005624585850293979,-0.06033347021960492
1589543747.9935966,0.19307237431557991,-4.323815828770533,8.766164459930314,0.4628223660195786,0.3893976660582933,-0.7251271942923511,0.000254045747393948,0.0029351981304227685,-0.050009568886303674
1589543748.0035965,0.18013172189027704,-4.194766431287344,8.834634709397067,0.4722222222222222,0.3688888888888889,-0.72,0.011385138934260606,-0.004717354304641789,-0.042376494694928865
1589543748.0135965,0.2258182124059699,-4.317838448412603,8.874040472013267,0.4722222222222222,0.3688888888888889,-0.72,0.006544984694978735,0.002333715652773908,-0.013200156171154631
1589543748.0235965,0.18421229935927075,-4.18578770064073,8.792636898077811,0.4722222222222222,0.3688888888888889,-0.72,0.002281600946413256,0.003588162448428464,-0.012918119768697544
1589543748.0335965,0.19217232155427283,-4.182921300858792,8.834344643108546,0.4722222222222222,0.3688888888888889,-0.72,-0.007121037949257802,0.002181661564992912,-0.019099751314698255
