time,acc_x,acc_y,acc_z,mag_x,mag_y,mag_z,gyr_x,gyr_y,gyr_z
1589543789.5021005,0.1,-4.21,8.89,0.5244444444444445,0.33,-0.6677777777777778,0.002181661564992912,0.002181661564992912,0.0
1589543789.5121005,0.1,-4.217916462194707,8.913749386584122,0.5393977619233367,0.33,-0.7020824472881776,-0.00040899463014405085,0.0013181094999472577,-0.0008635520650456543
1589543789.5221004,0.09,-4.199151739401065,8.844062175807455,0.5433333333333333,0.33,-0.7111111111111111,-0.0008132381506273287,0.002551785074151748,0.0019965998104134936
1589543789.5321004,0.09,-4.19189968185905,8.793297773013348,0.5433333333333333,0.33,-0.7111111111111111,0.0015599921303524513,0.005716092115458121,0.00041444628976030707
1589543789.5421004,0.09085835166694872,-4.209141648333051,8.83,0.5433333333333333,0.33,-0.7111111111111111,-0.004363323129985824,0.0,0.001090830782496456
1589543789.5521004,0.09795650702318498,-4.202043492976816,8.83,0.5433333333333333,0.33,-0.7111111111111111,-0.004363323129985824,0.0,0.001090830782496456
1589543789.5621004,0.08170654997948859,-4.21,8.859146725010255,0.5511111111111111,0.3244444444444444,-0.6755555555555556,-0.0045494788549353075,-0.003551725934913594,-9.307786247474203e-05
1589543789.5721004,0.1021064373001512,-4.21,8.83314850159879,0.5511111111111111,0.3244444444444444,-0.6755555555555556,-0.005855654700457638,-0.006315208030138369,-0.0006312774528157241
1589543789.5821004,0.11,-4.2153807214791925,8.778967869131987,0.5511111111111111,0.3244444444444444,-0.6755555555555556,-0.0028811952393865206,-0.004867208250328008,0.001090830782496456
1589543789.5921004,0.11,-4.237730058080674,8.81621676346779,0.5511111111111111,0.3244444444444444,-0.6755555555555556,-0.0012559056171684829,-0.0024292738170009526,0.001090830782496456
1589543789.6021004,0.09134966592427617,-4.184048997772829,8.875951002227172,0.5511111111111111,0.3244444444444444,-0.6755555555555556,0.0019608229945498653,-0.00014722571362869776,0.001090830782496456
1589543789.6121004,0.09140490668903334,-4.1842147200671,8.897024533445167,0.5377777777777778,0.3244444444444444,-0.6755555555555556,-0.0024881646575794607,-0.0017038369676695534,0.0023349131112861865
1589543789.6221004,0.1,-4.21,8.904827519938502,0.5377777777777778,0.3244444444444444,-0.6755555555555556,-0.003883732830638026,-0.00521435876280838,0.0025531068984676712
1589543789.6321003,0.1,-4.207733942977521,8.789064228089915,0.5377777777777778,0.3244444444444444,-0.6755555555555556,-0.002181661564992912,-0.004116134654484628,0.0
1589543789.6421003,0.1,-4.203496561859318,8.828741404648294,0.5377777777777778,0.3244444444444444,-0.6755555555555556,-0.001990953699540586,-0.00270036875113239,0.00019070786545232594
1589543789.6521003,0.1,-4.218716185568881,8.866790463922202,0.5377777777777778,0.3244444444444444,-0.6755555555555556,-0.0011608519975203591,-0.00021006364507170907,0.0010208095674725528
1589543789.6621003,0.10713860852432201,-4.212861391475678,8.877138608524323,0.5520549948264218,0.3244444444444444,-0.6906259513291243,0.0004665720020079545,0.0007787013922522052,0.0003121293902442507
1589543789.6721003,0.10052126102324253,-4.21,8.794691349209183,0.5577777777777778,0.3244444444444444,-0.6966666666666667,0.0031587708335156584,5.6860756986855084e-05,0.0
1589543789.6821003,0.09299274747719523,-4.217007252522804,8.76197098990878,0.5577777777777778,0.3244444444444444,-0.6966666666666667,0.0017437469969690893,-0.002293118025780418,0.0
1589543789.6921003,0.09933048217394597,-4.229330482173946,8.768660964347891,0.5577777777777778,0.3244444444444444,-0.6966666666666667,0.002108628499583926,-0.002254694630401898,0.0010177977170874699
1589543789.7021003,0.11456529620767167,-4.2154347037923285,8.850109129142195,0.5577777777777778,0.3244444444444444,-0.6966666666666667,-0.00020157945393316093,-0.0005928342190421969,-0.001292410236429617
1589543789.7121003,0.10096068943594816,-4.200480344717974,8.88,0.5186414171738934,0.3434837550084963,-0.6765696166268342,0.004101335727697974,0.001038433302038886,0.0009336383411237461
1589543789.7221003,0.09210078635938959,-4.2,8.927395281843662,0.5166666666666667,0.34444444444444444,-0.6755555555555556,0.005224993669655196,0.00626085402051269,0.002814171861835201
1589543789.7321002,0.09540385904022268,-4.217242315424134,8.811838456383912,0.5166666666666667,0.34444444444444444,-0.6755555555555556,0.003272492347489368,0.009817477042468105,0.0030719478659046516
1589543789.7421002,0.059370973007336646,-4.195622583804402,8.826251610797065,0.5166666666666667,0.34444444444444444,-0.6755555555555556,0.003272492347489368,0.009817477042468105,0.0014997166152303039
1589543789.7521002,0.06779938059187887,-4.1988996902959395,8.83,0.5166666666666667,0.34444444444444444,-0.6755555555555556,0.0013308811215902217,0.00884667142951853,0.001090830782496456
1589543789.7621002,0.028322213715410702,-4.158322213715411,8.746644427430821,0.5342639542090488,0.3277733299306087,-0.6885219779552055,-0.004364778684568177,0.0014525003038854704,0.0029093672715180007
1589543789.7721002,0.15165029189804927,-4.253321942189948,8.961620390146662,0.5377777777777778,0.3244444444444444,-0.6911111111111111,-0.01581681336226386,-0.01872600609416741,-0.0009089479907687969
1589543789.7821002,-0.009775040171397964,-4.137498660953401,8.491585431173005,0.5377777777777778,0.3244444444444444,-0.6911111111111111,-0.009619409749877692,-0.014082058660808562,0.00017352798200398898
1589543789.7921002,0.14787349617207438,-4.231063251913963,8.87425300765585,0.5377777777777778,0.3244444444444444,-0.6911111111111111,0.007102887175753172,0.01190812999478354,0.0009748479907665649
1589543789.8021002,0.13258257382428,-4.238708713087861,8.90483485235144,0.5377777777777778,0.3244444444444444,-0.6911111111111111,-0.004572978977062795,-0.01227759275033525,0.00014085755127971002
1589543789.8121002,0.09136180466121059,-4.206021353495908,8.855184662041461,0.5244444444444445,0.33,-0.6755555555555556,0.0039006796395406273,0.0033181267871875077,0.0008966464983787494
1589543789.8221002,0.17887837315821423,-4.272149439876387,9.079906186192815,0.5244444444444445,0.33,-0.6755555555555556,-0.0032011287421337283,-0.006473621089623096,0.0
1589543789.8321002,0.04359494728050945,-4.173482827017434,8.702245954692557,0.5244444444444445,0.33,-0.6755555555555556,-0.0016301309620294674,-0.003064187966307353,0.0
1589543789.8421001,0.15734265539477166,-4.2388189579532325,8.957342655394772,0.5244444444444445,0.33,-0.6755555555555556,0.0008975832294908583,0.008468982855964185,3.220792550093295e-05
1589543789.8521001,0.10476859653765269,-4.215452709572291,8.904768596537652,0.5244444444444445,0.33,-0.6755555555555556,-0.00292571022131753,0.003371258254886332,0.0006694235006356645
1589543789.8621001,0.08247968372501648,-4.206239841862509,8.876239841862509,0.53623081240696,0.3348532103375064,-0.679715450130561,-0.00953812086140268,-0.004083966948920401,0.0004101696243430557
1589543789.8721,0.1042912795924483,-4.21,8.89429127959245,0.5433333333333333,0.3377777777777778,-0.6822222222222222,-0.011219670222425714,-0.005765516309943435,0.0
1589543789.8821,0.052584344299549,-4.191292172149775,8.681938258224662,0.5433333333333333,0.3377777777777778,-0.6822222222222222,-0.008093916353584252,-0.007214516744676592,0.0010203537246335236
1589543789.8921,0.11123973009824145,-4.220619865049121,8.72592979757368,0.5433333333333333,0.3377777777777778,-0.6822222222222222,-0.01849117016670237,-0.02241050308692615,-0.0005792237850769562
1589543789.9021,0.20862202011850628,-4.261448808047402,8.99159046437922,0.5433333333333333,0.3377777777777778,-0.6822222222222222,-0.005521584901737882,-0.008402839222400496,0.0014820688093232133
1589543789.9121,0.06551357683778922,-4.184180996611021,8.72387557005983,0.5433333333333333,0.32824233295678,-0.6822222222222222,-0.0018709475376620108,-0.0001520253268271492,-0.00015868870050375237
1589543789.9221,0.13878773301262778,-4.259090799759471,8.917272399278412,0.5433333333333333,0.3244444444444444,-0.6822222222222222,-0.0107595402834912,-0.007437458755510713,-0.0011073605093268291
1589543789.9321,0.07153096812988574,-4.208648226097415,8.765944678292243,0.5433333333333333,0.3244444444444444,-0.6822222222222222,-0.0025058934686537655,0.003567403664272535,-0.0020244323776421
1589543789.9421,0.0810665656791696,-4.190533282839585,8.804799545556264,0.5433333333333333,0.3244444444444444,-0.6822222222222222,-0.005337809645043035,-0.005279637511323413,-0.0009744865150572113
1589543789.9521,0.09550651541493813,-4.197753257707469,8.869779319367222,0.5433333333333333,0.3244444444444444,-0.6822222222222222,-0.0037626554780952498,-0.002916906260901734,0.0006006676518905743
1589543789.9621,0.1105165583291665,-4.2015496749875,8.892066233316667,0.5433333333333333,0.3244444444444444,-0.6966666666666667,-0.0044196709026268,-0.0012598741004193846,0.00011269554528195242
1589543789.9721,0.11858283010885033,-4.225748490326551,8.924331320435401,0.5433333333333333,0.3244444444444444,-0.6966666666666667,-0.0052995646583529595,-0.0038995553675978643,0.0018724830567342719
1589543789.9821,0.08090351397958895,-4.190903513979589,8.783388177423458,0.5433333333333333,0.3244444444444444,-0.6966666666666667,-0.004387962651519611,-0.005429514390948492,4.927904306757484e-05
1589543789.9921,0.11785444843131843,-4.114291103137363,9.0298393596467,0.5433333333333333,0.3244444444444444,-0.6966666666666667,-0.010144314794448779,-0.012886857481077508,0.017342974993388865
1589543790.0021,0.05220722320899941,-4.080275902901125,8.89120781527531,0.5433333333333333,0.3244444444444444,-0.6966666666666667,-0.0051043647166266965,-0.0020124503956536165,0.03245405643511925
1589543790.0121,-0.07995290054164378,-4.07,8.71903524609467,0.5468653566039546,0.3335267899974706,-0.6931346433960454,-0.007725640541517802,-0.0013757192363284456,0.05096360730789588
1589543790.0221,0.014322766570605189,-4.151700288184438,8.671988472622479,0.5511111111111111,0.34444444444444444,-0.6888888888888889,-0.004781422536533457,-0.0006192900984201763,0.08287170342412557
1589543790.0321,0.0841294565593631,-4.187064728279682,8.759237337025498,0.5511111111111111,0.34444444444444444,-0.6888888888888889,-0.005240694929314634,0.0001067294915838232,0.09295761136202463
1589543790.0421,0.12122815445524873,-4.18375436910895,8.832456308910496,0.5511111111111111,0.34444444444444444,-0.6888888888888889,-0.006135446555689063,-0.00204387792962035,0.09381144729469522
1589543790.0521,0.10328229154763266,-4.18,8.833282291547633,0.5511111111111111,0.34444444444444444,-0.6888888888888889,0.0022666327663872386,0.0023349005824707973,0.09461250342754667
1589543790.0621,0.07207820828208282,-4.126234624846249,8.867791444581114,0.539163249965833,0.3404618240626851,-0.6809236481253702,0.0034991897041428697,0.00045339471330700307,0.0975088970216442
1589543790.0721,0.004874756262186884,-4.076218689065547,8.851765411729414,0.5311111111111111,0.3377777777777778,-0.6755555555555556,-0.0023282618921440785,-0.0074432389316527355,0.10452717857383731
1589543790.0821,-0.04341753653444677,-4.030970772442588,8.790970772442588,0.5311111111111111,0.3377777777777778,-0.6755555555555556,-0.008620751413654142,-0.014074905326136422,0.12307964416259229
1589543790.0921,-0.23003325528521498,-3.7699501170721774,8.870033255285215,0.5311111111111111,0.3377777777777778,-0.6755555555555556,-0.021827498416567077,-0.02072759866187232,0.14732563844240965
1589543790.1021,-0.2442661780175778,-3.7486007329736335,8.884266178017578,0.5311111111111111,0.3377777777777778,-0.6755555555555556,-0.02648521148897355,-0.021503884173940068,0.17449563136478075
1589543790.1121,-0.16106525684526157,-3.7103550856150873,8.899881638128305,0.5376988698633139,0.3114267427689664,-0.667869837011319,-0.03267327836564585,-0.02397245466029811,0.2177788181799324
1589543790.1220999,-0.30819572953736657,-3.5247553380782914,8.835164368327403,0.5377777777777778,0.3111111111111111,-0.6677777777777778,-0.023631747396613,-0.031070747498029228,0.2515078021196537
1589543790.1320999,-0.011537884471117754,-2.7622130532633156,8.57762190547637,0.5377777777777778,0.3111111111111111,-0.6677777777777778,0.01889764085535683,0.009151358320073424,0.3398130194478626
1589543790.1420999,-0.00888733817796814,-2.8894297126906974,8.673324029067809,0.5377777777777778,0.3111111111111111,-0.6677777777777778,0.019756326661534304,-0.009633895770684565,0.493104020721606
1589543790.1520998,-0.026526688907422852,-2.974370100083403,8.994007089241034,0.5377777777777778,0.3111111111111111,-0.6677777777777778,-0.004702604255559212,-0.03795003931440391,0.5774990081188
1589543790.1620998,-0.09528891910265125,-3.0291733514615906,8.949008837525493,0.529072588564091,0.3154637057179545,-0.6815609940327819,0.0037141638730195433,-0.03295035689289431,0.653948233984201
1589543790.1720998,-0.15140938602472503,-3.1070916960659334,8.93281877204945,0.5244444444444445,0.31777777777777777,-0.6888888888888889,0.011686775068635209,-0.032720040268105946,0.7460745399529107
1589543790.1820998,-0.20221326301566894,-3.1440710876718896,8.830395754788938,0.5244444444444445,0.31777777777777777,-0.6888888888888889,0.008929303492320293,-0.035674043818671765,0.8345930698604531
1589543790.1920998,-0.24345288733676493,-3.154690577467353,8.845668084542941,0.5244444444444445,0.31777777777777777,-0.6888888888888889,0.008659140735289773,-0.04162570474036323,0.9134342436918366
1589543790.2020998,-0.2624831396456468,-3.16,8.844831396456469,0.5244444444444445,0.31777777777777777,-0.6888888888888889,0.012277363841144815,-0.04307678083249064,1.0100584725838313
1589543790.2120998,-0.22025945317044793,-3.1946973046344773,8.853832460732985,0.5442714756641458,0.3144732725744942,-0.6855843836856053,0.01095547774245471,-0.04572055302987084,1.1155519651374513
1589543790.2220998,-0.1508813060022094,-3.24303956466593,8.976960435334071,0.5644444444444444,0.3111111111111111,-0.6822222222222222,0.0011869663540973472,-0.05956799239540567,1.1861990101407383
1589543790.2320998,-0.1784243301955105,-3.280265206372194,8.81867396813903,0.5644444444444444,0.3111111111111111,-0.6822222222222222,0.003531159842419148,-0.05712481756987387,1.2043061134035378
1589543790.2420998,-0.2863378243341029,-3.313879604424382,8.865735846456015,0.5644444444444444,0.3111111111111111,-0.6822222222222222,0.005030954719479709,-0.057569599075820856,1.226898250110317
1589543790.2520998,-0.34687967479674797,-3.340159756097561,8.835921138211381,0.5644444444444444,0.3111111111111111,-0.6822222222222222,0.00876149963375385,-0.06183697992398731,1.263766394425682
1589543790.2620997,-0.34298552731348697,-3.4010434180595395,8.934623017835362,0.5644444444444444,0.3044943717330227,-0.6765507313267178,0.01090830782496456,-0.06605217196795349,1.3107706853012584
1589543790.2720997,-0.3646963696369637,-3.3791295379537956,8.861214521452146,0.5644444444444444,0.3033333333333333,-0.6755555555555556,0.010234818819566789,-0.06182625469449942,1.3375109136405534
1589543790.2820997,-0.43739902080783355,-3.4245738984088128,8.871748776009792,0.5644444444444444,0.3033333333333333,-0.6755555555555556,0.009034819307688862,-0.06829675507215952,1.3676669788957558
1589543790.2920997,-0.46,-3.4747987082884824,8.966129888769286,0.5644444444444444,0.3033333333333333,-0.6755555555555556,0.014136885133416934,-0.06478117981350572,1.3960877414393158
1589543790.3020997,-0.5287475231473142,-3.473750225168426,8.892503152357964,0.5644444444444444,0.3033333333333333,-0.6755555555555556,0.015271630954950384,-0.05713248329183715,1.4149433629423498
1589543790.3120997,-0.57,-3.4385092426952895,8.857994718459835,0.5669437108971992,0.28333920171129473,-0.6755555555555556,0.014780901134491759,-0.0568858170855367,1.4367838763102578
1589543790.3220997,-0.5886736467951937,-3.406224548931731,8.867550902136538,0.57,0.2588888888888889,-0.6755555555555556,0.010785835381509986,-0.06583947452712305,1.4672454544072437
1589543790.3320997,-0.6156610846071463,-3.394338915392854,8.875661084607147,0.57,0.2588888888888889,-0.6755555555555556,0.006164107283458152,-0.07213905793262805,1.4869983842825967
1589543790.3420997,-0.6460427343688402,-3.4525025624852166,8.869582906252464,0.57,0.2588888888888889,-0.6755555555555556,0.007726811217275023,-0.071381169448668,1.4963246564783388
1589543790.3520997,-0.6978103946102021,-3.5258916540629723,8.863972913515742,0.57,0.2588888888888889,-0.6755555555555556,0.009817477042468105,-0.07371356880302515,1.50207398749762
1589543790.3620996,-0.7481068783420239,-3.55,8.975389418446312,0.586213756684048,0.2435758964650658,-0.6863647266782542,0.010701800287011462,-0.07697767738861121,1.5029583107421634
1589543790.3720996,-0.8083470508924798,-3.55729338136156,8.912479423661281,0.59,0.24,-0.6888888888888889,0.01090830782496456,-0.0715846478361466,1.5031648182801165
1589543790.3820996,-0.8693948751036962,-3.5271709374135862,8.873434187482717,0.59,0.24,-0.6888888888888889,0.01019208878436931,-0.07339426528274945,1.5038810373207117
1589543790.3920996,-0.8840440528634361,-3.51,8.858088105726871,0.59,0.24,-0.6888888888888889,0.011116863137565203,-0.07136916570696417,1.5120519656331954
1589543790.4020996,-0.9170012327692479,-3.4941423288131794,8.89757301356046,0.59,0.24,-0.6888888888888889,0.012575739803104048,-0.06987554168856279,1.5167690172569273
1589543790.4120996,-0.9879110917727256,-3.5103288734181803,8.97032887341818,0.5950548122363635,0.20293137693333496,-0.7057382630101003,0.014744152826106962,-0.0700769091441949,1.518736062824298
1589543790.4220996,-0.9778836658881801,-3.470238248248405,8.919180081192495,0.5966666666666667,0.19111111111111112,-0.7111111111111111,0.015271630954950384,-0.07101942898203065,1.5213366683709495
1589543790.4320996,-0.9387463868540883,-3.3290453375569196,8.87,0.5966666666666667,0.19111111111111112,-0.7111111111111111,0.010634811863184018,-0.07431324119064926,1.5170037485003447
1589543790.4420996,-0.9665584164540323,-3.3272970308513106,8.875819802056753,0.5966666666666667,0.19111111111111112,-0.7111111111111111,0.006544984694978735,-0.0738187870821345,1.5004643099233097
1589543790.4520996,-1.1029541423866227,-3.420886242715987,8.900590828477325,0.5966666666666667,0.19111111111111112,-0.7111111111111111,0.009352623387500016,-0.07255635938327035,1.4793413724695537
1589543790.4620996,-1.1787916715133184,-3.402281260904967,8.92530208212167,0.5931319452522198,0.1746157445103589,-0.714645832525558,0.012577506046425229,-0.06903709035451305,1.45849189087327
1589543790.4720995,-1.1929980276134122,-3.3534003944773176,8.969597633136095,0.59,0.16,-0.7177777777777777,0.011650158818662347,-0.06976927866367272,1.4436058878638107
1589543790.4820995,-1.1804842155803625,-3.313105269475453,8.901452646741086,0.59,0.16,-0.7177777777777777,0.011713225980326305,-0.06716532271259561,1.4310425331863426
1589543790.4920995,-1.1838183680741137,-3.2516357117406023,8.87,0.59,0.16,-0.7177777777777777,0.018782214174060268,-0.06243514669796547,1.4128239930287512
1589543790.5020995,-1.2655893504609965,-3.28233108878069,8.93977478504092,0.59,0.16,-0.7177777777777777,0.016742450092281872,-0.06172079451450744,1.3864184871020484
1589543790.5120995,-1.3415026043383662,-3.2698272565438122,8.925492186984902,0.6130953898449119,0.12495871885599583,-0.7281308835703244,0.010744399118344305,-0.059831784330684826,1.3542824189648406
1589543790.5220995,-1.3051639171099887,-3.1987587624114155,8.944836082890012,0.6222222222222222,0.1111111111111111,-0.7322222222222222,0.010516171033653633,-0.0630970262019218,1.329708666603485
1589543790.5320995,-1.3347501178689298,-3.182166692859762,8.909166535701189,0.6222222222222222,0.1111111111111111,-0.7322222222222222,0.012899078288855819,-0.06080471586737441,1.2973431815632772
1589543790.5420995,-1.38601653677256,-3.1366115440914664,8.87,0.6222222222222222,0.1111111111111111,-0.7322222222222222,0.013598422461104095,-0.05490214291556301,1.2641809134526376
1589543790.5520995,-1.3714009114149162,-3.0573153273313327,8.890427920417917,0.6222222222222222,0.1111111111111111,-0.7322222222222222,0.013535637478242506,-0.0550338860895401,1.2389970534102448
1589543790.5620995,-1.2983955654467525,-2.908865809429608,8.926320886910649,0.6130920522401729,0.10689718650401142,-0.7413523922042715,0.014180800172453925,-0.0554573532474009,1.20540874548157
1589543790.5720994,-1.3006437090647618,-2.8654827817985713,8.91967814546762,0.6077777777777778,0.10444444444444444,-0.7466666666666667,0.013054860506816767,-0.05288773850950775,1.1776057207322024
1589543790.5820994,-1.3672386834493002,-2.940121960753655,8.901411148463763,0.6077777777777778,0.10444444444444444,-0.7466666666666667,0.010125341879057283,-0.055639021834536416,1.1450245452213865
1589543790.5920994,-1.43,-2.9809774543378995,8.935526303272452,0.6077777777777778,0.10444444444444444,-0.7466666666666667,0.0033791160755159196,-0.052901194034039624,1.0979621976955807
1589543790.6020994,-1.529726662599146,-3.0375651820215577,8.915677038844825,0.6077777777777778,0.10444444444444444,-0.7466666666666667,0.010760600862388569,-0.041835057652421424,1.0702676128341424
1589543790.6120994,-1.569971143681609,-3.008505471272249,8.914310448272907,0.6147669431667031,0.08220619093422728,-0.7422190159646233,0.016672778645572813,-0.04285901289756181,1.040639975557471
1589543790.6220994,-1.5525264869888475,-2.94,9.046475139405205,0.62,0.06555555555555556,-0.7388888888888889,0.0063898505123658,-0.054145479351633385,1.0097990362264924
1589543790.6320994,-1.56,-2.9213204276220743,9.021272031204854,0.62,0.06555555555555556,-0.7388888888888889,0.0046566749793959875,-0.05119174939235589,0.9900316831175834
1589543790.6420994,-1.5646739130434784,-2.9046739130434784,8.929347826086957,0.62,0.06555555555555556,-0.7388888888888889,0.00770695661546409,-0.04465292094436579,0.9683494565922344
1589543790.6520994,-1.5999875870257434,-2.905002068829043,8.949995862341915,0.62,0.06555555555555556,-0.7388888888888889,0.005454605260962993,-0.045269703147843274,0.9419380225416986
1589543790.6620994,-1.6351321330042108,-2.879471467983157,8.96513213300421,0.6257023700046787,0.051869867544326674,-0.7497233918977785,0.007722296326501337,-0.0419249177519251,0.921019220645367
1589543790.6720994,-1.6339128301403762,-2.7930411315441397,9.012610189017366,0.6311111111111111,0.03888888888888889,-0.76,0.008252278920499706,-0.043917958752685914,0.9068121162447518
1589543790.6820993,-1.7091197950338817,-2.812165553240907,8.989137274621076,0.6311111111111111,0.03888888888888889,-0.76,0.0028461429266458064,-0.04813867090345858,0.8984182153562361
1589543790.6920993,-1.801772272692572,-2.8690777921978774,8.863760974120162,0.6311111111111111,0.03888888888888889,-0.76,0.005446284341603135,-0.04017528356244448,0.8945818389129352
1589543790.7020993,-1.8514616654628007,-2.8754153338148796,8.831062325869363,0.6311111111111111,0.03888888888888889,-0.76,0.009498591106361153,-0.03370336187927408,0.8918900823639374
1589543790.7120993,-1.8875286348158085,-2.8609885460736764,9.054677535858012,0.6311111111111111,0.03888888888888889,-0.76,0.0016299990260376825,-0.04707996841582397,0.8871689271157435
1589543790.7220993,-1.7826840025728201,-2.7244892033446657,9.027220803087385,0.6177777777777778,0.02666666666666667,-0.7888888888888889,0.00744409066623204,-0.043032096637086556,0.8966680952578951
1589543790.7320993,-1.7188445183952672,-2.6282310963209463,8.939115548160473,0.6177777777777778,0.02666666666666667,-0.7888888888888889,0.017772293468686664,-0.033110838391770224,0.9054860282012775
1589543790.7420993,-1.7857090423757092,-2.594818151484818,8.93,0.6177777777777778,0.02666666666666667,-0.7888888888888889,0.0074989611650899185,-0.03741946315879067,0.9101237623475777
1589543790.7520993,-1.7219115569369878,-2.5551469341621926,8.9308088443063,0.6177777777777778,0.02666666666666667,-0.7888888888888889,0.002887511379041198,-0.037296765119815604,0.9193618311295764
1589543790.7620993,-1.6946225177969276,-2.5546805919820157,8.984738666167104,0.610045168810624,0.016724740851754717,-0.796069168644103,0.009281564017534242,-0.03323549685632257,0.9234230993930693
1589543790.7720993,-1.771427813163482,-2.5757165605095538,8.944291401273885,0.6022222222222222,0.006666666666666667,-0.8033333333333333,0.008882396515009624,-0.038646617651105206,0.9036762966666407
1589543790.7820992,-1.831435109684886,-2.5856089220895364,8.935391656583723,0.6022222222222222,0.006666666666666667,-0.8033333333333333,0.008091107782611018,-0.036021115812554606,0.8860533415102048
1589543790.7920992,-1.8728819577002367,-2.5743296174696497,8.934342979308239,0.6022222222222222,0.006666666666666667,-0.8033333333333333,0.004208323047048822,-0.030856177176743497,0.8701744218167822
1589543790.8020992,-1.7250354945575013,-2.3973158833594232,8.846841166405767,0.6022222222222222,0.006666666666666667,-0.8033333333333333,-0.002137621689577404,-0.03771012618017872,0.860328655808753
1589543790.8120992,-1.7093584438686724,-2.4077006071387137,8.952727096948838,0.5938680708629276,-0.0008081003390180081,-0.8059714863941633,0.0033833513635534345,-0.04524903942440846,0.8667321500210788
1589543790.8220992,-1.8760133753999289,-2.461694365446143,8.697973249200142,0.5811111111111111,-0.012222222222222223,-0.81,0.016630637230877415,-0.014227891449791086,0.8707511399256025
1589543790.8320992,-2.007815935126786,-2.5657734586175827,8.97907967563393,0.5811111111111111,-0.012222222222222223,-0.81,-0.0023581265060974993,-0.038962161624747464,0.8628625938492872
1589543790.8420992,-2.096613204176426,-2.603847711302553,9.166773591647148,0.5811111111111111,-0.012222222222222223,-0.81,-0.005622483709281029,-0.04895404653357968,0.8624777068408582
1589543790.8520992,-2.1619561985928053,-2.5871013774650677,9.114202754930135,0.5811111111111111,-0.012222222222222223,-0.81,0.004118261849248586,-0.030646064414524107,0.874640682552911
1589543790.8620992,-2.2253882299008656,-2.575752965446106,9.14,0.579614380583093,-0.023597374235160035,-0.8216744981185415,0.004403109606007771,-0.027609564063650914,0.8977588596678492
1589543790.8720992,-2.2149451487079475,-2.479934178449537,8.929539249146758,0.5755555555555556,-0.054444444444444434,-0.8533333333333334,-0.0010836507651567667,-0.02614882537144296,0.9469033460238678
1589543790.8820992,-2.3156354405502784,-2.507582910252211,8.908453160825418,0.5755555555555556,-0.054444444444444434,-0.8533333333333334,0.0027526907563460252,-0.02970104353940753,1.0088934418416653
1589543790.8920991,-2.3659115759448537,-2.4811219396244355,8.877874970287616,0.5755555555555556,-0.054444444444444434,-0.8533333333333334,0.007036856811545357,-0.032370734064651185,1.0793564457677145
1589543790.9020991,-2.356503162440525,-2.4304247797756675,8.77431353065943,0.5755555555555556,-0.054444444444444434,-0.8533333333333334,0.00853771594425216,-0.02233707031157959,1.160583275595971
1589543790.9120991,-2.3942815095132977,-2.447270051508462,8.99767265846736,0.5708652487239684,-0.07753518576918135,-0.8461174766693531,0.0022662860911657687,-0.037896995633466435,1.245590923420628
1589543790.922099,-2.409500358067537,-2.4179000716135075,9.00994931967168,0.5611111111111111,-0.12555555555555556,-0.8311111111111111,0.0029589077918535074,-0.04876827229048477,1.3587580938411368
1589543790.932099,-2.5384698485040302,-2.4353825378739926,8.892349242520151,0.5611111111111111,-0.12555555555555556,-0.8311111111111111,0.003940146888964179,-0.04195820279357132,1.450065613666327
1589543790.942099,-2.5859817122980844,-2.434330285383014,9.02165142691507,0.5611111111111111,-0.12555555555555556,-0.8311111111111111,-0.0030923496160891917,-0.05442946372834453,1.519979692088651
1589543790.952099,-2.5832820707423756,-2.370643911402265,8.992883221154807,0.5611111111111111,-0.12555555555555556,-0.8311111111111111,0.0035602708892216906,-0.05198508353655627,1.5844083890741019
1589543790.962099,-2.514687869546275,-2.2661719673865686,8.982732619655193,0.5611111111111111,-0.14044234905223266,-0.842169871994357,0.00413333686772736,-0.04161345969570822,1.6415294419237034
1589543790.972099,-2.5799308537081393,-2.284980792696705,9.109992317078682,0.5611111111111111,-0.16444444444444445,-0.86,-0.0021824996417002126,-0.04853819847590943,1.6885926420771968
1589543790.982099,-2.646272141127969,-2.286272141127969,8.972887274993408,0.5611111111111111,-0.16444444444444445,-0.86,0.0025328002579515516,-0.04723876941584403,1.7200362064090422
1589543790.992099,-2.7257876358289876,-2.2691989248546944,8.906588710974294,0.5611111111111111,-0.16444444444444445,-0.86,0.0020294730161610755,-0.045879697670923786,1.7395255631108104
1589543791.002099,-2.85,-2.2658028494416635,9.037746438197921,0.5611111111111111,-0.16444444444444445,-0.86,-0.0017238234622123435,-0.0566187169943417,1.751594598416899
1589543791.012099,-2.8407440010969425,-2.2168600027423557,9.037604003839299,0.5569973338208632,-0.18141377576671694,-0.8551148894678307,0.0021005036351173356,-0.0630969251015148,1.7717794978344565
1589543791.022099,-2.8025309288033706,-2.113858250811797,8.896389179615168,0.5433333333333333,-0.23777777777777775,-0.8388888888888889,-0.0014712149487675266,-0.06623760575495548,1.7997125075123317
1589543791.032099,-2.674410740924913,-2.0122053704624565,9.044207691032653,0.5433333333333333,-0.23777777777777775,-0.8388888888888889,-0.024858212769629996,-0.09703277022208737,1.819104797539546
1589543791.042099,-2.544020495410537,-1.9277172136300766,9.308262290959386,0.5433333333333333,-0.23777777777777775,-0.8388888888888889,-0.03311051357137214,-0.11348820078626613,1.867857268836133
1589543791.052099,-2.714363283262653,-1.8955982719670248,8.894747730965875,0.5433333333333333,-0.23777777777777775,-0.8388888888888889,0.025775789671485753,-0.055425842276706695,1.948316557169253
1589543791.062099,-2.768551422643746,-1.8057009484291642,8.77782231772377,0.5033177731673583,-0.2671225218994928,-0.8407943917539353,0.05122725961709701,-0.032671901468868364,1.9767066980528523
1589543791.072099,-2.684759018759019,-1.7326204906204905,9.236204906204906,0.4266666666666667,-0.3233333333333333,-0.8444444444444444,-0.01236054516974267,-0.09061451032608005,1.9489532017588849
1589543791.082099,-2.750445531805305,-1.7026662006548692,9.06377653507965,0.4266666666666667,-0.3233333333333333,-0.8444444444444444,-0.010204751868673576,-0.09550787156190052,1.922746632205026
1589543791.092099,-2.856406706960421,-1.6625626827841684,8.93206122051082,0.4266666666666667,-0.3233333333333333,-0.8444444444444444,0.04044581056730328,-0.05700274601649017,1.9017677424478663
1589543791.102099,-2.87766232284924,-1.65207790356155,8.857467563945365,0.4266666666666667,-0.3233333333333333,-0.8444444444444444,0.016737871264777236,-0.06591026718539467,1.8650868819501325
1589543791.112099,-2.829821779919587,-1.5922772248994839,8.959128717670877,0.4266666666666667,-0.3233333333333333,-0.8444444444444444,-0.0034841792758386163,-0.08091372403810965,1.8435601829875412
1589543791.122099,-2.986763717296512,-1.5538185864825582,9.122782748909884,0.3588888888888889,-0.3533333333333333,-0.7677777777777778,0.009079669939354244,-0.07459303637783893,1.777489213714253
1589543791.132099,-2.930481297410411,-1.443654198273607,8.995864504315982,0.3588888888888889,-0.3533333333333333,-0.7677777777777778,0.009471367249329678,-0.0689395597763292,1.7051260172512042
1589543791.142099,-2.7209858490566035,-1.2736462264150943,9.106603773584906,0.3588888888888889,-0.3533333333333333,-0.7677777777777778,0.001381032934066268,-0.08446683510558288,1.6119798197195352
1589543791.152099,-2.6264891208246177,-1.1698770836478123,8.896734953528993,0.3588888888888889,-0.3533333333333333,-0.7677777777777778,0.002195069659056763,-0.07376669951381803,1.5277458065584588
1589543791.162099,-2.601747285925355,-1.1289991649001092,9.032120511338087,0.3591527661791682,-0.3477919102374681,-0.7543200359735338,0.006136037020625982,-0.05619120433209019,1.4319619548696774
1589543791.1720989,-2.8021459067497965,-1.1663950257522364,9.30206051775549,0.36,-0.33,-0.7111111111111111,-0.0005430867676613049,-0.06731318936667577,1.3326582680738694
1589543791.1820989,-2.7607237945175043,-1.08,9.13169525079288,0.36,-0.33,-0.7111111111111111,-0.003642338697274642,-0.06423643184627949,1.2452176146732967
1589543791.1920989,-2.7456324139614354,-1.0690612643397608,9.167183793019282,0.36,-0.33,-0.7111111111111111,-0.016754276865472657,-0.08040538459134262,1.2017794289976993
1589543791.2020988,-2.948035288207962,-1.0298053497425594,9.090194650257441,0.36,-0.33,-0.7111111111111111,-0.004770723701019914,-0.05661703544349714,1.1768790160180937
1589543791.2120988,-3.0320167906888,-0.9959664186224003,9.1058824651784,0.3664985477750217,-0.33179270283448875,-0.7138001653628443,0.014822477581810265,-0.04300071179060299,1.1507715281331545
1589543791.2220988,-2.890232192869578,-0.9449479600333056,9.05,0.3922222222222223,-0.3388888888888889,-0.7244444444444444,0.004207864674475628,-0.0555362998433245,1.111090191997358
1589543791.2320988,-2.57,-0.8689070696287571,9.0423494874013,0.3922222222222223,-0.3388888888888889,-0.7244444444444444,-0.00545415391248228,-0.060711014292551324,1.0755470247300605
1589543791.2420988,-2.57,-0.8611871675470726,8.98831017282951,0.3922222222222223,-0.3388888888888889,-0.7244444444444444,-0.00545415391248228,-0.06576367838968726,1.0292309371729809
1589543791.2520988,-2.9448227648680585,-0.8712155376132336,9.203685998424577,0.3922222222222223,-0.3388888888888889,-0.7244444444444444,-0.0034050869320691114,-0.05958072408021813,0.9341403409690315
1589543791.2620988,-2.6970303269003546,-0.8230336746750689,9.114205395825127,0.3922222222222223,-0.3388888888888889,-0.7244444444444444,0.0018507389930284002,-0.051321569055064895,0.9063595467935162
1589543791.2720988,-2.675311501937572,-0.798827875484393,8.837017629774731,0.37777777777777777,-0.3411111111111111,-0.6966666666666667,0.006515859331923536,-0.0286949858802303,0.8636143026562225
1589543791.2820988,-2.91150800336984,-0.8581802864363942,9.429991575400168,0.37777777777777777,-0.3411111111111111,-0.6966666666666667,-0.016329378411271713,-0.07612657149152605,0.8234449074801238
1589543791.2920988,-2.626221377373956,-0.770146317643571,9.160521616295496,0.37777777777777777,-0.3411111111111111,-0.6966666666666667,-0.013768616384861269,-0.06822133444058036,0.8229714540800612
1589543791.3020988,-2.5823334089046233,-0.6750557192933504,9.321444167349714,0.37777777777777777,-0.3411111111111111,-0.6966666666666667,-0.008981181686103082,-0.06662552287432762,0.8349400408269566
1589543791.3120987,-2.8503947871701,-0.7079290749139391,8.8303947871701,0.37660310001274977,-0.3427262930380246,-0.6978413444316947,0.01543512742161274,-0.029144780010861203,0.7972057017890557
1589543791.3220987,-2.9788417618270797,-0.7310096066702918,9.0326354903027,0.3688888888888889,-0.3533333333333333,-0.7055555555555556,0.0010317119853301626,-0.044038956289106514,0.7294864126861291
1589543791.3320987,-2.7677148446385513,-0.6622851553614485,9.132138665210864,0.3688888888888889,-0.3533333333333333,-0.7055555555555556,-0.002181661564992912,-0.05763453395444265,0.7452866962261849
1589543791.3420987,-2.6690864801811487,-0.6742414400402552,9.200799387022254,0.3688888888888889,-0.3533333333333333,-0.7055555555555556,-0.0004626693358023438,-0.06712435366205946,0.7374229660076952
1589543791.3520987,-2.5221828146003515,-0.6239789060076517,8.892288284562094,0.3688888888888889,-0.3533333333333333,-0.7055555555555556,0.0032686573514594973,-0.05104244362956841,0.6913140930026296
1589543791.3620987,-2.8433601845158183,-0.619271231367689,9.202995972322627,0.36788124280430384,-0.3533333333333333,-0.7061853343584212,-0.0019564282339517834,-0.040709629062189334,0.6192695056405498
1589543791.3720987,-3.903869639515013,-0.7752687769550004,9.151666042802507,0.36,-0.3533333333333333,-0.7111111111111111,-0.0024045677624870213,-0.03002134256455756,0.5313402212028121
1589543791.3820987,-4.354392546179509,-0.788920986247864,9.363275286841892,0.36,-0.3533333333333333,-0.7111111111111111,0.01397690739782667,-0.017362929940678798,0.5090018459842025
1589543791.3920987,-3.9493162673924775,-0.6976752152795701,9.038837607639785,0.36,-0.3533333333333333,-0.7111111111111111,0.013496468239944772,-0.013837699990859684,0.5720372522762149
1589543791.4020987,-3.2763794661796988,-0.6573423348643315,9.02664416283917,0.36,-0.3533333333333333,-0.7111111111111111,-0.015271630954950384,-0.04403185245404703,0.6691466852178418
1589543791.4120986,-2.95917455222917,-0.5954486931178868,9.181378267205284,0.36,-0.3533333333333333,-0.7111111111111111,-0.015271630954950384,-0.05331523228199858,0.7054362609089251
1589543791.4220986,-2.173838911284868,-0.532872487216255,8.961073834582397,0.3588888888888889,-0.36777777777777776,-0.7177777777777777,-0.010542257821033293,-0.05308465833839507,0.6378988116077543
1589543791.4320986,-2.6376147333348547,-0.474304297222666,8.828409822223236,0.3588888888888889,-0.36777777777777776,-0.7177777777777777,0.005410788540768895,-0.030449436372594372,0.4983366044182446
1589543791.4420986,-2.9952571856768184,-0.58,9.092133133508181,0.3588888888888889,-0.36777777777777776,-0.7177777777777777,0.006308169962130392,-0.009480821778759141,0.374639311474555
1589543791.4520986,-2.9728073649842104,-0.58,9.196898963407019,0.3588888888888889,-0.36777777777777776,-0.7177777777777777,-0.020629681058194894,-0.03886756834638672,0.2530108326252074
1589543791.4620986,-2.5098308103294746,-0.4981237963097186,9.337954606639192,0.35914947273476133,-0.36892434669961643,-0.7180904783928247,-0.003937644087856908,-0.027952276196989364,0.1508026287994534
1589543791.4720986,-2.136340160284951,-0.4633804800265071,8.929720640311459,0.36397493332965186,-0.39015637331713465,-0.7238810311066932,-0.016254844726371582,-0.02037246041944188,0.014365944803598485
1589543791.4820986,-2.642437091188919,-0.5270273181993075,9.341617545209695,0.3644444444444445,-0.3922222222222223,-0.7244444444444444,-0.015035585078814947,0.004736866568393614,-0.2260002437973325
1589543791.4920986,-2.9987880023296447,-0.5537373325567851,9.041178217821782,0.3644444444444445,-0.3922222222222223,-0.7244444444444444,-0.00047562636302619205,0.014720688348904415,-0.3675915496519799
1589543791.5020986,-2.8850579813287562,-0.6120391844936576,9.323294679114163,0.3644444444444445,-0.3922222222222223,-0.7244444444444444,-0.0074133749557880714,0.034153776171068656,-0.47567026394762
1589543791.5120986,-3.0109949629809445,-0.6045724602500303,9.166945927903871,0.3644444444444445,-0.3928815187927338,-0.7228621326752168,-0.007451152747303212,0.015086968224778402,-0.585519111720621
1589543791.5220985,-2.475101842870999,-0.4989358459193571,9.099786153064525,0.3644444444444445,-0.3977777777777778,-0.7111111111111111,-0.020679130703440615,0.022791365229577122,-0.6728093219803531
1589543791.5320985,-3.007681141860127,-0.5871099694663888,9.010613822517326,0.3644444444444445,-0.3977777777777778,-0.7111111111111111,-0.030506994284407975,0.026309201672524055,-0.7301842721921525
1589543791.5420985,-3.288905069251441,-0.7291352183200496,8.76554746537428,0.3644444444444445,-0.3977777777777778,-0.7111111111111111,-0.022177887419982553,0.01598512954679529,-0.6589470807272604
1589543791.5520985,-2.5903822557810288,-0.6757798152767478,9.257313962111509,0.3644444444444445,-0.3977777777777778,-0.7111111111111111,-0.03177642356925582,-0.007295556874060196,-0.602916962541974
1589543791.5620985,-3.1841953751769703,-0.7775763500303378,9.523116025079215,0.3644444444444445,-0.3977777777777778,-0.7111111111111111,-0.010801673655570648,0.03712156059021429,-0.6016831537235219
1589543791.5720985,-2.715550086521823,-0.7595954624110748,9.276686406460296,0.3696595953769574,-0.4490600952808221,-0.721541412976137,-0.005973289531177766,0.03610253491259401,-0.6104343589902551
1589543791.5820985,-2.981857976653697,-0.7845719844357977,9.236527237354085,0.3711111111111111,-0.4633333333333333,-0.7244444444444444,-0.021229816600590073,0.026766737829253987,-0.6665750698243251
1589543791.5920985,-2.9037291994370396,-0.7324861329580263,8.915331153241162,0.3711111111111111,-0.4633333333333333,-0.7244444444444444,-0.005131709065317482,0.042864845364526574,-0.7091877074176937
1589543791.6020985,-2.8942498526812024,-0.7690913376546847,9.20273070123748,0.3711111111111111,-0.4633333333333333,-0.7244444444444444,-0.01213129818841639,0.044988381244265435,-0.7911471051690071
1589543791.6120985,-2.3857686527840123,-0.7392164171822244,8.967649251546675,0.3714245442382213,-0.46643283870142316,-0.7243399667354077,-0.01663598374009159,0.05314299608935098,-0.9782627469564198
1589543791.6220984,-2.164753215324265,-0.6982876324674564,8.84486289740237,0.38779605812412854,-0.6283289204620612,-0.7188827954401052,-0.030922824782344205,0.037070299916816804,-1.138096781116621
1589543791.6320984,-2.2111955778825783,-0.8337372701797554,9.2585638370583,0.3911111111111111,-0.6611111111111111,-0.7177777777777777,-0.04089480317236188,0.05024052628302447,-1.4010174920577412
1589543791.6420984,-3.8953943681224796,-1.0630749777868909,9.093727359715672,0.3911111111111111,-0.6611111111111111,-0.7177777777777777,-0.015096163095842635,0.07916627424760667,-1.5003031675037395
1589543791.6520984,-2.5368845492650327,-0.8648550346719206,8.669912499275656,0.3911111111111111,-0.6611111111111111,-0.7177777777777777,-0.020249890948955813,0.06757780030623527,-1.4882440711215175
1589543791.6620984,-2.010277954839582,-0.905363234243109,9.25323057310077,0.3911111111111111,-0.6611111111111111,-0.7177777777777777,-0.061786226522572235,0.021622705629042616,-1.5730842459101806
1589543791.6720984,-2.39,-1.05,9.37,0.5644444444444444,-1.3755555555555556,-0.67,-0.04254240051736178,0.09599310885968812,-1.718058482431918
1589543791.6820984,-2.4208885315628406,-1.0574132475750817,9.2884542766741,0.5644444444444444,-1.3755555555555556,-0.67,-0.036881781460145355,0.09545400228281037,-1.7136108531726766
1589543791.6920984,-2.80409281333179,-1.1439502372410602,8.84014257609073,0.5644444444444444,-1.3755555555555556,-0.67,-0.0022826022308515114,0.08484022568950789,-1.6830897878277464
1589543791.7020984,-3.53252980201777,-1.2936047683228433,9.338718938511667,0.5644444444444444,-1.3755555555555556,-0.67,-0.02490197629855916,0.0586798189013215,-1.6782745687337526
1589543791.7120984,-3.669740123787964,-1.3155584198060744,8.965506863296739,0.5644444444444444,-1.3755555555555556,-0.67,-0.017118967680074253,0.07723930099155474,-1.6219974294924002
1589543791.7220984,-3.1294441260744983,-1.2916183381088826,9.087367335243554,0.5644444444444444,-1.1007915950334288,-0.7388432983126393,-0.03472742624202785,0.049972677220461705,-1.5239696180535134
1589543791.7320983,-3.7467442288236916,-1.513199668904626,9.467602317667618,0.5644444444444444,-0.8744444444444445,-0.7955555555555556,-0.027214788363420037,0.06442111717477414,-1.4310396648118917
1589543791.7420983,-3.456867260331154,-1.5788801539817263,9.008042530494874,0.5644444444444444,-0.8744444444444445,-0.7955555555555556,-0.003638961100006092,0.11027638469421461,-1.3146843002961945
1589543791.7520983,-2.202137192152498,-1.4718876675478874,9.776443114883353,0.5644444444444444,-0.8744444444444445,-0.7955555555555556,-0.038652170409365874,0.015846820193214012,-1.3369654334930599
1589543791.7620983,-3.491605178762323,-1.7049143603753414,9.320171279249317,0.5644444444444444,-0.8744444444444445,-0.7955555555555556,0.007709591347240419,0.1017335038179824,-1.4270466747824158
1589543791.7720983,-2.6739462989001677,-1.3462759789664271,8.274177244447868,0.5222735434550446,-0.5212631486582215,-0.7902841929318806,-0.005936273509823493,0.07602813418225482,-1.4289883250703572
1589543791.7820983,-2.0196247064029684,-1.419989277325799,9.808316540150459,0.5111111111111111,-0.42777777777777776,-0.7888888888888889,-0.07850004782124213,0.006643236328926573,-1.5032993294456403
1589543791.7920983,-1.7697685263982026,-1.4128505293256628,8.68753310412908,0.5111111111111111,-0.42777777777777776,-0.7888888888888889,-0.052023683193328105,0.0720554312920083,-1.592851739216526
1589543791.8020983,-1.7997106009801394,-1.6320541655919525,9.595994325509414,0.5111111111111111,-0.42777777777777776,-0.7888888888888889,-0.00947117976955177,0.07383936825655105,-1.7380489061094795
1589543791.8120983,-2.1747490327572865,-1.7113892184678876,9.05507351044622,0.5111111111111111,-0.42777777777777776,-0.7888888888888889,0.0039033566189656515,0.10294865333744188,-1.793907263967405
1589543791.8220983,-1.6032859770828254,-1.9046845009862807,9.580699261951727,0.5311111111111111,-0.2677777777777778,-0.78,-0.0586760293162167,0.04982721793857944,-1.962716530316159
1589543791.8320982,-1.7799115671889891,-2.099902258472041,9.589995345641526,0.5311111111111111,-0.2677777777777778,-0.78,-0.055633893042568196,0.07416430812776742,-2.1553851609805634
1589543791.8420982,-1.499649723465894,-1.9459044859977175,8.012955491177246,0.5311111111111111,-0.2677777777777778,-0.78,-0.01826551184790589,0.14500336694427668,-2.3610629414244735
1589543791.8520982,-2.0519673426389256,-2.306751997190765,9.029219910455623,0.5311111111111111,-0.2677777777777778,-0.78,-0.04477485451910617,0.08314823404480934,-2.5048560425803785
1589543791.8620982,-1.4815063410480216,-2.246088926735805,8.436701438520727,0.5311111111111111,-0.2677777777777778,-0.78,-0.009646724752771646,0.15683612737419106,-2.6751318339029506
1589543791.8720982,-1.523009213652431,-2.433416584574376,9.06572501979873,0.5562242697005402,-0.22927093460731984,-0.790882368722086,-0.021068851580469058,0.1353987097965397,-2.845597677137239
1589543791.8820982,-2.11,-2.7853755412871433,9.32139913394057,0.5644444444444444,-0.21666666666666667,-0.7944444444444444,-0.02561685052919219,0.1770784684977538,-3.0870503000474834
1589543791.8920982,-2.065487813021703,-2.7805021702838064,9.223240066777963,0.5644444444444444,-0.21666666666666667,-0.7944444444444444,-0.03366890184620397,0.14517570047154268,-3.189613464891128
1589543791.9020982,-1.5604202324690255,-1.5992719376676459,9.745017882232723,0.5644444444444444,-0.21666666666666667,-0.7944444444444444,-0.02299355365219602,0.14791576238126616,-3.2757777280534084
1589543791.9120982,0.20751820155830858,4.686731383318432,8.182446033976241,0.5644444444444444,-0.21666666666666667,-0.7944444444444444,-0.12428964112752026,0.22583582966997712,-4.055952401781627
1589543791.9220982,-1.162313307456115,-1.7610173222872376,8.848668675047795,0.5855608983643281,-0.16468770317156853,-0.7993174722721099,-0.15729525834601407,0.19357042176639677,-5.210877919609656
1589543791.9320982,-1.7628367576529103,-4.307968648232578,8.71812540706969,0.5933333333333334,-0.14555555555555555,-0.8011111111111111,0.18736475154184806,0.3440089948966406,-5.579127506200932
1589543791.9420981,-1.5889952039789212,-4.3886807981526434,8.395276807389425,0.5933333333333334,-0.14555555555555555,-0.8011111111111111,0.07426297686289197,0.31488698105714896,-5.541201162596011
1589543791.9520981,-1.600983310038642,-4.775026309298693,8.869560963578065,0.5933333333333334,-0.14555555555555555,-0.8011111111111111,-0.1323477374590738,0.2008383323888449,-5.450184213976513
1589543791.9620981,-1.8680342151116744,-4.967368921273563,8.701744020275623,0.5933333333333334,-0.14555555555555555,-0.8011111111111111,-0.06821433319866438,0.23116264585545637,-5.302881446116451
1589543791.972098,-8.198297795446331,-10.604417540055415,12.801404650042162,0.595404837435918,-0.04612335863149018,-0.7876463344443105,0.018783288707107087,0.2816924302658256,-5.034725994258974
1589543791.982098,-26.5314990988444,-23.27952503798989,9.45403717708591,0.5955555555555555,-0.03888888888888889,-0.7866666666666666,0.2033731541973951,1.1533804466615116,-3.438754433870333
1589543791.992098,1.6761008409324774,0.0020491076180704226,-1.1781464003122446,0.5955555555555555,-0.03888888888888889,-0.7866666666666666,-1.1737107762113723,-0.23172612405097226,-3.638224650860316
1589543792.002098,4.718441904254712,-1.2227831561329094,15.351576354679805,0.5955555555555555,-0.03888888888888889,-0.7866666666666666,-0.9981349175129393,-0.7196667755891395,-2.9888137701840396
1589543792.012098,1.7021697769047286,-1.0501546232636454,7.2385233618633364,0.5955555555555555,-0.03888888888888889,-0.7866666666666666,0.6057920102924754,-0.4315629932734443,-2.6165901393302637
1589543792.022098,0.033210719467440475,-0.10437291968934026,10.122189767005207,0.6163213232435303,0.07490751804121265,-0.7501189155358311,1.1757764483767508,0.5974616677590829,-2.48034871257522
1589543792.032098,-0.3472938589602638,-0.449149992147008,5.760200094235904,0.6233333333333333,0.11333333333333333,-0.7377777777777778,-0.21729318348701954,0.0421929646034338,-1.7233292150414727
1589543792.042098,2.1458087777085373,-1.2209748063740764,10.781650494079944,0.6233333333333333,0.11333333333333333,-0.7377777777777778,-0.36523360763004503,-0.22113401640979208,-1.0247935203055645
1589543792.052098,0.8762797115641414,-1.2489791240096144,7.094415338734088,0.6233333333333333,0.11333333333333333,-0.7377777777777778,0.26710940696677987,0.28901711130841923,-0.7885558723402452
1589543792.062098,0.5253335846211835,-1.8994205169916878,7.593385442498066,0.6233333333333333,0.11333333333333333,-0.7377777777777778,0.050526713999505424,0.043491832519275575,-0.5481809341261841
1589543792.072098,-0.6839683933274802,-2.7646971027216853,8.994820017559261,0.5933333333333334,0.17888888888888888,-0.7655555555555555,-0.15655959658212742,-0.09437745343381322,-0.1555836909040204
1589543792.082098,-0.4814341527655838,-2.571368964003512,8.424041703248463,0.5933333333333334,0.17888888888888888,-0.7655555555555555,0.12562901312770422,0.09140508320789086,0.15271489692842907
1589543792.092098,-0.6965629663124575,-2.664157811440199,9.013194212073254,0.5933333333333334,0.17888888888888888,-0.7655555555555555,0.051621624594800505,-0.003827008271379273,0.2904754867680318
1589543792.102098,-0.7393773208187941,-2.5451463865201247,8.859047414677837,0.5933333333333334,0.17888888888888888,-0.7655555555555555,-0.06525417685010385,-0.045067731484524275,0.35576872679916505
1589543792.112098,-0.7688625689197468,-2.518862568919747,8.83244078006943,0.5933333333333334,0.17888888888888888,-0.7655555555555555,-0.04922694116194926,-0.038781350968788,0.4262331066867326
1589543792.122098,-0.8318765621995771,-2.5735012497596617,8.783683906940974,0.594263923604435,0.18214595483774487,-0.7627637847422504,0.03108249012405158,-0.01014445362195512,0.5273706465447354
1589543792.132098,-0.85310527401499,-2.7183859359600264,9.012798138852599,0.5955555555555555,0.18666666666666668,-0.7588888888888888,0.015637166402476067,-0.03622131253459868,0.6531913677426618
1589543792.142098,-0.7043624831827792,-2.731677878147223,8.843758600807227,0.5955555555555555,0.18666666666666668,-0.7588888888888888,0.016574757576454317,-0.033603458418382665,0.7917747119112512
1589543792.152098,-0.9204548301096817,-3.5089403997208755,8.969621392402798,0.5955555555555555,0.18666666666666668,-0.7588888888888888,0.016651696137164402,-0.023907363264325875,0.8360970559616397
1589543792.162098,-9.943573493202013,-22.860428219676695,8.308579381222566,0.5955555555555555,0.18666666666666668,-0.7588888888888888,-0.023231390827099078,-0.07457342435521509,0.7130614034226158
1589543792.172098,-3.598078331371779,-10.146298330499977,7.473406128765093,0.5955555555555555,0.19127312090434884,-0.7588888888888888,-0.07360435505578192,-0.08811871426834798,-0.09796196308554739
1589543792.182098,-0.8678528395061729,-0.7738390123456791,7.814126748971193,0.5955555555555555,0.19333333333333333,-0.7588888888888888,0.16181206062536024,0.1801342829103499,-0.5909710344861213
1589543792.192098,-1.4155183461565444,-2.2660828792591383,8.946177825588737,0.5955555555555555,0.19333333333333333,-0.7588888888888888,0.01386715539167721,0.044539038447139245,-0.27028978645320223
1589543792.202098,-0.8022305396314018,-2.4091235135263185,9.614781352158051,0.5955555555555555,0.19333333333333333,-0.7588888888888888,-0.1175316807511565,-0.06300750644098849,0.07739709783726795
1589543792.212098,-3.1380805907016436,-7.638950873808022,8.832800267151498,0.5955555555555555,0.19333333333333333,-0.7588888888888888,0.004398778874316889,0.003850793346350634,0.21634314031160157
1589543792.2220979,-1.3861515601783059,-4.256510295054128,8.927043798202789,0.6079539611783297,0.18300132864768826,-0.7588888888888888,-0.035428961232905475,-0.032039999370749216,0.04566801315218638
1589543792.2320979,-0.6967956469165659,-2.7249130313459213,9.006461957027254,0.6088888888888889,0.18222222222222226,-0.7588888888888888,0.023344372305100232,-0.017829036087544447,-0.12563489567008324
1589543792.2420979,-1.637043251117697,-3.9003857939418296,8.8829843773547,0.6088888888888889,0.18222222222222226,-0.7588888888888888,0.05926947711524622,0.04865065836567871,-0.020207904638097546
1589543792.2520978,-1.386219585632212,-4.010130852985694,9.073649561382094,0.6088888888888889,0.18222222222222226,-0.7588888888888888,-0.007018027778806321,0.00865884548920274,-0.0014282723247862235
1589543792.2620978,-1.3152254419731964,-3.9732641859138864,9.020365162532078,0.6088888888888889,0.18222222222222226,-0.7588888888888888,-0.03031604437736194,-0.0073953202605828395,0.003615282110601715
1589543792.2720978,-1.4255888829827625,-3.8527944414913815,8.774411117017237,0.6095098758869737,0.18377468971743405,-0.7629253043764396,-0.009608405974427928,0.0015241313993419993,-0.00017635194289125633
1589543792.2820978,-1.3497969604495876,-3.9502030395504124,8.968160860500952,0.6111111111111112,0.18777777777777774,-0.7733333333333333,-0.006144175161004678,-0.0066561540526051234,0.0014247673171749492
1589543792.2920978,-1.3543812491280287,-3.8494593777612427,8.91206250290657,0.6111111111111112,0.18777777777777774,-0.7733333333333333,0.011968117679055838,-0.0007029043074115657,0.002704578539646378
1589543792.3020978,-1.3488836810026612,-3.815837239248004,8.944465275989355,0.6111111111111112,0.18777777777777774,-0.7733333333333333,0.012724654852342641,0.0009690592699581791,0.0015449175393409762
1589543792.3120978,-1.3643696654275093,-3.8514810408921933,8.92548342007435,0.6111111111111112,0.18777777777777774,-0.7733333333333333,-0.0014219567244129266,0.0012523872820305035,0.00046864361290539194
1589543792.3220978,-1.401672062777808,-3.9008198430554795,8.82081984305548,0.6083351320370473,0.18777777777777774,-0.7640800697531203,-0.014270231176627209,0.0025464490746528695,0.0006366122686632174
1589543792.3320978,-1.396943109112917,-3.923056890887083,8.853471554556458,0.6044444444444445,0.18777777777777774,-0.7511111111111111,-0.011015598945331839,0.0003786878573300856,-0.0003786878573300856
1589543792.3420978,-1.3486306796346115,-3.869087119756408,8.914550506991455,0.6044444444444445,0.18777777777777774,-0.7511111111111111,0.009272819463718432,-0.00634734074588716,-0.001090830782496456
1589543792.3520977,-1.3666133492787202,-3.85,8.87007997608192,0.6044444444444445,0.18777777777777774,-0.7511111111111111,0.008005241763108753,-0.0013429309977202424,0.0006040784264531162
1589543792.3620977,-1.3687199302432935,-3.85,8.878200174391766,0.6044444444444445,0.18777777777777774,-0.7511111111111111,0.0010078934012835482,0.001090830782496456,-0.0007548663154019399
1589543792.3720977,-1.3795041518386715,-3.9085124555160142,8.867493080268881,0.5993878124862704,0.17983164184350423,-0.7561677430692851,-0.008236829163647813,0.003927594677444139,-0.0007632796175190701
1589543792.3820977,-1.3774024589851928,-3.927402458985193,8.900390164059228,0.5966666666666667,0.17555555555555555,-0.7588888888888888,-0.007472861444286225,-0.0021038281250100564,0.000687089276135667
1589543792.3920977,-1.3559474654090016,-3.8848686635225036,8.908921198113502,0.5966666666666667,0.17555555555555555,-0.7588888888888888,0.006042549065485801,-0.00424564409938512,0.0003243839172985837
1589543792.4020977,-1.35,-3.830584030344291,8.9,0.5966666666666667,0.17555555555555555,-0.7588888888888888,0.008328538643620943,-0.00413241540793724,0.0017198461208957447
1589543792.4120977,-1.358800190635053,-3.8508006672226855,8.913200285952579,0.5966666666666667,0.17555555555555555,-0.7588888888888888,0.0009161522918881828,-0.0024434193626752497,0.000261757797682338
1589543792.4220977,-1.3699054767862109,-3.8896691687517375,8.929858215179316,0.5966666666666667,0.17555555555555555,-0.7588888888888888,-0.007563639295591911,-2.062176625236556e-05,-0.0021610397987405464
1589543792.4320977,-1.3801644717925126,-3.9147944102593595,8.895041117948129,0.5966666666666667,0.17555555555555555,-0.7511111111111111,-0.01092624891437706,0.0005588712083076039,0.0021906321096991626
1589543792.4420977,-1.3664615262447393,-3.8883077900420866,8.838307790042087,0.5966666666666667,0.17555555555555555,-0.7511111111111111,0.0004363149885995912,-0.0017956739554634742,0.001090830782496456
1589543792.4520977,-1.37,-3.8499440456081078,8.870335726351351,0.5966666666666667,0.17555555555555555,-0.7511111111111111,0.008196490061996306,-0.0027301287948957175,0.001090830782496456
1589543792.4620976,-1.3782272317403066,-3.85234084761046,8.925886384129846,0.5966666666666667,0.17555555555555555,-0.7511111111111111,0.006421049006435405,-0.0014775888200777064,0.0006421049006435405
1589543792.4720976,-1.3940870455334782,-3.8863481821339136,8.932261136600435,0.6048407577336233,0.17828025257787447,-0.7456617170664733,-0.0035666200619062652,0.0015366582902347392,0.00044582750773828315
1589543792.4820976,-1.4,-3.902566913274199,8.905401479645194,0.6166666666666667,0.18222222222222226,-0.7377777777777778,-0.007915822279024714,0.002181661564992912,0.000685418792022989
1589543792.4920976,-1.3759409959965578,-3.899623601601377,8.825188199199312,0.6166666666666667,0.18222222222222226,-0.7377777777777778,-0.002870782392136303,-0.00044276865132311183,-0.0005248860432632047
1589543792.5020976,-1.3602156721782892,-3.8742451473759885,8.876186196980589,0.6166666666666667,0.18222222222222226,-0.7377777777777778,0.006662615620481588,-0.0016009568960938282,-0.0005336522986979427
1589543792.5120976,-1.3602568775790922,-3.854614683631362,8.964100928473178,0.6166666666666667,0.18222222222222226,-0.7377777777777778,0.007216494573000066,-0.0010628097854357664,-0.0005314048927178832
1589543792.5220976,-1.3545867878099564,-3.8837603634298694,8.954132121900436,0.6074930910467538,0.18222222222222226,-0.7408356363177487,-0.0033220887044751054,0.00032004310294709605,-0.0005904898489084544
1589543792.5320976,-1.3720476781939814,-3.9120476781939812,8.887952321806019,0.5966666666666667,0.18222222222222226,-0.7444444444444445,-0.009817477042468105,0.0039295912590696785,0.0
1589543792.5420976,-1.3677330848475435,-3.9138665424237717,8.84319925454263,0.5966666666666667,0.18222222222222226,-0.7444444444444445,-0.0044650255806394515,0.0010180409663429163,0.0006690564327285816
1589543792.5520976,-1.36,-3.870884994206257,8.881466437675881,0.5966666666666667,0.18222222222222226,-0.7444444444444445,0.003785495203485467,-0.0029194530272396773,0.0004812900342487156
1589543792.5620975,-1.3647319625481917,-3.84,8.939463925096383,0.5966666666666667,0.18222222222222226,-0.7444444444444445,0.007119638436556408,-0.001782437925391905,0.0005161770409187838
1589543792.5720975,-1.37,-3.855988716027031,8.934011283972968,0.6024403696764279,0.18755179423123258,-0.7502181474542057,0.0017487142008867727,0.001090830782496456,-0.00021724298861953398
1589543792.5820975,-1.374582181731327,-3.8983287269253077,8.887089091343364,0.6111111111111112,0.1955555555555556,-0.7588888888888888,-0.006453830889187157,0.001090830782496456,-0.00018230761158315916
1589543792.5920975,-1.38,-3.92,8.81598933835058,0.6111111111111112,0.1955555555555556,-0.7588888888888888,-0.0035208282358846097,-0.0002808316313670713,0.0014958303580611483
1589543792.6020975,-1.375764107145706,-3.903056428582824,8.811179464271468,0.6111111111111112,0.1955555555555556,-0.7588888888888888,0.0021436188392779856,-0.0024770234775426453,0.001090830782496456
1589543792.6120975,-1.368069989043461,-3.874209967130383,8.86316013147847,0.6111111111111112,0.1955555555555556,-0.7588888888888888,0.006334453158783912,-0.004152791593791,0.001090830782496456
1589543792.6220975,-1.36,-3.8532598329143872,8.963259832914387,0.6129221293968817,0.1912091116697061,-0.7563534632888099,0.0029650056503162667,-0.001494529303085073,0.001446423391377315
1589543792.6320975,-1.3621543787866868,-3.870771893933433,8.95707372727988,0.6166666666666667,0.18222222222222226,-0.7511111111111111,-0.003826705453365489,0.0028866803742954444,0.002181661564992912
1589543792.6420975,-1.37,-3.9024051987503667,8.872025993751834,0.6166666666666667,0.18222222222222226,-0.7511111111111111,-0.007746316294957487,0.005039921762980156,0.0013531972659886651
1589543792.6520975,-1.37,-3.89,8.825013746563359,0.6166666666666667,0.18222222222222226,-0.7511111111111111,-0.0022576500984542104,0.0034274684493051065,0.0
1589543792.6620975,-1.3656891184989841,-3.872756473995936,8.914487052008129,0.6166666666666667,0.18222222222222226,-0.7511111111111111,0.006864886584783098,-0.0009404884482005458,0.0004702442241002729
1589543792.6720974,-1.3651246392023093,-3.844875360797691,8.96512463920231,0.6104032187527333,0.17254234817341615,-0.755096941601796,0.005372577745331534,-0.0016226501458862265,-2.7192055716915124e-05
1589543792.6820974,-1.37,-3.8761547448179177,8.920287225875363,0.6044444444444445,0.16333333333333333,-0.7588888888888888,-0.0027481770075932104,-0.0005978469252378437,-0.00010486306797923136
1589543792.6920974,-1.37,-3.9131840982256496,8.832736392902598,0.6044444444444445,0.16333333333333333,-0.7588888888888888,-0.007983146713378271,0.0007434995465933769,0.0007190810091997676
1589543792.7020974,-1.3652253595745933,-3.895225359574593,8.813422482977845,0.6044444444444445,0.16333333333333333,-0.7588888888888888,-0.002899157369008839,-0.0025058307112540974,0.00156249742541567
1589543792.7120974,-1.36,-3.8826570442121415,8.879371823151434,0.6044444444444445,0.16333333333333333,-0.7588888888888888,0.0026928152240777575,-0.006434327146289215,0.0024715001266987172
1589543792.7220974,-1.363228204223159,-3.8667717957768413,8.946141021115794,0.6065965805932171,0.1712244992121661,-0.7563780633819875,0.004397726550840258,-0.00401118067610515,0.0014429732363771298
1589543792.7320974,-1.3663886953155246,-3.870833914053426,8.947498257839722,0.6111111111111112,0.18777777777777774,-0.7511111111111111,-0.00018193182388674895,-0.002484627884529481,0.0009998648705530815
1589543792.7420974,-1.377381293981007,-3.907381293981007,8.83785611805698,0.6111111111111112,0.18777777777777774,-0.7511111111111111,-0.006259328181396109,0.00017317258511040032,-0.0004588290986930278
1589543792.7520974,-1.376483877159309,-3.9109892514395392,8.831537619961612,0.6111111111111112,0.18777777777777774,-0.7511111111111111,-0.005178515001703665,0.00010791059218784511,-0.0004914600951543054
1589543792.7620974,-1.3631025885971249,-3.8906922342086254,8.897923297374122,0.6111111111111112,0.18777777777777774,-0.7511111111111111,-0.00015102207669316463,-0.0021061505266463296,-0.000413950953063207
1589543792.7720973,-1.3588420037374165,-3.87,8.963719332087528,0.6036724469360554,0.183231927448577,-0.7540039249569661,0.004363323129985824,-0.0031461745505651593,0.00027939839621601316
1589543792.7820973,-1.3443519950510363,-3.8656480049489637,8.97,0.5911111111111111,0.17555555555555555,-0.7588888888888888,0.0019896780465145686,-0.0001413727491079539,-0.0001413727491079539
1589543792.7920973,-1.35,-3.8783258303163857,8.887533763576263,0.5911111111111111,0.17555555555555555,-0.7588888888888888,-0.0035896282604865274,0.002090349773692485,0.001090830782496456
1589543792.8020973,-1.3648558327660085,-3.8950480557446636,8.819711665532017,0.5911111111111111,0.17555555555555555,-0.7588888888888888,-0.004924464726900574,0.0021921457021039266,0.0005506574598037353
1589543792.8120973,-1.3687947853650915,-3.8862649284550304,8.864940286179879,0.5911111111111111,0.17555555555555555,-0.7588888888888888,-0.00042046063623381704,0.0002759645792805844,0.0
1589543792.8220973,-1.3625267781923216,-3.8674732218076784,8.931755927307739,0.5934308848504299,0.17555555555555555,-0.7556412056538425,0.003907836621396168,-0.0006353442739067997,0.0
1589543792.8320973,-1.38,-3.8648580638794776,8.956569356271176,0.5966666666666667,0.17555555555555555,-0.7511111111111111,0.001246538166485251,0.0008103816724016466,0.0008103816724016466
1589543792.8420973,-1.38,-3.888450985283113,8.881411823397356,0.5966666666666667,0.17555555555555555,-0.7511111111111111,-0.0026885754457090247,0.0016747476842767987,0.002181661564992912
1589543792.8520973,-1.3758819158664837,-3.88,8.796472336534064,0.5966666666666667,0.17555555555555555,-0.7511111111111111,-0.005004940618707304,-0.001090830782496456,0.0012832349774429615
1589543792.8620973,-1.3725767556621122,-3.8825767556621122,8.850921067945347,0.5966666666666667,0.17555555555555555,-0.7511111111111111,-0.002395760053343046,-0.001090830782496456,0.0
1589543792.8720973,-1.3754959112803853,-3.8854959112803855,8.94,0.5999196196308328,0.17830805421754228,-0.7496097482045728,0.0040094721408569746,-0.001090830782496456,-0.0002456599311225356
1589543792.8820972,-1.3627933809017763,-3.87,8.948380142705329,0.6111111111111112,0.18777777777777774,-0.7444444444444445,0.005021431757531127,-0.0017002519574754993,-0.0004814096075174127
1589543792.8920972,-1.3787074442863916,-3.8874148885727835,8.900340445708867,0.6111111111111112,0.18777777777777774,-0.7444444444444445,-0.001758673696844215,-0.0013728226945955873,0.0006159133692730108
1589543792.9020972,-1.39,-3.9072219179332697,8.823890410333654,0.6111111111111112,0.18777777777777774,-0.7444444444444445,-0.0057571956559513875,0.0007877890390273483,0.0003030417434691076
1589543792.9120972,-1.39,-3.9,8.872358984206231,0.6111111111111112,0.18777777777777774,-0.7444444444444445,-0.004927197445473406,0.0002696312082508882,0.001090830782496456
1589543792.9220972,-1.3840048736257509,-3.8910073104386265,8.921990252748499,0.6091127356530281,0.18777777777777774,-0.7487742579369577,0.001307933678797462,-0.00021710289630100612,0.001090830782496456
1589543792.9320972,-1.366369574378424,-3.873630425621576,8.942739148756848,0.6044444444444445,0.18777777777777774,-0.7588888888888888,0.003175269123512124,-0.003272492347489368,0.001090830782496456
1589543792.9420972,-1.366751981553538,-3.890127972330307,8.886112119902004,0.6044444444444445,0.18777777777777774,-0.7588888888888888,-0.0007504865478654102,-0.0014311750171275017,0.001090830782496456
1589543792.9520972,-1.38,-3.91,8.815019506109275,0.6044444444444445,0.18777777777777774,-0.7588888888888888,-0.004363323129985824,0.0009528810948512022,0.001090830782496456
1589543792.9620972,-1.38,-3.902766218721038,8.849645041705283,0.6044444444444445,0.18777777777777774,-0.7588888888888888,-0.004363323129985824,-0.0008278030727318449,0.001090830782496456
1589543792.9720972,-1.377208044719893,-3.88,8.902335642240857,0.6044444444444445,0.18436538799098037,-0.7588888888888888,-0.0025359926722493256,0.0,0.0004817206299176231
1589543792.9820971,-1.3669491894426582,-3.88,8.953898378885317,0.6044444444444445,0.17555555555555555,-0.7588888888888888,0.002181661564992912,0.00033279180675137223,-0.0014236225892478283
1589543792.9920971,-1.36,-3.8801774468253654,8.938225531746346,0.6044444444444445,0.17555555555555555,-0.7588888888888888,0.0021235922271834596,0.001052117890623488,-0.002104235781246976
1589543793.0020971,-1.36,-3.8991020422609988,8.843034014087,0.6044444444444445,0.17555555555555555,-0.7588888888888888,-0.0024146691667472782,-0.00042891159037104483,0.002181661564992912
1589543793.0120971,-1.3614712001596034,-3.918528799840397,8.85514920055861,0.6044444444444445,0.17555555555555555,-0.7588888888888888,-0.005213429349285937,0.0010105892614310085,0.0021014200439274646
1589543793.022097,-1.3778379802515521,-3.8956759605031044,8.92,0.6058857909434097,0.17555555555555555,-0.7543246249754989,-0.0010024627180068347,-0.0002358397693972154,0.0006191512437020252
1589543793.032097,-1.367519093768051,-3.8775190937680506,8.934885437391696,0.6111111111111112,0.17555555555555555,-0.7377777777777778,0.0035431172361191127,-0.0013614556711262005,-0.00027895611660722216
1589543793.042097,-1.372298697847462,-3.874099565949154,8.910307378864381,0.6111111111111112,0.17555555555555555,-0.7377777777777778,0.002574550037101211,5.430480111285425e-05,0.0008400817453294524
1589543793.052097,-1.386093007814495,-3.883906992185505,8.81781398437101,0.6111111111111112,0.17555555555555555,-0.7377777777777778,-0.0017047469371687298,0.0015677454103206383,-0.0015170175167886384
1589543793.062097,-1.3764388956716946,-3.89,8.847805521641527,0.6111111111111112,0.17555555555555555,-0.7377777777777778,-0.004363323129985824,-0.00031391833829709764,-0.0017932053428932329
1589543793.072097,-1.3673597029844353,-3.8847194059688706,8.903762673140083,0.6058305170799816,0.17731575356593207,-0.7395379757881543,-0.0037872996780835113,0.00022679560464298717,-0.0008028190565452997
1589543793.082097,-1.36,-3.863476787803009,8.953691969507522,0.5911111111111111,0.18222222222222226,-0.7444444444444445,-4.694536542264793e-05,-0.0025374475982546225,0.0007115720665234213
1589543793.092097,-1.36,-3.859830586608275,8.895423533479313,0.5911111111111111,0.18222222222222226,-0.7444444444444445,0.0035590601438130593,-0.0016639663751438392,0.0013773985788201474
1589543793.102097,-1.362977112210598,-3.89,8.825954224421196,0.5911111111111111,0.18222222222222226,-0.7444444444444445,-0.00020817947441003856,0.0026229872190361206,-0.0007660782182698323
1589543793.112097,-1.3688649603667273,-3.89,8.84794527743291,0.5911111111111111,0.18222222222222226,-0.7444444444444445,-0.0033963059646221192,0.001090830782496456,0.00012381361713275122
1589543793.122097,-1.36,-3.891425060697578,8.915700242790312,0.5919028114986545,0.1830139226097656,-0.7453944849094964,-0.0037415230996482337,0.0009353807749120584,0.0012462807900808536
1589543793.132097,-1.362277623776273,-3.895444752447454,8.95,0.5966666666666667,0.18777777777777774,-0.7511111111111111,0.0002484502126104248,-0.0002484502126104248,0.0014363109271616375
1589543793.142097,-1.3696363030281766,-3.880727393943647,8.95,0.5966666666666667,0.18777777777777774,-0.7511111111111111,0.0010511575972598662,-0.0010511575972598662,-0.0009718112267866862
1589543793.152097,-1.3576233306077952,-3.88,8.842376669392205,0.5966666666666667,0.18777777777777774,-0.7511111111111111,0.0019762202810722114,-0.0022354746943556427,0.0008315763692130246
1589543793.162097,-1.3504785023167076,-3.88,8.849521497683291,0.5966666666666667,0.18777777777777774,-0.7511111111111111,-0.0019206790367126813,0.0008820447598722704,5.2196505656046345e-05
1589543793.172097,-1.3626026494430898,-3.88,8.90260264944309,0.5973414276333936,0.18729580565868706,-0.7511111111111111,-0.003984783112843224,0.003890148108557574,0.0008069257696395058
1589543793.182097,-1.3897025043866644,-3.8801487478066674,8.929702504386665,0.6044444444444445,0.18222222222222226,-0.7511111111111111,8.112934317099579e-05,-0.0011070566511306552,-0.0021654356963587127
1589543793.192097,-1.3727551379167067,-3.8872448620832936,8.88520375874964,0.6044444444444445,0.18222222222222226,-0.7511111111111111,0.0036509203627422375,-0.0012800447901228909,-0.0004897529325831085
1589543793.202097,-1.3794580816313484,-3.8805419183686514,8.824877265317864,0.6044444444444445,0.18222222222222226,-0.7511111111111111,-0.0007361460396212542,0.0009134884110588554,0.0009726025348713886
1589543793.212097,-1.364569548801914,-3.879139097603828,8.882284774400958,0.6044444444444445,0.18222222222222226,-0.7511111111111111,-0.003272492347489368,0.0014339708907057818,0.001090830782496456
1589543793.222097,-1.3797582521448304,-3.909758252144831,8.890966991420678,0.6041221139708852,0.18206105698544264,-0.7511111111111111,-0.0031933805468829833,-0.001090830782496456,0.001090830782496456
1589543793.232097,-1.37,-3.892978213862215,8.93,0.5911111111111111,0.17555555555555555,-0.7511111111111111,0.0015319160934405807,-0.0007078517591363108,0.001090830782496456
1589543793.242097,-1.366578491844845,-3.8697354755345343,8.902627934758758,0.5911111111111111,0.17555555555555555,-0.7511111111111111,0.002870408562703452,0.0,0.001090830782496456
1589543793.252097,-1.3627841363780173,-3.8667048182681034,8.86113654551207,0.5911111111111111,0.17555555555555555,-0.7511111111111111,-0.001214808665523755,0.0,0.0013945329488773946
1589543793.262097,-1.3693565411549782,-3.91,8.890643458845023,0.5911111111111111,0.17555555555555555,-0.7511111111111111,-0.004293132658443882,7.019047154194185e-05,0.0021114710934509702
1589543793.2720969,-1.3608427889982748,-3.91,8.899157211001725,0.5911111111111111,0.17555555555555555,-0.7511111111111111,-0.0033644263657361005,0.0009988967642497234,0.0011827648007431885
1589543793.2820969,-1.3574349288360306,-3.9025650711639694,8.90239154806005,0.5966666666666667,0.18777777777777774,-0.7588888888888888,0.00026087742417229783,-0.0019113199236591612,0.0024520032063266627
