time,acc_x,acc_y,acc_z,mag_x,mag_y,mag_z,gyr_x,gyr_y,gyr_z
1589997938.1840534,2.11,-3.52,8.7,0.10444444444444444,0.5877777777777777,-0.6377777777777778,-0.0625,0.0,0.0
1589997938.1940534,2.0970377786440797,-3.4923459262146936,8.779383704858773,0.10444444444444444,0.5877777777777777,-0.6377777777777778,0.014662038841832937,0.125,0.03317592231633412
1589997938.2040534,2.1193344437750294,-3.4997781479250096,8.809112591700039,0.10444444444444444,0.5877777777777777,-0.6377777777777778,0.06111342453131091,0.125,-0.05972684906262182
1589997938.2140534,2.102672642001042,-3.4926726420010423,8.822672642001043,0.10444444444444444,0.5755555555555556,-0.6022222222222222,-0.07488796248045856,-0.04579598749348619,-0.04579598749348619
1589997938.2240534,2.1125473644719563,-3.5025473644719565,8.799431626336522,0.10444444444444444,0.5755555555555556,-0.6022222222222222,0.07842102794972801,0.0,0.015921027949728005
1589997938.2340534,2.115830957191684,-3.5016619143833676,8.718338085616633,0.10444444444444444,0.5755555555555556,-0.6022222222222222,0.07288696489604773,0.0,0.010386964896047735
1589997938.2440534,2.1070991085474566,-3.49870267435763,8.744504457262716,0.10444444444444444,0.5755555555555556,-0.6022222222222222,0.018130571578395385,0.0,-0.0625
1589997938.2540534,2.1031683822432496,-3.5104948532702513,8.799010293459498,0.10444444444444444,0.5755555555555556,-0.6067987743513605,0.022895221959380256,0.039604778040619744,-0.04269761097969013
1589997938.2640533,2.113591746285465,-3.4971834925709304,8.814857776001743,0.10444444444444444,0.5755555555555556,-0.6166666666666667,-0.04005158571584263,0.035206342863370516,0.04489682856831474
1589997938.2740533,2.1068972395945655,-3.5034486197972825,8.711037578175544,0.10444444444444444,0.5755555555555556,-0.6166666666666667,-0.08189225253396593,-0.0021616211990511114,0.043107747466034074
1589997938.2840533,2.1062941290782287,-3.5062941290782286,8.705176516312914,0.10444444444444444,0.5755555555555556,-0.6166666666666667,-0.0856616932610714,0.023161693261071405,0.0
1589997938.2940533,2.10516176269598,-3.50516176269598,8.744191186520101,0.10444444444444444,0.5755555555555556,-0.6166666666666667,-0.002022033699748127,0.0,0.0
1589997938.3040533,2.1050570739025503,-3.5,8.800342443415301,0.11062531254756158,0.5682508932518717,-0.612733386964683,0.03089328810906008,-0.09482013567281977,0.03160671189093992
1589997938.3140533,2.1160747006531206,-3.5060747006531203,8.823925299346879,0.11666666666666667,0.5611111111111111,-0.6088888888888889,-0.0379668790820029,-0.1875,-0.013433758164005799
1589997938.3240533,2.12,-3.51,8.760590859761244,0.11666666666666667,0.5611111111111111,-0.6088888888888889,0.04889213794766671,-0.07610786205233329,-0.025369287350777765
1589997938.3340533,2.1148899108705383,-3.51,8.735330267388385,0.11666666666666667,0.5611111111111111,-0.6088888888888889,0.0611238858817305,-0.0638761141182695,0.0
1589997938.3440533,2.107260255116087,-3.512739744883913,8.755479489767826,0.11666666666666667,0.5611111111111111,-0.6088888888888889,0.0,-0.07362978342663118,0.01712340552445627
1589997938.3540533,2.1008451867486464,-3.5191548132513537,8.768309626502706,0.11666666666666667,0.5611111111111111,-0.6088888888888889,0.0,0.0466527484628797,0.0572175828209599
1589997938.3640532,2.127234332046761,-3.4927656679532393,8.788937328187044,0.11,0.5611111111111111,-0.6166666666666667,0.09707084941548885,-0.1422854247077444,-0.017285424707744426
1589997938.3740532,2.1150555434545852,-3.504944456545415,8.715499891091266,0.11,0.5611111111111111,-0.6166666666666667,0.1256942931823132,-0.1256942931823132,-0.0315971465911566
1589997938.3840532,2.105961082032662,-3.505961082032662,8.686155671869352,0.11,0.5611111111111111,-0.6166666666666667,0.0625,-0.037256762704138566,0.0
1589997938.3940532,2.1012434239029525,-3.5012434239029524,8.716217119514763,0.11,0.5611111111111111,-0.6166666666666667,0.0625,-0.015542798786903511,0.0
1589997938.4040532,2.11,-3.51,8.778594090625973,0.10852427852174816,0.5611111111111111,-0.6166666666666667,0.02929626673933354,-0.14160186663033322,0.0
1589997938.4140532,2.108490146900752,-3.51,8.826980293801505,0.10444444444444444,0.5611111111111111,-0.6166666666666667,-0.04362683625940523,-0.1780634181297026,-0.009436581870297386
1589997938.4240532,2.103639790951887,-3.51,8.762682717625468,0.10444444444444444,0.5611111111111111,-0.6166666666666667,0.017002613101412267,-0.07950261310141227,-0.039751306550706134
1589997938.4340532,2.116904884495246,-3.513452442247623,8.711071980228606,0.10444444444444444,0.5611111111111111,-0.6166666666666667,-0.0625,0.04315552809528713,-0.021577764047643565
1589997938.4440532,2.118266000752574,-3.5121773338350493,8.781733999247425,0.10444444444444444,0.5611111111111111,-0.6166666666666667,-0.03805416823452947,0.05166250470358841,-0.08694583176547052
1589997938.4540532,2.105001576541069,-3.5,8.802500788270535,0.10444444444444444,0.5630561686548601,-0.6147216091229177,0.04688978007252089,-0.015610219927479109,-0.0937401466183194
1589997938.4640532,2.1115924641828556,-3.5042037679085722,8.814203767908573,0.10444444444444444,0.5688888888888889,-0.6088888888888889,0.13495290114284667,0.125,0.0
1589997938.4740531,2.1034399521212928,-3.51,8.778720574544487,0.10444444444444444,0.5688888888888889,-0.6088888888888889,0.0625,0.10350029924192047,-0.021499700758079533
1589997938.4840531,2.100823728673524,-3.5054118643367618,8.722940678316188,0.10444444444444444,0.5688888888888889,-0.6088888888888889,0.09117584789523692,0.005148304209526167,-0.03382415210476308
1589997938.4940531,2.096883453824627,-3.5,8.754588969216417,0.10444444444444444,0.5688888888888889,-0.6088888888888889,0.09631894239738806,-0.03381894239738806,0.0
1589997938.504053,2.115223734841418,-3.5,8.766815823227612,0.10444444444444444,0.5688888888888889,-0.6088888888888889,0.01990110482742538,0.04259889517257462,0.0
1589997938.514053,2.1148553153777985,-3.4974276576888994,8.81,0.11,0.5611111111111111,-0.6022222222222222,-0.09284572111123954,0.032154278888760456,-0.10892286055561977
1589997938.524053,2.1,-3.504526383251442,8.751894466994232,0.11,0.5611111111111111,-0.6022222222222222,-0.06052659688100833,0.06447340311899166,-0.03223670155949583
1589997938.534053,2.1049359400998338,-3.52,8.694935940099834,0.11,0.5611111111111111,-0.6022222222222222,-0.032451123128119805,-0.030849625623960066,0.0
1589997938.544053,2.11,-3.511242187788913,8.73941015494989,0.11,0.5611111111111111,-0.6022222222222222,0.08986816315964646,-0.0625,0.0
1589997938.554053,2.11,-3.5,8.798850466752285,0.11147507779204764,0.5628320352018333,-0.6068933018970397,0.09734229139910675,-0.03484229139910675,0.0
1589997938.564053,2.1090940982253406,-3.5,8.829547049112671,0.11666666666666667,0.5688888888888889,-0.6233333333333333,-0.002830943045810978,0.059669056954189024,0.0
1589997938.574053,2.1014541049798114,-3.4961819650067296,8.778001615074025,0.11666666666666667,0.5688888888888889,-0.6233333333333333,-0.08636271870794078,0.0,0.0
1589997938.584053,2.12,-3.4949901391043676,8.72996055641747,0.11666666666666667,0.5688888888888889,-0.6233333333333333,-0.06262326119540351,0.031188369402298247,0.0
1589997938.594053,2.11148146769872,-3.50425926615064,8.76703706460256,0.11666666666666667,0.5688888888888889,-0.6233333333333333,0.0,-0.017361240324501342,0.0
1589997938.604053,2.1,-3.51,8.793546643640665,0.12100145333859236,0.5688888888888889,-0.6182104036301485,0.0,-0.058500431737503605,0.022166522754165467
1589997938.614053,2.1,-3.5062768578075816,8.77766114684549,0.1288888888888889,0.5688888888888889,-0.6088888888888889,0.023269638702613935,0.01596072259477213,0.039230361297386065
1589997938.624053,2.1,-3.5,8.729818908019233,0.1288888888888889,0.5688888888888889,-0.6088888888888889,0.04977363502404219,-0.03704727004808438,-0.01272636497595781
1589997938.634053,2.104570611094504,-3.504570611094504,8.717423666567024,0.1288888888888889,0.5688888888888889,-0.6088888888888889,0.057132638681299905,0.005367361318700095,-0.09106631934064996
1589997938.644053,2.1065977215137717,-3.5065977215137716,8.760206835458684,0.1288888888888889,0.5688888888888889,-0.6088888888888889,-0.0025854432335551403,-0.04123575946107414,-0.08247151892214828
1589997938.654053,2.0979051099516255,-3.5020948900483746,8.786284670145124,0.12376804654841791,0.5672595299623754,-0.6088888888888889,-0.19762774879063774,-0.02618612560468113,0.02618612560468113
1589997938.664053,2.0917816748768474,-3.5082183251231527,8.806436650246306,0.10444444444444444,0.5611111111111111,-0.6088888888888889,-0.011135467980295567,-0.0915935960591133,0.0915935960591133
1589997938.674053,2.0950337925350286,-3.504966207464971,8.745304132815258,0.10444444444444444,0.5611111111111111,-0.6088888888888889,-0.0625,0.0935387966560697,0.030616389968209118
1589997938.684053,2.1045028676194057,-3.5148342892064686,8.738674313651748,0.10444444444444444,0.5611111111111111,-0.6088888888888889,-0.0020713849191425354,0.004142769838285071,0.09478569245957127
1589997938.694053,2.1162467102789684,-3.5124934205579366,8.78375328972103,0.10444444444444444,0.5611111111111111,-0.6088888888888889,0.08595806075644785,-0.0780838784871043,0.0625
1589997938.704053,2.107409543630147,-3.494819087260294,8.792590456369853,0.10444444444444444,0.5611111111111111,-0.6126306592008985,0.0602385907536792,0.0485710569347406,0.0625
1589997938.714053,2.1,-3.490299528016459,8.8,0.10444444444444444,0.5611111111111111,-0.6233333333333333,-0.0606279498971318,0.08021324982855299,0.0625
1589997938.724053,2.1030873984408407,-3.5007378046774775,8.775300812473274,0.10444444444444444,0.5611111111111111,-0.6233333333333333,0.02390751948949047,-0.125,0.10109248051050954
1589997938.734053,2.1185967794939202,-3.4885967794939203,8.732895169240882,0.10444444444444444,0.5611111111111111,-0.6233333333333333,-0.008770128162997042,-0.15186493591850148,0.10690519224449556
1589997938.744053,2.121602392042315,-3.5,8.758397607957685,0.10444444444444444,0.5611111111111111,-0.6233333333333333,0.11498504973553328,-0.1700049834214889,-0.034990033157022184
1589997938.7540529,2.101767200906589,-3.5017672009065888,8.783534401813178,0.10542622272588274,0.5624856007051248,-0.6184244419261418,0.19477497166909502,-0.147090011332362,-0.09186498300145701
1589997938.7640529,2.104238772128717,-3.504238772128717,8.79711938606436,0.11,0.5688888888888889,-0.5955555555555555,-0.026492325804482422,-0.2319961629022412,0.008488488706723647
1589997938.7740529,2.0908787428660776,-3.49,8.78560628566961,0.11,0.5688888888888889,-0.5955555555555555,0.06524607145649285,-0.18475392854350714,-0.11950785708701431
1589997938.7840528,2.10298058973484,-3.50052911539774,8.69701941026516,0.11,0.5688888888888889,-0.5955555555555555,0.08112868584275076,-0.125,0.04387131415724924
1589997938.7940528,2.096410986322695,-3.5178630045591013,8.727095963527189,0.11,0.5688888888888889,-0.5955555555555555,-0.01335622150561548,-0.13835622150561547,0.11164377849438452
1589997938.8040528,2.1186009218155943,-3.51,8.794197234553216,0.11093271878960373,0.5688888888888889,-0.5955555555555555,-0.045011522694930015,-0.1875,0.0625
1589997938.8140528,2.11,-3.5088980988593153,8.82,0.11666666666666667,0.5688888888888889,-0.5955555555555555,0.055613117870722435,-0.1875,0.06938688212927757
1589997938.8240528,2.113115907682211,-3.496231815364422,8.78260910781347,0.11666666666666667,0.5688888888888889,-0.5955555555555555,-0.0430255769861815,-0.1290767309585445,0.1680255769861815
1589997938.8340528,2.12,-3.5084767560477994,8.704569731856601,0.11666666666666667,0.5688888888888889,-0.5955555555555555,0.00952027470125328,0.01904054940250656,0.11547972529874673
1589997938.8440528,2.113120291750318,-3.506879708249682,8.743759416499365,0.11666666666666667,0.5688888888888889,-0.5955555555555555,0.019501823439485748,0.08200182343948575,-0.001997264840771368
1589997938.8540528,2.101926720068224,-3.514219839795328,8.777706880272897,0.11666666666666667,0.5673903288358257,-0.5981245156465209,-0.03841599914719947,-0.012042000426400268,-0.07683199829439893
1589997938.8640528,2.1070243855421684,-3.4959512289156627,8.795121927710843,0.11666666666666667,0.5611111111111111,-0.6088888888888889,0.0625,-0.04390240963855421,0.050609638554216865
1589997938.8740528,2.101840925814436,-3.508159074185564,8.748954445113386,0.11666666666666667,0.5611111111111111,-0.6088888888888889,0.08551157268044685,0.0,-0.0789768546391063
1589997938.8840528,2.101759872282481,-3.5041200638587595,8.720600319293796,0.11666666666666667,0.5611111111111111,-0.6088888888888889,0.13599920176550687,0.025750399117246563,0.07349920176550687
1589997938.8940527,2.092356271351879,-3.505287457296242,8.759425085407516,0.11666666666666667,0.5611111111111111,-0.6088888888888889,0.047773304050756464,0.0035932162030258633,0.0
1589997938.9040527,2.0982048385972254,-3.49359032280555,8.7828193543889,0.11666666666666667,0.5611111111111111,-0.6088888888888889,0.01121975876734295,-0.1426209649306282,0.0
1589997938.9140527,2.11,-3.509398041413735,8.800601958586265,0.11666666666666667,0.5688888888888889,-0.6088888888888889,-0.007524482328306437,-0.011286723492459655,-0.06626224116415322
1589997938.9240527,2.11,-3.5005266608853827,8.809473339114618,0.11666666666666667,0.5688888888888889,-0.6088888888888889,-0.11841673893271855,-0.17762510839907783,-0.12170836946635927
1589997938.9340527,2.0976580748139133,-3.5,8.72702577555826,0.11666666666666667,0.5688888888888889,-0.6088888888888889,0.0,0.0625,-0.04391109723912322
1589997938.9440527,2.0910296000126425,-3.5,8.74691119996207,0.11666666666666667,0.5688888888888889,-0.6088888888888889,0.0,0.0625,-0.16819499976294705
1589997938.9540527,2.11,-3.5109840835559027,8.809015916444098,0.11601061096273135,0.5695449445928242,-0.6088888888888889,0.11884947777560637,0.0,-0.056349477775606366
1589997938.9640527,2.1096874074074075,-3.5196874074074076,8.80046888888889,0.11,0.5755555555555556,-0.6088888888888889,0.061523148148148146,0.0,0.0009768518518518518
1589997938.9740527,2.0926618505621675,-3.5053237011243352,8.792734092129654,0.11,0.5755555555555556,-0.6088888888888889,0.0,-0.049909698040642374,0.04586343398645254
1589997938.9840527,2.099928104914852,-3.519856209829704,8.691006531192071,0.11,0.5755555555555556,-0.6088888888888889,0.0,-0.18615196715347435,0.0004493442821752111
1589997938.9940526,2.1,-3.5150212514532946,8.77,0.11,0.5755555555555556,-0.6088888888888889,0.04694141079154516,-0.15611717841690967,-0.01555858920845484
1589997939.0040526,2.0991609894834315,-3.5,8.773356042066274,0.11158479764240728,0.5737843111316886,-0.6101007929683768,0.0,-0.24475618427144652,-0.052012368542893046
1589997939.0140526,2.09,-3.5033279588737,8.8000161233789,0.1288888888888889,0.5544444444444444,-0.6233333333333333,0.0,-0.1875,0.0625
1589997939.0240526,2.096259641905474,-3.5006105371417884,8.754961432378103,0.1288888888888889,0.5544444444444444,-0.6233333333333333,0.019561380954607077,-0.10925447618157169,0.0625
1589997939.0340526,2.1129515791454034,-3.4918063165816147,8.70885473743621,0.1288888888888889,0.5544444444444444,-0.6233333333333333,0.0440526303412271,0.0071578910236812995,0.0625
1589997939.0440526,2.118057790901421,-3.514173372704264,8.741653254591473,0.1288888888888889,0.5544444444444444,-0.6233333333333333,0.0,-0.1371388068661172,0.0625
1589997939.0540526,2.111252839249789,-3.4937585177493675,8.782482964501265,0.1288888888888889,0.5544444444444444,-0.6233333333333333,0.0,-0.1796697546888182,0.0625
1589997939.0640526,2.1030540989479856,-3.5054188515780216,8.818472950526008,0.11,0.5688888888888889,-0.6022222222222222,-0.05295594078754519,-0.15886782236263558,0.11545594078754519
1589997939.0740526,2.116714978992281,-3.4849275315115786,8.81164251050386,0.11,0.5688888888888889,-0.6022222222222222,-0.010265690649122236,-0.030797071947366722,0.07276569064912224
1589997939.0840526,2.1,-3.498888408977039,8.723334773068883,0.11,0.5688888888888889,-0.6022222222222222,0.10415766831948307,-0.041657668319483074,-0.048605112212988716
1589997939.0940526,2.1,-3.4916419895993505,8.745074031201948,0.11,0.5688888888888889,-0.6022222222222222,-0.03171269501218016,0.09421269501218016,0.0419751300081201
1589997939.1040525,2.1193325188474033,-3.509332518847403,8.788665037694805,0.11,0.5688888888888889,-0.6022222222222222,0.05832824279626926,0.004171757203730739,-0.17915648559253852
1589997939.1140525,2.111224634565778,-3.5012246345657783,8.79,0.11,0.5562133610394573,-0.6022222222222222,-0.047192067927773,-0.0548460339638865,-0.077807932072227
1589997939.1240525,2.11,-3.5,8.726188295695009,0.11,0.5544444444444444,-0.6022222222222222,0.0,0.03867684809380095,0.050588424046900476
1589997939.1340525,2.11,-3.5,8.711638394560655,0.11,0.5544444444444444,-0.6022222222222222,0.0,-0.05226003399590662,0.005119983002046691
1589997939.1440525,2.1055667541314054,-3.51,8.76,0.11,0.5544444444444444,-0.6022222222222222,0.013853893339357394,0.020938319981927814,-0.048646106660642605
1589997939.1540525,2.0909897996420317,-3.51,8.76,0.11,0.5544444444444444,-0.6022222222222222,0.059406876118650837,-0.11572062835595254,-0.0030931238813491635
1589997939.1640525,2.11,-3.5076300838853904,8.78236991611461,0.11,0.5688888888888889,-0.6166666666666667,-0.0328760485673852,-0.0328760485673852,0.014811975716307402
1589997939.1740525,2.108669790409921,-3.501330209590079,8.779358323279368,0.11,0.5688888888888889,-0.6166666666666667,0.04587238012401448,0.0625,0.05418619006200724
1589997939.1840525,2.102658977631167,-3.507341022368833,8.717976932893501,0.11,0.5688888888888889,-0.6166666666666667,-0.04588138980520575,0.07911861019479424,0.01661861019479425
1589997939.1940525,2.107901438124027,-3.5,8.75259137125584,0.11,0.5688888888888889,-0.6166666666666667,0.01311601172483283,0.07253595310066868,0.0625
1589997939.2040524,2.1002174590088853,-3.5,8.79869524594669,0.11,0.5688888888888889,-0.6166666666666667,0.061140881194467346,-0.11956352477786938,0.0625
1589997939.2140524,2.0914152711953657,-3.508584728804634,8.817169457609268,0.11572315253642268,0.5622118775963958,-0.6099896553741736,0.0625,-0.07134544497103738,0.008845444971037383
1589997939.2240524,2.0935074472913313,-3.495261170936997,8.790709039897678,0.11666666666666667,0.5611111111111111,-0.6088888888888889,0.02961768164376779,-0.0921176816437678,-0.02192154557082147
1589997939.2340524,2.1105353551823467,-3.519464644817653,8.701070710364693,0.11666666666666667,0.5611111111111111,-0.6088888888888889,-0.11830806022066417,0.05915403011033209,-0.11161612044132833
1589997939.2440524,2.1186412939693695,-3.508641293969369,8.726793530153154,0.11666666666666667,0.5611111111111111,-0.6088888888888889,0.0,-0.016983825382882022,0.10801617461711797
1589997939.2540524,2.110631707596532,-3.5006317075965323,8.76684146201734,0.11666666666666667,0.5611111111111111,-0.6088888888888889,0.0,-0.11710365504334874,0.007896344956651258
1589997939.2640524,2.1096512570965125,-3.52,8.789651257096512,0.11666666666666667,0.5688888888888889,-0.5955555555555555,0.24128142741281428,0.12064071370640714,0.06032035685320357
1589997939.2740524,2.103004267920913,-3.5169957320790872,8.769485062276805,0.11666666666666667,0.5688888888888889,-0.5955555555555555,0.0,-0.01877667450570508,0.0
1589997939.2840524,2.1176172807246756,-3.5023827192753245,8.718339517463637,0.11666666666666667,0.5688888888888889,-0.5955555555555555,0.0,-0.11010800452922219,0.0
1589997939.2940524,2.1031117674330755,-3.5137764651338497,8.747779418582688,0.11666666666666667,0.5688888888888889,-0.5955555555555555,-0.125,-0.03889709291343991,-0.10555145354328005
1589997939.3040524,2.11751601215722,-3.484967975685561,8.783790030393048,0.11666666666666667,0.5688888888888889,-0.5955555555555555,-0.125,-0.21895015196524545,-0.015524924017377276
1589997939.3140523,2.0993695271453587,-3.5,8.80702714535902,0.10444444444444444,0.5611111111111111,-0.6311111111111111,-0.0625,-0.15822022767075306,-0.014639886164623467
1589997939.3240523,2.125058456742011,-3.5024707716289947,8.800350740452066,0.10444444444444444,0.5611111111111111,-0.6311111111111111,-0.031615354637568205,-0.031615354637568205,-0.0625
1589997939.3340523,2.11,-3.51,8.71,0.10444444444444444,0.5611111111111111,-0.6311111111111111,0.0625,0.0625,-0.0625
1589997939.3440523,2.1090108562145886,-3.5109891437854115,8.71692400649788,0.10444444444444444,0.5611111111111111,-0.6311111111111111,0.05631785134117834,0.03777140536471334,-0.043953554023535006
1589997939.3540523,2.100701691826142,-3.519298308173858,8.775088157217004,0.10444444444444444,0.5611111111111111,-0.6311111111111111,0.004385573913388008,-0.16995770434644797,0.11184327825983598
1589997939.3640523,2.11,-3.51,8.801978874929985,0.11666666666666667,0.5688888888888889,-0.6311111111111111,0.10620048811714812,-0.049966992078098744,0.0
1589997939.3740523,2.106309331175836,-3.508154665587918,8.724463996763754,0.11666666666666667,0.5688888888888889,-0.6311111111111111,-0.03943331984897519,0.0740333400755124,0.0
1589997939.3840523,2.091462242208094,-3.5029244844161886,8.707311211040471,0.11666666666666667,0.5688888888888889,-0.6311111111111111,0.053360986199410765,0.08844394479764305,0.018278027601178477
1589997939.3940523,2.0984233165757984,-3.5184233165757983,8.754730050272604,0.11666666666666667,0.5688888888888889,-0.6311111111111111,0.0,-0.11514572859873964,0.08558291439495858
1589997939.4040523,2.0909987254832543,-3.510998725483254,8.777003823550237,0.11666666666666667,0.5688888888888889,-0.6311111111111111,0.0,-0.06874203427033916,-0.10003186291864335
1589997939.4140522,2.118829402967905,-3.5176588059358105,8.826488208903715,0.10444444444444444,0.5688888888888889,-0.6088888888888889,0.10305130564822271,-0.021948694351777293,0.014632462901184862
1589997939.4240522,2.108823296485728,-3.5,8.794116482428644,0.10444444444444444,0.5688888888888889,-0.6088888888888889,-0.058822801517901334,-0.19117719848209866,0.11764560303580267
1589997939.4340522,2.094983006104603,-3.5,8.724915030523016,0.10444444444444444,0.5688888888888889,-0.6088888888888889,-0.015571894076885001,-0.234428105923115,0.031143788153770002
1589997939.4440522,2.09,-3.509461402890377,8.785152626013394,0.10444444444444444,0.5688888888888889,-0.6088888888888889,0.0,-0.07259869580542827,-0.05913376806485725
1589997939.4540522,2.1032830473936763,-3.51,8.79,0.10444444444444444,0.5688888888888889,-0.6088888888888889,0.04150952310523894,-0.1455190462104779,0.020519046210477884
1589997939.4640522,2.0939794398092966,-3.5019897199046484,8.806020560190703,0.11423478678320752,0.5626586710369488,-0.615119106740829,0.11256425059594755,0.012757002383790211,-0.037628501191895106
1589997939.4740522,2.09,-3.483927897071093,8.801963948535548,0.11666666666666667,0.5611111111111111,-0.6166666666666667,0.125,-0.08817596495850347,-0.012274678347165502
1589997939.4840522,2.1092934822275744,-3.5092934822275743,8.694239106634551,0.11666666666666667,0.5611111111111111,-0.6166666666666667,-0.058084263922341436,0.058084263922341436,-0.0492527917670243
1589997939.4940522,2.1016402087438872,-3.501640208743887,8.740158747536675,0.11666666666666667,0.5611111111111111,-0.6166666666666667,-0.010251304649295676,0.010251304649295676,0.09424608605211299
1589997939.5040522,2.1083724593495936,-3.5083724593495935,8.783489837398374,0.11666666666666667,0.5611111111111111,-0.6166666666666667,0.05232787093495935,0.05232787093495935,0.07267212906504064
1589997939.5140522,2.102064799928546,-3.502064799928546,8.79,0.11137653328569727,0.5611111111111111,-0.6166666666666667,0.012904999553411935,-0.03669000089317613,0.012904999553411935
1589997939.5240521,2.1071408203032176,-3.5085704101516084,8.777133691364478,0.11,0.5611111111111111,-0.6166666666666667,0.0625,-0.053565063447554774,-0.026760253790219096
1589997939.5340521,2.09,-3.498664409244824,8.705342363020703,0.11,0.5611111111111111,-0.6166666666666667,0.05415255778015135,0.0,0.16245767334045405
1589997939.5440521,2.0914805189767853,-3.4922207784651786,8.744441556930358,0.11,0.5611111111111111,-0.6166666666666667,-0.004626621802455249,-0.004626621802455249,0.009253243604910498
1589997939.554052,2.1077491612202546,-3.516623741830382,8.793247483660766,0.11,0.5611111111111111,-0.6166666666666667,-0.05546612881329636,-0.05546612881329636,0.11093225762659271
1589997939.564052,2.09,-3.5186634648037645,8.81267307039247,0.12444444444444445,0.5688888888888889,-0.6166666666666667,-0.0625,0.0,0.0625
1589997939.574052,2.09,-3.51,8.83,0.12444444444444445,0.5688888888888889,-0.6166666666666667,-0.0625,0.0,0.0625
1589997939.584052,2.101192293544234,-3.51,8.762846238734596,0.12444444444444445,0.5688888888888889,-0.6166666666666667,0.007451834651462194,-0.0349759173257311,0.0625
1589997939.594052,2.0917440416583215,-3.51,8.746511916683357,0.12444444444444445,0.5688888888888889,-0.6166666666666667,-0.10864960945323454,0.10864960945323454,0.0625
1589997939.604052,2.1088661163298226,-3.51,8.775154821773096,0.12444444444444445,0.5688888888888889,-0.6166666666666667,-0.046391181959072644,0.125,0.023195590979536322
1589997939.614052,2.1268110599078343,-3.5031889400921656,8.810433179723502,0.11082232462877624,0.5635913978494623,-0.6022877624167946,0.0,-0.13041474654377883,-0.042569124423963135
1589997939.624052,2.111441339328849,-3.5061862202237166,8.789068898881416,0.10444444444444444,0.5611111111111111,-0.5955555555555555,0.0,-0.018016741610613535,-0.023836123601768927
1589997939.634052,2.1081107282160034,-3.518110728216003,8.721335630703981,0.10444444444444444,0.5611111111111111,-0.5955555555555555,0.0,0.07430794864997917,-0.05069205135002083
1589997939.644052,2.1098195759182126,-3.5003608481635746,8.73072169632715,0.10444444444444444,0.5611111111111111,-0.5955555555555555,0.0022553010223400225,0.05911704846648996,-0.06137234948882999
1589997939.654052,2.101878833775085,-3.5162423324498295,8.76248466489966,0.10444444444444444,0.5611111111111111,-0.5955555555555555,0.10151457781143505,-0.08977186671715259,-0.011742711094282474
1589997939.664052,2.12,-3.500353218210361,8.81964678178964,0.11,0.5611111111111111,-0.6166666666666667,0.0625,-0.0625,-0.0625
1589997939.674052,2.119972338701152,-3.509972338701152,8.80964040311498,0.11,0.5611111111111111,-0.6166666666666667,0.062327116882201626,-0.06267288311779837,-0.06267288311779837
1589997939.684052,2.112582543430001,-3.502582543430001,8.713573064590014,0.11,0.5611111111111111,-0.6166666666666667,0.01614089643750661,-0.1088591035624934,-0.1088591035624934
1589997939.694052,2.1284995592921554,-3.5,8.763248016814698,0.11,0.5611111111111111,-0.6166666666666667,0.0,-0.06718887721201437,-0.009377754424028745
1589997939.704052,2.114188008676099,-3.5,8.77790599566195,0.11,0.5611111111111111,-0.6166666666666667,0.04941247288719082,0.03632494577438164,0.0
1589997939.714052,2.12,-3.5299647697113463,8.800035230288655,0.10444444444444444,0.5611111111111111,-0.6233333333333333,7.339643469478826e-05,-0.062279810695915636,0.12477981069591564
1589997939.724052,2.12,-3.500411489771473,8.829588510228527,0.10444444444444444,0.5611111111111111,-0.6233333333333333,0.06164272964276487,0.12242818892829463,-0.05992818892829463
1589997939.734052,2.0918127937870428,-3.498791470808638,8.703625587574084,0.10444444444444444,0.5611111111111111,-0.6233333333333333,0.0,-0.003776653723005654,0.1723933851079774
1589997939.744052,2.1199230946600296,-3.4800769053399705,8.760307621359882,0.10444444444444444,0.5611111111111111,-0.6233333333333333,0.0004806583748151966,-0.0625,-0.061538683250369604
1589997939.754052,2.114234134035021,-3.485765865964979,8.783063463859916,0.10444444444444444,0.5611111111111111,-0.6233333333333333,0.03603666228111818,-0.0625,0.009573324562236363
1589997939.764052,2.105824834565979,-3.494175165434021,8.795824834565979,0.10444444444444444,0.5583276674884304,-0.6233333333333333,0.0625,-0.0625,0.036405216037368626
1589997939.774052,2.091584840923269,-3.4831696818465376,8.764754522769806,0.10444444444444444,0.5544444444444444,-0.6233333333333333,0.0625,-0.0625,0.052594744229569564
1589997939.784052,2.097622257604268,-3.495244515208536,8.72188871197866,0.10444444444444444,0.5544444444444444,-0.6233333333333333,-0.03277822005334878,0.17569555013337193,-0.08041733008002316
1589997939.794052,2.1,-3.507915139224709,8.72583027844942,0.10444444444444444,0.5544444444444444,-0.6233333333333333,-0.0625,0.002651899227829324,0.0234088604633024
1589997939.8040519,2.092677114363424,-3.5026771143634243,8.766614428182878,0.10444444444444444,0.5544444444444444,-0.6233333333333333,0.029036070457194654,-0.0625,-0.07480410568579202
1589997939.8140519,2.0960565863659664,-3.512113172731932,8.804226345463865,0.100406720200467,0.5672305712170397,-0.6065094823167606,-0.01320732957457714,-0.10035366478728858,0.02641465914915428
1589997939.8240519,2.09174308257281,-3.51174308257281,8.81174308257281,0.09777777777777777,0.5755555555555556,-0.5955555555555555,-0.0625,-0.073394266080064,0.02178853216012798
1589997939.8340518,2.1033533429187634,-3.51,8.763263299784327,0.09777777777777777,0.5755555555555556,-0.5955555555555555,-0.020770803378864125,-0.10422919662113588,0.041729196621135875
1589997939.8440518,2.11,-3.4805241107712934,8.759650592819138,0.09777777777777777,0.5755555555555556,-0.5955555555555555,0.061408102559805604,-0.0021837948803887924,0.0625
1589997939.8540518,2.0968885275405333,-3.4865557362297337,8.773111472459465,0.09777777777777777,0.5755555555555556,-0.5955555555555555,0.10347335143583347,-0.08194670287166696,-0.019446702871666957
1589997939.8640518,2.09,-3.4974262942326853,8.802278882698056,0.10272864059956786,0.5755555555555556,-0.6054572811991358,-0.014243016862846403,-0.125,0.030328677908564264
1589997939.8740518,2.099203800700129,-3.518407601400258,8.763980996499354,0.10444444444444444,0.5755555555555556,-0.6088888888888889,-0.00497624562419393,-0.125,-0.11007126312741819
1589997939.8840518,2.109763917810281,-3.5102360821897185,8.701416493138312,0.10444444444444444,0.5755555555555556,-0.6088888888888889,0.0,-0.002951027371484491,-0.06397551368574225
1589997939.8940518,2.1017603794059725,-3.5182396205940276,8.73295848237611,0.10444444444444444,0.5755555555555556,-0.6088888888888889,-0.05149762871267232,0.0,-0.11399762871267233
1589997939.9040518,2.1,-3.5151789917187273,8.754463024843819,0.10444444444444444,0.5755555555555556,-0.6088888888888889,-0.03236869824204562,-0.03013130175795438,-0.09486869824204562
1589997939.9140518,2.1,-3.5125361530715002,8.780144612286001,0.10585341837305583,0.5755555555555556,-0.6125522211032786,-0.01585095669687815,-0.030798086606243703,-0.04664904330312185
1589997939.9240518,2.117017843514918,-3.511491078242541,8.792982156485081,0.11,0.5755555555555556,-0.6233333333333333,-0.009319239015881088,-0.09704228295235673,0.10636152196823782
1589997939.9340518,2.1114985396540105,-3.51,8.704985396540103,0.11,0.5755555555555556,-0.6233333333333333,0.05313412716243541,-0.0718658728375646,0.0718658728375646
1589997939.9440517,2.11,-3.5029820337836495,8.718071864865403,0.11,0.5755555555555556,-0.6233333333333333,0.15022457770438313,-0.10636228885219157,0.01863771114780844
1589997939.9540517,2.1038047300558507,-3.5,8.748585809832448,0.11,0.5755555555555556,-0.6233333333333333,0.11005912569813142,-0.1637204371509343,0.03872043715093429
1589997939.9640517,2.1,-3.505033505154639,8.775100515463917,0.09993298969072165,0.5682849369988545,-0.6160627147766323,0.031040592783505155,-0.12458118556701031,0.031040592783505155
1589997939.9740517,2.112582963983761,-3.491125554024358,8.808874445975642,0.09,0.5611111111111111,-0.6088888888888889,-0.039321762449253235,-0.0625,0.039321762449253235
1589997939.9840517,2.1088315089299745,-3.496752736605038,8.75857329911486,0.09,0.5611111111111111,-0.6088888888888889,-0.0974015345938302,0.0422046037814906,0.027598465406169795
1589997939.9940517,2.1,-3.4981873004611566,8.74543809861653,0.09,0.5611111111111111,-0.6088888888888889,0.02265874423554451,0.08808531394111388,-0.03691468605888613
1589997940.0040517,2.1125939273435237,-3.49,8.776296963671761,0.09,0.5611111111111111,-0.6088888888888889,0.16435602294851082,0.02314397705148917,-0.14121204589702166
1589997940.0140517,2.1118119024124673,-3.5063761951750654,8.804564292762599,0.1163838700042722,0.5611111111111111,-0.6088888888888889,0.03397317023376095,0.05117560992207969,-0.1363243900779203
1589997940.0240517,2.11,-3.51,8.776070096597095,0.12222222222222222,0.5611111111111111,-0.6088888888888889,0.05301547406703885,0.009484525932961153,-0.07198452593296115
1589997940.0340517,2.093030709850646,-3.501515354925323,8.719092129551939,0.12222222222222222,0.5611111111111111,-0.6088888888888889,0.009470968283269009,0.10605806343346198,0.04355806343346198
1589997940.0440516,2.1090407126948776,-3.5063469042316258,8.71,0.12222222222222222,0.5611111111111111,-0.6088888888888889,0.11900445434298441,0.005995545657015586,0.10216815144766148
1589997940.0540516,2.1241461999613227,-3.505853800038677,8.755608199574551,0.12222222222222222,0.5611111111111111,-0.6088888888888889,0.10975875072519822,-0.08841374975826725,0.04725875072519822
1589997940.0640516,2.1192470906131975,-3.503584303128934,8.812831393742131,0.1178414072868582,0.5638989024336155,-0.6064993534695995,0.02240189455583873,-0.125,0.004705683667516197
1589997940.0740516,2.1,-3.501716253443526,8.816567493112949,0.11,0.5688888888888889,-0.6022222222222222,0.0625,-0.125,0.02145316804407714
1589997940.0840516,2.1160086897256773,-3.5160086897256773,8.747960896234453,0.11,0.5688888888888889,-0.6022222222222222,0.16255431078548305,0.0250814661782246,-0.050027155392741524
1589997940.0940516,2.111135875037418,-3.511135875037418,8.77432062481291,0.11,0.5688888888888889,-0.6022222222222222,0.021297656951587862,0.0625,0.048301562032274745
1589997940.1040516,2.11,-3.51,8.78,0.11,0.5688888888888889,-0.6022222222222222,0.07926005204398556,-0.016760052043985563,0.02286997397800722
1589997940.1140516,2.11,-3.51,8.796623623086761,0.11,0.5688888888888889,-0.6109958010735683,0.09902558892693593,-0.1404232332191922,0.02597441107306407
1589997940.1240516,2.105110105255595,-3.505110105255595,8.775990947300356,0.11,0.5688888888888889,-0.6233333333333333,0.0625,-0.09719078923734598,0.0319381578474692
1589997940.1340516,2.1049059275385407,-3.5,8.710376289845838,0.11,0.5688888888888889,-0.6233333333333333,0.0011759057682436819,0.0625,0.0
1589997940.1440516,2.1052969341813763,-3.5047030658186236,8.71821839491174,0.11,0.5688888888888889,-0.6233333333333333,-0.09189416136639748,0.0037116772672050324,0.029394161366397484
1589997940.1540515,2.104789396534977,-3.514789396534977,8.759578793069954,0.11,0.5688888888888889,-0.6233333333333333,-0.03519881496918213,-0.09243372834360596,0.032566271656394044
1589997940.1640515,2.114912911252419,-3.505261266242743,8.789651645009677,0.11600466930851228,0.5721641630571683,-0.6271544865296593,0.0625,-0.125,0.09211708598285873
1589997940.1740515,2.1090137597338776,-3.4954931201330615,8.81549312013306,0.12222222222222222,0.5755555555555556,-0.6311111111111111,-0.006164001663264529,-0.09066799916836774,0.08450399750510319
1589997940.1840515,2.1,-3.506444238712434,8.74266913545079,0.12222222222222222,0.5755555555555556,-0.6311111111111111,-0.1027764919527133,-0.0625,0.0
1589997940.1940515,2.1,-3.4977133355120245,8.718429996731963,0.12222222222222222,0.5755555555555556,-0.6311111111111111,-0.0866041734750764,-0.1008958265249236,-0.07679165304984718
1589997940.2040515,2.1,-3.495290121367439,8.767030849572071,0.12222222222222222,0.5755555555555556,-0.6311111111111111,0.03668977563947584,-0.09193674145350805,-0.02581022436052416
1589997940.2140515,2.1120617532554706,-3.5060308766277353,8.806030876627736,0.11485115078832356,0.5755555555555556,-0.613688578630987,0.04961404215330917,-0.024807021076654584,0.10019297892334542
1589997940.2240515,2.0965214384508988,-3.5178261871830334,8.81,0.11,0.5755555555555556,-0.6022222222222222,0.0,-0.04891366989396035,0.07608633010603966
1589997940.2340515,2.1099738706305886,-3.506684086246274,8.743420431231371,0.11,0.5755555555555556,-0.6022222222222222,0.041612230480393295,-0.0625,-0.02072446096078659
1589997940.2440515,2.12,-3.515336710276889,8.725336710276888,0.11,0.5755555555555556,-0.6022222222222222,-0.03335443923055409,-0.20628165884583113,-0.0625
1589997940.2540514,2.113936192689626,-3.501808578068878,8.754255229241496,0.11,0.5755555555555556,-0.6022222222222222,-0.02460120431016269,-0.2121012043101627,0.013297591379674623
1589997940.2640514,2.0975898118228473,-3.4962050940885763,8.794820376354306,0.11758400388603772,0.5665926418720565,-0.6153218652981055,-0.07756367610720395,-0.032372647785592096,0.023718161946398024
1589997940.2740514,2.095978928884987,-3.4940210711150135,8.786084284460053,0.12222222222222222,0.5611111111111111,-0.6233333333333333,-0.08763169446883232,0.09986830553116768,-0.03736830553116769
1589997940.2840514,2.1137421958756386,-3.5037421958756383,8.728773412373085,0.12222222222222222,0.5611111111111111,-0.6233333333333333,-0.01955563788862963,0.08205563788862963,-0.10544436211137037
1589997940.2940514,2.108222528735632,-3.492333793103448,8.733554942528736,0.12222222222222222,0.5611111111111111,-0.6233333333333333,0.0,0.13610919540229885,-0.08819540229885058
1589997940.3040514,2.1,-3.49003517879709,8.77007035759418,0.12222222222222222,0.5611111111111111,-0.6233333333333333,0.020906622493937637,0.14568675501212472,-0.08340662249393764
1589997940.3140514,2.101068963037538,-3.508931036962462,8.811068963037538,0.12032184348882177,0.5619425268069738,-0.6226206913083081,0.0625,0.04245694304616712,-0.09827592406155616
1589997940.3240514,2.11,-3.4962852116499796,8.827429576700041,0.10444444444444444,0.5688888888888889,-0.6166666666666667,0.0625,-0.10178257281237105,0.032130291249484175
1589997940.3340514,2.114734063853799,-3.49,8.792659361462011,0.10444444444444444,0.5688888888888889,-0.6166666666666667,0.032912100913757326,-0.032912100913757326,-0.09541210091375732
1589997940.3440514,2.105270436880193,-3.499819708746538,8.735090145626732,0.10444444444444444,0.5688888888888889,-0.6166666666666667,-0.0920597694987939,-0.030686589832931297,-0.031813410167068706
1589997940.3540514,2.0936810285870604,-3.5136810285870603,8.744724114348243,0.10444444444444444,0.5688888888888889,-0.6166666666666667,-0.1875,0.02952571467651484,-0.02300642866912871
1589997940.3640513,2.104033390410959,-3.52,8.790166952054795,0.10937414383561643,0.5630628805175037,-0.6108406582952816,-0.1370826198630137,0.11187392979452056,-0.012082619863013698
1589997940.3740513,2.104794049072943,-3.5095880981458865,8.78876429443766,0.11666666666666667,0.5544444444444444,-0.6022222222222222,-0.029962806705895413,0.09761157988231375,0.0950371932941046
1589997940.3840513,2.0886768353416794,-3.4943384176708396,8.731692088354198,0.11666666666666667,0.5544444444444444,-0.6022222222222222,-0.035384889557252504,0.2228848895572525,0.0896151104427475
1589997940.3940513,2.0928510943199585,-3.4964255471599794,8.729276641479938,0.11666666666666667,0.5544444444444444,-0.6022222222222222,-0.18297900924960916,0.00904198150078167,0.14281933949973943
1589997940.4040513,2.1,-3.505866484807153,8.763465939228613,0.11666666666666667,0.5544444444444444,-0.6022222222222222,-0.06667234977646436,-0.19833106008941426,0.0775034098658786
1589997940.4140513,2.111577917781422,-3.504211041109289,8.808944794453554,0.10959127246690895,0.5698816681530067,-0.5938603927134176,0.0625,-0.06909503466528583,0.036180993066942835
1589997940.4240513,2.114574590685106,-3.5,8.824574590685106,0.10444444444444444,0.5811111111111111,-0.5877777777777777,0.028591191781910663,0.09640880821808934,-0.005317616436178674
1589997940.4340513,2.1036895470615704,-3.5126209058768594,8.744274564738843,0.10444444444444444,0.5811111111111111,-0.5877777777777777,-0.07888066173037156,0.125,-0.02305966913481422
1589997940.4440513,2.1061381435102366,-3.5015855694692903,8.718414430530709,0.10444444444444444,0.5811111111111111,-0.5877777777777777,-0.009909809183065,0.04827320612204333,0.0
1589997940.4540513,2.105131581792626,-3.4997368364147476,8.749473672829495,0.10444444444444444,0.5811111111111111,-0.5877777777777777,0.0625,0.0,0.0
1589997940.4640512,2.1038568403218973,-3.51,8.777713680643794,0.09887345286837027,0.5733974304673162,-0.593348769353852,0.014289495976281236,-0.048210504023718764,0.0
1589997940.4740512,2.1138280556377627,-3.51,8.801484166913287,0.09,0.5611111111111111,-0.6022222222222222,0.033201390944066295,-0.07714930452796685,-0.023925347736016574
1589997940.4840512,2.113715954466893,-3.503715954466893,8.757159544668932,0.09,0.5611111111111111,-0.6022222222222222,0.10894943083616425,-0.07855056916383575,0.01605056916383575
1589997940.4940512,2.1145468991052145,-3.5,8.733640697315643,0.09,0.5611111111111111,-0.6022222222222222,0.005663761184819503,-0.15341811940759026,-0.051172477630360994
1589997940.5040512,2.113809672777326,-3.502063442407558,8.758253769630231,0.09,0.5611111111111111,-0.6022222222222222,-0.04960348495276231,-0.14881045485828692,-0.13591393981104924
1589997940.5140512,2.0931484260719238,-3.506851573928076,8.793148426071923,0.09454772654833446,0.5656588376594456,-0.6067699487705567,0.0,0.0,0.04282233705047588
1589997940.5240512,2.1,-3.498098858085595,8.794296574256785,0.10444444444444444,0.5755555555555556,-0.6166666666666667,0.023764273930061783,0.0,0.03564641089509268
1589997940.5340512,2.1036395927066067,-3.49,8.74816244376036,0.10444444444444444,0.5755555555555556,-0.6166666666666667,0.125,0.0,0.07376272791854133
1589997940.5440512,2.11,-3.49,8.718676511758119,0.10444444444444444,0.5755555555555556,-0.6166666666666667,0.15211409924412095,-0.05422819848824188,-0.04365770226763718
1589997940.5540512,2.11,-3.4944957858551313,8.76596628684105,0.10444444444444444,0.5755555555555556,-0.6166666666666667,0.1032040152162912,-0.125,0.0625
1589997940.5640512,2.1141118095915865,-3.5,8.818223619183174,0.10672878310643699,0.5755555555555556,-0.6079861797510949,0.0,-0.04790357015775115,0.03680119005258372
1589997940.5740511,2.115147372764293,-3.5,8.805736863821465,0.11,0.5755555555555556,-0.5955555555555555,0.060657840446334065,0.09282892022316704,0.0
1589997940.5840511,2.100048817123545,-3.4950244085617723,8.750146451370634,0.11,0.5755555555555556,-0.5955555555555555,0.125,0.125,0.0
1589997940.5940511,2.096725769991523,-3.49,8.753628849957614,0.11,0.5755555555555556,-0.5955555555555555,0.125,-0.04314424978807571,0.04203606244701893
1589997940.604051,2.105081833505519,-3.4849181664944813,8.790327334022075,0.11,0.5755555555555556,-0.5955555555555555,0.02971562177151868,-0.09323854059050624,0.0625
1589997940.614051,2.113625058140958,-3.4945002325638326,8.813625058140959,0.10556937338327335,0.5703193604630604,-0.6003889664101664,-0.017186773238022958,-0.017186773238022958,0.10781322676197705
1589997940.624051,2.1149382480264833,-3.52,8.779505984211866,0.09777777777777777,0.5611111111111111,-0.6088888888888889,0.030864050165520754,0.0625,0.060956200662083015
1589997940.634051,2.1152260143953177,-3.5147739856046822,8.724321956814048,0.09777777777777777,0.5611111111111111,-0.6088888888888889,0.0326625899707348,0.09516258997073479,0.002825179941469594
1589997940.644051,2.110215837883396,-3.5067386126277986,8.726306936861008,0.09777777777777777,0.5611111111111111,-0.6088888888888889,0.04211632892374216,0.10461632892374216,0.0013489867712265027
1589997940.654051,2.0946080413965382,-3.503072027597692,8.763072027597692,0.09777777777777777,0.5611111111111111,-0.6088888888888889,0.028800258728364954,0.05289991375721168,-0.10579982751442336
1589997940.664051,2.117342505716313,-3.5120275171489395,8.782657494283686,0.10102582634672834,0.5649497139653255,-0.610955828887312,0.13767198218087204,0.0,0.016609339273042655
1589997940.674051,2.108407479045777,-3.491592520954223,8.791592520954222,0.11,0.5755555555555556,-0.6166666666666667,0.0,0.0,0.0625
1589997940.684051,2.0955645411326995,-3.5044354588673006,8.760080870194296,0.11,0.5755555555555556,-0.6166666666666667,0.0,0.05544323584125672,0.0625
1589997940.694051,2.1064228994527308,-3.5154742998175768,8.720948599635154,0.11,0.5755555555555556,-0.6166666666666667,0.10264312157956862,0.0907856261401438,-0.005928747719712413
1589997940.704051,2.12,-3.5081496360714626,8.74580048523805,0.11,0.5755555555555556,-0.6166666666666667,0.13812348363109306,0.03781174181554652,0.03625303273781391
1589997940.714051,2.12,-3.49,8.775005122407885,0.11,0.5737481502415971,-0.6175008537346475,0.04685899247535945,0.007820503762320274,0.17185899247535946
1589997940.724051,2.1167014228930237,-3.4965971542139527,8.816597154213953,0.11,0.5611111111111111,-0.6233333333333333,-0.021267786162797397,0.021267786162797397,0.0625
1589997940.734051,2.1073936209575965,-3.5047872419151926,8.796117072448753,0.11,0.5611111111111111,-0.6233333333333333,0.07878986901502258,-0.029920261969954856,0.04621013098497743
1589997940.744051,2.1,-3.499203721554,8.723009303885,0.11,0.5611111111111111,-0.6233333333333333,0.09623837014374921,0.09126162985625079,0.0
1589997940.754051,2.1022872731384634,-3.5077127268615365,8.754574546276926,0.11,0.5611111111111111,-0.6233333333333333,0.0625,0.125,0.02859091423079098
1589997940.764051,2.1082157799513768,-3.501784220048623,8.766431559902752,0.11,0.5611111111111111,-0.6233333333333333,0.0625,0.125,0.10269724939220896
1589997940.774051,2.091985355565283,-3.491985355565283,8.788087866608302,0.12444444444444445,0.5755555555555556,-0.6022222222222222,-0.05009152771698038,0.16268305543396078,0.07536611086792153
1589997940.784051,2.110652237639242,-3.5,8.724021643541137,0.12444444444444445,0.5755555555555556,-0.6022222222222222,-0.0665764852452609,0.12907648524526089,-0.0584235147547391
1589997940.794051,2.116516227567774,-3.503483772432226,8.72741886216113,0.12444444444444445,0.5755555555555556,-0.6022222222222222,-0.1685471554028255,0.12217926689576174,0.0
1589997940.804051,2.110110271095838,-3.5098897289041617,8.759448644520809,0.12444444444444445,0.5755555555555556,-0.6022222222222222,-0.24862161130202365,0.0020675830469644996,0.0
1589997940.814051,2.11,-3.496235639861074,8.813117819930538,0.12444444444444445,0.5755555555555556,-0.6067257398996646,-0.019486374565856265,-0.02352725086828747,-0.02352725086828747
1589997940.824051,2.1015116672303007,-3.5142441663848496,8.82,0.12444444444444445,0.5755555555555556,-0.6166666666666667,-0.03597396009469056,0.009447920189381127,0.0625
1589997940.834051,2.0925258722792845,-3.52,8.79221540492787,0.12444444444444445,0.5755555555555556,-0.6166666666666667,-0.03157340349105877,-0.0625,0.03092659650894123
1589997940.844051,2.1013517538702726,-3.5186482461297275,8.716758769351364,0.12444444444444445,0.5755555555555556,-0.6166666666666667,-0.09965461493239271,-0.04560307662159514,-0.07094846168920244
1589997940.8540509,2.11,-3.51,8.766365732586069,0.12444444444444445,0.5755555555555556,-0.6166666666666667,0.04260708566853483,0.0625,-0.10510708566853483
1589997940.8640509,2.11,-3.51,8.779798238590873,0.12444444444444445,0.5755555555555556,-0.6166666666666667,0.0006305044035228233,0.0625,-0.06313050440352283
1589997940.8740509,2.0981167029918764,-3.492705567663959,8.781061026352289,0.11,0.5611111111111111,-0.6088888888888889,-0.045590202100257576,-0.016909797899742424,-0.0625
1589997940.8840508,2.118154333429312,-3.5018456665706883,8.724463000287935,0.11,0.5611111111111111,-0.6088888888888889,0.0,-0.07403541606680103,-0.05096458393319896
1589997940.8940508,2.10536002117064,-3.51,8.727839872976158,0.11,0.5611111111111111,-0.6088888888888889,0.05799973536699786,-0.06700026463300214,-0.0869996030504968
1589997940.9040508,2.107358494096514,-3.506320752951743,8.778396235241285,0.11,0.5611111111111111,-0.6088888888888889,0.07900941189678723,-0.11497647025803193,-0.11851411784518084
1589997940.9140508,2.1147054245130046,-3.5017648584956653,8.811764858495666,0.11215704927247962,0.5624837788299618,-0.6077123165584455,-0.022060731195814327,-0.2683785376083713,0.0
1589997940.9240508,2.09,-3.5085420765854396,8.815626229756319,0.12222222222222222,0.5688888888888889,-0.6022222222222222,-0.13411202134100197,-0.05338797865899803,-0.018224042682003935
1589997940.9340508,2.094605726243698,-3.5092114524873965,8.748548463806715,0.12222222222222222,0.5688888888888889,-0.6022222222222222,-0.07235684390754304,0.02878578902311424,-0.09621421097688576
1589997940.9440508,2.1087034526391903,-3.506944821041215,8.713055178958784,0.12222222222222222,0.5688888888888889,-0.6022222222222222,0.03530171050253073,0.0625,-0.0625
1589997940.9540508,2.1101617834887954,-3.486720594496265,8.74967643302241,0.12222222222222222,0.5688888888888889,-0.6022222222222222,0.040992568796686925,0.04200371560165654,-0.0625
1589997940.9640508,2.095082954665539,-3.487624431998309,8.800165909331078,0.11600972207545175,0.5688888888888889,-0.6005279040003757,0.06146306668075663,0.0,-0.04661576667018916
1589997940.9740508,2.1057925124589767,-3.5057925124589766,8.834207487541024,0.09777777777777777,0.5688888888888889,-0.5955555555555555,-0.125,0.0,-0.02629679713139662
1589997940.9840508,2.103758022745186,-3.5,8.791145704312578,0.09777777777777777,0.5688888888888889,-0.5955555555555555,-0.07802471568517058,0.0,-0.03901235784258529
1589997940.9940507,2.11,-3.4953421139437353,8.72863154422506,0.09777777777777777,0.5688888888888889,-0.5955555555555555,0.029111787851656377,-0.08733536355496914,-0.029111787851656377
1589997941.0040507,2.112900142975393,-3.4929001429753934,8.761600571901573,0.09777777777777777,0.5688888888888889,-0.5955555555555555,-0.010003574384829558,-0.1875,-0.0625
1589997941.0140507,2.1192125818346,-3.4992125818346,8.7868503273384,0.09777777777777777,0.5688888888888889,-0.5955555555555555,-0.1678145458650011,-0.1875,-0.0625
1589997941.0240507,2.1177833832864827,-3.5,8.808916916432414,0.09777777777777777,0.5688888888888889,-0.6022222222222222,-0.2361461455405179,0.0277077089189642,-0.1388538544594821
1589997941.0340507,2.1099473600886567,-3.500105279822687,8.769578880709252,0.09777777777777777,0.5688888888888889,-0.6022222222222222,-0.186513001662313,0.125,-0.18684200110820867
1589997941.0440507,2.10382872110238,-3.5123425577952396,8.705314884409521,0.09777777777777777,0.5688888888888889,-0.6022222222222222,-0.023929506889875867,0.07714098622024826,-0.014640986220248266
1589997941.0540507,2.107129822933581,-3.5,8.752961416531354,0.09777777777777777,0.5688888888888889,-0.6022222222222222,-0.08043860666512023,-0.017938606665120236,0.0625
1589997941.0640507,2.102287949709427,-3.5,8.811143974854714,0.09917596926687218,0.5679991306685561,-0.6022222222222222,-0.11070031431607986,-0.0625,0.048200314316079865
1589997941.0740507,2.1189298779313797,-3.5010701220686204,8.81892987793138,0.11,0.5611111111111111,-0.6022222222222222,-0.006688262928876737,-0.0625,-0.05581173707112326
1589997941.0840507,2.106825990555659,-3.51,8.781433915000932,0.11,0.5611111111111111,-0.6022222222222222,-0.0625,-0.04266244097286868,-0.05951267708139397
1589997941.0940506,2.100613821447599,-3.51,8.722455285790396,0.11,0.5611111111111111,-0.6022222222222222,-0.0663363840474922,-0.003836384047492199,-0.1759908478575234
1589997941.1040506,2.1036208233339484,-3.51,8.769568764999077,0.11,0.5611111111111111,-0.6022222222222222,-0.10506507291858963,-0.08243492708141037,0.0
1589997941.1140506,2.091589364380113,-3.51,8.793178728760227,0.11105957625340886,0.5611111111111111,-0.6045179707712748,-0.0625,-0.125,0.009933527375707992
1589997941.1240506,2.1,-3.51,8.78493515968839,0.11666666666666667,0.5611111111111111,-0.6166666666666667,-0.0401206782932053,-0.1026206782932053,0.0177413565864106
1589997941.1340506,2.111161728896104,-3.5025588474025975,8.732558847402597,0.11666666666666667,0.5611111111111111,-0.6166666666666667,-0.04650720373376624,-0.10900720373376624,-0.0625
1589997941.1440506,2.13,-3.497274458764523,8.727274458764523,0.11666666666666667,0.5611111111111111,-0.6166666666666667,-0.10226731636086597,-0.14203463272173195,-0.13069805091740205
1589997941.1540506,2.124645497715797,-3.5082151659052654,8.748924170473671,0.11666666666666667,0.5611111111111111,-0.6166666666666667,-0.051344786907910556,-0.051344786907910556,-0.20537914763164222
1589997941.1640506,2.1057363548930033,-3.5019121182976676,8.780439408511661,0.11666666666666667,0.5611111111111111,-0.6166666666666667,-0.01195073936042318,-0.01195073936042318,-0.04780295744169272
1589997941.1740506,2.11,-3.4905851471954126,8.827074264022938,0.12222222222222222,0.5544444444444444,-0.6022222222222222,0.007314339942656382,0.05518566005734362,-0.12134283002867181
1589997941.1840506,2.11,-3.499054032225498,8.784729838872511,0.12222222222222222,0.5544444444444444,-0.6022222222222222,0.11317540281872147,-0.050675402818721474,-0.06841229859063927
1589997941.1940506,2.12,-3.4919863592178864,8.71,0.12222222222222222,0.5544444444444444,-0.6022222222222222,0.05008525488821251,-0.012414745111787483,-0.0625
1589997941.2040505,2.12,-3.498670183098816,8.71,0.12222222222222222,0.5544444444444444,-0.6022222222222222,0.008311355632400048,-0.05418864436759995,-0.0625
1589997941.2140505,2.100917389319945,-3.5096942035600183,8.780917389319944,0.12184847101780008,0.5550900147066281,-0.602018357928901,-0.0019112277498858968,-0.125,-0.058677544500228204
1589997941.2240505,2.1296323596531264,-3.500122546782291,8.809632359653127,0.11014977940057813,0.5752968456818297,-0.5956372534104163,-0.06173408261068005,-0.125,0.0609681652213601
1589997941.2340505,2.11,-3.497436615363474,8.80436615363474,0.11,0.5755555555555556,-0.5955555555555555,-0.0625,-0.03204230795657551,-0.04647884602171225
1589997941.2440505,2.11,-3.490231895011681,8.732318950116806,0.11,0.5755555555555556,-0.5955555555555555,-0.0625,-0.12210131235399203,-0.0014493438230039832
1589997941.2540505,2.117791080876795,-3.52,8.748835676492819,0.11,0.5755555555555556,-0.5955555555555555,-0.013805744520030234,-0.048694255479969764,0.0
1589997941.2640505,2.111450491307634,-3.52,8.774198034769462,0.11,0.5755555555555556,-0.5955555555555555,-0.05343442932728647,-0.009065570672713533,0.0
1589997941.2740505,2.1115739460574536,-3.5015739460574538,8.79,0.11,0.5755555555555556,-0.6088888888888889,-0.0625,-0.2008141857045669,0.01967432571817324
1589997941.2840505,2.1179009643258593,-3.5068514464887888,8.780554339466367,0.11,0.5755555555555556,-0.6088888888888889,-0.04282154055493108,0.049381027036620714,0.11844051351831036
1589997941.2940505,2.1,-3.482812003657891,8.714060018289453,0.11,0.5755555555555556,-0.6088888888888889,0.07227493141454494,-0.044924977138181645,0.009774931414544934
1589997941.3040504,2.098013589325963,-3.49,8.757945642696148,0.11,0.5755555555555556,-0.6088888888888889,-0.025254799861803463,0.03724520013819654,-0.10016986657453564
1589997941.3140504,2.091113140187223,-3.49,8.785547439251106,0.11,0.5755555555555556,-0.6088888888888889,0.10412862148956123,0.16662862148956123,-0.013914252340292504
1589997941.3240504,2.098986068338466,-3.5089860683384657,8.818986068338466,0.10444444444444444,0.5611111111111111,-0.6088888888888889,0.10598878134623846,0.10598878134623846,0.11866292711541282
1589997941.3340504,2.0965486879453166,-3.4978171040182278,8.785988144200505,0.10444444444444444,0.5611111111111111,-0.6088888888888889,-0.07614309988607619,-0.021570700341771415,0.03521380022784762
1589997941.3440504,2.1195213254593175,-3.490478674540683,8.702393372703412,0.10444444444444444,0.5611111111111111,-0.6088888888888889,-0.11602485236220472,0.12799171587926508,-0.05950828412073491
1589997941.3540504,2.11,-3.5,8.75701240910242,0.10444444444444444,0.5611111111111111,-0.6088888888888889,0.033281628739915345,0.1875,0.0
1589997941.3640504,2.11,-3.5,8.779773705726999,0.10444444444444444,0.5611111111111111,-0.6088888888888889,-0.06155710719583227,0.1875,0.0
1589997941.3740504,2.1,-3.506858332327742,8.817433329310969,0.11,0.5755555555555556,-0.6166666666666667,-0.09554686557258356,0.009817711475805478,0.0
1589997941.3840504,2.103272336348127,-3.4949085045221904,8.75,0.11,0.5755555555555556,-0.6166666666666667,0.05227394891210358,0.0625,0.020452102175792842
1589997941.3940504,2.1130746219822854,-3.509611932973428,8.75,0.11,0.5755555555555556,-0.6166666666666667,0.021641806305358856,0.0625,0.08171638738928229
1589997941.4040504,2.115691284564228,-3.517845642282114,8.756463073153657,0.11,0.5755555555555556,-0.6166666666666667,0.0,0.07596473573678685,0.11153526426321315
1589997941.4140503,2.1010105005250264,-3.510505250262513,8.77848424921246,0.11,0.5755555555555556,-0.6166666666666667,0.0,0.12184218585929296,0.06565781414070704
1589997941.4240503,2.1143741084582466,-3.5,8.820309379603863,0.09777777777777777,0.5811111111111111,-0.6377777777777778,-0.009757266796062015,0.09766182213595866,-0.04491908893202067
1589997941.4340503,2.1023222424794894,-3.5,8.756066545123062,0.09777777777777777,0.5811111111111111,-0.6377777777777778,0.11048598450319053,0.1875,0.0
1589997941.4440503,2.1109983646770236,-3.5,8.710998364677025,0.09777777777777777,0.5811111111111111,-0.6377777777777778,0.0500204415372036,0.1687806623058054,-0.006239779231398201
1589997941.4540503,2.1195721586263288,-3.5,8.71957215862633,0.09777777777777777,0.5811111111111111,-0.6377777777777778,-0.057151982829108744,0.00802202575633687,-0.05982599141455437
1589997941.4640503,2.12,-3.5,8.805107140314659,0.09777777777777777,0.5811111111111111,-0.6377777777777778,-0.0033978192259319917,0.0,-0.12160218077406801
1589997941.4740503,2.1113467036204527,-3.4913467036204526,8.827306592759095,0.10354664203080936,0.5705348599805532,-0.6195097076431778,-0.10816620474434237,0.21633240948868473,-0.07091689762782882
1589997941.4840503,2.1079407943775954,-3.5079407943775953,8.805289532531146,0.10444444444444444,0.5688888888888889,-0.6166666666666667,0.012870035140027686,0.09925992971994463,-0.0625
1589997941.4940503,2.1,-3.5,8.716026918597128,0.10444444444444444,0.5688888888888889,-0.6166666666666667,0.054966351753591304,0.007533648246408697,-0.054966351753591304
1589997941.5040503,2.1015043913495135,-3.5015043913495134,8.763008782699027,0.10444444444444444,0.5688888888888889,-0.6166666666666667,0.00940244593446029,0.03429266219661913,-0.01880489186892058
1589997941.5140502,2.109426385872131,-3.509426385872131,8.778852771744262,0.10444444444444444,0.5688888888888889,-0.6166666666666667,0.0589149117008216,-0.11424473510246483,-0.1178298234016432
1589997941.5240502,2.1015635933319614,-3.5,8.798436406668039,0.12444444444444445,0.5688888888888889,-0.6311111111111111,0.0,-0.0625,0.16795508335048365
1589997941.5340502,2.118014428701417,-3.5,8.773050500454959,0.12444444444444445,0.5688888888888889,-0.6311111111111111,0.006204910308072274,-0.0625,-0.037680358767710906
1589997941.5440502,2.1043841804237617,-3.5,8.725344631483168,0.12444444444444445,0.5688888888888889,-0.6311111111111111,0.048799436175744185,-0.0625,0.13269774470297674
1589997941.5540502,2.1099912209853566,-3.480017558029287,8.73997366295607,0.12444444444444445,0.5688888888888889,-0.6311111111111111,5.4868841521227285e-05,0.12483539347543632,0.06260973768304245
1589997941.5640502,2.1031161217217087,-3.500651634834874,8.795071026226331,0.12444444444444445,0.5688888888888889,-0.6311111111111111,0.043024239239321437,-0.047096956957285746,0.10552423923932144
1589997941.5740502,2.108682240870946,-3.51,8.802635518258109,0.10707996270255285,0.5746770494695195,-0.6060290819283788,-0.0460280108868224,-0.0164719891131776,0.0164719891131776
1589997941.5840502,2.1015160272673126,-3.4930320545346247,8.808483972732688,0.10444444444444444,0.5755555555555556,-0.6022222222222222,0.04354965915859603,-0.053024829579298015,0.10604965915859603
1589997941.5940502,2.091597661105373,-3.4947929833161187,8.717988305526864,0.10444444444444444,0.5755555555555556,-0.6022222222222222,0.009985381908580032,0.11501461809141997,0.0
1589997941.6040502,2.098940494739238,-3.5168214842177132,8.754702473696188,0.10444444444444444,0.5755555555555556,-0.6022222222222222,0.05587809212023599,0.06912190787976401,0.0
1589997941.6140501,2.0917259901332472,-3.52,8.784822029600257,0.10444444444444444,0.5755555555555556,-0.6022222222222222,-0.04092512333440915,0.0625,0.051712561667204573
1589997941.6240501,2.097949244434191,-3.512050755565809,8.813847733302573,0.11416018764178874,0.5640733135950577,-0.5969227259327616,0.03686555542738494,0.0625,-0.03686555542738494
1589997941.6340501,2.116769294191673,-3.4932307058083274,8.741923235479181,0.11666666666666667,0.5611111111111111,-0.5955555555555555,0.13509595565102303,0.01009595565102302,0.02211617739590792
1589997941.6440501,2.100823843771851,-3.508352312456298,8.703295375087404,0.11666666666666667,0.5611111111111111,-0.5955555555555555,0.17205292927779442,0.0625,-0.17720195285186296
1589997941.65405,2.109034905310063,-3.491930189379874,8.745790568139622,0.11666666666666667,0.5611111111111111,-0.5955555555555555,-0.012063683624210918,0.05043631637578908,-0.0625
1589997941.66405,2.101247493501671,-3.5075050129966576,8.792515038989974,0.11666666666666667,0.5611111111111111,-0.5955555555555555,-0.10940633122911252,-0.046906331229112516,-0.0625
1589997941.67405,2.11,-3.5078184442497036,8.827818444249704,0.09777777777777777,0.5611111111111111,-0.6022222222222222,0.11136527656064746,0.0,-0.05568263828032373
1589997941.68405,2.107716452561523,-3.4922835474384772,8.799724036526854,0.09777777777777777,0.5611111111111111,-0.6022222222222222,-0.01427217149048135,-0.007136085745240675,0.007136085745240675
1589997941.69405,2.0947330134654076,-3.505266986534592,8.741298560594336,0.09777777777777777,0.5611111111111111,-0.6022222222222222,-0.09541866584120105,-0.047709332920600526,0.047709332920600526
1589997941.70405,2.1001115731659477,-3.490223146331895,8.720781012161632,0.09777777777777777,0.5611111111111111,-0.6022222222222222,-0.06180266771282856,-0.12221067085131423,0.0
1589997941.71405,2.1066934484111415,-3.503386896822283,8.76685413887799,0.09777777777777777,0.5611111111111111,-0.6022222222222222,-0.020665947430364845,0.04233621027854062,0.0
1589997941.72405,2.11,-3.5017423642981482,8.823030542807405,0.10328286824567881,0.5611111111111111,-0.6077273126901233,0.0,0.22822044627314447,0.05161022313657224
1589997941.73405,2.11,-3.5097844445602875,8.83,0.10444444444444444,0.5611111111111111,-0.6088888888888889,0.12230555700359694,0.18884722149820155,0.0013472214982015313
1589997941.74405,2.108912104673172,-3.5,8.73543947663414,0.10444444444444444,0.5611111111111111,-0.6088888888888889,-0.06929934579267508,0.11140130841464983,-0.055700654207324916
1589997941.75405,2.101204403035816,-3.5,8.77397798482092,0.10444444444444444,0.5611111111111111,-0.6088888888888889,-0.11747248102614992,0.015055037947700162,-0.007527518973850081
1589997941.76405,2.1079561600719425,-3.4920438399280576,8.803868480215828,0.10444444444444444,0.5611111111111111,-0.6088888888888889,-0.07527399955035971,-0.04972600044964029,0.09945200089928058
1589997941.77405,2.11,-3.497390111126108,8.81,0.1134768024874652,0.5758913333633269,-0.6088888888888889,-0.01631180546182571,0.029876389076348583,0.0788118054618257
1589997941.78405,2.11,-3.5008896005323464,8.754662396805923,0.11666666666666667,0.5811111111111111,-0.6088888888888889,0.0625,0.011120006654328432,0.06806000332716422
1589997941.79405,2.11,-3.509611553577741,8.702330678533551,0.11666666666666667,0.5811111111111111,-0.6088888888888889,0.0625,0.12014441972176589,0.12257220986088294
1589997941.80405,2.110674638518827,-3.510674638518827,8.734722469631793,0.11666666666666667,0.5811111111111111,-0.6088888888888889,0.058283509257329114,0.0,0.0625
1589997941.81405,2.1186230552028653,-3.5186230552028652,8.790361386420058,0.11666666666666667,0.5811111111111111,-0.6088888888888889,0.00860590498209176,0.0,0.0625
1589997941.82405,2.11,-3.501066083461402,8.793198250384206,0.10444444444444444,0.5611111111111111,-0.6022222222222222,0.006663021633762856,0.125,0.05583697836623715
1589997941.83405,2.11,-3.5090797600336483,8.812638080269188,0.10444444444444444,0.5611111111111111,-0.6022222222222222,0.07400299957939477,0.10774550063090785,0.005751499789697386
1589997941.84405,2.1103563123402456,-3.5,8.740534468510369,0.10444444444444444,0.5611111111111111,-0.6022222222222222,0.18415957181019738,-0.06138652393673246,0.059159571810197376
1589997941.85405,2.1264780043433973,-3.5,8.764717006515095,0.10444444444444444,0.5611111111111111,-0.6022222222222222,0.03301870928064882,-0.011006236426882941,-0.09198129071935118
1589997941.86405,2.1191278751596156,-3.5,8.786308187260577,0.10444444444444444,0.5611111111111111,-0.6022222222222222,-0.10192617037860069,-0.06795078025240046,-0.125
1589997941.87405,2.104335650602883,-3.5,8.805664349397118,0.11577314323867877,0.5724398099053455,-0.5984459892908107,-0.08129344880405326,-0.0541956325360355,-0.0541956325360355
1589997941.88405,2.128347587542359,-3.51,8.746695175084719,0.12444444444444445,0.5811111111111111,-0.5955555555555555,0.17717242213974504,-0.005163788930127481,-0.0625
1589997941.89405,2.11,-3.5096392765378606,8.711442893848558,0.12444444444444445,0.5811111111111111,-0.5955555555555555,0.06475452163836969,-0.053481913446521236,-0.06024547836163031
1589997941.9040499,2.11,-3.502595596755504,8.739617612977984,0.12444444444444445,0.5811111111111111,-0.5955555555555555,0.10877752027809964,0.1226100811123986,-0.01622247972190035
1589997941.9140499,2.117222282816164,-3.5,8.764444565632328,0.12444444444444445,0.5811111111111111,-0.5955555555555555,-0.010417802803075749,0.14236073239897476,0.04513926760102525
1589997941.9240499,2.1061369886934127,-3.5069315056532937,8.811589033919763,0.11443226961190903,0.5811111111111111,-0.614809737925816,0.02414382066617192,0.08167808966691403,-0.02414382066617192
1589997941.9340498,2.1003069469677307,-3.5196930530322694,8.788772212129077,0.11,0.5811111111111111,-0.6233333333333333,0.12404079072584133,-0.0019184185483173285,-0.0009592092741586642
1589997941.9440498,2.1148213513279694,-3.5051786486720307,8.730714594688122,0.11,0.5811111111111111,-0.6233333333333333,0.07868327710009516,-0.09263344579980967,-0.046316722899904836
1589997941.9540498,2.0903122559081577,-3.5,8.721873535448948,0.11,0.5811111111111111,-0.6233333333333333,-0.0019515994259868123,0.06445159942598681,-0.05274200287006594
1589997941.9640498,2.0979311910773646,-3.5,8.767587146464187,0.11,0.5811111111111111,-0.6233333333333333,-0.049569944233528916,0.11206994423352892,0.18534972116764456
1589997941.9740498,2.109341445517916,-3.509341445517916,8.798682891035833,0.09858267770032475,0.5624282200752789,-0.617105702988056,-0.12088403448697566,0.125,0.01646386205209735
1589997941.9840498,2.118331553489541,-3.4933368930209188,8.816663106979082,0.09777777777777777,0.5611111111111111,-0.6166666666666667,0.03121662792888999,-0.03121662792888999,-0.052072209309629996
1589997941.9940498,2.0995470688621376,-3.5095470688621373,8.692264655689312,0.09777777777777777,0.5611111111111111,-0.6166666666666667,0.0,-0.2386767215534339,0.05683836077671694
1589997942.0040498,2.090145279095804,-3.499854720904196,8.740435837287412,0.09777777777777777,0.5611111111111111,-0.6166666666666667,-0.0004539971743882284,0.001361991523164685,-0.06204600282561177
1589997942.0140498,2.101325904995468,-3.488674095004532,8.773977714986406,0.09777777777777777,0.5611111111111111,-0.6166666666666667,-0.03539345311083862,0.10618035933251586,-0.02710654688916138
1589997942.0240498,2.106070129978685,-3.4917896100639445,8.803929870021316,0.1052008655958169,0.5667875900307882,-0.6053137088273127,-0.0625,0.1629383123667823,0.0
1589997942.0340497,2.109155841987511,-3.4916883160249776,8.764220790062444,0.11666666666666667,0.5755555555555556,-0.5877777777777777,-0.11972401242194544,0.010551975156109117,-0.05722401242194544
1589997942.0440497,2.102353728563669,-3.5052925428726622,8.721768642818345,0.11666666666666667,0.5755555555555556,-0.5877777777777777,-0.07721080352293008,-0.09557839295413982,0.03307839295413982
1589997942.0540497,2.11678963672205,-3.4848155449169247,8.71,0.11666666666666667,0.5755555555555556,-0.5877777777777777,-0.11496761475640666,0.03240284426921994,0.010032385243593352
1589997942.0640497,2.112770197486535,-3.501689407540395,8.78229802513465,0.11666666666666667,0.5755555555555556,-0.5877777777777777,-0.07981373429084382,-0.027872531418312377,0.0
1589997942.0740497,2.1039490143639736,-3.5039490143639735,8.816050985636027,0.12137298882802054,0.5668152429701842,-0.5924840999391316,0.05095598067549498,-0.024681339774835005,0.0
1589997942.0840497,2.1089808094242826,-3.5179616188485654,8.82,0.12444444444444445,0.5611111111111111,-0.5955555555555555,0.06886994109823294,0.16839017670530115,0.0
1589997942.0940497,2.090654364482988,-3.52,8.732944640173447,0.12444444444444445,0.5611111111111111,-0.5955555555555555,-0.05841022198132499,-0.054320443962649984,0.0
1589997942.1040497,2.09,-3.4944125244125246,8.73,0.12444444444444445,0.5611111111111111,-0.5955555555555555,-0.11580724080724081,-0.009192759192759192,0.05330724080724081
1589997942.1140497,2.0960498337719904,-3.4960498337719907,8.772348836403935,0.12444444444444445,0.5611111111111111,-0.5955555555555555,-0.04937707785011773,0.0,0.024688538925058866
1589997942.1240497,2.115426175308443,-3.5,8.807713087654221,0.12273042496572857,0.5516840039781737,-0.616980799039504,0.048206797838883965,0.048206797838883965,-0.09641359567776793
1589997942.1340497,2.12,-3.5085165183498086,8.75038437155134,0.12222222222222222,0.5488888888888889,-0.6233333333333333,0.16895647937260794,0.11572823968630397,-0.01854352062739205
1589997942.1440496,2.1105222411407896,-3.4910444822815796,8.72104448228158,0.12222222222222222,0.5488888888888889,-0.6233333333333333,0.009792021389805255,0.125,-0.17770797861019474
1589997942.1540496,2.11,-3.5040777126357856,8.734077712635786,0.12222222222222222,0.5488888888888889,-0.6233333333333333,0.08798570397366151,0.08100714801316924,-0.09951429602633849
1589997942.1640496,2.1036094012311137,-3.5163905987688864,8.765562395075545,0.12222222222222222,0.5488888888888889,-0.6233333333333333,0.005176273083379979,0.022558757694459988,-0.10244124230554001
1589997942.1740496,2.117429869368615,-3.514190043543795,8.809049782281024,0.10802010644038779,0.5643821061054356,-0.6194600290291967,-0.0625,0.0,-0.016063316446156425
1589997942.1840496,2.1056319454734034,-3.501877315157801,8.813754630315604,0.09777777777777777,0.5755555555555556,-0.6166666666666667,0.03903356052748555,0.050766780263742775,0.011733219736257225
1589997942.1940496,2.107092164480517,-3.5,8.71780186175328,0.09777777777777777,0.5755555555555556,-0.6166666666666667,0.10682602800323115,-0.026152056006462296,0.04432602800323115
1589997942.2040496,2.095649859569346,-3.507175070215327,8.715875351076635,0.09777777777777777,0.5755555555555556,-0.6166666666666667,0.03531162230841246,0.027188377691587537,0.01765581115420623
1589997942.2140496,2.0964020073848917,-3.5035979926151084,8.774814051694241,0.09777777777777777,0.5755555555555556,-0.6166666666666667,0.08002509231114466,0.0625,0.0
1589997942.2240496,2.1097483305592877,-3.504874165279644,8.809748330559287,0.10102722129754034,0.572306112035793,-0.6128756492269437,0.03360940100667777,0.0625,0.0
1589997942.2340496,2.1269113614310426,-3.5030886385689572,8.82,0.10444444444444444,0.5688888888888889,-0.6088888888888889,-0.019303991055984474,-0.023892017888031053,0.043196008944015526
1589997942.2440495,2.1071056372954207,-3.5,8.762764093238552,0.10444444444444444,0.5688888888888889,-0.6088888888888889,-0.07154488345181022,-0.0982724417259051,-0.009044883451810218
1589997942.2540495,2.095676601454905,-3.5,8.74270640581962,0.10444444444444444,0.5688888888888889,-0.6088888888888889,-0.125,-0.0540424818136874,0.008457518186312601
1589997942.2640495,2.1062070262701416,-3.4937929737298585,8.778621078810424,0.10444444444444444,0.5688888888888889,-0.6088888888888889,-0.008618257434847107,0.0,-0.09267565675353717
1589997942.2740495,2.0946366424535916,-3.5053633575464085,8.805363357546408,0.0993233252623083,0.5740100080710251,-0.5986466505246166,0.01448950766747377,0.14403147699757868,-0.04346852300242132
1589997942.2840495,2.1025544440030335,-3.503722777998483,8.784891111993932,0.09777777777777777,0.5755555555555556,-0.5955555555555555,0.0,0.0698020874715591,0.0
1589997942.2940495,2.1024495503788145,-3.5151008992423707,8.717146852651702,0.09777777777777777,0.5755555555555556,-0.5955555555555555,0.0,0.04719031013240813,0.09438062026481626
1589997942.3040495,2.106152657004831,-3.5261526570048307,8.718457971014493,0.09777777777777777,0.5755555555555556,-0.5955555555555555,0.03845410628019324,0.21631642512077295,0.04809178743961352
1589997942.3140495,2.1059734806629833,-3.51792044198895,8.762212154696133,0.09777777777777777,0.5755555555555556,-0.5955555555555555,0.0625,0.2873342541436464,0.0
1589997942.3240495,2.1,-3.495353527665728,8.814646472334273,0.10087542600062578,0.5688439844060516,-0.6017508520012516,0.0625,0.2209595479107999,0.0
1589997942.3340495,2.1152081401058433,-3.474791859894157,8.804791859894157,0.10444444444444444,0.5611111111111111,-0.6088888888888889,-0.03255087566152,0.1875,-0.04752543783076
1589997942.3440495,2.1118870648105106,-3.4943388055684683,8.726983583294595,0.10444444444444444,0.5611111111111111,-0.6088888888888889,0.08961753480292614,-0.015323379737234855,0.08961753480292614
1589997942.3540494,2.101791563751469,-3.491791563751469,8.734625308745594,0.10444444444444444,0.5611111111111111,-0.6088888888888889,0.07369727344667994,-0.0625,0.022394546893359873
1589997942.3640494,2.0935211532317175,-3.49,8.77239423384141,0.10444444444444444,0.5611111111111111,-0.6088888888888889,0.0220072076982352,0.0184855846035296,0.0
1589997942.3740494,2.094331628653552,-3.4986632573071037,8.794331628653552,0.10444444444444444,0.5582233586754098,-0.612257933397207,-0.027072679084698945,0.17079071633879578,-0.05414535816939789
1589997942.3840494,2.103989451549519,-3.513989451549519,8.784042193801923,0.10444444444444444,0.5544444444444444,-0.6166666666666667,-0.0625,0.21276371126202215,-0.0501977834465166
1589997942.3940494,2.1025103144769415,-3.5050206289538828,8.692592830292472,0.10444444444444444,0.5544444444444444,-0.6166666666666667,0.031121069038232335,0.0625,0.015689465480883832
1589997942.4040494,2.1080150658238677,-3.4839698683522644,8.74213559241481,0.10444444444444444,0.5544444444444444,-0.6166666666666667,0.01240583860082696,-0.03768832279834608,0.15028248419751913
1589997942.4140494,2.11,-3.48,8.784639196053622,0.10444444444444444,0.5544444444444444,-0.6166666666666667,-0.03849874383378262,-0.02400125616621738,0.11050251233243476
1589997942.4240494,2.11,-3.5019870184254605,8.81465801228364,0.10444444444444444,0.5650307866492958,-0.6011943203672684,-0.0625,-0.04580628838637633,0.0625
1589997942.4340494,2.10431934527261,-3.51,8.82,0.10444444444444444,0.5688888888888889,-0.5955555555555555,0.0440122761385663,0.008508184092377524,0.0625
1589997942.4440494,2.0943096339320926,-3.5043096339320927,8.757405973253022,0.10444444444444444,0.5688888888888889,-0.5955555555555555,0.05387042415115986,0.09806478792442007,0.09806478792442007
1589997942.4540493,2.1005922123893805,-3.4894077876106193,8.71,0.10444444444444444,0.5688888888888889,-0.5955555555555555,0.03310066371681416,0.09189933628318583,0.09189933628318583
1589997942.4640493,2.11,-3.4841744091279545,8.74756968215159,0.10444444444444444,0.5688888888888889,-0.5955555555555555,0.08859005704971475,0.08859005704971475,0.036409942950285254
1589997942.4740493,2.11,-3.498930664168863,8.813395996253295,0.10990207254763858,0.5743465169920831,-0.6015093316681309,0.0691833489446054,0.0691833489446054,-0.027908325527697304
1589997942.4840493,2.0980626646933542,-3.515968667653323,8.818062664693354,0.11666666666666667,0.5811111111111111,-0.6088888888888889,0.0,-0.03730417283326715,-0.025195827166732847
1589997942.4940493,2.111702592792835,-3.498297407207165,8.72318962882866,0.11666666666666667,0.5811111111111111,-0.6088888888888889,0.0,0.027927469970146446,0.09042746997014645
1589997942.5040493,2.105785345863068,-3.504214654136932,8.739751289479262,0.11666666666666667,0.5811111111111111,-0.6088888888888889,0.04442079417791281,0.0625,0.125
1589997942.5140493,2.105513094552146,-3.504486905447854,8.776539283656437,0.11666666666666667,0.5811111111111111,-0.6088888888888889,-0.04087052285273508,0.0625,0.056086318098176616
1589997942.5240493,2.11,-3.5065522063965258,8.80310441279305,0.11666666666666667,0.5731028588486908,-0.6045207512912051,-0.04309742004342866,0.02154871002171433,0.0
1589997942.5340493,2.1180206332791647,-3.51,8.785938100162506,0.11666666666666667,0.5688888888888889,-0.6022222222222222,0.10025791598956026,-0.05012895799478013,-0.05012895799478013
1589997942.5440493,2.118420521606701,-3.506841043213402,8.767364172853608,0.11666666666666667,0.5688888888888889,-0.6022222222222222,0.125,-0.032884780125642485,-0.0625
1589997942.5540493,2.110435941366838,-3.490871882733676,8.703487530934703,0.11666666666666667,0.5688888888888889,-0.6022222222222222,0.125,0.11682609937178756,-0.0625
1589997942.5640492,2.1075228614219013,-3.5,8.75229424720289,0.11666666666666667,0.5688888888888889,-0.6022222222222222,0.04701788388688221,-0.04701788388688221,0.030964232226235577
1589997942.5740492,2.1001326755351952,-3.5,8.818805920183244,0.11666666666666667,0.5688888888888889,-0.6022222222222222,0.0008292220949696061,-0.0008292220949696061,0.12334155581006079
1589997942.5840492,2.09,-3.516563471216891,8.816253884867564,0.11,0.5611111111111111,-0.6166666666666667,-0.04102169510556815,0.12306508531670443,0.06056508531670443
1589997942.5940492,2.097160685820924,-3.513580342910462,8.761357256716302,0.11,0.5611111111111111,-0.6166666666666667,0.06713142957116754,0.022377143190389175,-0.0625
1589997942.6040492,2.105279541151576,-3.5105590823031516,8.74304321193897,0.11,0.5611111111111111,-0.6166666666666667,0.12849426439469874,0.03299713219734937,-0.03299713219734937
1589997942.6140492,2.096369210908504,-3.503630789091496,8.790892367274488,0.11,0.5611111111111111,-0.6166666666666667,0.08519243182184928,-0.045384863643698564,-0.045384863643698564
1589997942.6240492,2.0936118912931683,-3.506388108706832,8.81,0.11240792752877883,0.5663282874234653,-0.6062323140419584,0.03470271767079394,-0.07985135883539697,-0.05727703825309545
1589997942.6340492,2.1,-3.496430844372086,8.795723377488345,0.11666666666666667,0.5755555555555556,-0.5877777777777777,-0.08038555465107675,-0.04461444534892326,0.01788555465107674
1589997942.6440492,2.1059069812182862,-3.5018139624365725,8.722744150253709,0.11666666666666667,0.5755555555555556,-0.5877777777777777,0.036918632614289494,-0.05116273477142101,-0.0625
1589997942.6540492,2.10304021223122,-3.4821608489248814,8.738718514381457,0.11666666666666667,0.5755555555555556,-0.5877777777777777,0.01900132644512706,0.0,-0.10599867355487294
1589997942.6640491,2.1,-3.480200354726401,8.7753005320896,0.11666666666666667,0.5755555555555556,-0.5877777777777777,0.0,0.06375221704000525,-0.1568761085200026
1589997942.6740491,2.0953124516029114,-3.49,8.799375096794178,0.11927086022060468,0.5687846523153167,-0.6013195842582555,0.08789153244540808,0.1542971774818027,-0.09960846755459192
1589997942.6840491,2.096086919012186,-3.508260757036558,8.77956540493907,0.12222222222222222,0.5611111111111111,-0.6166666666666667,0.07337026852151407,0.1875,0.07608648765232395
1589997942.6940491,2.10671122014494,-3.52,8.726443899275301,0.12222222222222222,0.5611111111111111,-0.6166666666666667,-0.16778050362349492,0.06166462228237882,0.04110974818825254
1589997942.704049,2.0959179165213344,-3.5059179165213346,8.724082083478665,0.12222222222222222,0.5611111111111111,-0.6166666666666667,-0.07397395651668409,-0.13201953261248692,0.04400651087082898
1589997942.714049,2.097553969854443,-3.5037769849272213,8.75643889449055,0.12222222222222222,0.5611111111111111,-0.6166666666666667,0.023606155795134313,-0.06946922102432845,0.0625
1589997942.724049,2.10839783862044,-3.50919891931022,8.794392435171542,0.12222222222222222,0.5611111111111111,-0.6166666666666667,0.0574932456888751,0.09996622844437547,0.0625
1589997942.734049,2.1,-3.5033541960507755,8.816708392101551,0.11,0.5688888888888889,-0.6088888888888889,-0.02057254936530325,0.06289117595204513,0.0
1589997942.744049,2.095568345983627,-3.5055683459836273,8.767956843770781,0.11,0.5688888888888889,-0.6088888888888889,0.0901978376023298,0.04901081198835103,-0.05539567520465959
1589997942.754049,2.100007177666125,-3.503335725888708,8.71001435533225,0.11,0.5688888888888889,-0.6088888888888889,0.125,-0.06245513958671754,-0.10415171319557251
1589997942.764049,2.1180724599936336,-3.5080724599936337,8.7557826200191,0.11,0.5688888888888889,-0.6088888888888889,0.161141375119368,0.07454712503978933,-0.05045287496021067
1589997942.774049,2.1128321135506765,-3.5028321135506766,8.785664227101353,0.10433577289864715,0.5688888888888889,-0.6151824745570588,0.22399645154136172,0.125,0.0
1589997942.784049,2.1175017590493317,-3.5075017590493314,8.792505277147995,0.09,0.5688888888888889,-0.6311111111111111,0.0,0.125,-0.015614005941677741
1589997942.794049,2.1155550943672634,-3.5111101887345266,8.725559245061893,0.09,0.5688888888888889,-0.6311111111111111,-0.03471933979539517,-0.013877359181580673,-0.0625
1589997942.804049,2.1137871649916247,-3.5137871649916246,8.721064175041876,0.09,0.5688888888888889,-0.6311111111111111,-0.1401604376046901,-0.047339562395309884,-0.0625
1589997942.814049,2.11,-3.4971972474213993,8.765605505157202,0.09,0.5688888888888889,-0.6311111111111111,-0.13415519758916367,-0.053344802410836334,-0.009155197589163666
1589997942.824049,2.1136862314865605,-3.4818431157432803,8.80368623148656,0.0936862314865606,0.5711415859084538,-0.627015298348266,-0.07401947339550193,-0.09044157981349424,0.05098052660449808
1589997942.834049,2.118543704423918,-3.4976375303840546,8.82,0.11,0.5811111111111111,-0.6088888888888889,-0.07726543509965969,0.014765435099659698,0.02386728245017015
1589997942.844049,2.10404170646291,-3.51,8.779582935370902,0.11,0.5811111111111111,-0.6088888888888889,-0.05052133078637377,-0.03723933460681311,0.0625
1589997942.854049,2.1043588295580515,-3.51,8.736923511325847,0.11,0.5811111111111111,-0.6088888888888889,-0.05448536947564368,0.03525731526217816,0.0625
1589997942.864049,2.0957071950202404,-3.501414390040481,8.771464024898798,0.11,0.5811111111111111,-0.6088888888888889,0.026830031123497224,0.08933003112349722,0.0625
1589997942.874049,2.092887950754897,-3.4986638522646927,8.808663852264694,0.10647028241068086,0.5734099090980512,-0.6069635883856239,0.0625,0.14304969221810923,0.02640061556378156
1589997942.884049,2.10092861511158,-3.5172141546652598,8.819785233772619,0.09777777777777777,0.5544444444444444,-0.6022222222222222,0.0625,0.16428462221049728,-0.05089231110524864
1589997942.894049,2.1059581739474535,-3.502125478157639,8.76446008657801,0.09777777777777777,0.5544444444444444,-0.6022222222222222,0.0625,0.03854565131365942,0.011977174343170291
1589997942.904049,2.106992698064987,-3.493007301935013,8.735036509675064,0.09777777777777777,0.5544444444444444,-0.6022222222222222,0.043704362906170136,-0.08129563709382986,0.0625
1589997942.914049,2.1,-3.4955288301190874,8.778942339761825,0.09777777777777777,0.5544444444444444,-0.6022222222222222,-0.05588962351140845,-0.18088962351140844,0.0625
1589997942.924049,2.10401751569114,-3.49,8.80607006276456,0.10536641852770884,0.5629258664590733,-0.6107036442368511,-0.125,-0.049124215443001024,-0.01282841920887462
1589997942.934049,2.11,-3.4990889830508474,8.807277542372882,0.11666666666666667,0.5755555555555556,-0.6233333333333333,-0.0965969279661017,0.07958156779661016,-0.0681938559322034
1589997942.944049,2.11,-3.51,8.746742657629904,0.11666666666666667,0.5755555555555556,-0.6233333333333333,-0.08848229872663792,-0.125,-0.05196459745327583
1589997942.9540489,2.0995486366484157,-3.5047743183242077,8.715677045027375,0.11666666666666667,0.5755555555555556,-0.6233333333333333,-0.09233948952630001,-0.05967897905260003,-0.027018468578900057
1589997942.9640489,2.0943044267757345,-3.5043044267757346,8.768739840981613,0.11666666666666667,0.5755555555555556,-0.6233333333333333,-0.0625,0.026902667348341944,-0.045110669393367775
1589997942.9740489,2.1,-3.5134422891437143,8.813115421712572,0.12087390895342884,0.5732606961264126,-0.6160662784743804,0.002042921444646878,0.0625,-0.12295707855535312
1589997942.9840488,2.1040211405677267,-3.5159788594322734,8.808042281135453,0.1288888888888889,0.5688888888888889,-0.6022222222222222,0.024471485806836585,0.08763212854829086,0.025132128548290854
1589997942.9940488,2.11,-3.51,8.795898460783283,0.1288888888888889,0.5688888888888889,-0.6022222222222222,-0.10993653798955155,0.06474615195820624,0.04743653798955156
1589997943.0040488,2.105855506320067,-3.514144493679933,8.740722468399666,0.1288888888888889,0.5688888888888889,-0.6022222222222222,-0.0625,-0.125,0.025903085499581386
1589997943.0140488,2.105933810375671,-3.52,8.77,0.1288888888888889,0.5688888888888889,-0.6022222222222222,-0.025413685152057247,-0.10645684257602862,0.025413685152057247
1589997943.0240488,2.1155846888743923,-3.511169377748785,8.778830622251215,0.1288888888888889,0.5703606592640914,-0.6036939925974247,0.021106458197428506,-0.03490430546495234,-0.03490430546495234
1589997943.0340488,2.1,-3.4858339930335656,8.804166006966435,0.1288888888888889,0.5755555555555556,-0.6088888888888889,-0.11284584784673844,0.08680830430652312,0.07465415215326156
1589997943.0440488,2.1,-3.51,8.744726364675955,0.1288888888888889,0.5755555555555556,-0.6088888888888889,-0.03100568274638848,0.061522730985553914,0.09350568274638849
1589997943.0540488,2.1,-3.4997176657719455,8.725423501342082,0.1288888888888889,0.5755555555555556,-0.6088888888888889,0.0,-0.030367705537329752,0.09463229446267024
