time,acc_x,acc_y,acc_z,mag_x,mag_y,mag_z,gyr_x,gyr_y,gyr_z
1589997986.3505151,2.12,-3.49,8.72,0.10444444444444444,0.5755555555555556,-0.6088888888888889,-0.0625,-0.125,-0.0625
1589997986.360515,2.1167078507602435,-3.49,8.77987644771927,0.10444444444444444,0.5755555555555556,-0.6088888888888889,0.021348134503043008,-0.021348134503043008,0.0625
1589997986.370515,2.1067090183442567,-3.4998729449672297,8.806581963311487,0.10627276758652394,0.5686079276156535,-0.6088888888888889,-0.08306863534839443,0.04193136465160558,0.0625
1589997986.380515,2.095259312780989,-3.52,8.791555876685935,0.11,0.5544444444444444,-0.6088888888888889,-0.125,0.05925859023763648,0.03287070488118176
1589997986.390515,2.0960777726289774,-3.5017666821130677,8.717455591597158,0.11,0.5544444444444444,-0.6088888888888889,-0.011041763206672842,0.125,0.0
1589997986.400515,2.1,-3.49,8.717815114284715,0.11,0.5544444444444444,-0.6088888888888889,0.09726889285589274,0.055462214288214504,-0.0695377857117855
1589997986.410515,2.1097205296461214,-3.49,8.764301324115303,0.11,0.5544444444444444,-0.6088888888888889,0.06424668971174127,0.0,-0.125
1589997986.420515,2.1147458868119564,-3.5005082263760876,8.800508226376087,0.1135027421253625,0.5684554129458944,-0.616478163493841,0.0,0.0328382074252735,-0.09216179257472651
1589997986.430515,2.1025535894654146,-3.51,8.81,0.11666666666666667,0.5811111111111111,-0.6233333333333333,-0.046540065841158204,0.0625,-0.1090400658411582
1589997986.440515,2.1,-3.49756502186576,8.76647757653016,0.11666666666666667,0.5811111111111111,-0.6233333333333333,-0.02364069333050052,0.02364069333050052,-0.008422079991501574
1589997986.450515,2.10831340389432,-3.49831340389432,8.77325361557728,0.11666666666666667,0.5811111111111111,-0.6233333333333333,0.05195877433950069,-0.05195877433950069,-0.09337632301850204
1589997986.460515,2.11,-3.5,8.78566534163354,0.11666666666666667,0.5811111111111111,-0.6233333333333333,0.027091614790369756,0.008316770419260489,-0.08959161479036976
1589997986.470515,2.1191870004577305,-3.5045935002288653,8.794593500228865,0.11105238860916478,0.5754968330536092,-0.6166982774471947,0.028709376430407378,0.11991875286081476,-0.0625
1589997986.480515,2.106106580395857,-3.5159733549010355,8.811946709802072,0.10444444444444444,0.5688888888888889,-0.6088888888888889,-0.012166936262946237,0.07549959560558064,0.012166936262946237
1589997986.490515,2.11457456604031,-3.5118084779865635,8.713510213825325,0.10444444444444444,0.5688888888888889,-0.6088888888888889,0.09109103775193533,-0.1023940251679569,0.1648940251679569
1589997986.500515,2.128795218320171,-3.5187952183201707,8.751566528241197,0.10444444444444444,0.5688888888888889,-0.6088888888888889,0.015059770997863611,-0.015059770997863611,0.1325298854989318
1589997986.510515,2.1103658406891417,-3.493821120918856,8.786178879081145,0.10444444444444444,0.5688888888888889,-0.6088888888888889,-0.040904498564287996,0.0,0.04319100287142401
1589997986.520515,2.109399572917975,-3.48,8.809399572917975,0.11279962037153345,0.5720220798615473,-0.6088888888888889,-0.03312633463132772,0.0,0.029373665368672277
1589997986.530515,2.1137512684631865,-3.4862487315368136,8.801253805389559,0.12222222222222222,0.5755555555555556,-0.6088888888888889,0.0,-0.03905457210508513,-0.015609144210170262
1589997986.540515,2.0951494947148332,-3.49,8.723172726216749,0.12222222222222222,0.5755555555555556,-0.6088888888888889,0.046407829016145895,-0.1553156580322918,-0.016092170983854105
1589997986.550515,2.123854423783665,-3.498463605945916,8.725390817837749,0.12222222222222222,0.5755555555555556,-0.6088888888888889,0.1682950743239537,0.07698768580988424,0.05289753716197685
1589997986.560515,2.1233925454545455,-3.5066074545454544,8.776252181818183,0.12222222222222222,0.5755555555555556,-0.6088888888888889,0.1462034090909091,0.0011102272727272766,0.0625
1589997986.570515,2.112703456488358,-3.502703456488358,8.807296543511642,0.09871113757359878,0.5650161038165175,-0.6088888888888889,-0.011810190843282886,-0.1993101908432829,0.10810339694776097
1589997986.580515,2.1174281509888297,-3.5074281509888294,8.79514369802234,0.09,0.5611111111111111,-0.6088888888888889,-0.0625,-0.0178702815990725,0.125
1589997986.590515,2.1144960903562118,-3.515503909643788,8.751472632493483,0.09,0.5611111111111111,-0.6088888888888889,-0.02810056472632494,-0.07509774109470024,0.05620112945264988
1589997986.600515,2.1032734209077324,-3.513273420907732,8.74690631636907,0.09,0.5611111111111111,-0.6088888888888889,-0.04204111932667348,-0.019335522693306073,-0.04204111932667348
1589997986.6105149,2.106300009369437,-3.4973999812611263,8.791500046847185,0.09,0.5611111111111111,-0.6088888888888889,-0.02312494144101939,-0.05562517567694182,0.05562517567694182
1589997986.6205149,2.116721371040998,-3.503442742081996,8.803278628959003,0.09522773303188732,0.5663388441429984,-0.5999270608342249,0.0,-0.0829914309937625,0.0829914309937625
1589997986.6305149,2.111994905966194,-3.5180050940338057,8.783989811932388,0.09777777777777777,0.5688888888888889,-0.5955555555555555,0.0,0.08759551313385988,-0.08759551313385988
1589997986.6405149,2.11,-3.512967830844543,8.709678308445431,0.09777777777777777,0.5688888888888889,-0.5955555555555555,0.043951057221605166,-0.0068531716648154994,-0.125
1589997986.6505148,2.117175381405659,-3.495649237188682,8.708701525622637,0.09777777777777777,0.5688888888888889,-0.5955555555555555,0.0625,-0.0625,0.009538401356109005
1589997986.6605148,2.1082984805175267,-3.50755227922371,8.75510455844742,0.09777777777777777,0.5688888888888889,-0.5955555555555555,0.0625,-0.0625,0.09906724838272904
1589997986.6705148,2.1045357884409155,-3.52,8.793607365322746,0.10332151920556329,0.5719127478494992,-0.6016032734767761,0.03415132224427864,-0.09084867775572136,0.011605288977114561
1589997986.6805148,2.11,-3.513151023825835,8.803151023825835,0.11,0.5755555555555556,-0.6088888888888889,0.04280610108852858,-0.125,-0.03938779782294284
1589997986.6905148,2.1019994296171305,-3.5019994296171304,8.735995436937044,0.11,0.5755555555555556,-0.6088888888888889,0.01249643510706562,0.025010694678803153,0.0
1589997986.7005148,2.1,-3.516208246724996,8.76052061681249,0.11,0.5755555555555556,-0.6088888888888889,0.050650771015613674,-0.1401030840624547,-0.050650771015613674
1589997986.7105148,2.106042600698198,-3.52,8.806255604189186,0.11,0.5755555555555556,-0.6088888888888889,0.02473374563626375,-0.036434982545055006,0.013032508727472497
1589997986.7205148,2.11,-3.5075256026970294,8.81752560269703,0.11415813243432352,0.5755555555555556,-0.6088888888888889,0.03898249157178297,0.0625,-0.015464983143565939
1589997986.7305148,2.1172634295776347,-3.5072634295776344,8.831790288732904,0.11666666666666667,0.5755555555555556,-0.6088888888888889,0.017103565139783387,-0.028292869720433225,-0.017103565139783387
1589997986.7405148,2.101757949125596,-3.5160806836248013,8.760951112877583,0.11666666666666667,0.5755555555555556,-0.6088888888888889,-0.03800427265500795,-0.02449572734499205,-0.03800427265500795
1589997986.7505147,2.1013228025477706,-3.5143385987261144,8.738307006369427,0.11666666666666667,0.5755555555555556,-0.6088888888888889,-0.02711624203821656,-0.03538375796178344,0.043651273885350325
1589997986.7605147,2.11,-3.5138166582410344,8.775266632964138,0.11666666666666667,0.5755555555555556,-0.6088888888888889,0.02385411400646476,-0.038645885993535245,0.10114588599353525
1589997986.7705147,2.11,-3.518741436992194,8.80188784451171,0.11666666666666667,0.5751360345529535,-0.6097978510611934,0.07036601879878923,0.0,0.058566990600605384
1589997986.7805147,2.1037745098039218,-3.493774509803922,8.811323529411766,0.11666666666666667,0.5688888888888889,-0.6233333333333333,0.1875,-0.0389093137254902,0.0778186274509804
1589997986.7905147,2.107111367837338,-3.5113341035120147,8.728886321626618,0.11666666666666667,0.5688888888888889,-0.6233333333333333,0.09860790203327172,-0.018053951016635858,0.036107902033271716
1589997986.8005147,2.1047832943511233,-3.5147832943511235,8.71565011694663,0.11666666666666667,0.5688888888888889,-0.6233333333333333,0.16031323091643632,-0.09781323091643632,0.0
1589997986.8105147,2.1,-3.506009184109355,8.76192652712516,0.11666666666666667,0.5688888888888889,-0.6233333333333333,0.1751722020504058,-0.08772960273387441,-0.024942599316531398
1589997986.8205147,2.1058951104100947,-3.5,8.81,0.11273659305993691,0.5688888888888889,-0.6148181738520855,0.025655559936908517,0.0625,-0.025655559936908517
1589997986.8305147,2.11,-3.507298276260693,8.824596552521387,0.11,0.5688888888888889,-0.6088888888888889,-0.09122845325866366,-0.07434267988799548,0.04561422662933183
1589997986.8405147,2.11,-3.51,8.83,0.11,0.5688888888888889,-0.6088888888888889,-0.125,-0.125,0.0625
1589997986.8505147,2.11,-3.496583019083533,8.776332076334134,0.11,0.5688888888888889,-0.6088888888888889,-0.04114386927208319,-0.125,0.020571934636041594
1589997986.8605146,2.0993501672434793,-3.4953249163782605,8.76597474913478,0.11,0.5688888888888889,-0.6088888888888889,0.03328072736412676,-0.125,0.06656145472825352
1589997986.8705146,2.101052828075415,-3.5,8.791052828075415,0.11368427602513845,0.5645905668595607,-0.6052046128637505,-0.0065801754713459,-0.0559198245286541,0.09045991226432705
1589997986.8805146,2.103098647971958,-3.493098647971958,8.786197295943916,0.11666666666666667,0.5611111111111111,-0.6022222222222222,0.11003380070105157,-0.04313345017526289,0.0625
1589997986.8905146,2.1,-3.506248580326067,8.736670452463821,0.11666666666666667,0.5611111111111111,-0.6022222222222222,0.08594637296208096,-0.028648790987360326,-0.005202418025279348
1589997986.9005146,2.1,-3.515641646489104,8.713075060532688,0.11666666666666667,0.5611111111111111,-0.6022222222222222,0.027239709443099273,-0.05447941888619855,-0.008020581113801453
1589997986.9105146,2.1,-3.5130765097786374,8.745382548893188,0.11666666666666667,0.5611111111111111,-0.6022222222222222,0.04327181388351601,-0.125,0.04327181388351601
1589997986.9205146,2.1,-3.5195152129194684,8.77757606459734,0.11666666666666667,0.5611111111111111,-0.6022222222222222,0.003029919253323507,-0.125,0.003029919253323507
1589997986.9305146,2.1080611923698402,-3.5019388076301596,8.82806119236984,0.09777777777777777,0.5611111111111111,-0.6166666666666667,0.012117547688498102,-0.1753824523115019,0.0765298092460076
1589997986.9405146,2.1014554978140727,-3.5056335065577824,8.803989524045203,0.09777777777777777,0.5611111111111111,-0.6166666666666667,0.05340313866204735,-0.1068062773240947,-0.1068062773240947
1589997986.9505146,2.1024205038475956,-3.491369244228606,8.72515899230481,0.09777777777777777,0.5611111111111111,-0.6166666666666667,0.0,0.0,-0.02368592547626274
1589997986.9605145,2.0920529877279503,-3.51,8.760264938639752,0.09777777777777777,0.5611111111111111,-0.6166666666666667,-0.038493519899070995,-0.038493519899070995,-0.024006480100929005
1589997986.9705145,2.096846223759172,-3.5005386712775155,8.809461328722485,0.09777777777777777,0.5635640481873108,-0.614213729590467,-0.16778889849482387,-0.16778889849482387,0.10528889849482388
1589997986.9805145,2.098119975035794,-3.484059987517897,8.821880024964205,0.09777777777777777,0.5688888888888889,-0.6088888888888889,-0.09962507801314292,-0.07425015602628585,0.03712507801314292
1589997986.9905145,2.101208517463188,-3.494395741268406,8.75725110477913,0.09777777777777777,0.5688888888888889,-0.6088888888888889,-0.0625,0.0,0.0
1589997987.0005145,2.09,-3.5,8.71777709923664,0.09777777777777777,0.5688888888888889,-0.6088888888888889,-0.01909828244274809,-0.04340171755725191,-0.021700858778625955
1589997987.0105145,2.0995667244367415,-3.5,8.77956672443674,0.09777777777777777,0.5688888888888889,-0.6088888888888889,0.0625,-0.005415944540727913,0.02718804159445408
1589997987.0205145,2.11,-3.5,8.804001696832579,0.10088926596279536,0.5621473311546841,-0.6057774007038713,0.03332979826546004,0.09582979826546004,0.15417020173453996
1589997987.0305145,2.11,-3.5,8.802378096111777,0.10444444444444444,0.5544444444444444,-0.6022222222222222,0.0,0.02578770023286995,0.003938501164349739
1589997987.0405145,2.11,-3.5,8.740650690125891,0.10444444444444444,0.5544444444444444,-0.6022222222222222,0.0,0.0,-0.009337554982557256
1589997987.0505145,2.1037078361364276,-3.5,8.722584327727144,0.10444444444444444,0.5544444444444444,-0.6022222222222222,-0.03932602414732688,0.0,0.02317397585267312
1589997987.0605145,2.0964284056308795,-3.489285216892639,8.755001160583843,0.10444444444444444,0.5544444444444444,-0.6022222222222222,-0.0625,0.04464492961400347,-0.022322464807001736
1589997987.0705144,2.090701538797635,-3.4721046163929055,8.795089228416554,0.10444444444444444,0.5544444444444444,-0.6022222222222222,-0.0625,0.11623076502956076,-0.05811538251478038
1589997987.0805144,2.11401503208066,-3.52,8.81598496791934,0.11,0.5688888888888889,-0.6022222222222222,-0.07481209899175069,0.037406049495875345,0.0625
1589997987.0905144,2.109703595040492,-3.504555392560738,8.768814380161968,0.11,0.5688888888888889,-0.6022222222222222,0.03217626549846271,-0.06435253099692542,-0.0018525309969254222
1589997987.1005144,2.1,-3.485300594059406,8.744098217821783,0.11,0.5688888888888889,-0.6022222222222222,-0.025613861386138623,-0.09562871287128713,0.025613861386138623
1589997987.1105144,2.1079648145112824,-3.4839824072556413,8.771947221766924,0.11,0.5688888888888889,-0.6022222222222222,-0.0752199093044856,-0.1122800906955144,0.1001099546522428
1589997987.1205144,2.1157803166777285,-3.494219683322272,8.794219683322272,0.11140656110742392,0.5688888888888889,-0.6066763323957313,0.0,-0.1347539584716033,0.036126979235801646
1589997987.1305144,2.103381646286674,-3.51,8.79309176856663,0.11666666666666667,0.5688888888888889,-0.6233333333333333,0.0,0.020229421416572253,-0.020229421416572253
1589997987.1405144,2.11,-3.505818993628656,8.730732955400592,0.11666666666666667,0.5688888888888889,-0.6233333333333333,0.0,-0.03636871017909998,0.0625
1589997987.1505144,2.1071327689282993,-3.5,8.704336155358504,0.11666666666666667,0.5688888888888889,-0.6233333333333333,0.03584038839626048,0.01792019419813024,0.08042019419813023
1589997987.1605144,2.1040852689589884,-3.5,8.756341075835953,0.11666666666666667,0.5688888888888889,-0.6233333333333333,0.07393413801264496,0.011434138012644965,0.07393413801264496
1589997987.1705143,2.107260408870682,-3.502739591129318,8.785479182258635,0.11331827750861115,0.5688888888888889,-0.6117661707873233,0.01712244455823847,0.00598977823295388,0.01712244455823847
1589997987.1805143,2.1265349194167307,-3.51,8.805306983883346,0.10444444444444444,0.5688888888888889,-0.5811111111111111,0.0625,0.1543313507290867,0.029331350729086728
1589997987.1905143,2.1334314211859318,-3.5044771403953106,8.754771403953107,0.10444444444444444,0.5688888888888889,-0.5811111111111111,0.02798212747069114,0.125,0.0
1589997987.2005143,2.1037025676978356,-3.494567522565945,8.75345981947244,0.10444444444444444,0.5688888888888889,-0.5811111111111111,-0.033952983962842874,0.0231410481114714,0.033952983962842874
1589997987.2105143,2.092912024958242,-3.492912024958242,8.787087975041757,0.10444444444444444,0.5688888888888889,-0.5811111111111111,-0.026099688021976507,-0.026099688021976507,0.026099688021976507
1589997987.2205143,2.0987019781615386,-3.4987019781615385,8.781298021838461,0.10444444444444444,0.5688888888888889,-0.5811111111111111,0.04627472701922944,0.04627472701922944,-0.04627472701922944
1589997987.2305143,2.1030156942782745,-3.513968611443451,8.82,0.11,0.5755555555555556,-0.6088888888888889,0.06845573228235624,-0.08730382152157083,-0.024803821521570832
1589997987.2405143,2.104641687886504,-3.5,8.75570025463805,0.11,0.5755555555555556,-0.6088888888888889,-0.09598945070934886,-0.033489450709348854,0.029010549290651146
1589997987.2505143,2.095264764515325,-3.5,8.728411412908049,0.11,0.5755555555555556,-0.6088888888888889,-0.125,-0.003309556441564908,0.0
1589997987.2605143,2.1001785385606477,-3.5,8.766785692373764,0.11,0.5755555555555556,-0.6088888888888889,-0.06138413399595068,0.0625,-0.021205288668016443
1589997987.2705142,2.12,-3.502193989071038,8.786581967213115,0.1056120218579235,0.5740928961748635,-0.6059635701275046,0.07621243169398907,0.04878756830601093,-0.03507513661202186
1589997987.2805142,2.1171789016170024,-3.51,8.801536704851008,0.09,0.5688888888888889,-0.5955555555555555,0.10736813510626542,0.05289559468120373,0.027236270212530847
1589997987.2905142,2.11,-3.506443596160547,8.744435961605474,0.09,0.5688888888888889,-0.5955555555555555,0.0625,0.12081742801026388,-0.10695504799315741
1589997987.3005142,2.1094811495292523,-3.4994811495292524,8.68259425235374,0.09,0.5688888888888889,-0.5955555555555555,0.05601436911565185,-0.003242815442174074,-0.17777155367347777
1589997987.3105142,2.102920333451908,-3.492920333451908,8.747522000711447,0.09,0.5688888888888889,-0.5955555555555555,0.028760420372117484,-0.0625,0.018252084074423497
1589997987.3205142,2.109407334086023,-3.499407334086023,8.786444004516138,0.09,0.5688888888888889,-0.5955555555555555,0.231479190188224,-0.0625,0.05879583803764481
1589997987.3305142,2.0962912087912087,-3.493708791208791,8.82370879120879,0.08333333333333333,0.5755555555555556,-0.6233333333333333,-0.039320054945054944,0.0,-0.039320054945054944
1589997987.3405142,2.0943332364904124,-3.4956667635095875,8.77800116211505,0.08333333333333333,0.5755555555555556,-0.6233333333333333,0.027082728065078443,0.027082728065078443,0.027082728065078443
1589997987.3505142,2.1,-3.493275261939679,8.726376309698395,0.08333333333333333,0.5755555555555556,-0.6233333333333333,0.0625,0.10344077424598477,0.08297038712299239
1589997987.3605142,2.098998090618227,-3.5,8.764007637527092,0.08333333333333333,0.5755555555555556,-0.6233333333333333,0.056238066363917844,0.18123806636391784,0.11247613272783569
1589997987.3705142,2.094619858202372,-3.5,8.8,0.08949314426982934,0.5755555555555556,-0.6184568163419406,0.0,0.08168882935276245,0.01443705688241252
1589997987.3805141,2.106098191762237,-3.496098191762237,8.788294575286711,0.11,0.5755555555555556,-0.6022222222222222,-0.024386301486019543,-0.08688630148601954,-0.01065890445805863
1589997987.3905141,2.1025349673894222,-3.4950699347788445,8.749720260884622,0.11,0.5755555555555556,-0.6022222222222222,-0.03081290763222195,-0.07746936144833291,-0.09331290763222194
1589997987.4005141,2.1088400339646323,-3.508840033964632,8.69463986414147,0.11,0.5755555555555556,-0.6022222222222222,0.0625,0.055250212278953006,-0.007249787721046996
1589997987.410514,2.1,-3.4967129342148517,8.74643532892574,0.11,0.5755555555555556,-0.6022222222222222,0.0008675165284728059,-0.020544161157175733,-0.041955838842824264
1589997987.420514,2.1009602177011795,-3.4919204354023585,8.784801088505896,0.1094665457215671,0.57416857443163,-0.6028623673563417,-0.1189986393676299,-0.0625,-0.006001360632370092
1589997987.430514,2.1087247079731206,-3.507449415946241,8.823623539865602,0.10515294001493301,0.5629531995943814,-0.6080386942043027,-0.07047057516799646,-0.0625,-0.05452942483200355
1589997987.440514,2.11,-3.52,8.779316363502602,0.10444444444444444,0.5611111111111111,-0.6088888888888889,0.125,0.07084659101359181,-0.04580681797281639
1589997987.450514,2.11,-3.52,8.717602582258925,0.10444444444444444,0.5611111111111111,-0.6088888888888889,0.125,0.11906048261021501,0.05062096522043001
1589997987.460514,2.1238995304003954,-3.498474882600099,8.767625586999506,0.10444444444444444,0.5611111111111111,-0.6088888888888889,0.03390404875185368,0.09640404875185368,0.0720319837493821
1589997987.470514,2.0979831932773108,-3.4919957983193277,8.800021008403363,0.10444444444444444,0.5611111111111111,-0.6088888888888889,-0.08757878151260504,-0.025078781512605036,0.11252626050420167
1589997987.480514,2.1,-3.5,8.81034186446189,0.11,0.5688888888888889,-0.6166666666666667,0.12393167355659808,0.1207266942263923,0.12713665288680384
1589997987.490514,2.1,-3.5,8.829823958381718,0.11,0.5688888888888889,-0.6166666666666667,0.06305013005713225,-0.12279947977147102,0.2488997398857355
1589997987.500514,2.1175162396905334,-3.5075162396905335,8.7174512809284,0.11,0.5688888888888889,-0.6166666666666667,0.0625,0.015117509670826937,-0.01552350193416539
1589997987.510514,2.109819301749236,-3.5,8.740722793003055,0.11,0.5688888888888889,-0.6166666666666667,0.06137063593272539,0.24661190779817618,-0.06362936406727461
1589997987.520514,2.1005859991207427,-3.4997070004396287,8.780878998681114,0.10983722246646035,0.5688888888888889,-0.6164387781197112,-0.0018312472523209806,0.06799374175696295,-0.11950625824303705
1589997987.530514,2.12,-3.49,8.805837216624685,0.10444444444444444,0.5688888888888889,-0.6088888888888889,-0.04515506926952141,0.22398260390428212,0.053827534634760706
1589997987.540514,2.1124233375743255,-3.49,8.745905019084464,0.10444444444444444,0.5688888888888889,-0.6088888888888889,0.0625,-0.008531210240697945,0.0473541401604653
1589997987.550514,2.1,-3.49,8.69,0.10444444444444444,0.5688888888888889,-0.6088888888888889,0.0625,-0.125,0.125
1589997987.560514,2.12,-3.490866394580373,8.737797551223354,0.10444444444444444,0.5688888888888889,-0.6088888888888889,0.16042516936335952,-0.1658401354906876,0.0570850338726719
1589997987.570514,2.12,-3.499555822577638,8.816002403198741,0.10444444444444444,0.5688888888888889,-0.6088888888888889,-0.11111945555118191,0.05139556444094556,0.0027761088897636094
1589997987.580514,2.1068895182841874,-3.516889518284187,8.813110481715814,0.11,0.5611111111111111,-0.5877777777777777,0.08194051072382998,0.0625,0.04723795710468011
1589997987.590514,2.0971625397437132,-3.507162539743713,8.800137778205993,0.11,0.5611111111111111,-0.5877777777777777,0.125,0.0625,-0.08953174679641585
1589997987.600514,2.0952886510842017,-3.5,8.75,0.11,0.5611111111111111,-0.5877777777777777,0.07541889608560969,0.0459729653618699,-0.016527034638130104
1589997987.610514,2.11,-3.497546575742217,8.754906848515565,0.11,0.5611111111111111,-0.5877777777777777,-0.0625,0.0,-0.0625
1589997987.620514,2.11,-3.48466264264541,8.78067471470918,0.11,0.5611111111111111,-0.5877777777777777,-0.0625,0.0,-0.0625
1589997987.630514,2.1104869709085894,-3.4904869709085897,8.799026058182822,0.11666666666666667,0.5688888888888889,-0.6088888888888889,-0.05945643182131532,0.12195643182131531,-0.05641286364263064
1589997987.640514,2.12,-3.5,8.76821539226994,0.11666666666666667,0.5688888888888889,-0.6088888888888889,-0.0105219711875523,0.041456057624895404,0.0730219711875523
1589997987.650514,2.12,-3.4989895041338466,8.71303148759846,0.11666666666666667,0.5688888888888889,-0.6088888888888889,-0.049868801673084065,-0.0435532025096261,0.09973760334616813
1589997987.6605139,2.12,-3.490791587670778,8.737625236987666,0.11666666666666667,0.5688888888888889,-0.6088888888888889,0.052605154115278635,0.11015773117291794,-0.10521030823055727
1589997987.6705139,2.109834563277894,-3.49,8.770992620332635,0.11679533967274908,0.5688888888888889,-0.6088888888888889,0.0,-0.00413591805264897,0.12603397951316225
1589997987.6805139,2.1005949994492785,-3.49,8.82643000330433,0.12398166709500558,0.5688888888888889,-0.6088888888888889,0.0,-0.23512501376803613,0.18378125344200902
1589997987.6905138,2.104618481474492,-3.512309240737246,8.779216833364787,0.12444444444444445,0.5688888888888889,-0.6088888888888889,-0.0625,0.028865509215575267,0.033634490784424736
1589997987.7005138,2.1185198616850807,-3.5185198616850806,8.717400691574598,0.12444444444444445,0.5688888888888889,-0.6088888888888889,-0.04399827106350679,0.08799654212701358,-0.03474740659526018
1589997987.7105138,2.11,-3.51,8.764213251267197,0.12444444444444445,0.5688888888888889,-0.6088888888888889,0.03616717958001449,-0.07233435916002898,0.08550076937002171
1589997987.7205138,2.11,-3.51,8.779398986241853,0.12444444444444445,0.5688888888888889,-0.6088888888888889,-0.0587436640115858,0.1174873280231716,-0.056865496017378725
1589997987.7305138,2.1032012180267965,-3.5035975639464065,8.813201218026798,0.10444444444444444,0.5611111111111111,-0.6166666666666667,0.0,-0.04001522533495737,-0.020007612667478684
1589997987.7405138,2.1161307937617404,-3.4930653968808705,8.780149840548688,0.10444444444444444,0.5611111111111111,-0.6166666666666667,0.019158730505438818,-0.10584126949456119,-0.024182538989122364
1589997987.7505138,2.1241558069323956,-3.4980519356441317,8.697792257423473,0.10444444444444444,0.5611111111111111,-0.6166666666666667,0.050324597775824514,-0.07467540222417549,0.050324597775824514
1589997987.7605138,2.100112355256621,-3.4900374517522073,8.729850192991172,0.10444444444444444,0.5611111111111111,-0.6166666666666667,0.00023407345129360796,-0.12476592654870639,0.00023407345129360796
1589997987.7705138,2.106753975829545,-3.5035079516590897,8.763769879147723,0.10444444444444444,0.5611111111111111,-0.6166666666666667,0.04221234893465564,-0.04057530213068872,-0.04221234893465564
1589997987.7805138,2.0918476727785613,-3.5009238363892807,8.80722849083216,0.09839366870396489,0.5742211252154835,-0.5975058768218147,0.005773977433004236,0.056726022566995764,-0.005773977433004236
1589997987.7905138,2.11,-3.49,8.78893038004638,0.09777777777777777,0.5755555555555556,-0.5955555555555555,0.0006685124710114061,0.0631685124710114,0.0631685124710114
1589997987.8005137,2.11,-3.49002667912991,8.690106716519638,0.09777777777777777,0.5755555555555556,-0.5955555555555555,0.06233325543806353,0.12466651087612705,0.12449976631419057
1589997987.8105137,2.11,-3.498194582383985,8.72277832953594,0.09777777777777777,0.5755555555555556,-0.5955555555555555,0.011283860100095418,0.022567720200190836,-0.02864841969971374
1589997987.8205137,2.0905847397195148,-3.4902923698597577,8.807661041121941,0.09777777777777777,0.5755555555555556,-0.5955555555555555,0.0,0.06067268837651533,0.058845376753030657
1589997987.8305137,2.09,-3.514943060714938,8.81,0.1079397654764563,0.5700126531744582,-0.601098457936653,-0.05196470982278789,0.16642941964557578,-0.04142941964557578
1589997987.8405137,2.114012681638045,-3.5080042272126817,8.816050726552179,0.11,0.5688888888888889,-0.6022222222222222,0.0,-0.012473579920739762,0.012473579920739762
1589997987.8505137,2.0954283184190903,-3.502714159209545,8.730856636838181,0.11,0.5688888888888889,-0.6022222222222222,0.033926990119313945,-0.028573009880686055,0.04553650494034303
1589997987.8605137,2.1081911505624067,-3.5081911505624066,8.769044247187965,0.11,0.5688888888888889,-0.6022222222222222,0.11369469101504269,0.05119469101504269,-0.01130530898495731
1589997987.8705137,2.101086021141076,-3.501086021141076,8.80456989429462,0.11,0.5688888888888889,-0.6022222222222222,0.06928763213172517,0.006787632131725167,-0.05571236786827483
1589997987.8805137,2.11,-3.5073148148148148,8.791342592592592,0.12444444444444445,0.5688888888888889,-0.6022222222222222,0.10821759259259259,-0.0625,0.10821759259259259
1589997987.8905137,2.11,-3.491964573268921,8.79901771336554,0.12444444444444445,0.5688888888888889,-0.6022222222222222,0.012278582930756843,-0.0625,0.012278582930756843
1589997987.9005136,2.11,-3.5,8.696589738893298,0.12444444444444445,0.5688888888888889,-0.6022222222222222,-0.008237173616622911,-0.0625,-0.046025652766754174
1589997987.9105136,2.11,-3.5,8.73926938966563,0.12444444444444445,0.5688888888888889,-0.6022222222222222,-0.061586737082035936,-0.0625,0.06067347416407187
1589997987.9205136,2.11,-3.4907292884771075,8.786353557614463,0.12444444444444445,0.5688888888888889,-0.6022222222222222,0.16926778807232168,0.11132584105424126,0.0625
1589997987.9305136,2.11,-3.49,8.814557395773843,0.11262051314592719,0.5688888888888889,-0.6195033525815935,0.08517751760898533,0.17616124119550733,0.011338758804492664
1589997987.9405136,2.1198077601410934,-3.4998077601410933,8.82,0.11,0.5688888888888889,-0.6233333333333333,-0.06009700176366843,0.06490299823633157,0.061298500881834216
1589997987.9505136,2.100765844455314,-3.480765844455314,8.714212144504229,0.11,0.5688888888888889,-0.6233333333333333,0.11782020823143036,0.002393263922856541,0.0625
1589997987.9605136,2.0924504018434216,-3.502648794469735,8.76284718709605,0.11,0.5688888888888889,-0.6233333333333333,0.07781501152138481,0.14155496543584556,0.015315011521384814
1589997987.9705136,2.1071568685727873,-3.492843131427213,8.805735302859182,0.11,0.5688888888888889,-0.6233333333333333,-0.04473042857992035,0.1338847857100398,0.053615214289960175
1589997987.9805136,2.12,-3.500864099752244,8.812592299256732,0.11666666666666667,0.5688888888888889,-0.6088888888888889,0.010801246903050241,0.05709937654847488,0.0
1589997987.9905136,2.12,-3.5093818285203686,8.838145485561107,0.11666666666666667,0.5688888888888889,-0.6088888888888889,0.11727285650460989,0.003863571747695055,0.0
1589997988.0005136,2.10843668863591,-3.5184366886359095,8.69781655682045,0.11666666666666667,0.5688888888888889,-0.6088888888888889,-0.03318791192330737,-0.09568791192330736,-0.0625
1589997988.0105135,2.103003630600247,-3.51,8.743003630600247,0.11666666666666667,0.5688888888888889,-0.6088888888888889,0.09684096312268481,0.05311365437422827,-0.04372730874845653
1589997988.0205135,2.1184633530528374,-3.51,8.758463353052838,0.11666666666666667,0.5688888888888889,-0.6088888888888889,-0.04809393487034885,0.004802021709883704,0.05289595658023259
1589997988.0305135,2.0908920823353814,-3.5,8.827323752993856,0.11666666666666667,0.5811111111111111,-0.6022222222222222,-0.15962242701933424,0.0,0.18192448540386685
1589997988.0405135,2.0981715783262174,-3.5,8.805485265021348,0.11666666666666667,0.5811111111111111,-0.6022222222222222,0.06786182269429691,0.0,0.13642763546114062
1589997988.0505135,2.11,-3.5186234552745725,8.704129634176283,0.11666666666666667,0.5811111111111111,-0.6022222222222222,0.0,0.0,0.07110340453392258
1589997988.0605135,2.11,-3.5014604304771257,8.755618708568623,0.11666666666666667,0.5811111111111111,-0.6022222222222222,0.0,0.0,0.17837230951796382
1589997988.0705135,2.0936713331347603,-3.5081643334326196,8.784493000297859,0.11666666666666667,0.5811111111111111,-0.6022222222222222,0.1020541679077486,0.0,-0.0166083358154972
1589997988.0805135,2.114020043740537,-3.51,8.814020043740538,0.11132887916876957,0.5713251673649664,-0.6075600097201194,0.024916484414429563,0.0,-0.012458242207214781
1589997988.0905135,2.119259027511455,-3.500740972488545,8.802590275114547,0.11,0.5688888888888889,-0.6088888888888889,-0.05786892194659185,0.12036892194659185,0.004631078053408151
1589997988.1005135,2.110793048462951,-3.5092069515370485,8.717930484629514,0.11,0.5688888888888889,-0.6088888888888889,-0.004956552893446091,0.0674565528934461,0.05754344710655391
1589997988.1105134,2.11,-3.516788214285714,8.743941071428571,0.11,0.5688888888888889,-0.6088888888888889,0.042426339285714286,0.10492633928571429,0.020073660714285714
1589997988.1205134,2.11,-3.52,8.783953007832027,0.11,0.5688888888888889,-0.6088888888888889,0.012597900349941675,0.125,0.049902099650058325
1589997988.1305134,2.10754001412857,-3.516310021192855,8.778770007064285,0.09777777777777777,0.5755555555555556,-0.5877777777777777,-0.039437632455343624,0.10962508830356242,0.10962508830356242
1589997988.1405134,2.09060873952972,-3.490913109294581,8.77030436976486,0.09777777777777777,0.5755555555555556,-0.5877777777777777,0.11929306690887073,0.0038046220607528547,0.0038046220607528547
1589997988.1505134,2.12,-3.5197512341120225,8.700248765887977,0.09777777777777777,0.5755555555555556,-0.5877777777777777,0.060167819800209896,0.12189042640027986,0.06094521320013993
1589997988.1605134,2.12,-3.5034481284253896,8.71655187157461,0.09777777777777777,0.5755555555555556,-0.5877777777777777,-0.09267379601197187,-0.08189839468262913,-0.04094919734131457
1589997988.1705134,2.1122154222766216,-3.5,8.774492044063647,0.09777777777777777,0.5755555555555556,-0.5877777777777777,-0.125,0.020960832313341504,0.034807221542227665
1589997988.1805134,2.1105316860815253,-3.482126744326101,8.81893662783695,0.11,0.5811111111111111,-0.6166666666666667,-0.180853923980935,0.00664607601906499,0.06914607601906499
1589997988.1905134,2.117748679388131,-3.5109947175525233,8.804502641223738,0.11,0.5811111111111111,-0.6166666666666667,-0.09064150764836451,0.09685849235163549,0.1593584923516355
1589997988.2005134,2.1108532725964997,-3.5191467274035,8.713413090386,0.11,0.5811111111111111,-0.6166666666666667,0.06783295372812276,-0.0625,0.005332953728122753
1589997988.2105134,2.1185896005355946,-3.509294800267797,8.753525998661013,0.11,0.5811111111111111,-0.6166666666666667,0.12059250167373355,-0.0625,0.0625
1589997988.2205133,2.102989288105334,-3.501494644052667,8.792526779736667,0.11,0.5811111111111111,-0.6166666666666667,0.0718415253291676,-0.0625,0.0625
1589997988.2305133,2.116566989152741,-3.5082834945763706,8.824850483729112,0.105398058568683,0.5765091696797942,-0.6102239486628229,-0.09281552330694812,0.04104368220463207,0.11427184110231603
1589997988.2405133,2.1196368087686985,-3.4807263824626027,8.805641705224383,0.10444444444444444,0.5755555555555556,-0.6088888888888889,0.06476994519563362,0.0625,0.060230054804366384
1589997988.2505133,2.1102160729526975,-3.4995678540946047,8.69259287543237,0.10444444444444444,0.5755555555555556,-0.6088888888888889,0.12364954404564035,0.0625,0.0013504559543596403
1589997988.2605133,2.11,-3.508931216347832,8.770534391826084,0.10444444444444444,0.5755555555555556,-0.6088888888888889,0.11832010217395299,-0.05248015326092949,-0.0658399489130235
1589997988.2705133,2.11,-3.4935158130731208,8.778242093463438,0.10444444444444444,0.5755555555555556,-0.6088888888888889,0.021973831707003316,0.09203925243949501,-0.11401308414649834
1589997988.2805133,2.119912684459019,-3.4900436577704905,8.81986902668853,0.10444444444444444,0.5688888888888889,-0.6233333333333333,0.0625,-0.06331858319669702,0.0005457221311313486
1589997988.2905133,2.10334130104107,-3.498329349479465,8.795011951561603,0.10444444444444444,0.5688888888888889,-0.6233333333333333,0.0625,-0.21867530273996957,0.10411686849331304
1589997988.3005133,2.090110946571704,-3.480221893143408,8.69055473285852,0.10444444444444444,0.5688888888888889,-0.6233333333333333,0.0,0.0,0.0013868321462990386
1589997988.3105133,2.0999699127941143,-3.4999398255882284,8.739849563970571,0.10444444444444444,0.5688888888888889,-0.6233333333333333,0.0,0.0,0.12462390992642738
1589997988.3205132,2.1058646563814865,-3.4941353436185136,8.769323281907432,0.10444444444444444,0.5688888888888889,-0.6233333333333333,-0.036654102384291724,0.0,0.08834589761570827
1589997988.3305132,2.1000276165699416,-3.5049585751450874,8.799972383430058,0.11053867876281324,0.5688888888888889,-0.6161310564116248,-0.031336301781068644,0.031163698218931356,0.0625
1589997988.3405132,2.0961420249305744,-3.5015739252082767,8.81,0.11666666666666667,0.5688888888888889,-0.6088888888888889,0.038387655816090036,-0.014275311632180071,0.0625
1589997988.3505132,2.1,-3.4992732661529344,8.735813870776527,0.11666666666666667,0.5688888888888889,-0.6088888888888889,0.004542086544161231,-0.004542086544161231,0.17841582691167754
1589997988.3605132,2.106724120586164,-3.479827638241508,8.750172361758493,0.11666666666666667,0.5688888888888889,-0.6088888888888889,0.042025753663525706,0.042025753663525706,0.019396985345897177
1589997988.3705132,2.1033795283966668,-3.4964818864133327,8.806343301223333,0.11666666666666667,0.5688888888888889,-0.6088888888888889,0.021122052479167895,0.0625,0.02025589504166421
1589997988.3805132,2.1067934528448946,-3.5032065471551053,8.80282618862042,0.11213769810340349,0.5688888888888889,-0.6141726855460293,-0.042459080280592365,-0.02241816056118473,0.0625
1589997988.3905132,2.11,-3.4905877528704212,8.761763258611262,0.11,0.5688888888888889,-0.6166666666666667,-0.003673455440131222,-0.0625,0.0625
1589997988.4005132,2.1196815577913637,-3.4996815577913636,8.701910653251817,0.11,0.5688888888888889,-0.6166666666666667,0.0,-0.0625,-0.05851947239204737
1589997988.4105132,2.0903106144078913,-3.51,8.730931843223674,0.11,0.5688888888888889,-0.6166666666666667,-0.06152932997533973,0.0,0.0
1589997988.4205132,2.104981898315756,-3.51,8.774945694947268,0.11,0.5688888888888889,-0.6166666666666667,-0.015681567763261448,0.0,0.0
1589997988.4305131,2.12900423509968,-3.51,8.79950211754984,0.1237252809053243,0.5752236339221155,-0.6029413857613424,-0.05938823468649933,0.11877646937299866,0.11877646937299866
1589997988.4405131,2.110039886039886,-3.499920227920228,8.819521367521368,0.12444444444444445,0.5755555555555556,-0.6022222222222222,0.1245014245014245,-0.186502849002849,0.0
1589997988.4505131,2.1199978632478635,-3.4800042735042735,8.70002564102564,0.12444444444444445,0.5755555555555556,-0.6022222222222222,2.6709401709415492e-05,0.06244658119658117,0.0
1589997988.460513,2.094907850646242,-3.5134561991383437,8.766912398276686,0.12444444444444445,0.5755555555555556,-0.6022222222222222,0.10455062230732408,0.1670506223073241,0.0
1589997988.470513,2.0965343946084127,-3.500396816174762,8.799603183825239,0.12444444444444445,0.5755555555555556,-0.6022222222222222,0.0841600336974204,0.06498010109226121,-0.0408399663025796
1589997988.480513,2.1,-3.49,8.80335819040517,0.11116082525478499,0.5711276824923357,-0.5977943491590023,-0.06203392990305742,0.0,0.02052261993537162
1589997988.490513,2.1,-3.495454345676299,8.8054543456763,0.10444444444444444,0.5688888888888889,-0.5955555555555555,0.011358641907482703,0.06817932095374135,0.028410339523129324
1589997988.500513,2.093269782617241,-3.5067302173827586,8.742697826172414,0.10444444444444444,0.5688888888888889,-0.5955555555555555,0.08293614135775777,0.040872282715515545,0.0
1589997988.510513,2.1175276299631602,-3.51,8.746703506617546,0.10444444444444444,0.5688888888888889,-0.5955555555555555,-0.052198458179833526,-0.05734922908991676,0.0
1589997988.520513,2.105807733678511,-3.495807733678511,8.778384532642978,0.10444444444444444,0.5688888888888889,-0.5955555555555555,0.07055249676396055,0.15925416127326758,0.08870166450930703
1589997988.530513,2.1,-3.49,8.8133444005743,0.11395512615990003,0.5628366368881444,-0.6059308446996889,0.17363416786312513,0.10409749641062455,-0.020902503589375454
1589997988.540513,2.10964628967367,-3.48035371032633,8.82964628967367,0.11666666666666667,0.5611111111111111,-0.6088888888888889,0.0066320686186857325,-0.05807862092087618,0.05807862092087618
1589997988.550513,2.0924471390351256,-3.4975528609648743,8.733459264693192,0.11666666666666667,0.5611111111111111,-0.6088888888888889,0.0,0.10205807154569776,0.0625
1589997988.560513,2.0994100555180824,-3.490589944481918,8.729410055518082,0.11666666666666667,0.5611111111111111,-0.6088888888888889,0.0,0.06618715301198569,-0.11393854096404296
1589997988.570513,2.1061428991746287,-3.5022857983492575,8.773000294222403,0.11666666666666667,0.5611111111111111,-0.6088888888888889,0.03839311984142962,-0.05267935952428883,-0.00982064047571117
1589997988.580513,2.103379838333592,-3.503379838333592,8.806620161666409,0.10416191685234122,0.5706735668514776,-0.614037903518317,-0.06162803124514224,-0.0008719687548577604,0.02112398958495259
1589997988.590513,2.091123985476292,-3.4911239854762925,8.818876014523708,0.09777777777777777,0.5755555555555556,-0.6166666666666667,-0.125,0.0625,-0.055475090773173856
1589997988.600513,2.099285608819766,-3.508571217639531,8.717858302982577,0.09777777777777777,0.5755555555555556,-0.6166666666666667,0.04910516537060736,0.004464944876464219,-0.004464944876464219
1589997988.610513,2.1266672738450327,-3.5011109087183225,8.754445456408389,0.09777777777777777,0.5755555555555556,-0.6166666666666667,-0.10417046153145565,0.0,-0.05555682051048521
1589997988.620513,2.13,-3.5,8.766188989263112,0.09777777777777777,0.5755555555555556,-0.6166666666666667,-0.125,0.0,-0.023818817105548784
1589997988.630513,2.123209262679358,-3.5,8.810744423923852,0.08796893498129468,0.5657467127590725,-0.5970489810737005,-0.125,0.12732632476204006,-0.04244210825401335
1589997988.640513,2.12,-3.5,8.773227436289249,0.08333333333333333,0.5611111111111111,-0.5877777777777777,0.027069367082368012,0.136810210972544,-0.163879578054912
1589997988.650513,2.1047560595952857,-3.5152439404047144,8.714268178785856,0.08333333333333333,0.5611111111111111,-0.5877777777777777,-0.032774627529464084,0.07736268623526796,-0.044588058705803874
1589997988.660513,2.1,-3.496356964515397,8.739405059141005,0.08333333333333333,0.5611111111111111,-0.5877777777777777,-0.01324367607374341,0.01324367607374341,0.19702529570502636
1589997988.670513,2.1065749906886477,-3.49,8.78287495344324,0.08333333333333333,0.5611111111111111,-0.5877777777777777,0.041093691804049946,0.08218738360809989,0.08562523278380021
1589997988.680513,2.11,-3.503615801919599,8.820423702879399,0.09770556869291046,0.5664061451909553,-0.6218172825767763,0.0625,0.08245061900125192,0.12764814299624427
1589997988.690513,2.1030516977948053,-3.503051697794805,8.80220679117922,0.10444444444444444,0.5688888888888889,-0.6377777777777778,0.0625,0.0625,0.057219333652596294
1589997988.700513,2.1168890071551063,-3.5,8.744962647586384,0.10444444444444444,0.5688888888888889,-0.6377777777777778,-0.007870863146275595,0.027314568426862203,0.0
1589997988.7105129,2.1108618353123387,-3.5,8.748276329375322,0.10444444444444444,0.5688888888888889,-0.6377777777777778,0.0969847057305111,0.07974235286525555,0.11961352929788331
1589997988.7205129,2.09374004115981,-3.50625995884019,8.782519917680379,0.10444444444444444,0.5688888888888889,-0.6377777777777778,0.10925051449762618,0.08587525724881309,0.10925051449762618
1589997988.7305129,2.106426183844011,-3.501786908077994,8.806426183844012,0.11448266790467347,0.5688888888888889,-0.6259144227793253,0.0625,-0.09149547353760445,0.0625
1589997988.7405128,2.11,-3.5,8.822890359631614,0.11666666666666667,0.5688888888888889,-0.6233333333333333,0.022217626151206357,-0.08471762615120636,0.022217626151206357
1589997988.7505128,2.11,-3.507171737257241,8.736767415655862,0.11666666666666667,0.5688888888888889,-0.6233333333333333,-0.04482335785775834,-0.0625,-0.08964671571551668
1589997988.7605128,2.11,-3.51,8.731585714623366,0.11666666666666667,0.5688888888888889,-0.6233333333333333,0.03620535819801933,0.08555803729702899,-0.125
1589997988.7705128,2.1037620584848313,-3.5037620584848312,8.758713824545506,0.11666666666666667,0.5688888888888889,-0.6233333333333333,0.10148713446980423,0.20297426893960846,-0.125
1589997988.7805128,2.1,-3.5048603598631196,8.794301799315598,0.11666666666666667,0.5721291287976352,-0.6098323337135567,0.06424550171100563,0.15886825256650844,-0.06424550171100563
1589997988.7905128,2.107018276173285,-3.5170182761732853,8.791926895306858,0.11666666666666667,0.5755555555555556,-0.5955555555555555,0.0,0.10636422608303249,0.0
1589997988.8005128,2.1031824741441514,-3.513182474144151,8.73227731900906,0.11666666666666667,0.5755555555555556,-0.5955555555555555,0.0,0.08239046340094604,-0.04260953659905396
1589997988.8105128,2.1,-3.5021048646028956,8.717895135397105,0.11666666666666667,0.5755555555555556,-0.5955555555555555,0.04934459623190162,0.01315540376809838,-0.0625
1589997988.8205128,2.112684270620005,-3.5,8.758052811860013,0.11666666666666667,0.5755555555555556,-0.5955555555555555,-0.01677669137502945,-0.039638345687514724,0.01677669137502945
1589997988.8305128,2.1060669121178166,-3.4860669121178165,8.793933087882184,0.12208508973196024,0.5709111929281611,-0.6048442808103446,0.02458179926364655,-0.0625,0.0625
1589997988.8405128,2.1,-3.5100964034111977,8.8,0.12444444444444445,0.5688888888888889,-0.6088888888888889,-0.03155126065999257,0.03155126065999257,0.015474369670003714
1589997988.8505127,2.1054822076851574,-3.509035584629685,8.75614233851874,0.12444444444444445,0.5688888888888889,-0.6088888888888889,-0.028236201967765127,-0.006027596064469745,0.0
1589997988.8605127,2.1227109924203744,-3.5063554962101873,8.74542198484075,0.12444444444444445,0.5688888888888889,-0.6088888888888889,0.11916555394101244,-0.10222185131367081,0.039721851313670814
1589997988.8705127,2.112837551449339,-3.504279183816446,8.794324897101323,0.12444444444444445,0.5688888888888889,-0.6088888888888889,0.1875,-0.017734696558367638,0.09825510114721078
1589997988.8805127,2.1127505734153713,-3.4936247132923146,8.82,0.11169387102907327,0.5688888888888889,-0.6003885066119747,0.10780891615393018,0.0625,0.005463374230895254
1589997988.8905127,2.12,-3.49,8.797919823286795,0.10444444444444444,0.5688888888888889,-0.5955555555555555,0.09700027611438039,0.027999723885619617,-0.027999723885619617
1589997988.9005127,2.1083109664679855,-3.507533550298022,8.727399349105934,0.10444444444444444,0.5688888888888889,-0.5955555555555555,0.05194354042490949,0.036528229787545254,0.0
1589997988.9105127,2.0931136133318318,-3.5131136133318317,8.738204706677175,0.10444444444444444,0.5688888888888889,-0.5955555555555555,0.04303991667605,0.019460083323950002,0.04303991667605
1589997988.9205127,2.100886668989817,-3.499113331010183,8.776330003484725,0.10444444444444444,0.5688888888888889,-0.5955555555555555,0.09652084059317767,-0.03402084059317768,-0.07358336237271071
1589997988.9305127,2.11,-3.501859536082474,8.801859536082475,0.11630398052691868,0.5761363831615121,-0.6034619129438717,0.125,0.04868315077319588,-0.039255798969072164
1589997988.9405127,2.0946858426731456,-3.494685842673146,8.81,0.12444444444444445,0.5811111111111111,-0.6088888888888889,0.029286516707160953,0.07714325835358048,0.11035674164641952
1589997988.9505126,2.105120251278171,-3.512680376917257,8.726838617970056,0.12444444444444445,0.5811111111111111,-0.6088888888888889,0.09450157048857097,0.015249214755714516,0.07774921475571452
1589997988.9605126,2.0964439151147682,-3.5064439151147684,8.754224339540926,0.12444444444444445,0.5811111111111111,-0.6088888888888889,0.04027446946730187,0.042362765266349064,0.14722553053269813
1589997988.9705126,2.09,-3.4946710772441767,8.785328922755822,0.12444444444444445,0.5811111111111111,-0.6088888888888889,-0.03330576722389588,-0.004111534447791762,0.12088846555220824
1589997988.9805126,2.102835053361981,-3.49,8.815670106723962,0.11160939108246354,0.5682760577491303,-0.6138802985296593,-0.022390458243809655,0.01771908351238069,0.022390458243809655
1589997988.9905126,2.11,-3.4967518116327008,8.8232481883673,0.10444444444444444,0.5611111111111111,-0.6166666666666667,0.0,0.0625,0.042198822704379794
1589997989.0005126,2.103979130906134,-3.4939791309061343,8.753770439967477,0.10444444444444444,0.5611111111111111,-0.6166666666666667,-0.03763043183666095,-0.012760863673321896,0.17539129550998284
1589997989.0105126,2.1,-3.50398189395028,8.75194568185084,0.10444444444444444,0.5611111111111111,-0.6166666666666667,-0.0625,0.024886837189251332,0.16261316281074867
1589997989.0205126,2.1042908560443907,-3.505709143955609,8.782872568133172,0.10444444444444444,0.5611111111111111,-0.6166666666666667,-0.03568214972255927,0.1429535508323222,0.04454644916767782
1589997989.0305126,2.1099735261577366,-3.4999735261577367,8.800026473842264,0.10447680136276627,0.5611111111111111,-0.6166666666666667,-0.00016546151414572469,0.2493381539434171,-0.06216907697170855
1589997989.0405126,2.1051694574267232,-3.49,8.804830542573278,0.11666666666666667,0.5611111111111111,-0.6166666666666667,0.002118217834040051,0.0,0.0625
1589997989.0505126,2.115356983035678,-3.49,8.751787152678899,0.11666666666666667,0.5611111111111111,-0.6166666666666667,0.0625,-0.1004434319189618,0.029018856027012735
1589997989.0605125,2.12,-3.494265949612836,8.727063798451344,0.11666666666666667,0.5611111111111111,-0.6166666666666667,0.009175629839555485,-0.10751344475933322,-0.07998655524066678
1589997989.0705125,2.1124446614583334,-3.5037776692708333,8.772666015625001,0.11666666666666667,0.5611111111111111,-0.6166666666666667,-0.03888956705729167,0.023610432942708332,-0.116668701171875
1589997989.0805125,2.0966569780243978,-3.5066569780243975,8.816686043951204,0.11443798534959851,0.5659399206314255,-0.6140665384634205,-0.041787774695027965,0.08339388734751399,0.0
1589997989.0905125,2.0940951848095954,-3.5081903696191907,8.834095184809595,0.11,0.5755555555555556,-0.6088888888888889,-0.15059490505997133,0.09940509494002868,0.07678471517991398
1589997989.1005125,2.1,-3.504197149344097,8.766253363605784,0.11,0.5755555555555556,-0.6088888888888889,-0.12165478893373696,-0.06919042213252607,0.08873218340060544
1589997989.1105125,2.1055717398784264,-3.4955717398784265,8.739002179148985,0.11,0.5755555555555556,-0.6088888888888889,-0.0625,0.021440245440990963,-0.034823374240165156
1589997989.1205125,2.1152005730659025,-3.4947994269340974,8.796002865329513,0.11,0.5755555555555556,-0.6088888888888889,-0.16001074498567336,0.1549964183381089,0.00250716332378223
1589997989.1305125,2.1146441259340927,-3.500711748131814,8.803932377802278,0.1034539316972246,0.5678192930159119,-0.6088888888888889,-0.015680509616562532,-0.07584527747151784,0.0625
1589997989.1405125,2.098646952835188,-3.51,8.784323476417594,0.09777777777777777,0.5611111111111111,-0.6088888888888889,0.08106518282988871,-0.07260863804981452,0.027021727609962902
1589997989.1505125,2.099327503733685,-3.5053362481331574,8.747353736932101,0.09777777777777777,0.5611111111111111,-0.6088888888888889,0.0,0.0625,-0.058296898335533864
1589997989.1605124,2.115226736803918,-3.5,8.73613368401959,0.09777777777777777,0.5611111111111111,-0.6088888888888889,-0.032667105024487574,0.1605013150734627,-0.125
1589997989.1705124,2.1162444536982523,-3.5,8.771266638905242,0.09777777777777777,0.5611111111111111,-0.6088888888888889,-0.08597216438592209,0.17958350684223373,-0.07805567122815582
1589997989.1805124,2.1102217084763284,-3.5,8.789334874571013,0.09777777777777777,0.5611111111111111,-0.6088888888888889,-0.12361432202294625,0.06665703393116126,-0.0027713559541074906
1589997989.1905124,2.11,-3.5,8.805368305230916,0.11666666666666667,0.5688888888888889,-0.6088888888888889,0.0,0.09144809230677729,0.0
1589997989.2005124,2.11,-3.504801824978896,8.761585400168832,0.11666666666666667,0.5688888888888889,-0.6088888888888889,0.030011406118101058,0.09498859388189894,0.030011406118101058
1589997989.2105124,2.11,-3.5054435975177807,8.733669207446658,0.11666666666666667,0.5688888888888889,-0.6088888888888889,0.0625,0.11945503102774079,0.0625
1589997989.2205124,2.105498970378584,-3.5,8.768004118485663,0.11666666666666667,0.5688888888888889,-0.6088888888888889,0.006237129732298431,0.15936856486614923,-0.02189430540155235
1589997989.2305124,2.1,-3.5,8.799164259538694,0.12040025388613447,0.5726224761083567,-0.6048158846494694,-0.0625,0.10590779262772149,-0.06772337788316447
1589997989.2405124,2.1106103149778135,-3.503536771659271,8.827073543318543,0.1288888888888889,0.5811111111111111,-0.5955555555555555,-0.0625,0.0625,0.0625
1589997989.2505124,2.117545254697214,-3.514151581767595,8.786029437021263,0.1288888888888889,0.5811111111111111,-0.5955555555555555,-0.0625,0.0625,0.010605227905059592
1589997989.2605124,2.1027617347474536,-3.506191326262732,8.723808673737269,0.1288888888888889,0.5811111111111111,-0.5955555555555555,-0.09702168434316917,0.07976084217158458,-0.02797831565683083
1589997989.2705123,2.114278729098336,-3.478557458196672,8.777114916393344,0.1288888888888889,0.5811111111111111,-0.5955555555555555,-0.10727382940620159,0.07151588627080105,-0.017726170593798413
1589997989.2805123,2.115360417596758,-3.4992791648064836,8.8,0.12012523323832092,0.5754405103960377,-0.6084432844534496,0.0,-0.028997390020261686,-0.06700521995947663
1589997989.2905123,2.11,-3.5142196513267527,8.78734104601974,0.11,0.5688888888888889,-0.6233333333333333,0.0,-0.0625,-0.02637282079220613
1589997989.3005123,2.11,-3.5137552203867743,8.759071635676854,0.11,0.5688888888888889,-0.6233333333333333,-0.01951493629133083,-0.04298506370866917,-0.052742531854334584
1589997989.3105123,2.1076327920498503,-3.487101623850448,8.709468831800597,0.11,0.5688888888888889,-0.6233333333333333,-0.09540990062313234,0.07729504968843383,0.01479504968843383
1589997989.3205123,2.101622816515086,-3.511622816515086,8.749736899090516,0.11,0.5688888888888889,-0.6233333333333333,-0.030427809657860544,0.11485739678071315,0.0625
1589997989.3305123,2.109191569221885,-3.5191915692218854,8.795149415331313,0.11,0.5688888888888889,-0.6233333333333333,-0.1723419229103508,0.0675526923632164,0.0625
1589997989.3405123,2.111400703337536,-3.514299648331232,8.82,0.11,0.5688888888888889,-0.6022222222222222,-0.018118406210603136,-0.0625,0.03562719792979895
1589997989.3505123,2.1052167958874093,-3.509566408225181,8.762615245238496,0.11,0.5688888888888889,-0.6022222222222222,-0.09239502570369121,0.03531492288892635,0.09781492288892635
1589997989.3605123,2.11,-3.4952110712863402,8.72436678614098,0.11,0.5688888888888889,-0.6022222222222222,-0.0625,0.09506919553962564,0.1276383910792513
1589997989.3705122,2.1059434982427683,-3.494056501757232,8.760282508786158,0.11,0.5688888888888889,-0.6022222222222222,-0.011793728034603948,0.037146864017301974,0.0625
1589997989.3805122,2.1023268998290883,-3.5,8.79,0.1087072778727287,0.5704401554416144,-0.6006709556694967,0.04795687606819793,0.0,0.07704312393180207
1589997989.3905122,2.11,-3.5,8.78424203869326,0.10444444444444444,0.5755555555555556,-0.5955555555555555,0.0,0.02399150544474797,0.11300424727762601
1589997989.4005122,2.103380393942844,-3.5,8.74345098485711,0.10444444444444444,0.5755555555555556,-0.5955555555555555,-0.04137253785722418,0.08362746214277582,0.02112746214277582
1589997989.4105122,2.0906409800434695,-3.5009614700652043,8.71128196008694,0.10444444444444444,0.5755555555555556,-0.5955555555555555,-0.1270030626358427,0.006009187907528157,-0.06450306263584273
1589997989.4205122,2.11,-3.5215272809672564,8.764121198387906,0.10444444444444444,0.5755555555555556,-0.5955555555555555,-0.1345455060453523,0.11689400806046972,-0.07204550604535229
1589997989.4305122,2.11,-3.501160998980302,8.798065001699497,0.10444444444444444,0.5755555555555556,-0.5955555555555555,-0.0072562436268876485,-0.05282500849748312,0.05524375637311235
1589997989.4405122,2.102695051074322,-3.5,8.821914846777034,0.09777777777777777,0.5611111111111111,-0.6022222222222222,-0.0336881384290243,0.04565593078548785,-0.0625
1589997989.4505122,2.11,-3.503160533910534,8.76839466089466,0.09777777777777777,0.5611111111111111,-0.6022222222222222,-0.08549332611832612,0.059260010822510825,-0.10200667388167388
1589997989.4605122,2.1138353969896206,-3.51,8.730683175916964,0.09777777777777777,0.5611111111111111,-0.6022222222222222,-0.07191369355538497,0.11558630644461503,-0.13955753762974335
1589997989.4705122,2.1208123649713295,-3.5091876350286704,8.78,0.09777777777777777,0.5611111111111111,-0.6022222222222222,-0.18242271892919218,0.0050772810708078165,-0.0625
1589997989.4805121,2.127625607121392,-3.502374392878608,8.78,0.09777777777777777,0.5611111111111111,-0.6022222222222222,-0.1398399554913013,0.04766004450869869,-0.0625
1589997989.4905121,2.0910751265083687,-3.5078497469832617,8.811075126508369,0.11,0.5755555555555556,-0.6255555555555555,-0.04234137796808096,0.0,-0.020158622031919034
1589997989.5005121,2.1,-3.4996584126984125,8.76687873015873,0.11,0.5755555555555556,-0.6255555555555555,0.125,0.0,-0.12713492063492063
1589997989.510512,2.104301630326464,-3.501396739347072,8.727206521305856,0.11,0.5755555555555556,-0.6255555555555555,0.07122962091920118,0.0,-0.008729620919201174
1589997989.520512,2.1043576741041243,-3.4956423258958758,8.766926977687627,0.11,0.5755555555555556,-0.6255555555555555,-0.017632268424611224,0.017632268424611224,0.02723546315077755
1589997989.530512,2.09,-3.508481811079139,8.813036377841721,0.11219293955235415,0.5733626160032015,-0.6220131147402143,-0.0625,0.03403395773386436,-0.053011319244621456
1589997989.540512,2.09,-3.500489166682547,8.829021666634906,0.12373787034743264,0.5618176852081229,-0.6033636111481644,-0.0625,-0.11582812470225051,-0.0030572917659165005
1589997989.550512,2.111881811576653,-3.5,8.754945507386775,0.12444444444444445,0.5611111111111111,-0.6022222222222222,-0.08971603293775733,-0.1132386776459191,0.0742613223540809
1589997989.560512,2.1191376327716847,-3.5,8.696898937826523,0.12444444444444445,0.5611111111111111,-0.6022222222222222,0.046330614469086234,-0.06788979517697125,0.11961020482302875
1589997989.570512,2.108093612103383,-3.488093612103383,8.753344715276318,0.12444444444444445,0.5611111111111111,-0.6022222222222222,0.011914924353855851,0.050585075646144145,0.050585075646144145
1589997989.580512,2.100749106955243,-3.4807491069552428,8.804756251313302,0.12444444444444445,0.5611111111111111,-0.6022222222222222,0.05781808152973313,0.004681918470266867,0.004681918470266867
1589997989.590512,2.1182223872806842,-3.506444774561368,8.826444774561368,0.11,0.5611111111111111,-0.6166666666666667,-0.10277984100855181,0.0625,0.125
1589997989.600512,2.11,-3.4903525365434223,8.80647463456578,0.11,0.5611111111111111,-0.6166666666666667,-0.00220335339638865,0.05588993981083405,0.12279664660361135
1589997989.610512,2.11,-3.5,8.73121811630043,0.11,0.5611111111111111,-0.6166666666666667,-0.029346693280576555,-0.07527003992086484,0.029346693280576555
1589997989.620512,2.1099048875694097,-3.50009511243059,8.790095112430588,0.11,0.5611111111111111,-0.6166666666666667,0.06190554730881302,0.06071664192643906,-0.0625
1589997989.630512,2.102869069287708,-3.508565465356146,8.801434534643855,0.1071309307122922,0.5611111111111111,-0.6155509174992247,0.026897524572260648,-0.09810247542773935,-0.03560247542773935
1589997989.640512,2.1222664985001365,-3.5022664985001364,8.796401008999183,0.09,0.5611111111111111,-0.6088888888888889,0.1875,0.0625,0.1108343843741478
1589997989.650512,2.1210437209302326,-3.51,8.732087441860466,0.09,0.5611111111111111,-0.6088888888888889,0.1315232558139535,-0.02146511627906976,0.0625
1589997989.660512,2.118817985803232,-3.501182014196768,8.73204496450808,0.09,0.5611111111111111,-0.6088888888888889,0.0625,-0.01477517745960219,0.03494379436490055
1589997989.670512,2.13,-3.496831184820394,8.76,0.09,0.5611111111111111,-0.6088888888888889,0.0625,0.06095764230880649,0.0
1589997989.680512,2.12701525559818,-3.509005085199393,8.766964403604247,0.09143709915643183,0.5611111111111111,-0.6088888888888889,0.0625,-0.0625,0.006218217503791597
1589997989.690512,2.10456383263449,-3.50152127754483,8.81935105718619,0.1022470435463566,0.5611111111111111,-0.6088888888888889,0.0625,-0.0625,0.05299201534481221
1589997989.700512,2.088146052456397,-3.51,8.795168419651178,0.10444444444444444,0.5611111111111111,-0.6088888888888889,0.125,0.0,0.011587172147516974
1589997989.710512,2.0870344494332254,-3.5064827752833874,8.747586123583064,0.10444444444444444,0.5611111111111111,-0.6088888888888889,0.103017345521171,0.043965308957658,-0.025430617915316006
1589997989.720512,2.101409051474841,-3.5,8.782818102949681,0.10444444444444444,0.5611111111111111,-0.6088888888888889,0.04488685656448814,0.11619342828224408,-0.15227371312897628
1589997989.730512,2.107473684210526,-3.5,8.794947368421052,0.10444444444444444,0.5611111111111111,-0.6088888888888889,-0.030921052631578946,0.07828947368421052,-0.0006578947368421073
1589997989.740512,2.0903477353035655,-3.5,8.809826132348217,0.11645416175893208,0.5687536584930578,-0.6307247385515936,-0.0625,0.0010866728236427828,0.0010866728236427828
1589997989.750512,2.1,-3.511873716972386,8.779389113303756,0.11666666666666667,0.5688888888888889,-0.6311111111111111,0.0625,-0.05078926892258791,0.10157853784517581
1589997989.7605119,2.1026649512957176,-3.517335048704282,8.708654659070023,0.11666666666666667,0.5688888888888889,-0.6311111111111111,0.04584405440176438,0.04996783679470685,-0.01665594559823562
1589997989.7705119,2.109088862341481,-3.5109111376585185,8.75362203639037,0.11666666666666667,0.5688888888888889,-0.6311111111111111,0.0056946103657415925,0.17041616890277522,-0.05680538963425841
1589997989.7805119,2.10944761428474,-3.50055238571526,8.78972380714237,0.11632909761845225,0.5686740722218434,-0.6303132206335134,0.001726205360187311,-0.06595241072037462,0.06595241072037462
1589997989.7905118,2.0903787138278282,-3.5196212861721716,8.780189356913914,0.10467588067256181,0.5612583887108221,-0.6027692533068633,0.061316519288036185,-0.18513303857607238,0.18513303857607238
1589997989.8005118,2.11,-3.493560613012756,8.748636321923465,0.10444444444444444,0.5611111111111111,-0.6022222222222222,-0.05823850601082867,0.0,0.013730843351381111
1589997989.8105118,2.11,-3.503521394853053,8.713521394853053,0.10444444444444444,0.5611111111111111,-0.6022222222222222,0.10651743566316431,0.022008717831582154,-0.16549128216841785
1589997989.8205118,2.1071848955653874,-3.5071848955653873,8.739705731042289,0.10444444444444444,0.5611111111111111,-0.6022222222222222,0.16990559728367116,0.04490559728367116,-0.10740559728367116
1589997989.8305118,2.1000291422465436,-3.5,8.790043713369814,0.10444444444444444,0.5611224442069891,-0.6022125081400411,0.12463572191820743,0.000273208561344429,-0.06240893047955186
1589997989.8405118,2.1174596820313396,-3.5025403179686605,8.814919364062678,0.10444444444444444,0.5688888888888889,-0.5955555555555555,-0.10912301269587098,0.1875,-0.01587698730412902
1589997989.8505118,2.11,-3.51,8.781692307692309,0.10444444444444444,0.5688888888888889,-0.5955555555555555,-0.046153846153846156,0.1548076923076923,-0.013461538461538462
1589997989.8605118,2.11,-3.506869591406485,8.739391225780544,0.10444444444444444,0.5688888888888889,-0.5955555555555555,-0.01956505370946692,0.023369892581066157,0.06630483887159924
1589997989.8705118,2.108719516235918,-3.502560967528164,8.765121935056328,0.10444444444444444,0.5688888888888889,-0.5955555555555555,-0.0625,-0.0625,-0.05449697647448641
1589997989.8805118,2.10177070907886,-3.5164585818422798,8.79291716368456,0.10444444444444444,0.5688888888888889,-0.5955555555555555,-0.0625,-0.0625,-0.011066931742876075
1589997989.8905118,2.11,-3.519314239612747,8.815542557482857,0.11,0.5755555555555556,-0.6088888888888889,-0.06035699878983461,-0.0042860024203307786,0.12285699878983461
1589997989.9005117,2.11,-3.5087396631706333,8.746807810609116,0.11,0.5755555555555556,-0.6088888888888889,-0.027311447408229127,-0.07037710518354175,0.08981144740822913
1589997989.9105117,2.105818923421612,-3.497909461710806,8.70045269144597,0.11,0.5755555555555556,-0.6088888888888889,0.0,-0.11193413569253749,0.0625
1589997989.9205117,2.0978678050023665,-3.4926226016674558,8.755735610004733,0.11,0.5755555555555556,-0.6088888888888889,-0.03278252084319365,-0.07889126042159683,0.046108739578403175
1589997989.9305117,2.119198354437546,-3.5002672151874847,8.8,0.11071257383329244,0.5755555555555556,-0.6090967229235992,-0.12332990507822084,-0.11831962031288332,0.0
1589997989.9405117,2.095453001453077,-3.5081823328489743,8.8,0.1318195542639316,0.5755555555555556,-0.6152529255492023,-0.07386041969391027,0.07955832122435888,0.0
1589997989.9505117,2.11,-3.4816528864970646,8.80181824853229,0.13666666666666666,0.5755555555555556,-0.6166666666666667,-0.125,-0.05216945939334638,-0.05216945939334638
1589997989.9605117,2.1060244026436195,-3.48602440264362,8.72192679206914,0.13666666666666666,0.5755555555555556,-0.6166666666666667,-0.08772877478393493,-0.012423741738688357,0.024847483477376715
1589997989.9705117,2.095491859423573,-3.4736612396157156,8.773661239615715,0.13666666666666666,0.5755555555555556,-0.6166666666666667,0.0396172524017774,-0.0739413737991113,0.0906758786026661
1589997989.9805117,2.1175915485536647,-3.4883943657024434,8.788394365702443,0.13666666666666666,0.5755555555555556,-0.6166666666666667,-0.052464785640269074,-0.11998239282013454,-0.04744717846040358
1589997989.9905117,2.1053874720357943,-3.51,8.82,0.10444444444444444,0.5755555555555556,-0.6022222222222222,0.0673434004474273,0.011992449664429534,0.125
1589997990.0005116,2.12217959854443,-3.50782040145557,8.796024416011269,0.10444444444444444,0.5755555555555556,-0.6022222222222222,0.19551003638924758,-0.09775501819462379,0.125
1589997990.0105116,2.1242677527890916,-3.4980892509296972,8.717642996281212,0.10444444444444444,0.5755555555555556,-0.6022222222222222,0.011942181689392598,0.023884363378785196,0.08917345493182222
1589997990.0205116,2.099250045144532,-3.4892500451445323,8.752249864566403,0.10444444444444444,0.5755555555555556,-0.6022222222222222,0.0625,0.125,-0.05781278215332472
1589997990.0305116,2.0934239002097486,-3.4834239002097487,8.769728299370755,0.10444444444444444,0.5755555555555556,-0.6022222222222222,0.0625,0.125,-0.021399376310927753
1589997990.0405116,2.126904101404123,-3.48,8.802142460842473,0.0888627127404815,0.5796560112671247,-0.6071427690761053,0.016369873244846567,-0.1517807605309206,0.04613012675515343
1589997990.0505116,2.11,-3.5,8.749160975097194,0.08333333333333333,0.5811111111111111,-0.6088888888888889,0.011290650940422402,-0.1137093490595776,0.0625
1589997990.0605116,2.10675166163142,-3.5,8.704872507552869,0.08333333333333333,0.5811111111111111,-0.6088888888888889,0.07265105740181269,-0.0625,0.0625
1589997990.0705116,2.094080060422961,-3.5,8.723879909365559,0.08333333333333333,0.5811111111111111,-0.6088888888888889,0.11224981117824773,-0.0625,0.0625
1589997990.0805116,2.0994484683367665,-3.490551531663234,8.786690810020598,0.08333333333333333,0.5811111111111111,-0.6088888888888889,-0.11121170841916408,-0.12155292710479101,-0.11465878131437304
1589997990.0905116,2.108057194448527,-3.51,8.821942805551473,0.11,0.5688888888888889,-0.6166666666666667,-0.0625,-0.0625,-0.0867850693934113
1589997990.1005116,2.1,-3.5090543691378304,8.816761167929627,0.11,0.5688888888888889,-0.6166666666666667,-0.06841019288855917,-0.056589807111440835,-0.18158980711144085
1589997990.1105115,2.098264927872806,-3.501735072127194,8.703880577017552,0.11,0.5688888888888889,-0.6166666666666667,-0.125,-0.010844200794962261,-0.125
1589997990.1205115,2.091985264514051,-3.5090073677429743,8.773970529028102,0.11,0.5688888888888889,-0.6166666666666667,-0.10018419357436187,-0.0811118548192286,-0.11879604839359047
1589997990.1305115,2.108871889846203,-3.5005640550768984,8.807743779692407,0.11,0.5688888888888889,-0.6166666666666667,0.11089862307754247,-0.23942396730815688,-0.06602534423061437
1589997990.1405115,2.092573502013875,-3.4925735020138755,8.810992742951436,0.11666666666666667,0.5688888888888889,-0.6255555555555555,0.05445780620663958,0.038373418619918734,-0.038373418619918734
1589997990.1505115,2.107457726361362,-3.5074577263613618,8.758897957735233,0.11666666666666667,0.5688888888888889,-0.6255555555555555,0.007944605120743811,-0.10116618463776858,0.10116618463776858
1589997990.1605115,2.11,-3.5080295026898076,8.723940994620385,0.11666666666666667,0.5688888888888889,-0.6255555555555555,0.0625,-0.125,-0.024631216377400747
1589997990.1705115,2.108379879173751,-3.501620120826249,8.746480483304996,0.11666666666666667,0.5688888888888889,-0.6255555555555555,0.042248489671888004,-0.094622734507832,-0.094622734507832
1589997990.1805115,2.100793329233441,-3.509206670766559,8.776826683066236,0.11666666666666667,0.5688888888888889,-0.6255555555555555,-0.05258338458199184,0.047625076872987726,0.047625076872987726
1589997990.1905115,2.1081608396166964,-3.51,8.820804198083483,0.10669230713514843,0.5625415691870137,-0.623742035640734,-0.011494752395645465,-0.0905157428130636,-0.03951049520870907
1589997990.2005115,2.1171493346029155,-3.51,8.812896007617493,0.10444444444444444,0.5611111111111111,-0.6233333333333333,0.16077501190233287,-0.008908329365889048,-0.01795835317055476
1589997990.2105114,2.10098282852373,-3.5090171714762697,8.715896971142381,0.10444444444444444,0.5611111111111111,-0.6233333333333333,-0.012285356546625327,-0.0625,0.231571965180062
1589997990.2205114,2.11,-3.5,8.77329356464238,0.10444444444444444,0.5611111111111111,-0.6233333333333333,-0.10956141573884119,-0.06764619475371961,0.0522076104925608
1589997990.2305114,2.11,-3.5,8.80670962216424,0.10444444444444444,0.5611111111111111,-0.6233333333333333,0.04707635389487522,-0.11985878463162508,-0.05221756926325015
1589997990.2405114,2.101070444014312,-3.501070444014312,8.803211332042936,0.10444444444444444,0.5611111111111111,-0.6233333333333333,-0.11830972491055194,-0.0625,0.0625
1589997990.2505114,2.109270924980937,-3.509270924980937,8.827812774942812,0.10444444444444444,0.5611111111111111,-0.6233333333333333,-0.06705671886914188,-0.0625,0.0625
1589997990.2605114,2.1187836494199965,-3.5187836494199964,8.718514454060026,0.10444444444444444,0.5611111111111111,-0.6233333333333333,-0.07010219112502301,-0.0625,0.0
1589997990.2705114,2.111060762290554,-3.511060762290554,8.77257466396612,0.10444444444444444,0.5611111111111111,-0.6233333333333333,-0.1183702356840361,-0.0625,0.0
1589997990.2805114,2.11,-3.503523199198052,8.78,0.10444444444444444,0.5611111111111111,-0.6233333333333333,-0.08451999498782758,-0.10298000501217242,0.08096001002434483
1589997990.2905114,2.117893411814765,-3.4921065881852353,8.803680235444295,0.10882967323042494,0.5725127059546604,-0.6066694639466074,-0.0625,0.07233529536912275,-0.023001471526842066
1589997990.3005114,2.1130685406237966,-3.51079437812861,8.782274162495186,0.11,0.5755555555555556,-0.6022222222222222,-0.019178378898729302,0.038356757797458604,-0.0625
1589997990.3105114,2.1193823285348343,-3.5106176714651656,8.70432370025616,0.11,0.5755555555555556,-0.6022222222222222,0.0,0.0,0.05477910668542772
1589997990.3205113,2.128127803143561,-3.501872196856439,8.740639015717807,0.11,0.5755555555555556,-0.6022222222222222,0.0,-0.05079876964725848,0.11329876964725848
1589997990.3305113,2.1049570815450642,-3.5083476394849784,8.791738197424893,0.11,0.5755555555555556,-0.6022222222222222,0.0,-0.01032725321888412,-0.03151824034334763
1589997990.3405113,2.1230103132905236,-3.51,8.815340208860349,0.11,0.5755555555555556,-0.6133012619546965,0.047938152688590516,-0.047938152688590516,0.08131445806577156
1589997990.3505113,2.1181167040005926,-3.5006277653331357,8.78686117333432,0.11,0.5755555555555556,-0.6166666666666667,0.0,-0.0625,0.0625
1589997990.3605113,2.0948223707351388,-3.508392543088287,8.748037284558565,0.11,0.5755555555555556,-0.6166666666666667,0.0,-0.0625,0.0625
1589997990.3705113,2.108342703495478,-3.501657296504522,8.77082864825226,0.11,0.5755555555555556,-0.6166666666666667,0.052141896846736736,0.11464189684673674,0.04696284527010511
1589997990.3805113,2.0925696181110505,-3.5174303818889494,8.778715190944475,0.11,0.5755555555555556,-0.6166666666666667,-0.046439886805934236,0.016060113194065764,-0.10090983020890135
1589997990.3905113,2.1009540865384615,-3.5,8.787137740384615,0.11666666666666667,0.5755555555555556,-0.6088888888888889,-0.04461087740384615,0.005963040865384616,-0.10114783653846154
1589997990.4005113,2.108968223583461,-3.5,8.754841117917305,0.11666666666666667,0.5755555555555556,-0.6088888888888889,0.11210279479326186,0.049602794793261865,0.13789720520673812
1589997990.4105113,2.1020945676405023,-3.498952716179749,8.713141851460755,0.11666666666666667,0.5755555555555556,-0.6088888888888889,-0.006545523876569283,-0.07559104775313856,0.23690895224686143
1589997990.4205112,2.1186340953719216,-3.4906829523140392,8.743414761570197,0.11666666666666667,0.5755555555555556,-0.6088888888888889,-0.05396309607451044,-0.17896309607451044,0.11219464411176566
1589997990.4305112,2.1035219513952694,-3.4982390243023653,8.781195121511827,0.11666666666666667,0.5755555555555556,-0.6088888888888889,0.040487803779567275,-0.08451219622043273,-0.029481705669350933
1589997990.4405112,2.109758512975422,-3.509758512975422,8.829034051901688,0.10444444444444444,0.5688888888888889,-0.6022222222222222,0.12198141219277771,0.0594814121927777,-0.060990706096388854
1589997990.4505112,2.1025597281340107,-3.5025597281340106,8.800238912536042,0.10444444444444444,0.5688888888888889,-0.6022222222222222,0.03199660167513388,-0.03050339832486612,-0.01599830083756694
1589997990.4605112,2.110280793390687,-3.52,8.721123173562749,0.10444444444444444,0.5688888888888889,-0.6022222222222222,0.0625,0.18399008261641403,-0.001754958691792981
1589997990.4705112,2.1174402567253856,-3.52,8.749761026901544,0.10444444444444444,0.5688888888888889,-0.6022222222222222,0.0625,0.09449679093267786,-0.04650160453366107
1589997990.4805112,2.1064570925995727,-3.5064570925995726,8.793857268501068,0.10444444444444444,0.5688888888888889,-0.6022222222222222,0.14714317125266993,0.020178414373665035,-0.020178414373665035
1589997990.4905112,2.1,-3.48749570225202,8.82250429774798,0.10444444444444444,0.5688888888888889,-0.6022222222222222,0.07027220861268695,-0.03907593046243769,-0.03907593046243769
1589997990.5005112,2.1080492772667543,-3.512197109067017,8.821950722733247,0.10444444444444444,0.5688888888888889,-0.6022222222222222,-0.10061596583442838,0.08842394875164256,-0.0625
1589997990.5105112,2.1027681925000503,-3.51276819250005,8.740450117500552,0.10444444444444444,0.5688888888888889,-0.6022222222222222,-0.07980120312531383,0.034602406250627674,-0.017301203125313837
1589997990.5205112,2.0993742776365156,-3.5,8.772502889453937,0.10444444444444444,0.5688888888888889,-0.6022222222222222,-0.10935694091288964,-0.007821529543555184,-0.0664107647717776
1589997990.5305111,2.0919162858514553,-3.5,8.802334856594179,0.10444444444444444,0.5688888888888889,-0.6022222222222222,0.0770928537136151,-0.10104642685680755,-0.11302321342840377
1589997990.5405111,2.1100788935887076,-3.49,8.819842212822584,0.11666666666666667,0.5544444444444444,-0.5955555555555555,0.0002465424647117532,-0.06200691507057649,0.0
1589997990.5505111,2.12998085106383,-3.490012765957447,8.779955319148936,0.11666666666666667,0.5544444444444444,-0.5955555555555555,0.062460106382978726,0.06238031914893617,-3.98936170212766e-05
1589997990.560511,2.1002340425531916,-3.5098439716312053,8.71054609929078,0.11666666666666667,0.5544444444444444,-0.5955555555555555,0.00048758865248226674,-0.12353723404255318,-0.06201241134751773
1589997990.570511,2.11,-3.5,8.720047444894732,0.11666666666666667,0.5544444444444444,-0.5955555555555555,3.7066324009093604e-05,-0.12488880102797272,0.0
1589997990.580511,2.11,-3.5,8.767427950126379,0.11666666666666667,0.5544444444444444,-0.5955555555555555,0.03705308603623322,-0.013840741891300357,0.0
1589997990.590511,2.1146747735539546,-3.5046747735539547,8.814024320661865,0.11355015096403015,0.5575609601470809,-0.6054245219472378,0.033282665287782606,-0.05436933884886956,0.0
1589997990.600511,2.12,-3.51,8.819134064165745,0.11,0.5611111111111111,-0.6166666666666667,-0.06791209896409535,-0.15354395051795233,0.06791209896409535
1589997990.610511,2.1121787209822336,-3.51,8.74742976785787,0.11,0.5611111111111111,-0.6166666666666667,0.021648981583119897,-0.07611700613896002,0.07611700613896002
1589997990.620511,2.11,-3.51,8.75569507120156,0.11,0.5611111111111111,-0.6166666666666667,0.0625,-0.0625,0.10264854875243631
1589997990.630511,2.11,-3.5041749460043197,8.78165010799136,0.11,0.5611111111111111,-0.6166666666666667,0.026093412526997838,-0.09890658747300216,0.052186825053995675
1589997990.640511,2.104076816392269,-3.5,8.813692734430923,0.11394878907182057,0.5657180316949018,-0.6041621679392348,0.0,-0.125,0.11105969264495348
1589997990.650511,2.1,-3.5,8.77189409582473,0.11666666666666667,0.5688888888888889,-0.5955555555555555,0.10376054317012563,0.030640814755188456,0.031859185244811544
1589997990.660511,2.1,-3.506964882629108,8.72517558685446,0.11666666666666667,0.5688888888888889,-0.5955555555555555,-0.005591549295774656,-0.024561032863849766,0.08706103286384977
1589997990.670511,2.11,-3.519792548687553,8.770138300874965,0.11666666666666667,0.5688888888888889,-0.5955555555555555,-0.0008643804685294948,0.12413561953147051,0.0
1589997990.680511,2.11,-3.4975957874682475,8.784936141687835,0.11666666666666667,0.5688888888888889,-0.5955555555555555,-0.09335088554896981,0.03164911445103019,0.0
1589997990.690511,2.11,-3.4999301756406567,8.839650878203281,0.11666666666666667,0.5688888888888889,-0.6087957897430976,-0.06293640224589692,-0.12412719550820617,0.0
1589997990.700511,2.0904445173076023,-3.5,8.820444517307603,0.11666666666666667,0.5688888888888889,-0.6088888888888889,-0.0013891165862569693,-0.125,0.06111088341374303
1589997990.710511,2.1095056265315346,-3.5,8.71271905407656,0.11666666666666667,0.5688888888888889,-0.6088888888888889,0.0,-0.18595508291104607,0.0625
1589997990.720511,2.11,-3.475125777876878,8.76803985162062,0.11666666666666667,0.5688888888888889,-0.6088888888888889,-0.051821296089838445,-0.13567870391016157,0.010678703910161555
1589997990.730511,2.1029240124147544,-3.498303950340983,8.787075987585245,0.11666666666666667,0.5688888888888889,-0.6088888888888889,0.02594984481557333,-0.08077507759221333,-0.044224922407786665
1589997990.740511,2.1064589847342283,-3.5164589847342285,8.802917969468457,0.1123606768438477,0.5638652340956001,-0.600276909243251,-0.018237309177855432,-0.022131345411072284,0.018237309177855432
1589997990.750511,2.11,-3.514733406091874,8.820533187816253,0.11,0.5611111111111111,-0.5955555555555555,-0.02958378807421371,-0.06583242385157258,-0.0033324238515725774
1589997990.760511,2.1031293679732603,-3.489388103919781,8.747552415679126,0.11,0.5611111111111111,-0.5955555555555555,0.042941450167122454,-0.03911709966575509,-0.10544145016712245
1589997990.770511,2.1,-3.5052742088686695,8.76054841773734,0.11,0.5611111111111111,-0.5955555555555555,0.009845398190271464,0.052654601809728536,-0.07234539819027147
1589997990.780511,2.1,-3.5030281097787603,8.78394378044248,0.11,0.5611111111111111,-0.5955555555555555,0.04357431388274877,-0.024648627765497547,0.024648627765497547
1589997990.790511,2.10882982982983,-3.5,8.798829829829831,0.09234034034034033,0.5679787565343121,-0.6141963074185297,0.0625,-0.0625,0.0625
1589997990.800511,2.1011655595651275,-3.4911655595651276,8.773496678695382,0.09,0.5688888888888889,-0.6166666666666667,0.007284747282046568,-0.007284747282046568,0.11771525271795344
1589997990.8105109,2.112785464128437,-3.5027854641284373,8.738036339678906,0.09,0.5688888888888889,-0.6166666666666667,0.0399545754013662,-0.11986372620409862,0.08504542459863379
1589997990.8205109,2.112045086748711,-3.51,8.743864739753867,0.09,0.5688888888888889,-0.6166666666666667,-0.03693641564111248,0.011372831282224966,0.012781792179443759
1589997990.8305109,2.11,-3.51,8.781573985989795,0.09,0.5688888888888889,-0.6166666666666667,-0.02961043126063017,0.09538956873936982,0.0
1589997990.8405108,2.11,-3.50268520757759,8.81,0.10259769806081777,0.5713271530296924,-0.6113837610282592,-0.04571745264006449,0.033565094719871014,-0.022858726320032247
1589997990.8505108,2.1013738849939108,-3.5072522300121785,8.81862611500609,0.12444444444444445,0.5755555555555556,-0.6022222222222222,0.09065287515223328,0.09065287515223328,0.09923965636417498
1589997990.8605108,2.107991409589099,-3.502008590410901,8.74008590410901,0.12444444444444445,0.5755555555555556,-0.6022222222222222,0.07505369006813084,-0.02483892979560748,0.02510738013626168
1589997990.8705108,2.1013676145885984,-3.5,8.754529541645606,0.12444444444444445,0.5755555555555556,-0.6022222222222222,-0.09935722646378123,-0.1704048176425208,0.05395240882126041
1589997990.8805108,2.1067411572912276,-3.5,8.780223471873683,0.12444444444444445,0.5755555555555556,-0.6022222222222222,0.0013966992105214904,-0.14536776692982617,0.02036776692982617
1589997990.8905108,2.117400416717735,-3.492599583282265,8.797400416717736,0.11868856477509498,0.5648660647410494,-0.6129117130367284,0.01624739551415614,-0.03249479102831228,0.0
1589997990.9005108,2.0934971220362253,-3.507668585309183,8.74699424407245,0.11666666666666667,0.5611111111111111,-0.6166666666666667,0.0,0.11042865818239425,-0.11042865818239425
1589997990.9105108,2.116720463283809,-3.51,8.67765225233778,0.11666666666666667,0.5611111111111111,-0.6166666666666667,0.11133526368253667,0.18066763184126833,0.042002895523804984
1589997990.9205108,2.12,-3.5184777820667104,8.720866692400264,0.11666666666666667,0.5611111111111111,-0.6166666666666667,0.07201386208305896,0.02854158624917691,0.009513862083058967
1589997990.9305108,2.1132975121728546,-3.506595024345709,8.783619902617165,0.11666666666666667,0.5611111111111111,-0.6166666666666667,-0.06317164675897749,-0.04189054891965916,0.0
1589997990.9405107,2.1176274023558586,-3.4923725976441413,8.81,0.10734428600950609,0.5670435351656679,-0.6056493077082041,0.06568505889646623,-0.0625,0.0
1589997990.9505107,2.1027420288396206,-3.5158869567405695,8.79274202883962,0.10444444444444444,0.5688888888888889,-0.6022222222222222,0.017137680247628156,0.045362319752371844,0.0
1589997990.9605107,2.093669338051624,-3.5073386761032475,8.739354704412989,0.10444444444444444,0.5688888888888889,-0.6022222222222222,0.0,0.1020666371773522,0.0
1589997990.9705107,2.1141164643105714,-3.5,8.750194107184285,0.10444444444444444,0.5688888888888889,-0.6022222222222222,0.0,-0.02572790194107183,0.10048526796071457
1589997990.9805107,2.1099103807790716,-3.5050448096104643,8.780179238441857,0.10444444444444444,0.5688888888888889,-0.6022222222222222,-0.09459018019620453,-0.03096993993459849,0.125
1589997990.9905107,2.0977780795344327,-3.512221920465567,8.804443840931135,0.10888828537557926,0.5703701691992672,-0.6054316628947085,-0.1736129970902037,-0.027774005819592627,0.11111299709020368
1589997991.0005107,2.0996169895023495,-3.515191505248825,8.81038301049765,0.12444444444444445,0.5755555555555556,-0.6166666666666667,-0.09494690780515658,-0.15505309219484342,0.09255309219484342
1589997991.0105107,2.11,-3.51,8.73456079510922,0.12444444444444445,0.5755555555555556,-0.6166666666666667,-0.021600496943262666,-0.06480149082978799,0.04320099388652533
1589997991.0205107,2.0953220855408263,-3.517338957229587,8.736694786147934,0.12444444444444445,0.5755555555555556,-0.6166666666666667,0.045868482684917805,0.0,0.0
1589997991.0305107,2.0959402439743062,-3.502179268077082,8.77970121987153,0.12444444444444445,0.5755555555555556,-0.6166666666666667,-0.011753049678826094,-0.0742530496788261,0.0742530496788261
1589997991.0405107,2.111778774289985,-3.501778774289985,8.794110612855008,0.11266567015445939,0.5598505231689088,-0.604233516027238,-0.13611733931240658,-0.19861733931240658,0.125
1589997991.0505106,2.105327773415288,-3.51,8.76799166012293,0.10444444444444444,0.5488888888888889,-0.5955555555555555,-0.04994787576832471,-0.11244787576832471,0.0332985838455498
1589997991.0605106,2.12193613774569,-3.49537590816954,8.71612772450862,0.10444444444444444,0.5488888888888889,-0.5955555555555555,0.09140057394037397,-0.10820028697018699,0.0
1589997991.0705106,2.1060093921625853,-3.497996869279138,8.73998434639569,0.10444444444444444,0.5488888888888889,-0.5955555555555555,0.0750195670053859,-0.025039134010771805,0.0999608659892282
1589997991.0805106,2.1125024537424117,-3.5,8.775004907484822,0.10444444444444444,0.5488888888888889,-0.5955555555555555,0.0625,-0.07814033589007233,0.08592983205496384
1589997991.0905106,2.1055132343447385,-3.5072433828276304,8.818973531310522,0.11329746790043756,0.557741912344882,-0.5955555555555555,0.017228857327307938,-0.07972885732730794,0.017228857327307938
1589997991.1005106,2.1,-3.51,8.815863524299028,0.11666666666666667,0.5611111111111111,-0.5955555555555555,-0.04417648656554261,-0.018323513434457393,0.0
1589997991.1105106,2.1,-3.499063730580099,8.755318652900497,0.11666666666666667,0.5611111111111111,-0.5955555555555555,0.07420336774876085,0.0,-0.03417584193719021
1589997991.1205106,2.105927898402294,-3.49,8.73963949201147,0.11666666666666667,0.5611111111111111,-0.5955555555555555,0.11340126997132323,-0.037049365014338385,-0.0625
1589997991.1305106,2.105812809303265,-3.494187190696735,8.776748762786939,0.11666666666666667,0.5611111111111111,-0.5955555555555555,0.0101601162908136,-0.0625,-0.0886699418545932
1589997991.1405106,2.1019418804755947,-3.5,8.799352706508136,0.11587553017660965,0.5616145616047837,-0.5969220640383812,-0.07059116864831039,-0.07059116864831039,-0.11690883135168961
1589997991.1505105,2.1180223211320004,-3.4960074403773334,8.778022321132,0.10444444444444444,0.5688888888888889,-0.6166666666666667,-0.1875,-0.1875,0.0
1589997991.1605105,2.1,-3.4952589726294865,8.728446164223081,0.10444444444444444,0.5688888888888889,-0.6166666666666667,-0.15463142106571054,-0.12176284213142106,0.03286857893428947
1589997991.1705105,2.1,-3.5,8.725524088425413,0.10444444444444444,0.5688888888888889,-0.6166666666666667,-0.09309488946823327,-0.09440511053176673,0.03059488946823328
1589997991.1805105,2.1,-3.5076893358031227,8.765378671606245,0.10444444444444444,0.5688888888888889,-0.6166666666666667,-0.03847082561524213,-0.125,0.048058348769515744
1589997991.1905105,2.1,-3.5158759381898452,8.794124061810153,0.10169506990434142,0.5716382634289919,-0.6166666666666667,0.025775386313465782,-0.17655077262693156,0.07344922737306844
1589997991.2005105,2.1,-3.4993216736926454,8.8,0.09777777777777777,0.5755555555555556,-0.6166666666666667,0.0625,-0.18326046057903356,0.0
1589997991.2105105,2.094353515586392,-3.49,8.754828124691139,0.09777777777777777,0.5755555555555556,-0.6166666666666667,0.02720947241495187,-0.125,0.0
1589997991.2205105,2.1028022366475994,-3.5092033549713992,8.758406709942799,0.09777777777777777,0.5755555555555556,-0.6166666666666667,0.08001397904749662,-0.08499301047625168,0.0
1589997991.2305105,2.115729300609381,-3.508541398781238,8.78572930060938,0.09777777777777777,0.5755555555555556,-0.6166666666666667,0.08919187119136804,-0.09830812880863196,0.0
1589997991.2405105,2.12,-3.5063173622870805,8.808952086861241,0.10198935263583137,0.5755555555555556,-0.6208782415247203,0.02301648570574759,-0.04603297141149518,0.03948351429425241
1589997991.2505105,2.105998638529612,-3.495998638529612,8.827000680735194,0.10444444444444444,0.5755555555555556,-0.6233333333333333,0.0,0.043754254594962565,0.0625
1589997991.2605104,2.106745808087924,-3.503491616175849,8.749050302944907,0.10444444444444444,0.5755555555555556,-0.6233333333333333,0.0,-0.02182260109905594,0.0625
1589997991.2705104,2.11,-3.51,8.73697658782567,0.10444444444444444,0.5755555555555556,-0.6233333333333333,0.04215091847760836,-0.0625,-0.021801836955216716
1589997991.2805104,2.105997179523339,-3.501994359046679,8.762008461429982,0.10444444444444444,0.5755555555555556,-0.6233333333333333,0.01246474404174306,-0.0625,-0.03748237202087153
1589997991.2905104,2.100082216894655,-3.4901644337893107,8.779753349316033,0.10444444444444444,0.5755555555555556,-0.6233333333333333,-0.061472288816810036,-0.0625,-0.0005138555915949819
1589997991.3005104,2.12,-3.5048789756035252,8.784878975603524,0.1288888888888889,0.5755555555555556,-0.6166666666666667,0.03200640247796653,-0.06098719504406694,0.06098719504406694
1589997991.3105104,2.1147842718798446,-3.5204314562403107,8.743058446918601,0.1288888888888889,0.5755555555555556,-0.6166666666666667,0.032598300750971435,-0.02720509774708571,0.09240169924902857
1589997991.3205104,2.1208768920886265,-3.522748738607582,8.714502522784835,0.1288888888888889,0.5755555555555556,-0.6166666666666667,0.017179616297389462,0.03983980814869473,0.08516019185130527
1589997991.3305104,2.1317954620190727,-3.5072651540063573,8.767348459936425,0.1288888888888889,0.5755555555555556,-0.6166666666666667,-0.04540721253973473,0.03418557492053053,0.07372163761920421
1589997991.3405104,2.1064515832317703,-3.5,8.822257916158852,0.12021498123321657,0.5755555555555556,-0.6166666666666667,0.04435520960286982,0.08064479039713018,-0.04032239519856509
1589997991.3505104,2.0953328852293733,-3.5,8.80400134431188,0.10444444444444444,0.5755555555555556,-0.6166666666666667,0.03749159805074777,0.02916946731641741,0.02916946731641741
1589997991.3605103,2.0999223714753223,-3.504961185737661,8.765426956885726,0.10444444444444444,0.5755555555555556,-0.6166666666666667,-0.0004851782792343745,0.0004851782792343745,0.0625
1589997991.3705103,2.1049909279419388,-3.5049909279419387,8.735045360290306,0.10444444444444444,0.5755555555555556,-0.6166666666666667,-0.00011340072576464244,-0.09380670036288233,-0.03142010108864697
1589997991.3805103,2.1050927827138226,-3.4949072172861775,8.785463913569112,0.10444444444444444,0.5755555555555556,-0.6166666666666667,-0.0625,-0.125,-0.061340216077219775
1589997991.3905103,2.115300803004792,-3.49,8.81,0.10444444444444444,0.5720216868856942,-0.6090099512153003,-0.19502007511980315,-0.125,0.0
1589997991.4005103,2.1137704396802324,-3.49,8.797540879360465,0.10444444444444444,0.5688888888888889,-0.6022222222222222,-0.11782624000726744,-0.125,0.0
1589997991.4105103,2.103910023791786,-3.49,8.741280190334287,0.10444444444444444,0.5688888888888889,-0.6022222222222222,0.03806235130133859,-0.048875297397322826,0.0
1589997991.4205103,2.106373001688015,-3.5091190050640453,8.722746003376031,0.10444444444444444,0.5688888888888889,-0.6022222222222222,0.022668739449905675,0.0,-0.039831260550094325
1589997991.4305103,2.115077466096972,-3.509845067806056,8.760464796581832,0.10444444444444444,0.5688888888888889,-0.6022222222222222,0.06346832621214936,0.03173416310607468,-0.0625
1589997991.4405103,2.12,-3.503702860156793,8.804811440627173,0.09909586866240985,0.571357462326751,-0.6022222222222222,0.07871424804008534,0.0625,-0.016214248040085345
1589997991.4505103,2.1151813487428535,-3.5003626974857074,8.825181348742854,0.09,0.5755555555555556,-0.6022222222222222,0.030116570357164814,-0.027849711071494435,0.0022668592856703723
1589997991.4605103,2.0975928582026806,-3.49620357089866,8.751760720114744,0.09,0.5755555555555556,-0.6022222222222222,0.14004463623324598,-0.08622768188337701,-0.023727681883377018
1589997991.4705102,2.0961158260309576,-3.4938841739690427,8.740579130154787,0.09,0.5755555555555556,-0.6022222222222222,0.07282826191954737,0.052171738080452626,0.07644782538696843
1589997991.4805102,2.104323554788611,-3.4856764452113893,8.772970664365833,0.09,0.5755555555555556,-0.6022222222222222,-0.027022217428817948,0.01691113028472821,0.09797778257118206
1589997991.4905102,2.1078415000715682,-3.4821584999284316,8.796475499785295,0.0943169998568634,0.5755555555555556,-0.60366122217451,-0.008537501789207494,-0.125,0.03551875089460375
1589997991.5005102,2.1,-3.4976824724809483,8.82,0.11,0.5755555555555556,-0.6088888888888889,0.11547682049110923,-0.07698454699407281,-0.014484546994072818
1589997991.5105102,2.104125592952338,-3.5182511859046754,8.774618477524283,0.11,0.5755555555555556,-0.6088888888888889,-0.02578495595211204,0.02578495595211204,0.0625
1589997991.5205102,2.111168598398853,-3.526494204803441,8.712337196797707,0.11,0.5755555555555556,-0.6088888888888889,-0.04789252001433863,0.05519626000716932,0.04789252001433863
1589997991.5305102,2.1118723920327245,-3.504063803983638,8.746255215934552,0.11,0.5755555555555556,-0.6088888888888889,0.011702450204526302,-0.02539877489773685,-0.0625
1589997991.5405102,2.1040959398024768,-3.51,8.79457563881486,0.11273062653498458,0.5755555555555556,-0.6034276358189197,-0.036900376234519514,0.014298871296441445,-0.08809962376548049
1589997991.5505102,2.1043082303107914,-3.4986164606215833,8.807232921243166,0.11666666666666667,0.5755555555555556,-0.5955555555555555,0.0,0.018279318327340796,-0.08942643944244694
1589997991.5605102,2.110896004634891,-3.5008960046348907,8.74096797914299,0.11666666666666667,0.5755555555555556,-0.5955555555555555,0.034050014484034136,0.03965004345210241,-0.0625
1589997991.5705101,2.115420001702997,-3.5145799982970027,8.722899991485013,0.11666666666666667,0.5755555555555556,-0.5955555555555555,0.0625,0.039125031931198914,-0.03387501064373297
1589997991.5805101,2.11,-3.517327691035556,8.763361544822219,0.11666666666666667,0.5755555555555556,-0.5955555555555555,0.012394206916678821,-0.0625,0.016701931027773724
1589997991.5905101,2.11,-3.510527262999173,8.797363685004136,0.11666666666666667,0.5755555555555556,-0.5955555555555555,-0.11511381876550417,-0.0625,0.059204606255168046
1589997991.6005101,2.11,-3.516024543549835,8.81409817419934,0.09777777777777777,0.5544444444444444,-0.6022222222222222,-0.024846602813528882,-0.10015339718647112,-0.01203980844058665
1589997991.61051,2.1153524547930416,-3.504647545206958,8.741827906862625,0.09777777777777777,0.5544444444444444,-0.6022222222222222,-0.0625,0.0044056849130210685,-0.09154715754348947
1589997991.62051,2.105242525343257,-3.5,8.734434107532401,0.09777777777777777,0.5544444444444444,-0.6022222222222222,-0.12398947773643013,0.03175526113178494,-0.0010105222635698671
1589997991.63051,2.105157526254376,-3.5075787631271877,8.777578763127186,0.09777777777777777,0.5544444444444444,-0.6022222222222222,-0.11644909568261376,-0.04736726954492415,0.038816365227537925
1589997991.64051,2.124989265956568,-3.512483898934853,8.800021468086863,0.09777777777777777,0.5597335526014,-0.6005519775410784,0.0,-0.07802436834282883,0.0
1589997991.65051,2.1058653070207614,-3.4962020394688578,8.811393881593427,0.09777777777777777,0.5755555555555556,-0.5955555555555555,0.012920915560120313,0.049579084439879684,0.0
1589997991.66051,2.104889339456713,-3.5051106605432873,8.725110660543288,0.09777777777777777,0.5755555555555556,-0.5955555555555555,0.0625,-0.031019457201485245,0.0
1589997991.67051,2.112216097828071,-3.4977839021719292,8.725567804343859,0.09777777777777777,0.5755555555555556,-0.5955555555555555,0.0625,-0.013850611425442597,-0.0486493885745574
1589997991.68051,2.1,-3.506781823013553,8.753218176986447,0.09777777777777777,0.5755555555555556,-0.5955555555555555,0.042386393834706354,0.012215984586765878,-0.08477278766941271
1589997991.69051,2.1,-3.4908587373296385,8.769141262670361,0.09777777777777777,0.5755555555555556,-0.5955555555555555,-0.05713289168976121,-0.23658222922440303,0.11426578337952242
1589997991.70051,2.1030023148639754,-3.5,8.820993055408074,0.13666666666666666,0.5611111111111111,-0.6088888888888889,0.0,-0.125,-0.018764467899844966
1589997991.71051,2.1131651004821737,-3.5031651004821738,8.771514095660438,0.13666666666666666,0.5611111111111111,-0.6088888888888889,-0.05934563404075599,-0.08543624397282934,-0.04271812198641467
1589997991.72051,2.116012004886945,-3.513987995113055,8.71,0.13666666666666666,0.5611111111111111,-0.6088888888888889,-0.0878001221736282,0.0,-0.02492496945659295
1589997991.73051,2.11,-3.512335771675261,8.727244513730664,0.13666666666666666,0.5611111111111111,-0.6088888888888889,0.0625,-0.02395071351480993,-0.014598572970380141
1589997991.74051,2.1119528212422947,-3.478047178757705,8.805858463726885,0.12755350086929035,0.5598092302829145,-0.6075870080606923,0.0625,-0.11279486723565671,0.13867946894262684
1589997991.75051,2.122586234765461,-3.475172469530922,8.827413765234539,0.09,0.5544444444444444,-0.6022222222222222,0.0625,-0.046336032715869786,-0.030172065431739573
1589997991.76051,2.118745263656457,-3.501254736343543,8.77873263340701,0.09,0.5544444444444444,-0.6022222222222222,0.015605265235238398,-0.0234473673823808,0.0625
1589997991.77051,2.1,-3.5145716623986907,8.723570844003275,0.09,0.5544444444444444,-0.6022222222222222,-0.028572889991816043,-0.0625,0.0625
1589997991.78051,2.102829779259464,-3.502829779259464,8.771319117037855,0.09,0.5544444444444444,-0.6022222222222222,0.027127759256702105,-0.04481387962835105,0.04481387962835105
1589997991.79051,2.11,-3.5078691802342186,8.8,0.09414326065568568,0.555983369830842,-0.6029324954774826,-0.049182376463867465,0.0,0.013317623536132535
1589997991.80051,2.11,-3.4918954584404456,8.8,0.12520327525468913,0.5675199466819004,-0.6082570694087404,0.05065338474721509,0.0,0.11315338474721509
1589997991.81051,2.1,-3.5027982404307005,8.742017595692994,0.1288888888888889,0.5688888888888889,-0.6088888888888889,-0.0625,-0.0625,0.07253299192436478
1589997991.82051,2.1,-3.5177387284578634,8.697085549602523,0.1288888888888889,0.5688888888888889,-0.6088888888888889,-0.03831647356917661,-0.014132947138353225,-0.014132947138353225
1589997991.83051,2.1035521891357853,-3.5264478108642145,8.754208756543141,0.1288888888888889,0.5688888888888889,-0.6088888888888889,-0.022201182098658442,0.04029881790134156,0.0625
1589997991.84051,2.1180920026345893,-3.5119079973654106,8.812368010538357,0.1288888888888889,0.5688888888888889,-0.6088888888888889,-0.11307501646618368,-0.050575016466183675,0.0625
1589997991.85051,2.114768564503953,-3.4965123763359687,8.83,0.10444444444444444,0.5755555555555556,-0.6022222222222222,-0.040702352099805314,-0.12789294370058407,0.08429764790019469
1589997991.8605099,2.090157853521823,-3.48047356056547,8.82810575773812,0.10444444444444444,0.5755555555555556,-0.6022222222222222,0.06348658451139595,-0.4296073239088324,0.1855268309772081
1589997991.8705099,2.1093165875799462,-3.51,8.725527645966578,0.10444444444444444,0.5755555555555556,-0.6022222222222222,0.08618088508355684,0.04309044254177842,0.04309044254177842
1589997991.8805099,2.129009704040214,-3.51,8.761980591919572,0.10444444444444444,0.5755555555555556,-0.6022222222222222,0.003094674874331335,0.0,0.0
1589997991.8905098,2.1085565202139787,-3.51,8.801443479786021,0.10444444444444444,0.5755555555555556,-0.6055903417229384,0.07152174866263264,-0.018043497325265282,0.009021748662632641
1589997991.9005098,2.1,-3.508852633236243,8.805410532944974,0.10444444444444444,0.5755555555555556,-0.6255555555555555,0.1178289577265213,-0.125,0.05532895772652129
1589997991.9105098,2.1,-3.5,8.77,0.10444444444444444,0.5755555555555556,-0.6255555555555555,0.0625,-0.125,0.0
1589997991.9205098,2.111795567083235,-3.5,8.762136288611176,0.10444444444444444,0.5755555555555556,-0.6255555555555555,0.0870740980900731,-0.051277705729780715,0.024574098090073097
1589997991.9305098,2.1242011770809106,-3.5028994114595444,8.761597645838178,0.10444444444444444,0.5755555555555556,-0.6255555555555555,0.0887573567556931,0.04437867837784655,0.0262573567556931
