time,acc_x,acc_y,acc_z,mag_x,mag_y,mag_z,gyr_x,gyr_y,gyr_z
1589998586.205944,-2.59,-3.53,8.77,0.5644444444444444,0.048888888888888885,-0.6022222222222222,0.125,0.0625,0.0625
1589998586.215944,-2.572355762152157,-3.5388221189239215,8.672956691836864,0.5644444444444444,0.048888888888888885,-0.6022222222222222,0.1801382432745094,0.007361756725490609,0.11763824327450939
1589998586.225944,-2.559260533283299,-3.520739466716701,8.742218400150103,0.5644444444444444,0.048888888888888885,-0.6022222222222222,0.06712166697938166,-0.0625,-0.004621666979381658
1589998586.235944,-2.5505163966893907,-3.5294836033106094,8.768450809931828,0.5644444444444444,0.048888888888888885,-0.6022222222222222,0.12177252069130862,-0.0625,-0.05927252069130861
1589998586.245944,-2.5732989083772844,-3.511649454188642,8.76,0.5522222222222222,0.06222222222222223,-0.6177777777777778,-0.01030908867901386,0.08311817735802772,-0.05219091132098614
1589998586.255944,-2.5845460819951227,-3.5181820273317075,8.741820273317074,0.5522222222222222,0.06222222222222223,-0.6177777777777778,-0.028413012469516406,0.13068835411586066,0.034086987530483594
1589998586.265944,-2.5643992092135814,-3.5114664030711937,8.668798418427162,0.5522222222222222,0.06222222222222223,-0.6177777777777778,0.125,-0.07917490402519482,0.1600049424151169
1589998586.275944,-2.588683434376536,-3.52,8.723949696870392,0.5522222222222222,0.06222222222222223,-0.6177777777777778,0.12088573242667541,0.1916142675733246,0.008228535146649188
1589998586.285944,-2.5772292315254792,-3.52,8.758312305423562,0.5522222222222222,0.06222222222222223,-0.6177777777777778,0.08509134851712273,0.22740865148287726,0.07981730296575454
1589998586.295944,-2.563570894281915,-3.52,8.786429105718085,0.5600800180998817,0.05365008126477541,-0.5942043901447991,0.022318089261968085,0.12945426778590427,0.125
1589998586.305944,-2.5608850922465445,-3.5091149077534554,8.75380435427419,0.5644444444444444,0.048888888888888885,-0.5811111111111111,0.05696817345909711,-0.005531826540902889,0.05696817345909711
1589998586.315944,-2.5691789760930175,-3.5008210239069824,8.695747167348875,0.5644444444444444,0.048888888888888885,-0.5811111111111111,0.005131399418639139,-0.05736860058136086,0.005131399418639139
1589998586.325944,-2.5564236959333235,-3.5135763040666763,8.717152608133352,0.5644444444444444,0.048888888888888885,-0.5811111111111111,-0.08485190041672655,0.06477785062508981,0.0
1589998586.335944,-2.557854927692358,-3.52,8.76927463846179,0.5644444444444444,0.048888888888888885,-0.5811111111111111,-0.02681340384552608,0.07590670192276304,0.04909329807723696
1589998586.345944,-2.56,-3.52,8.787657105747375,0.5661460234994167,0.04378415172397205,-0.5972761121333477,0.09571382184219072,0.014643089078904638,0.014643089078904638
1589998586.355944,-2.562913945278023,-3.5114569726390115,8.79960238305384,0.5666666666666667,0.042222222222222223,-0.6022222222222222,0.018212157987643425,-0.05339392100617829,0.11589392100617829
1589998586.365944,-2.579189121254776,-3.52,8.683243514980896,0.5666666666666667,0.042222222222222223,-0.6022222222222222,0.11486401568469737,-0.005067992157651317,0.05236401568469737
1589998586.375944,-2.57,-3.518000259947639,8.720999870026182,0.5666666666666667,0.042222222222222223,-0.6022222222222222,0.0,-0.05625081233637225,-0.05000162467274449
1589998586.385944,-2.57,-3.5024245687654343,8.728787715617283,0.5666666666666667,0.042222222222222223,-0.6022222222222222,0.0,-0.007576777391982467,0.047346445216035066
1589998586.3959439,-2.569891006037795,-3.520108993962205,8.789891006037795,0.5255555555555556,0.054444444444444434,-0.6177777777777778,-0.12363757547243785,0.12431878773621893,0.0006812122637810711
1589998586.4059439,-2.561668823022034,-3.5283311769779657,8.781668823022033,0.5255555555555556,0.054444444444444434,-0.6177777777777778,-0.020860287775425396,0.0729301438877127,0.0520698561122873
1589998586.4159439,-2.57,-3.51,8.672499240600976,0.5255555555555556,0.054444444444444434,-0.6177777777777778,0.0781202537561044,0.0781202537561044,0.0546898731219478
1589998586.4259439,-2.57,-3.5105841294599336,8.694088906219536,0.5255555555555556,0.054444444444444434,-0.6177777777777778,0.17654757262624293,0.16924595437707154,0.0036508091245856895
1589998586.4359438,-2.57,-3.5160358744394618,8.732251121076233,0.5255555555555556,0.054444444444444434,-0.6177777777777778,0.07432735426008968,-0.001121076233183832,0.03772421524663677
1589998586.4459438,-2.57,-3.510797250030153,8.77380412495477,0.535269569412616,0.046264222249025044,-0.6039736528230075,-0.11503437462308527,-0.03872421903268605,0.0625
1589998586.4559438,-2.57,-3.51,8.79420840121839,0.5466666666666666,0.03666666666666667,-0.5877777777777777,0.056467084602488726,-0.056467084602488726,-0.12198354230124436
1589998586.4659438,-2.570302733110046,-3.51,8.681816398660276,0.5466666666666666,0.03666666666666667,-0.5877777777777777,-0.060607918062212024,0.0625,-0.06817624581336393
1589998586.4759438,-2.578064062471087,-3.51,8.72838437482652,0.5466666666666666,0.03666666666666667,-0.5877777777777777,-0.0120996095557077,0.0625,-0.2137011713328769
1589998586.4859438,-2.5874314243897834,-3.5248628487795663,8.769725697559133,0.5466666666666666,0.03666666666666667,-0.5877777777777777,-0.046446402436145603,0.0625,-0.06421439025541759
1589998586.4959438,-2.5775420618846128,-3.5237710309423065,8.786228969057692,0.5501272050320519,0.04427985107051423,-0.6064646849508581,-0.0625,0.0625,0.0
1589998586.5059438,-2.588780844155844,-3.52,8.74304788961039,0.5522222222222222,0.048888888888888885,-0.6177777777777778,-0.12119013798701299,0.0038098620129870114,-0.11738027597402598
1589998586.5159438,-2.5770454072235123,-3.52,8.68818162889405,0.5522222222222222,0.048888888888888885,-0.6177777777777778,-0.08451689757347641,-0.04048310242652359,0.03693240970609435
1589998586.5259438,-2.5627539864153137,-3.5055079728306273,8.696230067923432,0.5522222222222222,0.048888888888888885,-0.6177777777777778,0.028075169808579423,-0.10778758490428972,0.125
1589998586.5359437,-2.5520231683536077,-3.515953663292785,8.757860989878354,0.5522222222222222,0.048888888888888885,-0.6177777777777778,0.012644802210047358,0.02456559336985792,0.025289604420094716
1589998586.5459437,-2.5703831549879186,-3.5196168450120813,8.78961684501208,0.5522222222222222,0.048888888888888885,-0.5811111111111111,-0.0023947186744908526,-0.12021056265101829,0.0
1589998586.5559437,-2.578003197500136,-3.511996802499864,8.781996802499863,0.5522222222222222,0.048888888888888885,-0.5811111111111111,-0.0500199843758516,-0.024960031248296793,0.0
1589998586.5659437,-2.5696575427553934,-3.5196575427553936,8.672397200712245,0.5522222222222222,0.048888888888888885,-0.5811111111111111,-0.056078926663629965,-0.060359642221209986,0.12285964222120999
1589998586.5759437,-2.5609733322290777,-3.5109733322290775,8.733186674396455,0.5522222222222222,0.048888888888888885,-0.5811111111111111,0.10675002070479109,-0.0060833264317362995,0.0685833264317363
1589998586.5859437,-2.567435907675106,-3.5248718153502114,8.747435907675106,0.5522222222222222,0.048888888888888885,-0.5811111111111111,-0.014423268908234171,0.0,0.0625
1589998586.5959437,-2.5637145510702175,-3.5174291021404347,8.756285448929782,0.5571109047231642,0.04469858960236722,-0.6132367389744439,-0.0625,-0.1178521674334219,0.10178405581114064
1589998586.6059437,-2.5602018379778,-3.5197981620222,8.797376106288601,0.56,0.042222222222222223,-0.6322222222222222,0.125,0.061238512638750346,0.05997702527750069
1589998586.6159437,-2.5691037205255003,-3.5108962794744993,8.681651633168496,0.56,0.042222222222222223,-0.6322222222222222,0.125,0.005601746715622816,-0.05129650656875437
1589998586.6259437,-2.57,-3.52382824672349,8.704570616808725,0.56,0.042222222222222223,-0.6322222222222222,0.125,0.043213271010906426,0.023926542021812852
1589998586.6359437,-2.57,-3.522897513507397,8.741307459477808,0.56,0.042222222222222223,-0.6322222222222222,0.125,0.0625,-0.02628108115753444
1589998586.6459436,-2.5600027728354555,-3.52,8.809983362987268,0.56,0.042222222222222223,-0.6022222222222222,-0.1249480093352127,-0.06251733022159577,-1.7330221595766803e-05
1589998586.6559436,-2.5696945259606716,-3.52,8.751832844235969,0.56,0.042222222222222223,-0.6022222222222222,0.05677236176259906,-0.1230907872541997,-0.06059078725419969
1589998586.6659436,-2.5637938673552014,-3.52,8.700350938841611,0.56,0.042222222222222223,-0.6022222222222222,0.023711670970009015,-0.04742334194001803,-0.0625
1589998586.6759436,-2.5662239924341628,-3.5262239924341627,8.701119962170814,0.56,0.042222222222222223,-0.6022222222222222,0.0,0.0,0.015299905427033314
1589998586.6859436,-2.5629659014932025,-3.53,8.755170492533987,0.56,0.042222222222222223,-0.6022222222222222,0.0,-0.13188934700245153,-0.025426231334967686
1589998586.6959436,-2.56,-3.5116694939666484,8.78833050603335,0.56,0.042222222222222223,-0.6022222222222222,0.0,-0.07293433729155331,-0.005217168645776656
1589998586.7059436,-2.553053421633554,-3.5169465783664458,8.796946578366446,0.56,0.042222222222222223,-0.6022222222222222,0.04341611479028698,-0.0625,0.0
1589998586.7159436,-2.558934188591723,-3.52,8.683855548307603,0.56,0.042222222222222223,-0.6022222222222222,-0.1050160360948032,-0.0625,-0.05583867869826774
1589998586.7259436,-2.56,-3.52,8.710185461851527,0.56,0.042222222222222223,-0.6022222222222222,0.0005795682860233742,-0.0625,-0.020640143904658875
1589998586.7359436,-2.56,-3.513721804511278,8.748834586466165,0.56,0.042222222222222223,-0.6022222222222222,0.02326127819548872,0.015977443609022562,-0.07847744360902256
1589998586.7459435,-2.577496825721892,-3.515832275240631,8.76,0.5522236330124923,0.04935055862743759,-0.6061104057159761,0.0,0.09895172025394225,-0.0520965594921155
1589998586.7559435,-2.577949884197896,-3.52,8.747949884197896,0.5466666666666666,0.054444444444444434,-0.6088888888888889,0.0,-0.02562644752629964,0.03765661188157491
1589998586.7659435,-2.57,-3.5140340749994614,8.698238524996231,0.5466666666666666,0.054444444444444434,-0.6088888888888889,0.0,-0.0877129687466345,0.0625
1589998586.7759435,-2.57,-3.528383686398733,8.6975755295981,0.5466666666666666,0.054444444444444434,-0.6088888888888889,0.05744901999604039,-0.0625,0.005050980003959607
1589998586.7859435,-2.5768639155041027,-3.5231360844958974,8.741183493024616,0.5466666666666666,0.054444444444444434,-0.6088888888888889,0.0625,0.02329894380128328,0.04289947190064164
1589998586.7959435,-2.5709764822284797,-3.52,8.77804703554304,0.5516797320952888,0.043415700501475675,-0.6028732103745423,-0.05029397214399879,-0.05029397214399879,0.006103013928000604
1589998586.8059435,-2.5779256486122013,-3.504148702775597,8.772074351387799,0.5522222222222222,0.042222222222222223,-0.6022222222222222,0.03657060765251696,0.03657060765251696,0.14860591147877544
1589998586.8159435,-2.5712908109893737,-3.517418378021252,8.68290810989374,0.5522222222222222,0.042222222222222223,-0.6022222222222222,0.00806756868358751,-0.04636486263282498,0.07863513736717502
1589998586.8259435,-2.5628522640061395,-3.5057045280122794,8.720034151957023,0.5522222222222222,0.042222222222222223,-0.6022222222222222,-0.08934669992325403,-0.15184669992325403,0.017826650038372985
1589998586.8359435,-2.56,-3.5119545253863134,8.751954525386314,0.5522222222222222,0.042222222222222223,-0.6022222222222222,-0.05028421633554084,-0.038068432671081676,-0.07471578366445916
1589998586.8459435,-2.56,-3.5119715687933657,8.784085293619901,0.5584665576051597,0.04757450969331152,-0.6022222222222222,-0.05017769504146218,-0.037855390082924364,-0.024644609917075636
1589998586.8559434,-2.5719246578734505,-3.5040376710632746,8.795962328936724,0.56,0.048888888888888885,-0.6022222222222222,0.04929366756359674,0.04929366756359674,0.0
1589998586.8659434,-2.594514964094475,-3.514514964094475,8.71291021543315,0.56,0.048888888888888885,-0.6022222222222222,-0.011077788385704224,0.03428147440953053,0.09071852559046947
1589998586.8759434,-2.5774225289118906,-3.5143556322279728,8.696933103316082,0.56,0.048888888888888885,-0.6022222222222222,-0.09777729857517092,0.0,0.019168104274487258
1589998586.8859434,-2.5696752925663424,-3.519675292566342,8.729350585132686,0.56,0.048888888888888885,-0.6022222222222222,-0.03429413219053899,0.0,-0.0020294214603593236
1589998586.8959434,-2.5741752543048997,-3.5241752543049,8.7791237284755,0.5483505086098,0.045005725092155516,-0.5938087006626332,0.0625,-0.07280932118875075,-0.04671398178312612
1589998586.9059434,-2.57866969378565,-3.51133030621435,8.75665153107175,0.54,0.042222222222222223,-0.5877777777777777,-0.04587117232062443,-0.07081441383968778,-0.01662882767937557
1589998586.9159434,-2.5734780467091296,-3.51,8.704346326963906,0.54,0.042222222222222223,-0.5877777777777777,0.059786624203821664,-0.02173779193205945,-0.04076220806794055
1589998586.9259434,-2.57,-3.5181095579901775,8.696219115980355,0.54,0.042222222222222223,-0.5877777777777777,0.125,-0.050684737438609746,-0.0625
1589998586.9359434,-2.576872116386367,-3.52,8.734360581931835,0.54,0.042222222222222223,-0.5877777777777777,-0.003852182244381608,0.023401454829587734,0.023401454829587734
1589998586.9459434,-2.58,-3.5282776112520176,8.758277611252018,0.5565552225040351,0.058777444726257275,-0.5942159198626803,-0.0625,0.010764929674890483,0.0625
1589998586.9559433,-2.571355716707478,-3.5127114334149554,8.785932849877566,0.56,0.06222222222222223,-0.5955555555555555,-0.0625,-0.10805354115652666,-0.045553541156526656
1589998586.9659433,-2.5531721155187648,-3.51,8.714274519834442,0.56,0.06222222222222223,-0.5955555555555555,0.09526141701157978,-0.125,0.09526141701157978
1589998586.9759433,-2.558258170703033,-3.518258170703033,8.733032682812132,0.56,0.06222222222222223,-0.5955555555555555,0.07338643310604279,-0.1766135668939572,0.021772866212085587
1589998586.9859433,-2.56,-3.52,8.752536300275882,0.56,0.06222222222222223,-0.5955555555555555,-0.01585187672426311,-0.06997218491360534,-0.07835187672426311
1589998586.9959433,-2.56,-3.52,8.781275092659387,0.5558631764273415,0.055130524669093364,-0.5955555555555555,0.003984664560583065,-0.06648466456058306,-0.058515335439416935
1589998587.0059433,-2.568006370749948,-3.52,8.751961775500313,0.5522222222222222,0.048888888888888885,-0.5955555555555555,0.012460182812824593,0.02511945156152623,0.0
1589998587.0159433,-2.5764511240662493,-3.52,8.688391007470004,0.5522222222222222,0.048888888888888885,-0.5955555555555555,0.08063905082811859,0.1431390508281186,0.040319525414059296
1589998587.0259433,-2.565354555725394,-3.527322722137303,8.689290888549213,0.5522222222222222,0.048888888888888885,-0.5955555555555555,-0.058068053432577926,0.050198959925566555,0.19980104007443344
1589998587.0359433,-2.5534320547361076,-3.53,8.745975616847247,0.5522222222222222,0.048888888888888885,-0.5955555555555555,0.03919863159730971,0.0,0.04475171050336285
1589998587.0459433,-2.5636949765496975,-3.516305023450302,8.77,0.5484180620695284,0.048888888888888885,-0.6107721961663307,-0.003390405153415821,0.12839040515341582,-0.019703198282194724
1589998587.0559433,-2.5547444188409028,-3.5176277905795486,8.777627790579547,0.5466666666666666,0.048888888888888885,-0.6177777777777778,-0.014826308877821548,0.13982630887782155,0.0
1589998587.0659432,-2.561418442218146,-3.525709221109073,8.728617010018343,0.5466666666666666,0.048888888888888885,-0.6177777777777778,0.0,0.125,0.03568263193170594
1589998587.0759432,-2.563752969963474,-3.5175059399269477,8.714988120146105,0.5466666666666666,0.048888888888888885,-0.6177777777777778,-0.039043937728288236,0.04691212454342353,0.0625
1589998587.0859432,-2.57033840473404,-3.52033840473404,8.75067680946808,0.5466666666666666,0.048888888888888885,-0.6177777777777778,0.03442254438162427,0.06461502958774952,0.03019248520612524
1589998587.0959432,-2.575417422209328,-3.5208348444186552,8.783747733372017,0.5466666666666666,0.04583383702844064,-0.6137043752971801,0.06771777761659534,-0.018205555958511643,0.028641111191702328
1589998587.1059432,-2.56404021009887,-3.51595978990113,8.8,0.5466666666666666,0.042222222222222223,-0.6088888888888889,0.03724868688206215,-0.07575393935381355,0.02525131311793785
1589998587.1159432,-2.5530957527604135,-3.5130957527604134,8.724053280364549,0.5466666666666666,0.042222222222222223,-0.6088888888888889,0.019348454752585148,-0.0863030904948297,0.0863030904948297
1589998587.1259432,-2.57297459076472,-3.51,8.720632787686293,0.5466666666666666,0.042222222222222223,-0.6088888888888889,-0.04786373075983386,-0.07713626924016614,0.07713626924016614
1589998587.1359432,-2.58,-3.5160569417666547,8.74211388353331,0.5466666666666666,0.042222222222222223,-0.6088888888888889,-0.024644113958407432,0.013211772083185136,-0.013211772083185136
1589998587.1459432,-2.571176570027893,-3.52,8.772058574930268,0.5491176194366963,0.042222222222222223,-0.6088888888888889,0.027573218662834926,0.007353562674330148,-0.09007321866283492
1589998587.1559432,-2.56,-3.5258890366711,8.758776743302299,0.5522222222222222,0.042222222222222223,-0.6088888888888889,0.02569352080562417,0.0479194375831275,-0.0145805624168725
1589998587.1659431,-2.5720529750033885,-3.523973512498306,8.699867562491528,0.5522222222222222,0.042222222222222223,-0.6088888888888889,-0.11299664065676612,0.049668906228822585,0.024834453114411292
1589998587.1759431,-2.561810127657165,-3.52,8.692126581561888,0.5522222222222222,0.042222222222222223,-0.6088888888888889,-0.1117088652381896,-0.0378955673809052,0.0
1589998587.1859431,-2.5615320540507187,-3.508467945949281,8.728830135126797,0.5522222222222222,0.042222222222222223,-0.6088888888888889,0.009575337816992657,0.045613006725488986,-0.03603766890849633
1589998587.195943,-2.57,-3.5122015596880622,8.786604679064187,0.5569672732120243,0.04967873092048256,-0.6088888888888889,0.02437012597480504,0.08687012597480503,-0.02437012597480504
1589998587.205943,-2.57,-3.52,8.815881020183333,0.56,0.054444444444444434,-0.6088888888888889,0.0,0.0625,0.0367563761458355
1589998587.215943,-2.578870670301475,-3.5244353351507374,8.766775978191149,0.56,0.054444444444444434,-0.6088888888888889,0.0,0.09022084469211032,0.0625
1589998587.225943,-2.5681571753109234,-3.524539293827731,8.721842824689077,0.56,0.054444444444444434,-0.6088888888888889,-0.06825882715336337,0.022611759269954942,-0.005758827153363372
1589998587.235943,-2.55,-3.52,8.751424782616931,0.56,0.054444444444444434,-0.6088888888888889,0.017809782711652483,0.008904891355826242,-0.02679755432208688
1589998587.245943,-2.555947211186054,-3.52,8.777841633558163,0.5481055776278912,0.051140438229969776,-0.6049240814315193,0.16217006991283994,0.0625,0.03717006991283994
1589998587.255943,-2.5736666429266672,-3.506333357073333,8.742166749756665,0.54,0.048888888888888885,-0.6022222222222222,0.10208348170833036,0.019791740854165178,0.14791651829166963
1589998587.265943,-2.58,-3.51448523826404,8.69102952347192,0.54,0.048888888888888885,-0.6022222222222222,-0.02803273915025066,-0.04526636957512533,0.00643452169949868
1589998587.275943,-2.5735844885647583,-3.5135844885647582,8.699246534305725,0.54,0.048888888888888885,-0.6022222222222222,0.05779083941078032,-0.1025969464702601,0.01769389294052022
1589998587.285943,-2.565241660862162,-3.5147583391378374,8.738550034827027,0.54,0.048888888888888885,-0.6022222222222222,0.035781141165544456,-0.035781141165544456,-0.05645847844594072
1589998587.295943,-2.5661056526207604,-3.5138943473792397,8.77305282631038,0.5420352175402535,0.05058490350576681,-0.6042574397624757,-0.04341983556012333,0.04341983556012333,-0.14933967112024665
1589998587.305943,-2.58,-3.508324390617814,8.78,0.5466666666666666,0.054444444444444434,-0.6088888888888889,0.0,0.013006860340334202,-0.0625
1589998587.315943,-2.572732943987258,-3.5290994159808866,8.747298247942659,0.5466666666666666,0.054444444444444434,-0.6088888888888889,-0.022709550039819486,0.03979044996018051,-0.08520955003981949
1589998587.325943,-2.572122519643095,-3.5160612598215475,8.71424503928619,0.5466666666666666,0.054444444444444434,-0.6088888888888889,0.05114862165401518,0.07576574776934346,-0.04923425223065654
1589998587.335943,-2.558172099192155,-3.52,8.751827900807845,0.5466666666666666,0.054444444444444434,-0.6088888888888889,-0.045530475061291736,0.125,0.03410609501225835
1589998587.345943,-2.561801781486075,-3.514549554628481,8.76454955462848,0.549694691873066,0.04475476378396662,-0.6137337292191278,-0.05123886571203068,0.05686943285601534,0.0625
1589998587.355943,-2.58,-3.5047330067360685,8.775800979791793,0.5522222222222222,0.03666666666666667,-0.6177777777777778,0.0625,0.0,0.0625
1589998587.365943,-2.58,-3.5086526883952667,8.7380838696284,0.5522222222222222,0.03666666666666667,-0.6177777777777778,0.08953965123520863,-0.027039651235208635,0.035460348764791365
1589998587.375943,-2.5858642956151323,-3.52,8.687592886845396,0.5522222222222222,0.03666666666666667,-0.6177777777777778,0.05169630481084554,-0.09915184759457724,0.0
1589998587.385943,-2.5799419401797654,-3.525029029910117,8.725145149550587,0.5522222222222222,0.03666666666666667,-0.6177777777777778,0.0,0.0007257477529326317,0.0
1589998587.395943,-2.5621859077917235,-3.5182788616875853,8.769535230520692,0.5448422462477389,0.038837247835632326,-0.6143048479074327,-0.07325711445259103,0.125,0.024419038150863676
1589998587.405943,-2.570077140236995,-3.508030856094798,8.783938287810404,0.5333333333333333,0.042222222222222223,-0.6088888888888889,-0.0369214482225379,0.04971072411126895,0.012307149407512631
1589998587.415943,-2.590730288976097,-3.52,8.73219086692829,0.5333333333333333,0.042222222222222223,-0.6088888888888889,0.148876204067071,-0.023876204067071,-0.0431881020335355
1589998587.425943,-2.5584348583431527,-3.5257825708284236,8.68734771248527,0.5333333333333333,0.042222222222222223,-0.6088888888888889,0.026358932322352577,-0.04592320303294227,-0.03614106767764742
1589998587.435943,-2.5652587136183973,-3.5198275242544015,8.730517427236794,0.5333333333333333,0.042222222222222223,-0.6088888888888889,0.0,-0.06142202659001078,-0.03071101329500539
1589998587.4459429,-2.58,-3.513744813278008,8.774979253112033,0.5404068695251267,0.04471876440756109,-0.6088888888888889,-0.023405082987551867,0.046810165975103735,-0.023405082987551867
1589998587.4559429,-2.5752305998899283,-3.5152305998899283,8.795230599889928,0.5522222222222222,0.048888888888888885,-0.6088888888888889,-0.0625,0.09519124931205283,-0.002882498624105674
1589998587.4659429,-2.57,-3.5193933842239185,8.738336386768447,0.5522222222222222,0.048888888888888885,-0.6088888888888889,0.025562977099236633,0.09185432569974555,0.033145674300254446
1589998587.4759429,-2.57,-3.526265734265734,8.70613986013986,0.5522222222222222,0.048888888888888885,-0.6088888888888889,0.05498251748251748,0.125,-0.02333916083916084
1589998587.4859428,-2.57,-3.52,8.75,0.5522222222222222,0.048888888888888885,-0.6088888888888889,-0.03439161487194848,0.09689161487194847,-0.0625
1589998587.4959428,-2.5609146849096898,-3.524542657545155,8.754542657545155,0.5436416468591514,0.048888888888888885,-0.6088888888888889,-0.028391609657219385,0.0625,-0.03410839034278061
1589998587.5059428,-2.561571942368574,-3.5184280576314255,8.76,0.5333333333333333,0.048888888888888885,-0.6088888888888889,0.08214927960717594,0.13482463980358797,0.0
1589998587.5159428,-2.5656694406812464,-3.5143305593187537,8.729686084768725,0.5333333333333333,0.048888888888888885,-0.6088888888888889,0.13336800851557964,0.1875,-0.054131991484420355
1589998587.5259428,-2.564503186300687,-3.52,8.694503186300686,0.5333333333333333,0.048888888888888885,-0.6088888888888889,0.03435508562070561,0.1593550856207056,-0.06871017124141122
1589998587.5359428,-2.57,-3.52,8.722414264571146,0.5333333333333333,0.048888888888888885,-0.6088888888888889,0.023348192261611105,0.125,0.023348192261611105
1589998587.5459428,-2.57,-3.52,8.757886531820423,0.5333333333333333,0.048888888888888885,-0.6088888888888889,0.06029847064627528,0.125,0.06029847064627528
1589998587.5559428,-2.58,-3.534153302374551,8.791229953561826,0.54,0.054444444444444434,-0.6088888888888889,0.0,-0.007687209761416833,0.10672906992047228
1589998587.5659428,-2.5783364261965516,-3.5183364261965515,8.755027835768963,0.54,0.054444444444444434,-0.6088888888888889,0.03119200881466017,0.1146026637284466,0.05210266372844661
1589998587.5759428,-2.57,-3.513855029697726,8.71084023758181,0.54,0.054444444444444434,-0.6088888888888889,0.13931212877842092,0.0625,0.02409393561078954
1589998587.5859427,-2.57,-3.52,8.762456555056238,0.54,0.054444444444444434,-0.6088888888888889,0.0010861235940462857,0.0625,0.04714653089851157
1589998587.5959427,-2.57,-3.514462112920878,8.77,0.5418459623597073,0.052906142478021695,-0.6030433414164825,-0.11827641151097663,0.045194102877744155,0.0
1589998587.6059427,-2.5668433744162904,-3.5063132511674193,8.77946987675113,0.5466666666666666,0.048888888888888885,-0.5877777777777777,0.0625,-0.019728909898185716,0.0
1589998587.6159427,-2.56,-3.515919280990334,8.746950652874343,0.5466666666666666,0.048888888888888885,-0.5877777777777777,0.0625,-0.036995506189587926,0.0
1589998587.6259427,-2.56,-3.5129722081432675,8.678916624429801,0.5466666666666666,0.048888888888888885,-0.5877777777777777,0.09965260179084305,-0.03715260179084305,-0.018576300895421526
1589998587.6359427,-2.56,-3.52,8.723628723503595,0.5466666666666666,0.048888888888888885,-0.5877777777777777,0.09889228686151834,-0.09546409562050612,-0.03296409562050612
1589998587.6459427,-2.5640509697256384,-3.52,8.766203878902553,0.5466666666666666,0.048888888888888885,-0.5963298249763481,0.050637121570482495,-0.03718143921475875,0.07595568235572375
1589998587.6559427,-2.57,-3.5145376489436266,8.77361294683088,0.5466666666666666,0.048888888888888885,-0.6088888888888889,0.09086030589766697,0.0,0.11922061179533393
1589998587.6659427,-2.57,-3.515319158440166,8.712127574038504,0.5466666666666666,0.048888888888888885,-0.6088888888888889,0.029255259748961454,0.033244740251038546,0.09574474025103855
1589998587.6759427,-2.574468982260366,-3.5110620354792683,8.683406946781098,0.5466666666666666,0.048888888888888885,-0.6088888888888889,0.0,0.03456886087271333,0.09706886087271333
1589998587.6859426,-2.575413202372234,-3.5045867976277663,8.713760392883298,0.5466666666666666,0.048888888888888885,-0.6088888888888889,-0.014333742586768908,0.0,0.09116748517353782
1589998587.6959426,-2.5633673659874496,-3.5166326340125504,8.74989790203765,0.5466666666666666,0.048888888888888885,-0.6088888888888889,-0.05197698128922012,0.0,0.16645396257844025
1589998587.7059426,-2.5690149879598105,-3.5019700240803786,8.773940048160757,0.5522222222222222,0.054444444444444434,-0.5955555555555555,-0.05634367474881674,0.00615632525118326,0.05634367474881674
1589998587.7159426,-2.5603080627750563,-3.519383874449888,8.808767748899776,0.5522222222222222,0.054444444444444434,-0.5955555555555555,-0.0019253923441003087,0.06057460765589969,0.0019253923441003087
1589998587.7259426,-2.57,-3.52,8.713755807610555,0.5522222222222222,0.054444444444444434,-0.5955555555555555,-0.006279038052781072,0.11872096194721893,0.04530524048680473
1589998587.7359426,-2.57,-3.52,8.75100324005891,0.5522222222222222,0.054444444444444434,-0.5955555555555555,-0.16241899852724595,-0.05622974963181149,0.0
1589998587.7459426,-2.567703666398066,-3.517703666398066,8.764592667203868,0.5522222222222222,0.053168703554481146,-0.5970864446235115,0.0625,0.014352085012087026,-0.014352085012087026
1589998587.7559426,-2.5629792370835345,-3.512979237083534,8.771062288749397,0.5522222222222222,0.048888888888888885,-0.6022222222222222,0.07181011588604538,0.05318988411395461,-0.04387976822790922
1589998587.7659426,-2.58,-3.526439737684708,8.698638426108248,0.5522222222222222,0.048888888888888885,-0.6022222222222222,0.08049672105884972,0.0,0.0625
1589998587.7759426,-2.5783229477106477,-3.5216770522893523,8.668385261446762,0.5522222222222222,0.048888888888888885,-0.6022222222222222,0.0,0.0,0.04153684638309401
1589998587.7859426,-2.5737705462394156,-3.5262294537605845,8.717541092478832,0.5522222222222222,0.048888888888888885,-0.6022222222222222,0.02356591399634734,0.02356591399634734,-0.0625
1589998587.7959425,-2.5745907496857012,-3.52,8.743523125785748,0.5543258195666718,0.048888888888888885,-0.6022222222222222,0.0625,-0.005115628928736848,-0.04559609276781579
1589998587.8059425,-2.564566050728796,-3.5154339492712037,8.775433949271203,0.56,0.048888888888888885,-0.6022222222222222,0.03396218294502468,-0.10188654883507402,0.0
1589998587.8159425,-2.5605380910456264,-3.5052690455228133,8.732152364182506,0.56,0.048888888888888885,-0.6022222222222222,0.029568465482417525,0.0,0.029568465482417525
1589998587.8259425,-2.5622164394410816,-3.5040721464803606,8.710360732401803,0.56,0.048888888888888885,-0.6022222222222222,0.0879509155022534,0.0,-0.013852746506760202
1589998587.8359425,-2.5742623368585833,-3.51,8.741912554380473,0.56,0.048888888888888885,-0.6022222222222222,0.11304653512204889,0.0,-0.10109307024409778
1589998587.8459425,-2.551358101097621,-3.51,8.749547299634127,0.56,0.048888888888888885,-0.6022222222222222,0.06532937728671023,0.0,-0.005658754573420452
1589998587.8559425,-2.573694406476711,-3.5126111870465775,8.786305593523288,0.56,0.054444444444444434,-0.5877777777777777,-0.04618008095888971,0.0788199190411103,0.023090040479444855
1589998587.8659425,-2.576225613858056,-3.503774386141944,8.749804910864446,0.56,0.054444444444444434,-0.5877777777777777,-0.07782017322569795,0.023589913387151027,0.0625
1589998587.8759425,-2.5735817209923884,-3.5135817209923883,8.707163441984777,0.56,0.054444444444444434,-0.5877777777777777,0.0,0.10727151240485736,-0.004657268607286033
1589998587.8859425,-2.5727099783319254,-3.5236450108340374,8.73458004333615,0.56,0.054444444444444434,-0.5877777777777777,-0.02278131771273275,0.11915604686180176,-0.10221868228726724
1589998587.8959424,-2.563047235262349,-3.5284763823688254,8.766094470524697,0.5569527647376512,0.05359799020490308,-0.5909943038880349,-0.05297738980515974,-0.009522610194840265,-0.043454779610319474
1589998587.9059424,-2.579568618515987,-3.520431381484013,8.798274474063948,0.54,0.048888888888888885,-0.6088888888888889,0.0,-0.0625,0.06519613427508164
1589998587.9159424,-2.5671570458404074,-3.5271570458404073,8.73725636672326,0.54,0.048888888888888885,-0.6088888888888889,0.03553692699490662,-0.0625,0.08946307300509337
1589998587.9259424,-2.5600359932088286,-3.5200359932088285,8.680287945670628,0.54,0.048888888888888885,-0.6088888888888889,0.12455008488964346,-0.0625,0.00044991511035653853
1589998587.9359424,-2.576806667853117,-3.5136133357062347,8.729159992881296,0.54,0.048888888888888885,-0.6088888888888889,0.04254167408198374,-0.12762502224595124,0.04254167408198374
1589998587.9459424,-2.57,-3.504724988220512,8.772362494110256,0.542887492801424,0.048888888888888885,-0.6088888888888889,-0.014765588189100048,0.029531176378200096,0.0
1589998587.9559424,-2.5738633823497183,-3.5238633823497185,8.783863382349718,0.5522222222222222,0.048888888888888885,-0.6088888888888889,-0.0625,0.07670772062852008,0.0
1589998587.9659424,-2.576565664030744,-3.5196969920922325,8.755656640307441,0.5522222222222222,0.048888888888888885,-0.6088888888888889,-0.04103540019215136,0.0,-0.042929199615697286
1589998587.9759424,-2.5734875923729588,-3.5069751847459174,8.700462777118876,0.5522222222222222,0.048888888888888885,-0.6088888888888889,-0.021797452330991698,0.06539235699297509,-0.1032025476690083
1589998587.9859424,-2.574839381034051,-3.52,8.727740928448924,0.5522222222222222,0.048888888888888885,-0.6088888888888889,-0.0625,0.12299226292563545,-0.01411919719422658
1589998587.9959424,-2.5610879878550192,-3.52,8.752175975710038,0.5508924592883098,0.04949332658612182,-0.6081635636522094,-0.0625,-0.05570007590612942,0.11140015181225885
1589998588.0059423,-2.573698677987962,-3.52,8.762602644024076,0.54,0.054444444444444434,-0.6022222222222222,-0.03938326257523646,0.0,0.0
1589998588.0159423,-2.576202640819763,-3.52,8.719621126558105,0.54,0.054444444444444434,-0.6022222222222222,0.0712004846294433,0.0,0.0
1589998588.0259423,-2.563638974692462,-3.513638974692462,8.682722050615077,0.54,0.054444444444444434,-0.6022222222222222,0.14774359182788707,0.07951281634422587,0.0
1589998588.0359423,-2.559609509261027,-3.5064063395073517,8.722812679014703,0.54,0.054444444444444434,-0.6022222222222222,0.08251981096047356,0.22998018903952644,0.0
1589998588.0459423,-2.578547767203514,-3.52,8.752904465592971,0.5438726207906296,0.054444444444444434,-0.605288047014804,0.11592354502196194,0.1602706350658858,0.009076454978038068
1589998588.0559423,-2.57,-3.5184735140180683,8.77,0.5666666666666667,0.054444444444444434,-0.6233333333333333,0.05295946261292796,0.0,0.043418925225855914
1589998588.0659423,-2.57,-3.5127261779068233,8.74546439883859,0.5666666666666667,0.054444444444444434,-0.6233333333333333,0.0,0.034077223835291014,-0.028422776164708986
1589998588.0759423,-2.57,-3.519645638115349,8.683189256961859,0.5666666666666667,0.054444444444444434,-0.6233333333333333,0.0,0.12057047644186354,0.05807047644186354
1589998588.0859423,-2.572218318065291,-3.51,8.752593893978236,0.5666666666666667,0.054444444444444434,-0.6233333333333333,0.0625,-0.09492367472795396,-0.10878816263602302
1589998588.0959423,-2.550675420130588,-3.50977485995647,8.760450280087058,0.5665165733043137,0.054444444444444434,-0.6228580376858822,0.05968574945588183,-0.18046437363970458,-0.05827862418382274
1589998588.1059422,-2.58,-3.5,8.79013304541655,0.56,0.054444444444444434,-0.6022222222222222,-0.10472102256896071,0.125,0.04055795486207858
1589998588.1159422,-2.573281609770748,-3.503359195114626,8.762971268395235,0.56,0.054444444444444434,-0.6022222222222222,-0.16650503053358695,0.125,-0.0830100610671739
1589998588.1259422,-2.562737722976334,-3.5154754459526685,8.686426337858006,0.56,0.054444444444444434,-0.6022222222222222,-0.07366769419373179,0.09077846279582119,0.03422153720417881
1589998588.1359422,-2.5697938781024434,-3.5297938781024434,8.73,0.56,0.054444444444444434,-0.6022222222222222,0.0625,0.0,0.12242347628054194
1589998588.1459422,-2.561698961670591,-3.521698961670591,8.73,0.56,0.054444444444444434,-0.6022222222222222,0.0625,0.0,0.021237020882386992
1589998588.1559422,-2.55,-3.5179574421229387,8.791829768491755,0.5522222222222222,0.048888888888888885,-0.5955555555555555,0.0611700663418394,-0.01276598673163212,0.07526598673163212
1589998588.1659422,-2.5563604205801274,-3.51,8.737738527969555,0.5522222222222222,0.048888888888888885,-0.5955555555555555,-0.1477473713742041,-0.002871057061306144,0.0852473713742041
1589998588.1759422,-2.5763071512309494,-3.513153575615475,8.693153575615474,0.5522222222222222,0.048888888888888885,-0.5955555555555555,-0.04279015240328253,0.08558030480656506,-0.01970984759671747
1589998588.1859422,-2.585754396904286,-3.522122801547857,8.719105213930712,0.5522222222222222,0.048888888888888885,-0.5955555555555555,0.0,-0.013267509674106405,-0.049232490325893594
1589998588.1959422,-2.5703700918810863,-3.5298149540594568,8.788334586535111,0.5522222222222222,0.048888888888888885,-0.5955555555555555,0.0,-0.06134346287160489,-0.0011565371283951131
1589998588.2059422,-2.5687960896822863,-3.5112039103177133,8.762407820635426,0.54,0.03666666666666667,-0.6088888888888889,0.0,0.007524439485708214,0.0
1589998588.2159421,-2.5536127008584635,-3.528193649570768,8.77832379484922,0.54,0.03666666666666667,-0.6088888888888889,0.011289690182698656,0.09113092945190403,0.0
1589998588.2259421,-2.57,-3.52,8.688577674353008,0.54,0.03666666666666667,-0.6088888888888889,0.04462984509790095,-0.04462984509790095,0.0
1589998588.2359421,-2.57162024323264,-3.52,8.721341702628482,0.54,0.03666666666666667,-0.6088888888888889,-0.03037956061200471,-0.040506080816006276,-0.010126520204001569
1589998588.245942,-2.5774969175587064,-3.52,8.762478422910945,0.54,0.03666666666666667,-0.6088888888888889,-0.1405672042257468,-0.1874229389676624,-0.0468557347419156
1589998588.255942,-2.58,-3.52,8.79862541094566,0.5462084703152195,0.06667427319022755,-0.5892287328906938,-0.12929559079481726,0.09922645523109647,0.05390881841036549
1589998588.265942,-2.58,-3.52,8.755955435664626,0.5466666666666666,0.06888888888888889,-0.5877777777777777,-0.23511141083843234,0.06994429458078383,0.007444294580783821
1589998588.275942,-2.588176141675339,-3.53,8.667295433298644,0.5466666666666666,0.06888888888888889,-0.5877777777777777,0.05110088547086942,0.10220177094173884,0.0625
1589998588.285942,-2.5807778738115816,-3.53,8.696888504753673,0.5466666666666666,0.06888888888888889,-0.5877777777777777,0.004861711322385477,0.009723422644770954,0.0625
1589998588.295942,-2.570927922266267,-3.520927922266267,8.718144155467467,0.5466666666666666,0.06888888888888889,-0.5877777777777777,0.17010145750749298,-0.056700485835831,-0.05090097167166199
1589998588.305942,-2.57,-3.52,8.76307873196762,0.5514531924408467,0.051657396101840544,-0.6059665757196622,0.13365158504047392,0.20674207479763035,-0.17019682991905213
1589998588.315942,-2.5727771643368964,-3.52,8.753516269235286,0.5522222222222222,0.048888888888888885,-0.6088888888888889,0.0625,0.1423572771056032,0.0
1589998588.325942,-2.55,-3.522327594544927,8.688620756359416,0.5522222222222222,0.048888888888888885,-0.6088888888888889,0.0625,-0.014547465905793597,0.0
1589998588.335942,-2.5539140765722608,-3.5280429617138696,8.75195703828613,0.5522222222222222,0.048888888888888885,-0.6088888888888889,0.08696297857662974,-0.03803702142337025,-0.012231489288314874
1589998588.345942,-2.5699885026635494,-3.520005748668225,8.759994251331774,0.5522222222222222,0.048888888888888885,-0.6088888888888889,0.18742814164718508,0.06242814164718506,-0.06246407082359253
1589998588.355942,-2.575475279978148,-3.52,8.803212919967223,0.5466666666666666,0.054444444444444434,-0.6022222222222222,0.03422049986342529,-0.07663975006828735,0.11086024993171265
1589998588.365942,-2.56,-3.518099677303693,8.760996773036931,0.5466666666666666,0.054444444444444434,-0.6022222222222222,-0.0625,-0.1012459662961635,0.0387459662961635
1589998588.375942,-2.56,-3.508377627446243,8.686489490215028,0.5466666666666666,0.054444444444444434,-0.6022222222222222,-0.07263982846098091,0.0,-0.042220343078038174
1589998588.385942,-2.5601003843545107,-3.5000501921772553,8.720150576531767,0.5466666666666666,0.054444444444444434,-0.6022222222222222,-0.12437259778430929,-0.00031370110784535385,0.061558896676463935
1589998588.395942,-2.5727442912050646,-3.506372145602532,8.739116436807597,0.5466666666666666,0.054444444444444434,-0.6022222222222222,-0.04534817996834728,-0.03982591001582636,-0.056977730047479094
1589998588.405942,-2.566831209017903,-3.5165843954910483,8.776337581964192,0.5554458606547312,0.054444444444444434,-0.6066118192162545,-0.08230494363810506,-0.02134752818094747,-0.04269505636189494
1589998588.415942,-2.58088137543142,-3.52,8.783039541522859,0.56,0.054444444444444434,-0.6088888888888889,-0.03799426903574929,0.043502865482125355,0.08700573096425071
1589998588.425942,-2.5603784691532616,-3.51,8.690378469153261,0.56,0.054444444444444434,-0.6088888888888889,-0.12263456779211596,-0.125,0.0023654322078840375
1589998588.435942,-2.567792823051087,-3.51,8.697792823051087,0.56,0.054444444444444434,-0.6088888888888889,-0.07629485593070531,-0.125,0.04870514406929468
1589998588.445942,-2.55141807285917,-3.519290963570415,8.755745781422489,0.56,0.054444444444444434,-0.6088888888888889,-0.004431477684907745,-0.18306852231509224,0.12056852231509226
1589998588.455942,-2.55,-3.504687638629043,8.775312361370956,0.56,0.04508689027330415,-0.592725840775101,-0.04785112928424017,-0.04394661214727949,0.17285112928424018
1589998588.465942,-2.57,-3.528986921725551,8.774428069490533,0.56,0.042222222222222223,-0.5877777777777777,-0.059334130392348236,0.12183413039234824,0.0031658696076517666
1589998588.475942,-2.57,-3.5126125317196952,8.684368924458324,0.56,0.042222222222222223,-0.5877777777777777,-0.008164161624048406,0.0706641616240484,0.054335838375951594
1589998588.485942,-2.56,-3.5116031983129776,8.758396801687022,0.56,0.042222222222222223,-0.5877777777777777,0.042460021087777876,0.08253997891222212,-0.125
1589998588.4959419,-2.56,-3.5189739038748793,8.751026096125122,0.56,0.042222222222222223,-0.5877777777777777,-0.049673798435989805,0.1746737984359898,-0.125
1589998588.5059419,-2.571423506051437,-3.511423506051437,8.75,0.5522222222222222,0.054444444444444434,-0.6233333333333333,0.08941234871406958,0.04470617435703479,-0.0983092615355522
1589998588.5159419,-2.578663313735213,-3.52,8.741979882411277,0.5522222222222222,0.054444444444444434,-0.6233333333333333,-0.1082914216901608,-0.0625,0.0457914216901608
1589998588.5259418,-2.568728764338609,-3.517457528677218,8.692542471322781,0.5522222222222222,0.054444444444444434,-0.6233333333333333,0.0,-0.05455477711630609,-0.04660955423261217
1589998588.5359418,-2.5615577389713193,-3.502336608456979,8.71233660845698,0.5522222222222222,0.054444444444444434,-0.6233333333333333,-0.004867934285373325,0.014603802856119973,0.0625
1589998588.5459418,-2.5726806953339434,-3.519021043000915,8.729021043000916,0.5522222222222222,0.054444444444444434,-0.6233333333333333,-0.039627172918572734,0.11888151875571822,0.0625
1589998588.5559418,-2.5688024045592943,-3.53,8.756796393161059,0.5603093744849541,0.051334001266470614,-0.6115136492570328,-0.0625,0.08252254274338355,0.027507514247794518
1589998588.5659418,-2.5899163026917216,-3.5000209243270697,8.759853529710513,0.5666666666666667,0.048888888888888885,-0.6022222222222222,0.0625,0.0002615540883697308,0.06263077704418486
1589998588.5759418,-2.555833621127476,-3.508541594718131,8.700208836973083,0.5666666666666667,0.048888888888888885,-0.6022222222222222,0.0625,0.10676993397663788,0.11588496698831893
1589998588.5859418,-2.5700376575468797,-3.51,8.736754534276052,0.5666666666666667,0.048888888888888885,-0.6022222222222222,-0.020990239778665848,0.04150976022133415,0.20849023977866585
1589998588.5959418,-2.572171497507857,-3.5178285024921427,8.767828502492142,0.5666666666666667,0.048888888888888885,-0.6022222222222222,0.035356281151782604,-0.1467844217276739,0.10321557827232611
1589998588.6059418,-2.57,-3.5132638022682348,8.783472395463528,0.5569366032763395,0.048888888888888885,-0.6022222222222222,0.10460123582353054,-0.06119629252940839,0.10460123582353054
1589998588.6159418,-2.57,-3.51,8.799752043490164,0.5522222222222222,0.048888888888888885,-0.6022222222222222,0.06404972818647581,0.18285081544057255,-0.17975135906762096
1589998588.6259418,-2.577899829798627,-3.517899829798627,8.697302212617851,0.5522222222222222,0.048888888888888885,-0.6022222222222222,0.11187393624141821,0.03937819127574535,-0.08875212751716358
1589998588.6359417,-2.57,-3.5006246845452402,8.714372791816684,0.5522222222222222,0.048888888888888885,-0.6022222222222222,-0.10938288636898953,0.0625,-0.058595721592247386
1589998588.6459417,-2.57,-3.5076812813351728,8.76376896934621,0.5522222222222222,0.048888888888888885,-0.6022222222222222,0.06703203337931962,0.0625,-0.014491991655170094
1589998588.6559417,-2.5705351912511483,-3.5210703825022964,8.788394426246555,0.5522222222222222,0.054444444444444434,-0.6088888888888889,0.055810109360647495,0.055810109360647495,0.12834494531967625
1589998588.6659417,-2.5778044680150436,-3.535608936030087,8.76658659595487,0.5522222222222222,0.054444444444444434,-0.6088888888888889,-0.03505585018804486,-0.03505585018804486,0.17377792509402243
1589998588.6759417,-2.5615227006965275,-3.5107613503482638,8.672284051044791,0.5522222222222222,0.054444444444444434,-0.6088888888888889,0.05774156032335147,0.0,-0.048224680970054404
1589998588.6859417,-2.58,-3.5190456226460114,8.70668064147792,0.5522222222222222,0.054444444444444434,-0.6088888888888889,0.0,0.005964858462429913,0.11307028307514018
1589998588.6959417,-2.58,-3.5118975066891625,8.756717453175861,0.5522222222222222,0.054444444444444434,-0.6088888888888889,0.0,0.0506405831927331,0.023718833614533794
1589998588.7059417,-2.5731817377063693,-3.5236365245872614,8.797273049174523,0.5438887905300068,0.04611101275222906,-0.6043433806931351,-0.042614139335192314,-0.022728278670384627,0.0
1589998588.7159417,-2.57,-3.53,8.78038249409068,0.54,0.042222222222222223,-0.6022222222222222,0.18431254924432347,-0.12420313731108087,0.0
1589998588.7259417,-2.5692623696549792,-3.509262369654979,8.695163412415145,0.54,0.042222222222222223,-0.6022222222222222,-0.0138305689691371,-0.057889810343620965,0.11577962068724193
1589998588.7359416,-2.56,-3.5008674586716797,8.761301188007518,0.54,0.042222222222222223,-0.6022222222222222,-0.17665676660400395,-0.0027108083489990114,-0.0027108083489990114
1589998588.7459416,-2.56,-3.5171247504796606,8.78568712571949,0.54,0.042222222222222223,-0.6022222222222222,0.02655938099575572,-0.05351484524893893,-0.05351484524893893
1589998588.7559416,-2.569976007482412,-3.52,8.779808059859297,0.5466666666666666,0.06222222222222223,-0.6177777777777778,-0.0625,0.18705014029522996,-0.062350046765076654
1589998588.7659416,-2.5614478874384936,-3.52,8.71158309950795,0.5466666666666666,0.06222222222222223,-0.6177777777777778,-0.0625,0.027147889471757974,-0.009049296490585987
1589998588.7759416,-2.56119560371397,-3.500597801856985,8.69239120742794,0.5466666666666666,0.06222222222222223,-0.6177777777777778,0.0,0.11379121518153094,-0.125
1589998588.7859416,-2.577456046831689,-3.5087280234158444,8.724912093663377,0.5466666666666666,0.06222222222222223,-0.6177777777777778,0.0,-0.03865043904708368,-0.125
1589998588.7959416,-2.564601558079819,-3.494601558079819,8.753097662880272,0.5466666666666666,0.06222222222222223,-0.6177777777777778,0.0,-0.0625,0.019360393001697368
1589998588.8059416,-2.569045650071693,-3.5285684751075395,8.78,0.5522222222222222,0.048888888888888885,-0.6111111111111112,0.0,-0.12201765647404048,0.0
1589998588.8159416,-2.5550595218246688,-3.5075892827370034,8.78,0.5522222222222222,0.048888888888888885,-0.6111111111111112,0.0,-0.07831100570209076,0.0
1589998588.8259416,-2.57,-3.5295543534899876,8.691336939530036,0.5522222222222222,0.048888888888888885,-0.6111111111111112,-0.063892645343788,0.061107354656212004,0.0
1589998588.8359416,-2.5695480346625383,-3.5095480346625383,8.751355896012385,0.5522222222222222,0.048888888888888885,-0.6111111111111112,-0.125,0.0028247833591345042,0.0
1589998588.8459415,-2.5620847346038187,-3.5020847346038186,8.773745796188544,0.5522222222222222,0.048888888888888885,-0.6111111111111112,-0.125,0.04947040872613392,0.0
1589998588.8559415,-2.56,-3.50634860959422,8.79269721918844,0.559981633948491,0.05735370168118215,-0.601235496186769,-0.08532119003612534,0.022821190036125344,0.039678809963874656
1589998588.8659415,-2.56,-3.51,8.80957314933926,0.5644444444444444,0.06222222222222223,-0.5955555555555555,-0.0026678166296339664,0.11966436674073207,0.12233218337036603
1589998588.8759415,-2.588042105263158,-3.51,8.679136842105263,0.5644444444444444,0.06222222222222223,-0.5955555555555555,0.05842105263157895,-0.1086842105263158,-0.05026315789473687
1589998588.8859415,-2.56,-3.52,8.740953570458865,0.5644444444444444,0.06222222222222223,-0.5955555555555555,0.0014899538419766494,0.2410602769481401,-0.0595200923160467
1589998588.8959415,-2.56,-3.52,8.7713222916101,0.5644444444444444,0.06222222222222223,-0.5955555555555555,0.04894108064078197,-0.04364648384469183,0.035382161281563934
1589998588.9059415,-2.56,-3.5389835878588176,8.808475381788227,0.5602258693647073,0.04956649698301051,-0.5955555555555555,0.0625,-0.18432371205880488,0.12182371205880489
1589998588.9159415,-2.5752237003490897,-3.509552599301821,8.779552599301821,0.56,0.048888888888888885,-0.5955555555555555,0.1100740635909048,-0.1875,0.0774259364090952
1589998588.9259415,-2.5602637112146045,-3.510131855607302,8.680263711214604,0.56,0.048888888888888885,-0.5955555555555555,0.0016481950912770934,-0.12087951227180727,-0.05920360981744581
1589998588.9359415,-2.576747823694708,-3.518373911847354,8.696747823694707,0.56,0.048888888888888885,-0.5955555555555555,0.10467389809192557,0.1366847452298139,0.14684779618385113
1589998588.9459414,-2.5657263381028086,-3.52,8.757094647588765,0.56,0.048888888888888885,-0.5955555555555555,0.16960519342872285,0.009079226285108627,0.09828961314255431
1589998588.9559414,-2.5796191527528634,-3.52,8.799619152752864,0.5403808472471368,0.048888888888888885,-0.6020952731398433,0.06488029529460468,-0.12380985235269766,0.0011901476473023392
1589998588.9659414,-2.5662032299461677,-3.5062032299461676,8.793101614973084,0.54,0.048888888888888885,-0.6022222222222222,-0.06684471925467908,0.04745962567290546,0.043114906418226365
1589998588.9759414,-2.5783032632569816,-3.5091516316284905,8.707635315343582,0.54,0.048888888888888885,-0.6022222222222222,-0.010604604643865714,0.010604604643865714,-0.051895395356134286
1589998588.9859414,-2.5732660730609065,-3.51,8.74040356163456,0.54,0.048888888888888885,-0.6022222222222222,0.042087043369333374,0.12626113010800014,0.021674086738666748
1589998588.9959414,-2.57,-3.51,8.754046473727097,0.54,0.048888888888888885,-0.6022222222222222,0.13691907841127146,0.03866184317745708,0.02529046079436427
1589998589.0059414,-2.57,-3.5155508164502707,8.777754082251354,0.554802177200722,0.045188344588708386,-0.5985216779220417,0.15280739718580777,-0.16657780844257666,0.0
1589998589.0159414,-2.562536661128368,-3.52,8.755219966770209,0.5666666666666667,0.042222222222222223,-0.5955555555555555,0.031708264104601605,-0.1567082641046016,0.13993760384309759
1589998589.0259414,-2.5691665572909828,-3.510833442709017,8.675834098963119,0.5666666666666667,0.042222222222222223,-0.5955555555555555,0.05729098306864418,0.046872949205932546,-0.09895491534322093
1589998589.0359414,-2.560924031370713,-3.500924031370713,8.724455811775723,0.5666666666666667,0.042222222222222223,-0.5955555555555555,0.005775196066955403,0.0625,0.045174411799133785
1589998589.0459414,-2.5673506026194115,-3.5220518078582344,8.737350602619411,0.5666666666666667,0.042222222222222223,-0.5955555555555555,0.0,0.1543825327426438,0.1543825327426438
1589998589.0559413,-2.5787045482558857,-3.5212954517441144,8.792227289535314,0.554093430297054,0.052861114534971304,-0.6013585877261459,0.0544034265992851,0.024289720202144705,0.0786931468014298
1589998589.0659413,-2.5566452131938857,-3.535569857870743,8.776645213193886,0.5522222222222222,0.054444444444444434,-0.6022222222222222,0.013844194153928666,-0.09731161169214267,0.0625
1589998589.0759413,-2.577751756440281,-3.502997658079625,8.705245901639344,0.5522222222222222,0.054444444444444434,-0.6022222222222222,0.0,0.048448477751756425,-0.053132318501170964
1589998589.0859413,-2.5607708257104527,-3.5192291742895474,8.767302110013416,0.5522222222222222,0.054444444444444434,-0.6022222222222222,0.060091169654835956,0.002408830345164044,0.05768233930967191
1589998589.0959413,-2.5656451748251747,-3.52,8.764354825174825,0.5522222222222222,0.054444444444444434,-0.6022222222222222,0.02721765734265734,0.03528234265734266,0.168347027972028
1589998589.1059413,-2.57,-3.5155371081650353,8.768925783669928,0.5556933603160836,0.05196506009168628,-0.599742837869464,0.027893073968529303,0.0903930739685293,0.1663207780944121
1589998589.1159413,-2.57,-3.4939844349241387,8.79601556507586,0.56,0.048888888888888885,-0.5966666666666667,0.0625,0.05826847885057901,-0.03759728172413149
1589998589.1259413,-2.555868193891102,-3.5011977091633466,8.704011454183266,0.56,0.048888888888888885,-0.5966666666666667,0.018338105909694556,0.08832378818061089,-0.03667621181938911
1589998589.1359413,-2.5613711360375633,-3.5156855680187817,8.699798976131472,0.56,0.048888888888888885,-0.5966666666666667,0.07106960023477239,0.05393039976522761,0.035534800117386196
1589998589.1459413,-2.564882306268183,-3.52,8.740235387463635,0.56,0.048888888888888885,-0.5966666666666667,0.06102882835228775,0.06397117164771225,0.030514414176143874
1589998589.1559412,-2.554376500289711,-3.52,8.766870499130865,0.5525020003862815,0.0563868885026074,-0.6085384993883877,-0.07029374637861104,0.054706253621388964,0.03514687318930552
1589998589.1659412,-2.5580063144925305,-3.52800631449253,8.77199368550747,0.5466666666666666,0.06222222222222223,-0.6177777777777778,0.025118396734945314,0.0,0.012460534421684898
1589998589.1759412,-2.576870095902354,-3.521564952048823,8.710954664341761,0.5466666666666666,0.06222222222222223,-0.6177777777777778,-0.042938099389712284,-0.05271904969485614,0.05271904969485614
1589998589.1859412,-2.588413664239172,-3.52,8.708413664239172,0.5466666666666666,0.06222222222222223,-0.6177777777777778,0.0952562044844768,-0.009914598505174392,0.009914598505174392
1589998589.1959412,-2.569936569848904,-3.5133121899496342,8.763502480402924,0.5466666666666666,0.06222222222222223,-0.6177777777777778,0.04140237437043208,0.0,0.0
1589998589.2059412,-2.567456541628545,-3.5174565416285453,8.79,0.5367246111619396,0.043166615838162045,-0.5954081528921419,0.04660338517840805,0.0,0.04660338517840805
1589998589.2159412,-2.5532845843903895,-3.5116422921951944,8.806715415609611,0.5333333333333333,0.03666666666666667,-0.5877777777777777,0.010264326219967167,0.10447134756006567,-0.04197134756006567
1589998589.2259412,-2.5668695403121866,-3.5268695403121866,8.70878275812688,0.5333333333333333,0.03666666666666667,-0.5877777777777777,-0.10543462695116712,-0.03315194042675068,-0.00978268652441644
1589998589.2359412,-2.57,-3.53,8.733396943756286,0.5333333333333333,0.03666666666666667,-0.5877777777777777,0.037738539086070305,-0.0625,-0.05424617969535677
1589998589.2459412,-2.57,-3.5231478427109493,8.753704314578101,0.5333333333333333,0.03666666666666667,-0.5877777777777777,0.019674016943434416,-0.10532598305656558,-0.019674016943434416
1589998589.2559412,-2.57520511652937,-3.52,8.77041023305874,0.5431652201110329,0.045920207163325094,-0.5952962794313127,0.09759593492569442,-0.0924680216914352,-0.03253197830856481
1589998589.2659411,-2.5762472269411414,-3.52,8.764988907764565,0.5522222222222222,0.054444444444444434,-0.6022222222222222,0.14059033676426502,-0.015590336764265016,-0.015590336764265016
1589998589.2759411,-2.57,-3.5158916487234695,8.715349892340818,0.5522222222222222,0.054444444444444434,-0.6022222222222222,0.11385439095662873,0.03682280452168563,0.03682280452168563
1589998589.2859411,-2.57,-3.5174994365562315,8.702498309668696,0.5522222222222222,0.054444444444444434,-0.6022222222222222,0.1875,0.04687147847644805,0.0
1589998589.295941,-2.5637420514761544,-3.52,8.747547691143074,0.5522222222222222,0.054444444444444434,-0.6022222222222222,0.07016346517789554,0.02338782172596518,-0.03911217827403482
1589998589.305941,-2.5661897981405475,-3.5076204037189043,8.788569394421643,0.5522222222222222,0.06338526398079124,-0.6022222222222222,0.0773724767568473,0.0773724767568473,0.053558715135270954
1589998589.315941,-2.577461041529334,-3.529844166117337,8.785077916941331,0.5522222222222222,0.06888888888888889,-0.6022222222222222,0.031736980883322344,0.07836849044166116,0.031736980883322344
1589998589.325941,-2.58,-3.5275319764637794,8.717659882318896,0.5522222222222222,0.06888888888888889,-0.6022222222222222,0.0,0.10146257355068969,-0.03896257355068969
1589998589.335941,-2.58,-3.5125205150443657,8.709917939822537,0.5522222222222222,0.06888888888888889,-0.6022222222222222,0.04674678097271332,0.03150643805457336,0.030993561945426643
1589998589.345941,-2.573513600181084,-3.51,8.745945599275663,0.5522222222222222,0.06888888888888889,-0.6022222222222222,-0.05911999660467046,0.0,0.021960001131776513
1589998589.355941,-2.5777466941325007,-3.5254933882650006,8.790986776530003,0.5427540405047216,0.057699219586388156,-0.597918503259722,0.02025051498438435,0.0,-0.04841683832812812
1589998589.365941,-2.5633304887877495,-3.538334755606125,8.8,0.54,0.054444444444444434,-0.5966666666666667,0.0625,0.05209222253828284,-0.010407777461717158
1589998589.375941,-2.5756575938298734,-3.5243424061701267,8.70605443702076,0.54,0.054444444444444434,-0.5966666666666667,0.0625,0.0625,0.14678994215506033
1589998589.385941,-2.5656233705461595,-3.5056233705461595,8.715941573634602,0.54,0.054444444444444434,-0.5966666666666667,-0.027353934086503107,0.10742696704325155,0.14257303295674845
1589998589.395941,-2.56,-3.50583152703482,8.74749458110446,0.54,0.054444444444444434,-0.5966666666666667,-0.026052956032374175,0.05210591206474835,0.05210591206474835
1589998589.405941,-2.5557000860761567,-3.51,8.777199655695373,0.5452554503513638,0.054444444444444434,-0.6057442627281132,0.0,0.053748924048038695,0.0
1589998589.415941,-2.5669974738361603,-3.51,8.78300252616384,0.5522222222222222,0.054444444444444434,-0.6177777777777778,0.07082280765066763,0.1604114038253338,0.0
1589998589.425941,-2.58,-3.51,8.716088311688312,0.5522222222222222,0.054444444444444434,-0.6177777777777778,-0.02475468975468975,0.15006132756132756,0.0
1589998589.435941,-2.58,-3.516754369118494,8.700263107355484,0.5522222222222222,0.054444444444444434,-0.6177777777777778,-0.08278519300941041,-0.04385922796235836,-0.04221480699058959
1589998589.445941,-2.567875795814113,-3.507875795814113,8.764558918836492,0.5522222222222222,0.054444444444444434,-0.6177777777777778,-0.0625,-0.04922372383820671,-0.024611861919103355
1589998589.455941,-2.553505035093073,-3.5,8.8,0.5616038381988946,0.05083613060726273,-0.6177777777777778,-0.0625,-0.08118706133658835,-0.04059353066829417
1589998589.465941,-2.561817635076147,-3.5177264526142205,8.794091182461926,0.5666666666666667,0.048888888888888885,-0.6177777777777778,0.011360219225919094,-0.08806989038704045,-0.0625
1589998589.475941,-2.574377991435049,-3.525622008564951,8.754976068519607,0.5666666666666667,0.048888888888888885,-0.6177777777777778,0.0625,0.019587339407171056,-0.035137553530942986
1589998589.485941,-2.5747120984898686,-3.509424196979737,8.720575803020264,0.5666666666666667,0.048888888888888885,-0.6177777777777778,0.0625,0.058901231123356476,0.03304938443832176
1589998589.495941,-2.57,-3.510387067312083,8.755967668280208,0.5666666666666667,0.048888888888888885,-0.6177777777777778,-0.0024191707005205842,-0.03245958535026029,0.030040414649739708
1589998589.505941,-2.57511871622728,-3.51488128377272,8.785118716227279,0.5564292342121063,0.051732620126266754,-0.6177777777777778,0.0014839528410021396,0.06546790568200428,0.0
1589998589.515941,-2.58,-3.524442604561722,8.746672186314834,0.5466666666666666,0.054444444444444434,-0.6177777777777778,0.10763313925538165,0.14236686074461835,0.0
1589998589.525941,-2.58,-3.5233103550672378,8.69655177533619,0.5466666666666666,0.054444444444444434,-0.6177777777777778,0.041379438340474264,0.041379438340474264,0.08362056165952574
1589998589.535941,-2.56082981511137,-3.52,8.711950308147717,0.5466666666666666,0.054444444444444434,-0.6177777777777778,0.0,0.0,0.005186344446062016
1589998589.5459409,-2.55,-3.52,8.751821333548335,0.5466666666666666,0.054444444444444434,-0.6177777777777778,-0.03409583366927356,0.0,0.03978750100782069
1589998589.5559409,-2.5619107126408545,-3.52,8.787866068961282,0.5585773793075215,0.051135913155318104,-0.608513890168224,-0.025279022997328753,-0.0744419540053425,0.125
1589998589.5659409,-2.549951219512195,-3.5066341463414634,8.8,0.5666666666666667,0.048888888888888885,-0.6022222222222222,0.04176829268292683,-0.08323170731707316,0.08323170731707316
1589998589.5759408,-2.5521246521005456,-3.5181869781508186,8.727252087396726,0.5666666666666667,0.048888888888888885,-0.6022222222222222,-0.08905815125682104,-0.02461046218579474,-0.01327907562841052
1589998589.5859408,-2.56,-3.5169228461559436,8.738847192298252,0.5666666666666667,0.048888888888888885,-0.6022222222222222,-0.06490168271197534,0.04086610576267488,-0.02163389423732512
1589998589.5959408,-2.5654044416525017,-3.5154044416525014,8.775404441652501,0.5666666666666667,0.048888888888888885,-0.6022222222222222,0.03377776032813539,-0.005055520656270782,0.03377776032813539
1589998589.6059408,-2.575701974145706,-3.514298025854294,8.791403948291412,0.5584304817895358,0.048888888888888885,-0.6022222222222222,0.02686266158933761,-0.02686266158933761,0.0625
1589998589.6159408,-2.566125876795343,-3.523874123204657,8.793062938397672,0.5522222222222222,0.048888888888888885,-0.6022222222222222,-0.08671327002910721,-0.043356635014553606,-0.02421327002910721
1589998589.6259408,-2.565620679000425,-3.53,8.739413888996175,0.5522222222222222,0.048888888888888885,-0.6022222222222222,-0.05474151249468927,-0.027370756247344634,-0.0625
1589998589.6359408,-2.57461306388277,-3.52077387223446,8.71383919164831,0.5522222222222222,0.048888888888888885,-0.6022222222222222,0.057663298534623125,-0.057663298534623125,-0.03366835073268844
1589998589.6459408,-2.576817095528056,-3.513182904471944,8.745914522359719,0.5522222222222222,0.048888888888888885,-0.6022222222222222,0.08521369410070058,-0.10510684705035028,0.0
1589998589.6559408,-2.57,-3.52,8.780116765285996,0.552157352618891,0.04881104536489152,-0.6023000657462196,-0.0007297830374753451,-0.0625,0.0007297830374753451
1589998589.6659408,-2.57,-3.5134303218904988,8.773575804726248,0.5466666666666666,0.042222222222222223,-0.6088888888888889,-0.000909267723427018,-0.0625,0.10356048818438199
1589998589.6759408,-2.5648279348697742,-3.5077580976953384,8.727069837174437,0.5466666666666666,0.042222222222222223,-0.6088888888888889,0.10883729646804505,-0.07866270353195495,0.1551745929360901
1589998589.6859407,-2.5583280642757895,-3.53,8.694164032137895,0.5466666666666666,0.042222222222222223,-0.6088888888888889,0.08852520086184329,-0.046924397414470104,0.0625
1589998589.6959407,-2.57,-3.5202380055735483,8.726031985137205,0.5466666666666666,0.042222222222222223,-0.6088888888888889,0.08432502322311768,-0.018849953553764648,0.0625
1589998589.7059407,-2.57,-3.5101860653706667,8.78679071024711,0.5444030965842963,0.04637210070656785,-0.609643412249679,0.0,-0.16627903047777803,0.0625
1589998589.7159407,-2.5742484518039848,-3.525751548196015,8.8,0.54,0.054444444444444434,-0.6111111111111112,0.05310564754981152,-0.125,0.009394352450188478
1589998589.7259407,-2.5709952537951524,-3.52,8.750473895873338,0.54,0.054444444444444434,-0.6111111111111112,0.01244067243940436,-0.06872033621970218,-0.00622033621970218
1589998589.7359407,-2.563987825010318,-3.52,8.709939125051589,0.54,0.054444444444444434,-0.6111111111111112,-0.05022828105654148,0.0,0.012652187371027655
1589998589.7459407,-2.5651444054070147,-3.52,8.74971118918597,0.54,0.054444444444444434,-0.6111111111111112,0.03215253379384267,0.0,-0.0625
1589998589.7559407,-2.56,-3.5095962087769412,8.770403791223059,0.54,0.054444444444444434,-0.6064872039008627,0.0,-0.0650236951441184,0.03503554271617762
1589998589.7659407,-2.573155256338847,-3.513155256338847,8.74053423098346,0.54,0.054444444444444434,-0.6022222222222222,0.041110176058896185,-0.20722035211779238,0.0016694718233114525
1589998589.7759407,-2.5666875688095354,-3.52,8.693375137619071,0.54,0.054444444444444434,-0.6022222222222222,-0.06230404241060743,-0.12519595758939256,0.06230404241060743
1589998589.7859406,-2.5711935012705336,-3.5032097480941995,8.702387002541068,0.54,0.054444444444444434,-0.6022222222222222,-0.05504061705916484,-0.02752030852958242,0.02006092558874728
1589998589.7959406,-2.5768745982723753,-3.4962508034552497,8.729376205182875,0.54,0.054444444444444434,-0.6022222222222222,-0.019533760797654696,0.0,-0.0625
1589998589.8059406,-2.5702991205104486,-3.5094017589791022,8.749102638468653,0.54,0.054444444444444434,-0.6022222222222222,-0.06063049680969477,0.0,-0.0625
1589998589.8159406,-2.568869640537029,-3.52,8.764434820268514,0.56,0.06222222222222223,-0.5966666666666667,0.0070647466435686465,0.027717626678215677,0.027717626678215677
1589998589.8259406,-2.569323753169907,-3.52,8.727295012679628,0.56,0.06222222222222223,-0.5966666666666667,-0.029136728655959426,-0.004226542688081147,0.0625
1589998589.8359406,-2.566978429296026,-3.52,8.707446073240064,0.56,0.06222222222222223,-0.5966666666666667,0.0,-0.08430759155008082,0.040692408449919185
1589998589.8459406,-2.5780186647523333,-3.52,8.743962670495334,0.56,0.06222222222222223,-0.5966666666666667,0.0,-0.125,0.0
1589998589.8559406,-2.57,-3.517030776725763,8.76890766982271,0.5560410356343508,0.05463420718806117,-0.602935026912278,-0.01855764546398085,-0.125,0.0
1589998589.8659406,-2.562922716059368,-3.5135386419703156,8.79707728394063,0.5466666666666666,0.03666666666666667,-0.6177777777777778,-0.08461651231447406,-0.014417438427629714,-0.04423302462894811
1589998589.8759406,-2.5548666479242805,-3.5151333520757193,8.74673357698435,0.5466666666666666,0.03666666666666667,-0.6177777777777778,-0.0641669009464905,0.1875,-0.03375035141973573
1589998589.8859406,-2.5646841105854334,-3.51,8.703420552927167,0.5466666666666666,0.03666666666666667,-0.6177777777777778,0.029275691158958516,0.12894861768208296,0.003948617682082968
1589998589.8959405,-2.57,-3.505349100953008,8.753254495234959,0.5466666666666666,0.03666666666666667,-0.6177777777777778,0.1206362380873987,0.0625,-0.03343188095630065
1589998589.9059405,-2.57,-3.5040907041164724,8.78,0.5466666666666666,0.043939029540395254,-0.6150506417001296,0.13636619854409587,0.01136619854409586,0.02556690072795207
1589998589.9159405,-2.58119720983202,-3.51559860491601,8.752006975419949,0.5466666666666666,0.054444444444444434,-0.6111111111111112,0.09749128072506405,-0.027508719274935943,0.027508719274935943
1589998589.9259405,-2.584408910559778,-3.52,8.690862373918447,0.5466666666666666,0.054444444444444434,-0.6111111111111112,0.0900556909986137,-0.0698886180027726,-0.0698886180027726
1589998589.9359405,-2.5643308066774844,-3.52,8.686115322204193,0.5466666666666666,0.054444444444444434,-0.6111111111111112,0.12778830551048082,-0.1576441527552404,-0.0597116944895192
1589998589.9459405,-2.5581149817489286,-3.52,8.73840243612125,0.5466666666666666,0.054444444444444434,-0.6111111111111112,0.08606272813839073,-0.13678136406919536,0.025359317965402316
1589998589.9559405,-2.572930478146084,-3.52,8.78,0.5466666666666666,0.04923470551807307,-0.6085062416479254,-0.04418451158697566,-0.02586902317395131,0.08081548841302434
1589998589.9659405,-2.571757594936709,-3.5158787974683543,8.784121202531646,0.5466666666666666,0.03666666666666667,-0.6022222222222222,0.05151503164556962,0.03674248417721519,0.20227254746835444
1589998589.9759405,-2.5649892170051034,-3.5199784340102065,8.740107829948967,0.5466666666666666,0.03666666666666667,-0.6022222222222222,0.06263478743620951,0.0,0.18776957487241902
1589998589.9859405,-2.57,-3.5256738784302706,8.707304486278916,0.5466666666666666,0.03666666666666667,-0.6022222222222222,-0.027038259810808277,-0.05407651962161655,0.03546174018919172
1589998589.9959404,-2.57,-3.513106548603678,8.743786902792644,0.5466666666666666,0.03666666666666667,-0.6022222222222222,-0.0625,-0.18962610684051767,0.04308407122701177
1589998590.0059404,-2.5717813058744965,-3.5,8.77,0.5502292784156595,0.03884381829105123,-0.6022222222222222,-0.02910051485319145,-0.2902336765687943,0.1027336765687943
1589998590.0159404,-2.58,-3.5030880136846823,8.765367979472977,0.5666666666666667,0.048888888888888885,-0.6022222222222222,0.1153499572353684,-0.14889982894147355,0.019300085529263225
1589998590.0259404,-2.58,-3.52,8.719568824153564,0.5666666666666667,0.048888888888888885,-0.6022222222222222,0.0625,0.01993505031992541,0.1037175251599627
1589998590.0359404,-2.58,-3.51963492377747,8.68109522866759,0.5666666666666667,0.048888888888888885,-0.6022222222222222,0.0625,-0.0602182736091863,0.0625
1589998590.0459404,-2.57701682166997,-3.51,8.72193271332012,0.5666666666666667,0.048888888888888885,-0.6022222222222222,0.0625,-0.0186448645626874,0.0625
1589998590.0559404,-2.57,-3.5102078025477703,8.750831210191082,0.5663665074309978,0.049004334748761494,-0.6024069355980184,0.061201234076433124,-0.05990246815286624,0.06379876592356688
1589998590.0659404,-2.565777750730282,-3.5115555014605646,8.781555501460565,0.5522222222222222,0.054444444444444434,-0.6111111111111112,0.02638905793573515,0.0097218841285297,0.09861094206426485
1589998590.0759404,-2.564716854049013,-3.5,8.732265167607896,0.5522222222222222,0.054444444444444434,-0.6111111111111112,0.033019662193668725,-0.12146067561266255,0.12146067561266255
1589998590.0859404,-2.5747833518312984,-3.509566703662597,8.713916759156493,0.5522222222222222,0.054444444444444434,-0.6111111111111112,-0.029895948945615983,-0.12770810210876804,0.15760405105438402
1589998590.0959404,-2.58,-3.525893330776851,8.748839996165277,0.5522222222222222,0.054444444444444434,-0.6111111111111112,-0.04408334132234046,-0.0625,0.10658334132234046
1589998590.1059403,-2.58,-3.53929664781261,8.768944971718915,0.5522222222222222,0.054444444444444434,-0.6111111111111112,-0.0021979755855942237,-0.0625,0.06469797558559423
1589998590.1159403,-2.5764174489540097,-3.51358255104599,8.80716510209198,0.5666666666666667,0.048888888888888885,-0.6177777777777778,-0.017718111925123264,0.05782716788768488,0.022390944037438368
1589998590.1259403,-2.5746450772746257,-3.52,8.764259072704489,0.5666666666666667,0.048888888888888885,-0.6177777777777778,0.0625,-0.0625,0.004436534067176097
1589998590.1359403,-2.566321422914168,-3.5154404743047225,8.722797628476386,0.5666666666666667,0.048888888888888885,-0.6177777777777778,0.0625,0.022991106786449722,-0.005505928809033514
1589998590.1459403,-2.55,-3.51,8.75674771005315,0.5666666666666667,0.048888888888888885,-0.6177777777777778,0.04141340608390817,0.019567030419540887,0.0625
1589998590.1559403,-2.552686726714837,-3.508656636642581,8.77,0.5639799399518295,0.04799331331727649,-0.6168822022061654,0.0,-0.17070795803226765,0.0625
1589998590.1659403,-2.5692928833019892,-3.5003535583490053,8.77,0.5473737833646771,0.04245792778822572,-0.6113468166771147,0.0,-0.06691947936256558,0.0625
1589998590.1759403,-2.5524299332057865,-3.5024299332057867,8.745700667942133,0.5466666666666666,0.042222222222222223,-0.6111111111111112,0.09287416507233243,0.125,0.0
1589998590.1859403,-2.5594690027858893,-3.509469002785889,8.675309972141108,0.5466666666666666,0.042222222222222223,-0.6111111111111112,0.1808625348236163,0.125,0.0
1589998590.1959403,-2.556288183713074,-3.504192122475383,8.72676848990153,0.5466666666666666,0.042222222222222223,-0.6111111111111112,-0.0362992345288579,-0.11189961726442896,0.125
1589998590.2059402,-2.5788981528067274,-3.519265435204485,8.78706174081794,0.5466666666666666,0.042222222222222223,-0.6111111111111112,0.05790897002803133,-0.06479551498598433,0.125
1589998590.2159402,-2.5626039537735497,-3.51739604622645,8.80218813867935,0.5466666666666666,0.054444444444444434,-0.6022222222222222,0.10872528891531344,0.04622528891531344,0.0625
1589998590.2259402,-2.570746044497223,-3.510746044497223,8.774031644022212,0.5466666666666666,0.054444444444444434,-0.6022222222222222,0.06716277810764557,0.009325556215291119,0.0625
1589998590.2359402,-2.573298193097764,-3.513298193097764,8.710052710353354,0.5466666666666666,0.054444444444444434,-0.6022222222222222,0.06217056029153381,0.10405685343051127,-0.02127258627795492
1589998590.2459402,-2.562472840371474,-3.507418521114421,8.73741852111442,0.5466666666666666,0.054444444444444434,-0.6022222222222222,-0.01613424303486946,0.0625,-0.14113424303486946
1589998590.2559402,-2.5718784708449025,-3.526243058310194,8.765635412534708,0.5477102615805015,0.05214853563400766,-0.6022222222222222,0.1367404427806426,0.0742404427806426,0.0
1589998590.2659402,-2.58,-3.5125240477106576,8.77737976144671,0.5522222222222222,0.042222222222222223,-0.6022222222222222,0.12439880723355136,0.10922470180838784,-0.01577529819161216
1589998590.2759402,-2.5726377824946933,-3.52,8.706870021226122,0.5522222222222222,0.042222222222222223,-0.6022222222222222,-0.039493070295917095,0.08550692970408291,-0.08550692970408291
1589998590.2859402,-2.567688113665242,-3.52,8.673064340995726,0.5522222222222222,0.042222222222222223,-0.6022222222222222,0.0,0.125,-0.07694928959223749
1589998590.2959402,-2.58,-3.52,8.718161882403159,0.5522222222222222,0.042222222222222223,-0.6022222222222222,0.0340078433464945,0.10799607832675275,0.0
1589998590.3059402,-2.58,-3.5193087934560325,8.742073619631903,0.5522222222222222,0.04245262440354465,-0.6022222222222222,0.1206799591002045,0.0625,0.0021600204498977505
1589998590.3159401,-2.577355408817246,-3.505289182365508,8.802644591182755,0.5522222222222222,0.048888888888888885,-0.6022222222222222,-0.016528694892212082,0.04597130510778792,0.07902869489221208
1589998590.3259401,-2.5712064263694567,-3.518793573630543,8.795522883566516,0.5522222222222222,0.048888888888888885,-0.6022222222222222,-0.047419670381788,0.0,0.094839340763576
1589998590.3359401,-2.5770912407894424,-3.5129087592105575,8.70163503684223,0.5522222222222222,0.048888888888888885,-0.6022222222222222,0.09885949013196862,0.018179745065984316,-0.10682025493401569
1589998590.34594,-2.5662898219497503,-3.5218550890251246,8.739275445125624,0.5522222222222222,0.048888888888888885,-0.6022222222222222,0.1875,0.0625,-0.05090569359297065
1589998590.35594,-2.55333585558318,-3.5283320722084097,8.771660361042048,0.5522222222222222,0.048888888888888885,-0.6022222222222222,0.1875,0.0625,-0.010424548697438113
1589998590.36594,-2.562182257140519,-3.5189088714297405,8.81,0.5333333333333333,0.054444444444444434,-0.6111111111111112,-0.10454133930763565,0.0,-0.0488608928717571
1589998590.37594,-2.5793452819379654,-3.510327359031017,8.81,0.5333333333333333,0.054444444444444434,-0.6111111111111112,0.05636201816842623,0.0,0.05840801211228415
1589998590.38594,-2.5676455227172474,-3.5223544772827524,8.697063431848257,0.5333333333333333,0.054444444444444434,-0.6111111111111112,-0.04778451698279665,0.0625,-0.08085355094838995
1589998590.39594,-2.5602449051610057,-3.529755094838994,8.719265284516984,0.5333333333333333,0.054444444444444434,-0.6111111111111112,-0.0015306572562858375,0.0625,0.05790802823114247
1589998590.40594,-2.56,-3.5020740068321348,8.762765342442846,0.5346391894868997,0.05359947869801909,-0.6115720015182522,-0.05385830486610449,0.0625,0.11635830486610449
1589998590.41594,-2.56,-3.5290945876053423,8.794567525632056,0.5522222222222222,0.042222222222222223,-0.6177777777777778,0.05118234506678025,0.056841172533390126,0.005658827466609876
1589998590.42594,-2.56,-3.52,8.72015107304217,0.5522222222222222,0.042222222222222223,-0.6177777777777778,-0.044777743787650606,0.0,0.0625
1589998590.43594,-2.562916243912338,-3.52,8.681664975649351,0.5522222222222222,0.042222222222222223,-0.6177777777777778,0.0,0.03645304890422078,0.0625
1589998590.44594,-2.567371342835709,-3.517371342835709,8.723143285821456,0.5522222222222222,0.042222222222222223,-0.6177777777777778,0.016429107276819205,0.09214178544636159,0.02964178544636159
1589998590.45594,-2.559197286774547,-3.51,8.764013566127266,0.5533816968812102,0.04275736437252437,-0.6165291127604061,0.0625,0.005016957659082613,-0.05246608468183477
1589998590.46594,-2.5567459372238655,-3.51,8.801005417034846,0.5666666666666667,0.048888888888888885,-0.6022222222222222,0.07655403588305351,0.0625,0.03439192823389296
1589998590.47594,-2.580536684095126,-3.51,8.76624321133412,0.5666666666666667,0.048888888888888885,-0.6022222222222222,0.125,0.06585427559453534,-0.059145724405464666
1589998590.48594,-2.577765959789478,-3.5130585100526304,8.715292550263152,0.5666666666666667,0.048888888888888885,-0.6022222222222222,0.10588431217105987,0.08676862434211975,0.0
1589998590.49594,-2.5528162581412315,-3.52,8.751408129070615,0.5666666666666667,0.048888888888888885,-0.6022222222222222,0.0448983866173013,-0.0176016133826987,0.00880080669134935
1589998590.50594,-2.564151285030943,-3.52,8.757075642515472,0.5666666666666667,0.048888888888888885,-0.6022222222222222,-0.02594553144339648,-0.08844553144339648,0.04422276572169824
1589998590.51594,-2.57,-3.5035239216004546,8.79295215679909,0.5501905882671211,0.043396862755707054,-0.6077142483554041,0.09196323499573916,-0.125,0.011012255001420279
1589998590.52594,-2.55154513064133,-3.5184548693586697,8.73227434679335,0.5466666666666666,0.042222222222222223,-0.6088888888888889,-0.15852880047505938,-0.00965706650831354,0.04318586698337292
1589998590.53594,-2.5621587431136503,-3.511079371556825,8.693238114670475,0.5466666666666666,0.042222222222222223,-0.6088888888888889,0.00674607223015711,-0.042261783309528664,-0.05575392776984289
1589998590.54594,-2.5764221587431138,-3.518211079371557,8.71463323811467,0.5466666666666666,0.042222222222222223,-0.6088888888888889,0.05131924607223015,0.09145773821669048,-0.011180753927769849
1589998590.55594,-2.560229653631988,-3.52,8.769425865920029,0.5466666666666666,0.042222222222222223,-0.6088888888888889,0.0007176675999622448,0.0014353351999244895,0.12356466480007551
1589998590.56594,-2.5765034631948716,-3.5034965368051285,8.794755194792309,0.5631701298615384,0.042222222222222223,-0.6033877344905983,0.10314664496794808,0.0,0.02185335503205192
1589998590.57594,-2.5782019775873435,-3.5217980224126566,8.776625708635466,0.5666666666666667,0.042222222222222223,-0.6022222222222222,0.051262359920896505,-0.0625,0.051262359920896505
1589998590.58594,-2.57,-3.5254432881320295,8.685948491537896,0.5666666666666667,0.042222222222222223,-0.6022222222222222,-0.014239724587406707,-0.04826027541259329,0.028479449174813414
1589998590.5959399,-2.57,-3.5110998861095877,8.743299658328764,0.5666666666666667,0.042222222222222223,-0.6022222222222222,-0.0625,0.0,0.11812571181507572
1589998590.6059399,-2.57,-3.519946007508331,8.769838022524992,0.5666666666666667,0.042222222222222223,-0.6022222222222222,-0.0625,0.0,0.06283745307293205
1589998590.6159399,-2.57,-3.518054555857003,8.798054555857004,0.56,0.054444444444444434,-0.6177777777777778,-0.08852292231880848,0.0625,0.0
1589998590.6259398,-2.57,-3.5103135669859546,8.790313566985954,0.56,0.054444444444444434,-0.6177777777777778,0.05662061901334367,0.0625,0.0
1589998590.6359398,-2.5327591394254876,-3.5155182788509753,8.693795697127438,0.56,0.054444444444444434,-0.6177777777777778,0.02801075718140357,0.0,0.02801075718140357
1589998590.6459398,-2.546192754067343,-3.5269036229663286,8.737740942584178,0.56,0.054444444444444434,-0.6177777777777778,-0.0625,-0.038704712920891685,-0.023795287079108315
1589998590.6559398,-2.568547748804115,-3.5157261255979426,8.765684686005143,0.56,0.054444444444444434,-0.6177777777777778,-0.0625,-0.17842343002571653,0.11592343002571653
1589998590.6659398,-2.58,-3.526152236566781,8.771923881716608,0.5653840788555937,0.04995771206478301,-0.6052149271147258,0.03845147854238225,-0.048097042915235505,0.08654852145761775
1589998590.6759398,-2.572949388515891,-3.53,8.76294938851589,0.5666666666666667,0.048888888888888885,-0.6022222222222222,0.15063264355136277,0.0,0.018433678224318614
1589998590.6859398,-2.560389712783931,-3.52,8.661558851135723,0.5666666666666667,0.048888888888888885,-0.6022222222222222,0.05762859020086353,-0.060064295100431764,-0.002435704899568237
1589998590.6959398,-2.5682633752581188,-3.52,8.693053501032475,0.5666666666666667,0.048888888888888885,-0.6022222222222222,-0.040792190726487695,-0.010853904636756152,-0.05164609536324385
1589998590.7059398,-2.5794693546518364,-3.52,8.775754837214691,0.5666666666666667,0.048888888888888885,-0.6022222222222222,-0.0625,-0.17755039972193257,-0.0033165334260224777
1589998590.7159398,-2.556064090068227,-3.52,8.78,0.5613475755707172,0.053321464802180085,-0.597789646308931,-0.0625,-0.1376335209754739,0.09973295804905218
1589998590.7259398,-2.57,-3.52,8.777966843993566,0.56,0.054444444444444434,-0.5966666666666667,0.0,-0.07190090313002598,0.10619819373994804
1589998590.7359397,-2.5719329183077115,-3.5257987549231355,8.711932918307713,0.56,0.054444444444444434,-0.5966666666666667,0.0,-0.125,-0.012080739423199085
1589998590.7459397,-2.5781264012937846,-3.5462528025875693,8.733115190943508,0.56,0.054444444444444434,-0.5966666666666667,0.0351299757415371,-0.0898700242584629,-0.027370024258462897
1589998590.7559397,-2.5704182747087145,-3.530836549417429,8.787072077038996,0.56,0.054444444444444434,-0.5966666666666667,0.17965734921159995,0.054657349211599954,0.11715734921159995
1589998590.7659397,-2.5753019357068787,-3.5284339785689594,8.789037849982718,0.5522222222222222,0.048888888888888885,-0.6022222222222222,0.01957526788800553,0.0,0.05271236605599723
1589998590.7759397,-2.553554787417905,-3.521184929139302,8.738294503975112,0.5522222222222222,0.048888888888888885,-0.6022222222222222,0.11018838575872796,0.0,0.007405807120636022
1589998590.7859397,-2.568449752661059,-3.5115502473389406,8.684650742016823,0.5522222222222222,0.048888888888888885,-0.6022222222222222,0.10562190826323792,-0.07218904586838104,0.0
1589998590.7959397,-2.560376494138933,-3.5196235058610665,8.7088705175832,0.5522222222222222,0.048888888888888885,-0.6022222222222222,0.004706176736665818,-0.12264691163166709,0.0
1589998590.8059397,-2.5659394866615175,-3.52,8.721878973323035,0.5522222222222222,0.048888888888888885,-0.6022222222222222,0.0,-0.08787820836551602,-0.03712179163448399
1589998590.8159397,-2.57,-3.514443429962718,8.768895990260976,0.5522222222222222,0.05197587224293455,-0.6022222222222222,-0.03472856273301377,-0.13195712546602756,0.0069571254660275444
1589998590.8259397,-2.5602519664044796,-3.520083988801493,8.779328089588054,0.5522222222222222,0.054444444444444434,-0.6022222222222222,-0.06197506999066791,-0.06302493000933208,-0.0005249300093320891
1589998590.8359396,-2.5891823639710307,-3.53,8.701635272057937,0.5522222222222222,0.054444444444444434,-0.6022222222222222,0.015330675543169737,-0.125,-0.0625
1589998590.8459396,-2.581967108771568,-3.53,8.716065782456866,0.5522222222222222,0.054444444444444434,-0.6022222222222222,0.15061671053310624,-0.125,-0.0625
1589998590.8559396,-2.562631863596254,-3.521315931798127,8.754736272807492,0.5522222222222222,0.054444444444444434,-0.6022222222222222,-0.029601705046824744,-0.07072457373829381,0.20887713130853092
1589998590.8659396,-2.5770291202615714,-3.51,8.791980586492285,0.5522222222222222,0.054444444444444434,-0.6177777777777778,0.07487866557678553,0.006189332788392766,0.04393200163482171
1589998590.8759396,-2.551315622764892,-3.51,8.809122918156739,0.5522222222222222,0.054444444444444434,-0.6177777777777778,0.18201823847961582,0.05975911923980791,-0.11677735771942371
1589998590.8859396,-2.55,-3.5001587576349564,8.691905091619475,0.5522222222222222,0.054444444444444434,-0.6177777777777778,0.1875,0.0625,-0.06349223521847722
1589998590.8959396,-2.561042836631954,-3.52,8.75312850989586,0.5522222222222222,0.054444444444444434,-0.6177777777777778,0.10544681315086418,-0.1549113552514403,-0.055982271050288065
1589998590.9059396,-2.5686656489104553,-3.52,8.775996946731366,0.5522222222222222,0.054444444444444434,-0.6177777777777778,-0.03748091707104301,0.08330152845173838,-0.008339694309652333
1589998590.9159396,-2.5710383996079527,-3.52,8.776884801176141,0.5522222222222222,0.054444444444444434,-0.5966666666666667,0.006489997549705966,-0.06898999754970597,0.006489997549705966
1589998590.9259396,-2.578379305516662,-3.52,8.754862083450014,0.5522222222222222,0.054444444444444434,-0.5966666666666667,0.0523706594791375,-0.1148706594791375,0.0523706594791375
1589998590.9359396,-2.551943359892585,-3.52,8.664858399731463,0.5522222222222222,0.054444444444444434,-0.5966666666666667,0.0,0.05642700033567125,0.0
1589998590.9459395,-2.5667634224334397,-3.52,8.7019085560836,0.5522222222222222,0.054444444444444434,-0.5966666666666667,0.0,0.010114304895500241,0.0
1589998590.9559395,-2.5614893561786087,-3.537021287642783,8.752553219106957,0.5522222222222222,0.054444444444444434,-0.5966666666666667,-0.15957457165109035,0.05319152388369678,0.0
1589998590.9659395,-2.5521388713984843,-3.5321388713984843,8.77572225720303,0.5478549285547135,0.054444444444444434,-0.6080216302021891,-0.23663205375947197,0.01336794624052804,0.09826410751894392
1589998590.9759395,-2.58,-3.5,8.777042911030989,0.5466666666666666,0.054444444444444434,-0.6111111111111112,0.014723964737511202,0.1102760352624888,0.0551380176312444
1589998590.9859395,-2.58,-3.5,8.680889481691432,0.5466666666666666,0.054444444444444434,-0.6111111111111112,0.12398922535064502,0.0010107746493549785,0.0005053873246774893
1589998590.9959395,-2.5515586987270154,-3.5292206506364923,8.731558698727016,0.5466666666666666,0.054444444444444434,-0.6111111111111112,0.0,-0.1826290664780764,0.004870933521923621
1589998591.0059395,-2.566390028288543,-3.5218049858557285,8.746390028288543,0.5466666666666666,0.054444444444444434,-0.6111111111111112,0.0,-0.1362811615983027,0.05121883840169731
1589998591.0159395,-2.579695308106371,-3.5103046918936287,8.788171848638225,0.5522222222222222,0.054444444444444434,-0.5822222222222222,-0.05869135132963766,-0.056787026994456494,0.1192870269944565
1589998591.0259395,-2.5712709889933314,-3.5187290110066685,8.73762593395999,0.5522222222222222,0.054444444444444434,-0.5822222222222222,0.04661263758335343,0.10116895637503012,-0.03866895637503012
1589998591.0359395,-2.5508933968422833,-3.5191066031577165,8.701786793684565,0.5522222222222222,0.054444444444444434,-0.5822222222222222,0.10266507894291448,0.23883253947145724,0.0
1589998591.0459394,-2.5594045614572174,-3.51,8.721190877085567,0.5522222222222222,0.054444444444444434,-0.5822222222222222,-0.11755701821521507,0.125,-0.011164472677177408
1589998591.0559394,-2.5535680391856728,-3.51,8.732863921628654,0.5522222222222222,0.054444444444444434,-0.5822222222222222,-0.04460048982090922,0.125,-0.12059926526863617
1589998591.0659394,-2.5560996782159693,-3.5160996782159692,8.770498391079848,0.5569664163901985,0.04698928218048176,-0.6039099669901137,0.03812298884980918,0.01063103345057248,-0.11125402230038164
1589998591.0759394,-2.55289664653385,-3.52,8.7757932930677,0.56,0.042222222222222223,-0.6177777777777778,-0.026291918326872804,0.11508383665374561,0.07068787749030922
1589998591.0859394,-2.560700204100566,-3.52,8.670700204100566,0.56,0.042222222222222223,-0.6177777777777778,-0.05812372437146303,0.0625,-0.11624744874292606
1589998591.0959394,-2.570330634761427,-3.520330634761427,8.683306347614272,0.56,0.042222222222222223,-0.6177777777777778,0.0,0.06043353274108038,-0.004132934517839232
1589998591.1059394,-2.5778429932655107,-3.527842993265511,8.758429932655108,0.56,0.042222222222222223,-0.6177777777777778,0.0,0.013481292090557387,-0.09803741581888523
1589998591.1159394,-2.5663719234275297,-3.5163719234275295,8.786814038286234,0.56,0.05055049123873189,-0.6132350855869544,0.0,0.0,-0.08241226071103008
1589998591.1259394,-2.579640713353632,-3.51,8.796047846889953,0.56,0.054444444444444434,-0.6111111111111112,-0.06025445846020008,0.0,-0.0022455415397999133
1589998591.1359394,-2.570518703784254,-3.51,8.695705741626794,0.56,0.054444444444444434,-0.6111111111111112,-0.003241898651587645,0.0,-0.059258101348412355
1589998591.1459394,-2.57,-3.52,8.72165561843169,0.56,0.054444444444444434,-0.6111111111111112,0.12241309620048504,-0.05732619240097009,0.0625
1589998591.1559393,-2.57,-3.52,8.751795203449205,0.56,0.054444444444444434,-0.6111111111111112,0.07531999461061709,0.03686001077876584,0.0625
1589998591.1659393,-2.550408831268853,-3.5102044156344263,8.799182337462295,0.5404088312688531,0.04900245313023696,-0.6089343145854281,0.001277597715165911,-0.12116720685450227,0.12372240228483408
1589998591.1759393,-2.58,-3.5001281307304843,8.749551542443305,0.54,0.048888888888888885,-0.6088888888888889,0.061699182934472276,0.0,-0.06290040853276387
1589998591.1859393,-2.58,-3.5195998235881247,8.681400617441563,0.54,0.048888888888888885,-0.6088888888888889,-0.05999889742577934,0.0,-0.12374944871288968
1589998591.1959393,-2.5701818746713827,-3.5101818746713827,8.699636250657234,0.54,0.048888888888888885,-0.6088888888888889,0.060226566607714735,-0.12272656660771473,-0.06363671669614263
1589998591.2059393,-2.5755174908559866,-3.5155174908559865,8.727587454279934,0.54,0.048888888888888885,-0.6088888888888889,0.028015682150082398,-0.056031364300164796,-0.028015682150082398
1589998591.2159393,-2.576504078437835,-3.52,8.770975529372992,0.54,0.05083106753453626,-0.6042276601393352,0.043699019527065994,0.065548529290599,0.021849509763532997
1589998591.2259393,-2.57,-3.530868481196759,8.804565759401621,0.54,0.054444444444444434,-0.5955555555555555,0.023107988780386446,0.11957199252025763,0.09646400373987118
1589998591.2359393,-2.583874856686238,-3.5191877149706423,8.730625716568808,0.54,0.054444444444444434,-0.5955555555555555,-0.01914107285550499,0.01914107285550499,0.03828214571100998
1589998591.2459393,-2.5610664065911672,-3.5196445311362776,8.748222655681388,0.54,0.054444444444444434,-0.5955555555555555,0.0,0.06027831960173513,0.0
1589998591.2559392,-2.567898136115906,-3.527898136115906,8.757898136115905,0.54,0.054444444444444434,-0.5955555555555555,0.0,-0.03622670144882563,0.0
1589998591.2659392,-2.57,-3.521509907746056,8.785470276761831,0.5503767794214871,0.04406766502295734,-0.6012156170581848,-0.10612615317429991,0.04362615317429991,0.0
1589998591.2759392,-2.5605538836714574,-3.48221553468583,8.733323302028746,0.5522222222222222,0.042222222222222223,-0.6022222222222222,-0.125,0.0625,0.0
1589998591.2859392,-2.56,-3.518065549472879,8.691934450527121,0.5522222222222222,0.042222222222222223,-0.6022222222222222,-0.0060451578972532255,0.12197742105137338,0.05947742105137339
1589998591.2959392,-2.588876618522894,-3.500748920984737,8.718876618522895,0.5522222222222222,0.042222222222222223,-0.6022222222222222,-0.06015962192269669,0.1851596219226967,0.0625
1589998591.3059392,-2.5710170606758473,-3.512655292882769,8.745310585765537,0.5522222222222222,0.042222222222222223,-0.6022222222222222,-0.022952209741348248,0.06885662922404473,0.022952209741348248
1589998591.3159392,-2.56,-3.5266815932974613,8.793407966487306,0.544055830414214,0.042222222222222223,-0.592571031903667,-0.04175995810913293,0.08351991621826586,0.0
1589998591.3259392,-2.5733599820529034,-3.5233200089735486,8.783280035894194,0.54,0.042222222222222223,-0.5877777777777777,-0.02075005608467767,0.125,-0.04174994391532233
1589998591.3359392,-2.570659824580558,-3.5013196491611165,8.704618772063908,0.54,0.042222222222222223,-0.5877777777777777,0.0,0.00824780725697856,-0.0625
1589998591.3459392,-2.57,-3.5194287097555073,8.7,0.54,0.042222222222222223,-0.5877777777777777,-0.060714717985959815,-0.060714717985959815,-0.12321471798595982
1589998591.3559391,-2.5766049322704,-3.52,8.752839458163198,0.54,0.042222222222222223,-0.5877777777777777,0.020061653379998698,-0.02121917331000065,-0.0424383466200013
1589998591.3659391,-2.56785933252357,-3.513929666261785,8.773929666261784,0.5312317401559116,0.046269111381032256,-0.5965460376218662,0.13837917172768813,0.037939585863844064,0.037939585863844064
1589998591.3759391,-2.56,-3.5151097455489078,8.764890254451092,0.5255555555555556,0.048888888888888885,-0.6022222222222222,0.1555640903193253,0.03056409031932531,0.1263718193613494
1589998591.3859391,-2.5657051479654744,-3.5257051479654744,8.714358816276201,0.5255555555555556,0.048888888888888885,-0.6022222222222222,0.053685650431565965,-0.03565717478421702,0.151842825215783
1589998591.395939,-2.5788230912476724,-3.5211769087523277,8.741761638733706,0.5255555555555556,0.048888888888888885,-0.6022222222222222,0.0,-0.007355679702048416,-0.09557728119180633
1589998591.405939,-2.572898303175914,-3.512898303175914,8.757101696824085,0.5255555555555556,0.048888888888888885,-0.6022222222222222,0.0,0.08877121030107366,-0.036228789698926345
1589998591.415939,-2.5645692622950818,-3.499138524590164,8.776292213114754,0.537020446265938,0.048888888888888885,-0.6106700364298725,-0.10182633196721312,0.09105788934426229,0.0
1589998591.425939,-2.56,-3.496950783710151,8.769147648869547,0.5466666666666666,0.048888888888888885,-0.6177777777777778,-0.013730407246222959,0.10594239818844425,0.0
1589998591.435939,-2.5660909855241996,-3.512181971048399,8.711272115806404,0.5466666666666666,0.048888888888888885,-0.6177777777777778,0.0625,0.04886268094750695,0.03806865952624652
1589998591.445939,-2.57,-3.5118709218175344,8.720645390912328,0.5466666666666666,0.048888888888888885,-0.6177777777777778,0.1133067386404081,0.05080673864040811,0.1133067386404081
1589998591.455939,-2.5629122700087614,-3.5029122700087614,8.772526379947431,0.5466666666666666,0.048888888888888885,-0.6177777777777778,0.03640337510951963,0.10679831244524018,0.03640337510951963
1589998591.465939,-2.577242204683659,-3.5086211023418294,8.807242204683659,0.558161469789106,0.05367839018990525,-0.5919144707522893,-0.053881889636434206,-0.036645668909302626,0.0
1589998591.475939,-2.58,-3.5030916891260104,8.803091689126012,0.56,0.054444444444444434,-0.5877777777777777,0.02385388592486662,-0.0625,0.04317694296243331
1589998591.485939,-2.576814914531,-3.506370170938,8.784074572655001,0.56,0.054444444444444434,-0.5877777777777777,0.04259321581874984,-0.0625,0.0625
1589998591.495939,-2.5714882781742907,-3.5170234436514187,8.757441390871454,0.56,0.054444444444444434,-0.5877777777777777,0.009301738589317016,-0.0625,0.0625
1589998591.505939,-2.57,-3.508678241651215,8.75,0.56,0.054444444444444434,-0.5877777777777777,-0.0707609896799086,-0.0271195051600457,-0.008260989679908598
1589998591.515939,-2.563554189982492,-3.506445810017508,8.769337430052525,0.5642972066783389,0.054444444444444434,-0.6013855989258509,-0.004141062171718918,0.08057262521885405,-0.0625
1589998591.525939,-2.568634214338426,-3.518634214338426,8.736828928307869,0.5666666666666667,0.054444444444444434,-0.6088888888888889,0.0625,0.07103616038483615,-0.0625
1589998591.535939,-2.57,-3.52,8.692537770477175,0.5666666666666667,0.054444444444444434,-0.6088888888888889,-0.0311555738070613,-0.1248111476141226,-0.0625
1589998591.545939,-2.57,-3.52,8.725485954480213,0.5666666666666667,0.054444444444444434,-0.6088888888888889,0.03226240516711093,-0.09273759483288907,-0.015118797416444535
1589998591.555939,-2.5764351045296165,-3.52,8.75930531358885,0.5666666666666667,0.054444444444444434,-0.6088888888888889,-0.017938806620209052,-0.0625,0.040219403310104526
1589998591.565939,-2.5662865000095487,-3.5154288333365162,8.774571166663483,0.5575243333396991,0.057999796293820696,-0.6088888888888889,-0.005360416706453028,0.051779166587093944,0.033930208353226514
1589998591.575939,-2.559848440687846,-3.514924220343923,8.775075779656076,0.5466666666666666,0.06222222222222223,-0.6088888888888889,0.03172362285048091,0.06439449140192363,0.061552754299038184
1589998591.585939,-2.564775236887264,-3.514775236887264,8.71775236887264,0.5466666666666666,0.06222222222222223,-0.6088888888888889,0.0,-0.0625,0.027035691636200856
1589998591.595939,-2.5715945936358153,-3.5042027031820924,8.681594593635815,0.5466666666666666,0.06222222222222223,-0.6088888888888889,0.0,-0.0987331051119231,0.04619931533576928
1589998591.605939,-2.5752060402363846,-3.5143818792908457,8.747527517163382,0.5466666666666666,0.06222222222222223,-0.6088888888888889,-0.029962248522595138,-0.09503775147740487,0.125
1589998591.615939,-2.5767615918218327,-3.5266192040890836,8.796476816356334,0.5553064784390085,0.059592714291509474,-0.606635024948278,-0.0625,-0.0625,0.14612997444322745
1589998591.625939,-2.583072783337212,-3.52,8.783854433325576,0.5722222222222222,0.054444444444444434,-0.6022222222222222,-0.0625,0.06738531242727486,0.05761468757272514
1589998591.635939,-2.56431392151962,-3.5278430392401896,8.7115696075981,0.5722222222222222,0.054444444444444434,-0.6022222222222222,-0.013481004748812801,0.026962009497625603,0.0980379905023744
1589998591.6459389,-2.5675271708430305,-3.514945658313939,8.705054341686061,0.5722222222222222,0.054444444444444434,-0.6022222222222222,0.0,-0.14113445330682153,-0.06317927107576204
1589998591.6559389,-2.5641417367476143,-3.515858263252386,8.756866106019087,0.5722222222222222,0.054444444444444434,-0.6022222222222222,-0.03661414532741188,-0.1875,-0.01515756401776433
1589998591.6659389,-2.5683305255714317,-3.52,8.785834737214284,0.5671313454841251,0.05213040956349123,-0.5962057315317438,0.015598677232170705,-0.13543421517855286,-0.015598677232170705
1589998591.6759388,-2.574729632299928,-3.52,8.764188896899784,0.56,0.048888888888888885,-0.5877777777777777,0.15793979812545061,0.10219899062725307,-0.02618060562364817
1589998591.6859388,-2.552791679638854,-3.508527786425903,8.715583359277709,0.56,0.048888888888888885,-0.5877777777777777,0.15164933258094646,0.034895995485678705,0.02664933258094645
1589998591.6959388,-2.5608616858769615,-3.4930461047076795,8.696953895292319,0.56,0.048888888888888885,-0.5877777777777777,0.038076308845993626,-0.0815381544229968,-0.04346184557700319
1589998591.7059388,-2.57,-3.5077307959587323,8.747282122556618,0.56,0.048888888888888885,-0.5877777777777777,-0.036939158247358383,-0.13637831649471677,-0.025560841752641617
1589998591.7159388,-2.57,-3.5139519108280255,8.792096178343948,0.56,0.048888888888888885,-0.592481847133758,-0.0625,0.0015027866242038057,0.0
1589998591.7259388,-2.57,-3.51,8.8,0.56,0.048888888888888885,-0.5955555555555555,-0.0625,0.07926247584122106,0.13721257247633678
1589998591.7359388,-2.58040891074206,-3.52561336611309,8.7479554462897,0.56,0.048888888888888885,-0.5955555555555555,-0.02997215393106216,0.0625,0.08991646179318649
1589998591.7459388,-2.59,-3.529504449278228,8.715743326082658,0.56,0.048888888888888885,-0.5955555555555555,-0.03279859600553688,0.0625,0.0
1589998591.7559388,-2.576867018708951,-3.5112446791393004,8.74313298129105,0.56,0.048888888888888885,-0.5955555555555555,-0.03513962231031406,0.0625,0.0
1589998591.7659388,-2.558649959579628,-3.501350040420372,8.764050121261116,0.558949968561933,0.048888888888888885,-0.5955555555555555,-0.016875505254648343,0.04562449474535166,0.0
1589998591.7759387,-2.561246967771745,-3.5156234838858724,8.795623483885873,0.5522222222222222,0.048888888888888885,-0.5955555555555555,-0.054706451426591196,-0.0976467742867044,0.0
1589998591.7859387,-2.556829568081811,-3.52,8.714392192531774,0.5522222222222222,0.048888888888888885,-0.5955555555555555,0.0,-0.08384240025566017,0.0
1589998591.7959387,-2.5611136642763754,-3.514443167861812,8.703340992829128,0.5522222222222222,0.048888888888888885,-0.5955555555555555,0.06946040172734835,-0.0625,0.03473020086367418
1589998591.8059387,-2.57,-3.5055599799763355,8.747760080094658,0.5522222222222222,0.048888888888888885,-0.5955555555555555,0.18050025029580413,-0.006999749704195868,0.09025012514790207
1589998591.8159387,-2.57,-3.5169755340809927,8.786975534080993,0.5490786047998161,0.05203250631129497,-0.5993278964624428,0.07317151998965774,0.02713430399793154,0.018902911993794652
1589998591.8259387,-2.57,-3.523277687392422,8.779833062177266,0.5466666666666666,0.054444444444444434,-0.6022222222222222,0.10555781518945556,-0.08402890759472778,0.06354336139209169
1589998591.8359387,-2.5760394994723352,-3.5079210010553292,8.715644504748981,0.5466666666666666,0.054444444444444434,-0.6022222222222222,0.11200625659580885,-0.20049374340419115,0.049506256595808845
1589998591.8459387,-2.5666439851436023,-3.513356014856398,8.693356014856397,0.5466666666666666,0.054444444444444434,-0.6022222222222222,0.0625,-0.08304981429502992,0.0
1589998591.8559387,-2.571133580124132,-3.508866419875868,8.733400740372396,0.5466666666666666,0.054444444444444434,-0.6022222222222222,-0.007084875775825547,-0.034792437887912774,-0.034792437887912774
1589998591.8659387,-2.574370491700003,-3.5112590165999937,8.76,0.5429136611333354,0.051316939833335073,-0.5940907102333378,-0.0625,-0.027315573125019685,0.043053280624940946
1589998591.8759387,-2.57,-3.52,8.786052210233207,0.54,0.048888888888888885,-0.5877777777777777,0.018913156978767845,0.04070657848938392,-0.03782631395753569
1589998591.8859386,-2.57,-3.52,8.716610642088142,0.54,0.048888888888888885,-0.5877777777777777,-0.024363914491518868,0.0625,0.0052958717372783015
1589998591.8959386,-2.563520036136026,-3.52,8.718879783183842,0.54,0.048888888888888885,-0.5877777777777777,0.018499548299670904,0.0625,0.022000225850164548
1589998591.9059386,-2.56,-3.52,8.74,0.54,0.048888888888888885,-0.5877777777777777,0.040167844769780955,0.08483215523021904,0.0
1589998591.9159386,-2.56,-3.52,8.74,0.54,0.048888888888888885,-0.5877777777777777,0.0035474058448815363,0.12145259415511847,0.0
1589998591.9259386,-2.5662569163565765,-3.5262569163565765,8.768770749069729,0.5666666666666667,0.054444444444444434,-0.6088888888888889,0.05481718168581136,-0.0625,0.08589427277139622
1589998591.9359386,-2.56,-3.5153227675246215,8.712582140196972,0.5666666666666667,0.054444444444444434,-0.6088888888888889,-0.033267297028883556,-0.09173270297111644,0.06653459405776711
1589998591.9459386,-2.56,-3.51,8.684110021099341,0.5666666666666667,0.054444444444444434,-0.6088888888888889,-0.022046907967720183,-0.1470469079677202,0.022046907967720183
1589998591.9559386,-2.563297170066555,-3.5132971700665547,8.733080190465884,0.5666666666666667,0.054444444444444434,-0.6088888888888889,0.01992925166387101,-0.1462853741680645,0.04189268708403225
1589998591.9659386,-2.573662428534858,-3.5236624285348577,8.787324857069716,0.5593418095969508,0.05240976192507892,-0.6040056508424116,0.11882946497141393,-0.039609821657137986,-0.022890178342862017
1589998591.9759386,-2.5707629006077535,-3.5253814503038767,8.790762900607753,0.5466666666666666,0.048888888888888885,-0.5955555555555555,0.02886593560077007,0.05773187120154014,-0.0625
1589998591.9859385,-2.56,-3.5105295023088763,8.732647511544382,0.5466666666666666,0.048888888888888885,-0.5955555555555555,0.0625,0.03621408414571575,-0.0625
1589998591.9959385,-2.56414207771963,-3.50414207771963,8.713136621757043,0.5466666666666666,0.048888888888888885,-0.5955555555555555,0.010724028504620862,-0.010724028504620862,-0.010724028504620862
1589998592.0059385,-2.574741363685794,-3.51,8.76,0.5466666666666666,0.048888888888888885,-0.5955555555555555,-0.03286647696378729,0.03286647696378729,0.09213352303621271
1589998592.0159385,-2.566932044068596,-3.505644014689532,8.777423941241873,0.5490866585058155,0.05469686930284619,-0.5984595457625341,0.054449816380849704,0.0,0.0705501836191503
1589998592.0259385,-2.561894329288446,-3.5,8.8,0.5522222222222222,0.06222222222222223,-0.6022222222222222,0.013490662920817784,-0.03716977902639407,0.03716977902639407
1589998592.0359385,-2.5637491169643756,-3.5125017660712485,8.72498940357251,0.5522222222222222,0.06222222222222223,-0.6022222222222222,0.01563603794530226,0.05470405691795337,-0.05470405691795337
1589998592.0459385,-2.5539952996474735,-3.5139952996474735,8.704018801410106,0.5522222222222222,0.06222222222222223,-0.6022222222222222,0.1375587544065805,0.012411868390129255,-0.08747062279670975
1589998592.0559385,-2.560346423319782,-3.5134488077732606,8.730346423319782,0.5522222222222222,0.06222222222222223,-0.6022222222222222,0.10127980566848312,-0.01938990283424156,-0.0625
1589998592.0659385,-2.578486290113312,-3.5194954300377708,8.748486290113313,0.5522222222222222,0.06222222222222223,-0.6022222222222222,-0.049885750944266644,0.05619287547213332,-0.0625
1589998592.0759385,-2.575749423520369,-3.514250576479631,8.768747117601844,0.5666666666666667,0.048888888888888885,-0.5966666666666667,-0.009367794004611837,-0.01719830899308225,0.0
1589998592.0859385,-2.57,-3.52,8.721095679924353,0.5666666666666667,0.048888888888888885,-0.5966666666666667,0.03296199988180368,-0.006847999527214696,-0.05907600023639265
1589998592.0959384,-2.5659212259712327,-3.5159212259712325,8.7,0.5666666666666667,0.048888888888888885,-0.5966666666666667,-0.02549233767979567,0.023030649280817314,-0.04852298696061298
1589998592.1059384,-2.5722714391325776,-3.5018190405782814,8.732723837686873,0.5666666666666667,0.048888888888888885,-0.5966666666666667,-0.03693450180712995,-0.125,0.0625
1589998592.1159384,-2.5843579524758415,-3.501284095048317,8.77717897623792,0.5647859841586138,0.05045612431226624,-0.598233902090044,-0.05289419553898566,-0.08973720297400956,0.0625
1589998592.1259384,-2.5669437502263754,-3.5238875004527506,8.77611249954725,0.56,0.054444444444444434,-0.6022222222222222,-0.11109375565938642,-0.019101561085153394,0.0625
1589998592.1359384,-2.5637418867180437,-3.513741886718044,8.756323019537604,0.56,0.054444444444444434,-0.6022222222222222,0.039113208012225384,-0.015726416024450768,0.039113208012225384
1589998592.1459384,-2.571554015951019,-3.516891968097962,8.703108031902037,0.56,0.054444444444444434,-0.6022222222222222,0.0,0.05278740030613067,0.00971259969386933
1589998592.1559384,-2.58,-3.5,8.741066428298817,0.56,0.054444444444444434,-0.6022222222222222,-0.026333035373521083,0.0,0.08883303537352108
1589998592.1659384,-2.575970240834484,-3.5040297591655163,8.78208927749655,0.5492539755586235,0.04951918324214688,-0.6022222222222222,-0.1128719895689523,0.025185994784476147,0.125
1589998592.1759384,-2.565918711879175,-3.51,8.779593559395876,0.5333333333333333,0.042222222222222223,-0.6022222222222222,-0.1875,0.03699194924484461,0.07398389848968923
1589998592.1859384,-2.5670592682189297,-3.5135296341094646,8.714703658905352,0.5333333333333333,0.042222222222222223,-0.6022222222222222,-0.14337957363169035,-0.06618063955246446,-0.022060213184154822
1589998592.1959383,-2.58,-3.52,8.687387852578585,0.5333333333333333,0.042222222222222223,-0.6022222222222222,-0.0625,-0.12073597753824308,0.03764603369263539
1589998592.2059383,-2.5721716986592074,-3.52,8.739570753351982,0.5333333333333333,0.042222222222222223,-0.6022222222222222,-0.013573116620044373,-0.03803655831002219,0.027146233240088746
1589998592.2159383,-2.566414337713616,-3.52,8.779621506570424,0.5418857836181545,0.04436033479342752,-0.6043603347934275,0.0023655839348510066,-0.020044805355049662,-0.064865583934851
1589998592.2259383,-2.5694898443682406,-3.51474492218412,8.78948984436824,0.56,0.048888888888888885,-0.6088888888888889,-0.02646729095225535,0.003188472698496439,0.02965576365075178
1589998592.2359383,-2.57006132134907,-3.515030660674535,8.73975471460372,0.56,0.048888888888888885,-0.6088888888888889,0.0625,-0.0003832584316855042,0.0
1589998592.2459383,-2.575792574861325,-3.5242074251386746,8.712622275416024,0.56,0.048888888888888885,-0.6088888888888889,0.03620359288328308,-0.0625,0.052592814233433836
1589998592.2559383,-2.566460386116679,-3.5229207722333578,8.744158455533285,0.56,0.048888888888888885,-0.6088888888888889,-0.04424517354151282,-0.01825482645848718,0.05863223968773078
1589998592.2659383,-2.56,-3.51,8.774404683184876,0.5555953168151232,0.048888888888888885,-0.6088888888888889,-0.13876463495274027,0.0625,-0.007441460189038865
1589998592.2759383,-2.561497347856015,-3.510748673928007,8.790748673928007,0.54,0.048888888888888885,-0.6088888888888889,-0.18282078794995343,0.057820787949953434,0.17814157589990687
1589998592.2859383,-2.5736789314265853,-3.52,8.758913054272805,0.54,0.048888888888888885,-0.6088888888888889,-0.125,-0.0395066785838423,0.08225333929192115
1589998592.2959383,-2.5602486187845304,-3.5197513812154697,8.670994475138121,0.54,0.048888888888888885,-0.6088888888888889,-0.11878453038674033,-0.12344613259668508,0.12189226519337017
1589998592.3059382,-2.5641584454409565,-3.51,8.72752466367713,0.54,0.048888888888888885,-0.6088888888888889,0.08849028400597908,-0.0625,-0.018254857997010463
1589998592.3159382,-2.550226208271051,-3.51,8.769321375186845,0.54,0.048888888888888885,-0.6088888888888889,0.0014138016940707654,-0.0625,-0.06179309915296462
1589998592.3259382,-2.56,-3.526999392589593,8.788995748127151,0.5522222222222222,0.03666666666666667,-0.5877777777777777,-0.043746203684956464,0.018753796315043533,0.018753796315043533
1589998592.3359382,-2.56,-3.518432471379393,8.732162356896966,0.5522222222222222,0.03666666666666667,-0.5877777777777777,0.0,0.07229705387879273,0.03310883836362181
1589998592.3459382,-2.5636086287660103,-3.5063913712339896,8.69360862876601,0.5522222222222222,0.03666666666666667,-0.5877777777777777,0.0,0.03478428084973985,-0.10244607021243496
1589998592.3559382,-2.568741543996554,-3.5025169120068913,8.70880919202412,0.5522222222222222,0.03666666666666667,-0.5877777777777777,0.023596050064607667,-0.11713464997846411,-0.0625
1589998592.3659382,-2.56247349001097,-3.5224734900109698,8.774946980021939,0.5522222222222222,0.04106398224172382,-0.5877777777777777,0.12566274972575872,-0.03158137486287936,-0.04704068743143968
1589998592.3759382,-2.5747405133243277,-3.5252594866756723,8.799481026648655,0.5522222222222222,0.054444444444444434,-0.5877777777777777,-0.12175641655409555,0.0625,-0.029628208277047773
1589998592.3859382,-2.5653248981342482,-3.52,8.751299592536993,0.5522222222222222,0.054444444444444434,-0.5877777777777777,-0.12635374222603474,0.03192687111301737,-0.0625
1589998592.3959382,-2.5545717024881833,-3.5154282975118165,8.708286809952734,0.5522222222222222,0.054444444444444434,-0.5877777777777777,-0.09107314055114599,0.02857314055114599,-0.0625
1589998592.4059381,-2.5633723025029704,-3.5133723025029706,8.740116907508911,0.5522222222222222,0.054444444444444434,-0.5877777777777777,-0.06176932806930123,0.04142310935643374,-0.08357689064356626
1589998592.4159381,-2.57,-3.517575108709975,8.7696995651601,0.5557248429744805,0.0563304710033528,-0.5896638043366861,0.04734442943734352,0.030311141125312954,-0.06437771774937409
1589998592.4259381,-2.5739877094031485,-3.5060122905968516,8.788036871790554,0.5666666666666667,0.06222222222222223,-0.5955555555555555,0.0,0.10007681623032241,0.10007681623032241
1589998592.4359381,-2.577763826656858,-3.5044723466862835,8.749874439911723,0.5666666666666667,0.06222222222222223,-0.5955555555555555,0.0,0.04852391660536347,0.04852391660536347
1589998592.445938,-2.5707513542432956,-3.5184972915134085,8.686762188189661,0.5666666666666667,0.06222222222222223,-0.5955555555555555,0.0,0.0046959640205978745,0.0046959640205978745
1589998592.455938,-2.5773472559707535,-3.51,8.725916464175478,0.5666666666666667,0.06222222222222223,-0.5955555555555555,-0.04592034981721066,-0.13776104945163198,0.04592034981721066
1589998592.465938,-2.5726675155180647,-3.5126675155180647,8.778002546554193,0.5648883229879569,0.05688719118609299,-0.599112242912975,0.0,0.050015915963711605,0.016671971987903867
1589998592.475938,-2.58,-3.5232463429709497,8.79675365702905,0.56,0.042222222222222223,-0.6088888888888889,-0.0608689307053087,0.1266310692946913,0.08278964356843624
1589998592.485938,-2.5809634858452215,-3.53,8.781328627393007,0.56,0.042222222222222223,-0.6088888888888889,-0.1814782134673664,0.0,0.1189782134673664
1589998592.495938,-2.5839567102558343,-3.5179134205116687,8.715108224360414,0.56,0.042222222222222223,-0.6088888888888889,-0.10611471954948262,-0.03777056090103474,0.04361471954948263
1589998592.505938,-2.57,-3.490925766981377,8.75,0.56,0.042222222222222223,-0.6088888888888889,-0.06442868121120182,-0.12885736242240364,-0.0038573624224036407
1589998592.515938,-2.57,-3.5160418371624185,8.75,0.56,0.042222222222222223,-0.6088888888888889,-0.11675382742170502,-0.23350765484341005,-0.10850765484341005
1589998592.525938,-2.5621905476369093,-3.52,8.786571642910728,0.54,0.06888888888888889,-0.6177777777777778,0.0,0.04880907726931733,0.0625
1589998592.535938,-2.5663309054029133,-3.52,8.751294486446616,0.54,0.06888888888888889,-0.6177777777777778,-0.022931841231790522,-0.06879552369537156,0.016636317536418956
1589998592.545938,-2.56,-3.516252782523166,8.679977739814671,0.54,0.06888888888888889,-0.6177777777777778,-0.08592010923021173,-0.1172396723093648,-0.03907989076978827
1589998592.555938,-2.563273215797416,-3.5132732157974162,8.743092863189664,0.54,0.06888888888888889,-0.6177777777777778,-0.08408480253229783,0.0,0.04091519746770216
1589998592.565938,-2.566386608130299,-3.5181933040651496,8.775420087804552,0.5436133918697008,0.06407103306262125,-0.6123576899732267,-0.011291849592814773,0.022583699185629545,0.07983260162874091
1589998592.575938,-2.553965591495342,-3.5060344085046578,8.788103225513975,0.56,0.042222222222222223,-0.5877777777777777,0.061424734229435354,0.0010752657705646457,-0.050645159462338774
1589998592.585938,-2.563791294449531,-3.503791294449531,8.73587834995422,0.56,0.042222222222222223,-0.5877777777777777,0.1552176387617233,-0.09271763876172329,-0.008586770928707535
1589998592.595938,-2.5739299039268726,-3.5139299039268725,8.699649519634363,0.56,0.042222222222222223,-0.5877777777777777,0.0,-0.01118569862885925,-0.07587620091409383
1589998592.605938,-2.577705452290654,-3.517705452290654,8.734589095418691,0.56,0.042222222222222223,-0.5877777777777777,0.028681846366821924,-0.09631815363317808,0.014340923183410962
1589998592.615938,-2.5716571733456384,-3.5116571733456383,8.746685653308722,0.56,0.042222222222222223,-0.5877777777777777,0.1042853331795175,-0.020714666820482494,0.05214266658975875
1589998592.625938,-2.56,-3.52,8.79,0.54,0.03666666666666667,-0.5966666666666667,0.1048119763797992,0.0625,0.0625
1589998592.635938,-2.56,-3.52,8.79,0.54,0.03666666666666667,-0.5966666666666667,-0.11872188705792067,0.0625,0.0625
1589998592.645938,-2.5672630876958986,-3.512736912304101,8.704632210736913,0.54,0.03666666666666667,-0.5966666666666667,0.017105701900633544,-0.017105701900633544,0.04539429809936646
1589998592.655938,-2.5602702567522506,-3.5197297432477495,8.767567689229743,0.54,0.03666666666666667,-0.5966666666666667,0.06081089529843281,-0.06081089529843281,0.00168910470156719
1589998592.665938,-2.5714095197774283,-3.537180960445143,8.754228559332285,0.5428190395548567,0.038389413061301295,-0.5954137601978415,-0.008809498608927059,-0.10738100278214588,0.0625
1589998592.675938,-2.58,-3.52,8.766512218817727,0.56,0.048888888888888885,-0.5877777777777777,-0.02035068380539571,-0.021074658097302145,0.02035068380539571
1589998592.685938,-2.583245027507406,-3.516754972492594,8.723774862462971,0.56,0.048888888888888885,-0.5877777777777777,0.0827814219212865,-0.001655734236140495,-0.0827814219212865
1589998592.6959379,-2.59,-3.512471813090568,8.692471813090568,0.56,0.048888888888888885,-0.5877777777777777,0.07865350455184664,0.09410233636789776,-0.07865350455184664
1589998592.7059379,-2.5836411350148367,-3.517880378338279,8.714837351632047,0.56,0.048888888888888885,-0.5877777777777777,-0.04925236461424332,-0.013247635385756676,0.04925236461424332
1589998592.7159379,-2.5603048961424335,-3.5101016320474776,8.769288575667655,0.56,0.048888888888888885,-0.5877777777777777,-0.0006352002967359091,-0.06186479970326409,0.0006352002967359091
1589998592.7259378,-2.576100921658986,-3.513050460829493,8.776949539170506,0.5666666666666667,0.042222222222222223,-0.6022222222222222,0.04343461981566821,-0.03813076036866359,-0.04343461981566821
1589998592.7359378,-2.5816299225650616,-3.522790025811646,8.747679793506832,0.5666666666666667,0.042222222222222223,-0.6022222222222222,-0.017437661322787658,-0.10756233867721235,-0.017437661322787658
1589998592.7459378,-2.5627356447659615,-3.519057420936154,8.70914951336173,0.5666666666666667,0.042222222222222223,-0.6022222222222222,-0.0625,-0.04540222021274064,0.005891119149037435
1589998592.7559378,-2.571567808830598,-3.4931356176611965,8.76,0.5666666666666667,0.042222222222222223,-0.6022222222222222,-0.05270119480876193,0.00979880519123807,0.16790238961752385
1589998592.7659378,-2.577328023072169,-3.5046560461443383,8.76,0.5666666666666667,0.042222222222222223,-0.6022222222222222,-0.016699855798942523,0.04580014420105748,0.09589971159788505
1589998592.7759378,-2.5709176461084855,-3.5190823538915144,8.796329415566058,0.5424470562892955,0.048277124816565015,-0.608277124816565,0.0,0.17602942364392746,-0.05102942364392746
1589998592.7859378,-2.578116877131533,-3.503766245736934,8.761168771315328,0.54,0.048888888888888885,-0.6088888888888889,-0.038960964144160753,0.07792192828832151,0.10146096414416075
1589998592.7959378,-2.57,-3.52,8.683477743271222,0.54,0.048888888888888885,-0.6088888888888889,0.06974529848171153,-0.10326410455486543,0.0
1589998592.8059378,-2.57,-3.52,8.705187370600415,0.54,0.048888888888888885,-0.6088888888888889,0.11497368875086267,0.032421066252588004,0.0
1589998592.8159378,-2.57,-3.5298452862054406,8.769071717232643,0.54,0.048888888888888885,-0.6088888888888889,0.0019339224319922799,0.0009669612159961399,0.0
1589998592.8259377,-2.5535405824162725,-3.5135405824162724,8.802918835167455,0.54,0.05346094932881313,-0.6088888888888889,-0.051435679949147835,-0.051435679949147835,0.051435679949147835
1589998592.8359377,-2.561167571761055,-3.53,8.74299456943367,0.54,0.054444444444444434,-0.6088888888888889,0.007297323506594259,0.04060802948021722,-0.05520267649340574
1589998592.8459377,-2.569730513249765,-3.53,8.691616920501408,0.54,0.054444444444444434,-0.6088888888888889,0.06081570781103263,-0.11994712343309788,-0.0016842921889673734
1589998592.8559377,-2.5536651741767487,-3.52,8.71282810961862,0.54,0.054444444444444434,-0.6088888888888889,0.0625,-0.1645926613953193,-0.01145366930234035
1589998592.8659377,-2.566984217712997,-3.52,8.759444761995491,0.54,0.054444444444444434,-0.6088888888888889,0.0625,-0.08134863929376648,-0.05307568035311676
1589998592.8759377,-2.55,-3.5291036564398426,8.779103656439842,0.54,0.042222222222222223,-0.6022222222222222,-0.0625,-0.011204294501967678,0.06810214725098383
1589998592.8859377,-2.55,-3.5210910098192794,8.77109100981928,0.54,0.042222222222222223,-0.6022222222222222,-0.0625,-0.11136237725900738,0.11818118862950369
1589998592.8959377,-2.57,-3.515858662800698,8.700353342998255,0.54,0.042222222222222223,-0.6022222222222222,0.0625,0.10984992751308449,0.0625
1589998592.9059377,-2.571803991048116,-3.5018039910481162,8.743607982096233,0.54,0.042222222222222223,-0.6022222222222222,0.0625,-0.16495011189854533,0.05122505594927266
1589998592.9159377,-2.5796262588586347,-3.5096262588586344,8.75925251771727,0.54,0.042222222222222223,-0.6022222222222222,0.0625,-0.06717176426706453,0.002335882133532266
1589998592.9259377,-2.5721605229066067,-3.51,8.775678954186786,0.545226318062262,0.05180380533636922,-0.5969959041599602,-0.03549346366741256,-0.0625,-0.04899673183370628
1589998592.9359376,-2.5794377497788217,-3.5194377497788216,8.732811251105892,0.5466666666666666,0.054444444444444434,-0.5955555555555555,-0.12148593611763629,-0.0625,0.11445780835290889
1589998592.9459376,-2.58,-3.511183131417515,8.69473252567006,0.5466666666666666,0.054444444444444434,-0.5955555555555555,0.04031628592159364,-0.17271085728106242,0.014789142718937581
1589998592.9559376,-2.5723821231378268,-3.517617876862173,8.712853630586519,0.5466666666666666,0.054444444444444434,-0.5955555555555555,-0.12794692155432857,0.0029469215543285743,0.0
1589998592.9659376,-2.57,-3.52,8.73821438166025,0.5466666666666666,0.054444444444444434,-0.5955555555555555,0.040179770753111826,0.11941994268827796,0.0
1589998592.9759376,-2.5788068669527897,-3.52,8.79,0.54,0.048888888888888885,-0.6022222222222222,0.10262875536480687,-0.022371244635193133,0.0625
1589998592.9859376,-2.570434175067372,-3.52,8.79,0.54,0.048888888888888885,-0.6022222222222222,-0.054359217486775135,-0.17935921748677514,0.0625
1589998592.9959376,-2.568533506423743,-3.5207332467881285,8.70439948072877,0.54,0.048888888888888885,-0.6022222222222222,0.11125162272259277,-0.018331169703209634,-0.12041720757419759
1589998593.0059376,-2.550112238335304,-3.5298877616646958,8.760112238335305,0.54,0.048888888888888885,-0.6022222222222222,-0.06109702080869692,-0.24719404161739383,-0.06109702080869692
1589998593.0159376,-2.5588139250223025,-3.5211860749776975,8.768813925022302,0.54,0.048888888888888885,-0.6022222222222222,0.047674062778780515,-0.02965187444243897,0.047674062778780515
1589998593.0259376,-2.568898098231689,-3.528898098231689,8.78110190176831,0.54,0.03666666666666667,-0.6088888888888889,0.11122622789611393,-0.020660658155829105,0.0625
1589998593.0359375,-2.5615328287706114,-3.5215328287706114,8.788467171229389,0.54,0.03666666666666667,-0.6088888888888889,0.019160359632640872,-0.15875946055103868,0.0625
1589998593.0459375,-2.568341222772367,-3.52,8.70663510891053,0.54,0.03666666666666667,-0.6088888888888889,0.04176528465458766,0.05213264232729383,0.01036735767270617
1589998593.0559375,-2.560734171246169,-3.52,8.737063315015325,0.54,0.03666666666666667,-0.6088888888888889,-0.05332285942289208,0.004588570288553959,0.05791142971144604
1589998593.0659375,-2.578517885066458,-3.510741057466771,8.767776827599686,0.54,0.03666666666666667,-0.6088888888888889,0.11110517249804536,0.05786839083268178,0.0625
1589998593.0759375,-2.5877885423755953,-3.51,8.793365627126787,0.5495193295701722,0.03666666666666667,-0.5985041657214282,0.02764322030505624,0.01382161015252812,0.0625
1589998593.0859375,-2.560714590544834,-3.52,8.763568685096496,0.5522222222222222,0.03666666666666667,-0.5955555555555555,-0.053567618189577504,0.004466190905211248,0.125
