time,acc_x,acc_y,acc_z,mag_x,mag_y,mag_z,gyr_x,gyr_y,gyr_z
1589997912.8122272,-0.25,-4.36,8.63,0.4066666666666667,0.43666666666666665,-0.6166666666666667,-0.0625,-0.125,0.0
1589997912.8222272,-0.25,-4.36,8.666792105263157,0.4066666666666667,0.43666666666666665,-0.6166666666666667,0.22493832236842104,0.04746299342105262,-0.057487664473684204
1589997912.8322272,-0.24415748512131846,-4.348314970242637,8.693370059514727,0.4066666666666667,0.43666666666666665,-0.6166666666666667,0.10393712803296201,-0.010531435983518994,0.04704715397527849
1589997912.8422272,-0.25112464996594264,-4.351124649965943,8.715562324982972,0.4029584500113525,0.43666666666666665,-0.6284093527418283,-0.06952906228714145,-0.0625,0.09023546885642927
1589997912.8522272,-0.2532375453202632,-4.346475090640526,8.733524909359474,0.4,0.43666666666666665,-0.6377777777777778,-0.08273465825164496,-0.0625,-0.06429602524506511
1589997912.8622272,-0.24933995569707879,-4.34033002215146,8.631320088605843,0.4,0.43666666666666665,-0.6377777777777778,0.004125276893257649,-0.06456263844662882,0.0
1589997912.8722272,-0.23482278831510453,-4.347588605842447,8.66035442336979,0.4,0.43666666666666665,-0.6377777777777778,0.0948575730305967,-0.10992878651529836,0.0
1589997912.8822272,-0.23773067262841213,-4.35,8.700922690513648,0.4,0.43666666666666665,-0.6377777777777778,0.07668329607242416,-0.028366592144848338,0.09663340785515166
1589997912.8922272,-0.2573061329227611,-4.367306132922761,8.744612265845522,0.3951927408547885,0.4260906965472016,-0.6195101930259744,-0.04566333076725686,-0.05408166538362843,0.016836669232743143
1589997912.9022272,-0.2500096779507454,-4.350009677950745,8.749883864591055,0.3944444444444444,0.4244444444444445,-0.6166666666666667,-0.00012097438431760152,-0.00012097438431760152,-0.18731853842352358
1589997912.9122272,-0.25864632237871676,-4.358646322378717,8.6462441314554,0.3944444444444444,0.4244444444444445,-0.6166666666666667,-0.1080790297339593,-0.1080790297339593,-0.02538145539906103
1589997912.9222271,-0.2315887918618854,-4.35894080542541,8.644766375585657,0.3944444444444444,0.4244444444444445,-0.6166666666666667,-0.0033099830455945896,-0.0033099830455945896,0.11507005086321623
1589997912.9322271,-0.25452810238273205,-4.3436479317448455,8.713584307148196,0.3944444444444444,0.4244444444444445,-0.6166666666666667,-0.0511002132973584,-0.0511002132973584,-0.02830063989207518
1589997912.9422271,-0.249565015062823,-4.349782507531411,8.730217492468588,0.3944444444444444,0.4177777777777778,-0.6022222222222222,0.0013593279286781455,-0.06385932792867814,-0.06114067207132185
1589997912.952227,-0.23,-4.340475783069538,8.735242169304625,0.3944444444444444,0.4177777777777778,-0.6022222222222222,0.059526355815390466,-0.11310542326156187,-0.002973644184609535
1589997912.962227,-0.2311485932245099,-4.35,8.64153145763268,0.3944444444444444,0.4177777777777778,-0.6022222222222222,-0.004785805102124518,0.11782129234681323,-0.06010709744893774
1589997912.972227,-0.25695225986383396,-4.35,8.675936346485111,0.3944444444444444,0.4177777777777778,-0.6022222222222222,-0.1123010827659749,-0.04345162414896234,-0.0063494586170125475
1589997912.982227,-0.2498647778493239,-4.339864777849324,8.695202833226015,0.3944444444444444,0.4177777777777778,-0.6022222222222222,-0.09332743077913716,-0.0625,0.0
1589997912.992227,-0.24746544357878864,-4.337465443578789,8.71248848119293,0.39084997161021284,0.41943676523973084,-0.6038812096841752,-0.03139398508838066,-0.0625,0.0
1589997913.002227,-0.2623256408617273,-4.352325640861727,8.704651281723454,0.38,0.4244444444444445,-0.6088888888888889,-0.0813942338426133,-0.0625,-0.047964744614204434
1589997913.012227,-0.26,-4.35,8.641730538347021,0.38,0.4244444444444445,-0.6088888888888889,-0.020947389905393077,0.14560522018921385,-0.0625
1589997913.022227,-0.24635391460463663,-4.356823042697682,8.650469128093045,0.38,0.4244444444444445,-0.6088888888888889,-0.0426440168605105,0.016923932557957988,0.022788033721021006
1589997913.032227,-0.24,-4.352952629410957,8.7093315941233,0.38,0.4244444444444445,-0.6088888888888889,0.0255921323630372,-0.1065460661815186,0.0184539338184814
1589997913.042227,-0.2341143504104161,-4.35,8.724114350410417,0.3839237663930559,0.42836821083750043,-0.6173903827405101,0.02571469006510048,-0.014644070195301437,0.0
1589997913.052227,-0.24390094909404658,-4.35,8.726950474547024,0.38666666666666666,0.4311111111111111,-0.6233333333333333,0.0,0.10594046591889561,0.0434404659188956
1589997913.062227,-0.2574220956821952,-4.342577904317805,8.648356947495852,0.38666666666666666,0.4311111111111111,-0.6233333333333333,-0.09277619602744025,-0.014164294041160375,0.016111901986279875
1589997913.072227,-0.24070722433460076,-4.349646387832699,8.687524714828896,0.38666666666666666,0.4311111111111111,-0.6233333333333333,-0.06471007604562738,-0.12278992395437262,0.0
1589997913.082227,-0.2465848937920356,-4.363169787584071,8.709754681376108,0.38666666666666666,0.4311111111111111,-0.6233333333333333,-0.10365558620022258,-0.125,0.08231117240044515
1589997913.092227,-0.25,-4.3453327526822125,8.728222415772596,0.40859310872692234,0.42014789008098324,-0.6233333333333333,-0.07360990142127559,-0.02221980284255118,0.02221980284255118
1589997913.102227,-0.25676841059004246,-4.346768410590042,8.75707364236017,0.4133333333333333,0.4177777777777778,-0.6233333333333333,-0.10480256618776543,-0.08460513237553086,-0.04230256618776543
1589997913.112227,-0.25025909882191005,-4.35,8.643368284684831,0.4133333333333333,0.4177777777777778,-0.6233333333333333,0.11852252945224889,-0.06411936763693778,-0.0016193676369377769
1589997913.122227,-0.25,-4.341270263986642,8.683648680066788,0.4133333333333333,0.4177777777777778,-0.6233333333333333,0.07043914991651343,-0.007939149916513434,-0.054560850083486566
1589997913.132227,-0.24262610301662219,-4.34,8.704747793966757,0.4133333333333333,0.4177777777777778,-0.6233333333333333,0.0625,0.04608685614611122,0.029673712292222446
1589997913.142227,-0.2519796954314721,-4.363959390862944,8.715989847715736,0.40534686971235195,0.4257642413987592,-0.6233333333333333,0.0625,0.0625,-0.01237309644670051
1589997913.152227,-0.26653650007285445,-4.38,8.72,0.4,0.4311111111111111,-0.6233333333333333,0.0625,-0.0600593763660207,0.019206250910680456
1589997913.162227,-0.23603308773674458,-4.346033087736744,8.65206617547349,0.4,0.4311111111111111,-0.6233333333333333,0.0625,0.0023759209872078746,0.10495864032906929
1589997913.172227,-0.23561550579498144,-4.3352051685983275,8.640820674393309,0.4,0.4311111111111111,-0.6233333333333333,0.0625,0.12756460747908932,0.027403088781366047
1589997913.182227,-0.24465918726762767,-4.350681625464745,8.692044876394235,0.4,0.4311111111111111,-0.6233333333333333,0.029119920422673015,0.08735976126801906,0.00426015915465397
1589997913.192227,-0.23497227726372047,-4.3549722772637205,8.71497227726372,0.3932963696849606,0.42775929595359147,-0.6160710671587074,0.0,-0.03142326710174699,0.03107673289825301
1589997913.2022269,-0.2531879221295193,-4.35,8.71,0.38666666666666666,0.4244444444444445,-0.6088888888888889,0.0,0.009962256654747717,0.0
1589997913.2122269,-0.24603423244441047,-4.365977178370393,8.646091286518429,0.38666666666666666,0.4244444444444445,-0.6088888888888889,0.09985736481495633,0.0625,0.049928682407478164
1589997913.2222269,-0.24816392106083496,-4.329180394695825,8.687147447425843,0.38666666666666666,0.4244444444444445,-0.6088888888888889,0.022950986739563098,0.011475493369781549,0.0625
1589997913.2322268,-0.25704791662384113,-4.32,8.714095833247683,0.38666666666666666,0.4244444444444445,-0.6088888888888889,0.0,0.0,0.0625
1589997913.2422268,-0.2421602742384063,-4.382439040165577,8.728919862880797,0.3985598171743958,0.430391019698309,-0.6158265600183975,0.11149828600996055,0.0,0.0625
1589997913.2522268,-0.25266045718408714,-4.364679085631826,8.717339542815914,0.4,0.4311111111111111,-0.6166666666666667,0.006308213899183374,-0.03956392870027221,-0.016627857400544427
1589997913.2622268,-0.24412335159261514,-4.357938324203692,8.630616757963075,0.4,0.4311111111111111,-0.6166666666666667,-0.0625,-0.0625,0.03672905254615541
1589997913.2722268,-0.24,-4.36,8.657908280727812,0.4,0.4311111111111111,-0.6166666666666667,0.06582575194949872,0.023050501299665807,0.0625
1589997913.2822268,-0.25753191987817736,-4.354156026707274,8.697531919878177,0.4,0.4311111111111111,-0.6166666666666667,0.05195033384092773,0.0625,0.0625
1589997913.2922268,-0.26507368206798293,-4.35,8.714926317932019,0.40328421195467806,0.43767953502046725,-0.6166666666666667,-0.030789487075106863,0.0625,0.09328948707510687
1589997913.3022268,-0.2537931789166515,-4.35,8.726206821083348,0.4066666666666667,0.4444444444444444,-0.6166666666666667,0.015085263541856658,-0.015085263541856658,0.008622104687215026
1589997913.3122268,-0.25,-4.35,8.675207573388919,0.4066666666666667,0.4444444444444444,-0.6166666666666667,-0.035343618948360994,0.035343618948360994,-0.0625
1589997913.3222268,-0.25,-4.342173748997783,8.66,0.4066666666666667,0.4444444444444444,-0.6166666666666667,-0.013585931236145828,-0.1331562750554167,0.08424220629156251
1589997913.3322268,-0.25,-4.34,8.705984221936728,0.4066666666666667,0.4444444444444444,-0.6166666666666667,-0.04105734101493496,0.09990138710454471,0.125
1589997913.3422267,-0.24286456688391855,-4.354270866232163,8.744270866232164,0.3876388450237829,0.43493053362300255,-0.6166666666666667,0.11588582790203567,0.027017715122455432,-0.053385827902035665
1589997913.3522267,-0.23357583552724132,-4.334303342108965,8.743575835527242,0.38,0.4311111111111111,-0.6166666666666667,0.026895888181032584,0.017802055909483708,0.035604111818967416
1589997913.3622267,-0.23429264650989176,-4.332877939529675,8.69278088839119,0.38,0.4311111111111111,-0.6166666666666667,-0.035670959313176556,0.035670959313176556,0.01768383725270624
1589997913.3722267,-0.24373632218844984,-4.3462636778115495,8.64868161094225,0.38,0.4311111111111111,-0.6166666666666667,-0.02335201367781155,0.0467040273556231,-0.0782959726443769
1589997913.3822267,-0.2384919307445414,-4.3284919307445415,8.703016138510918,0.38,0.4311111111111111,-0.6166666666666667,-0.0625,0.017111850730075498,0.0
1589997913.3922267,-0.23710869631948922,-4.341326088958468,8.734217392638978,0.38,0.4263719802314517,-0.6166666666666667,-0.0625,0.026358703993615132,0.0
1589997913.4022267,-0.2457276697661313,-4.355727669766131,8.728544660467739,0.38,0.4244444444444445,-0.6166666666666667,-0.0625,0.026702063961679345,-0.035797936038320655
1589997913.4122267,-0.26306609524513247,-4.36,8.66773561901947,0.38,0.4244444444444445,-0.6166666666666667,-0.0625,0.0,-0.021668452358961095
1589997913.4222267,-0.25402325923745034,-4.354674419745817,8.650651160508367,0.38,0.4244444444444445,-0.6166666666666667,0.0040697531772903445,0.03328487658864517,-0.06656975317729034
1589997913.4322267,-0.24385814497272018,-4.3461418550272795,8.679290724863602,0.38,0.4244444444444445,-0.6166666666666667,0.08661340607950117,0.03838659392049883,-0.125
1589997913.4422266,-0.2543175883176301,-4.33568241168237,8.71863517663526,0.3828783922117534,0.4215660522326911,-0.6229031831254657,0.07103014602962375,-0.026984926985188125,-0.0170602920592475
1589997913.4522266,-0.26,-4.335946676347208,8.73,0.38666666666666666,0.4177777777777778,-0.6311111111111111,0.07433345434010971,0.011833454340109711,0.125
1589997913.4622266,-0.2524669926072888,-4.34,8.654669926072888,0.38666666666666666,0.4177777777777778,-0.6311111111111111,0.030837407591109853,-0.1258251848177803,0.07791870379555493
1589997913.4722266,-0.2576993400146663,-4.34,8.676196040087998,0.38666666666666666,0.4177777777777778,-0.6311111111111111,0.14436262527499388,0.004983500366658511,0.014379124908335372
1589997913.4822266,-0.2479868535238834,-4.34,8.708019719714175,0.38666666666666666,0.4177777777777778,-0.6311111111111111,0.11241783452427112,-0.05012324821359332,0.03754108273786444
1589997913.4922266,-0.23353807494115403,-4.346461925058846,8.713538074941155,0.37805076658820536,0.4263936778562391,-0.616751277647009,0.022112968382212612,-0.044225936764425225,0.0625
1589997913.5022266,-0.25363134488575373,-4.344092163778561,8.698184327557124,0.37333333333333335,0.4311111111111111,-0.6088888888888889,0.036923976383990184,0.036923976383990184,0.0625
1589997913.5122266,-0.24225141471301537,-4.353874292643493,8.627565683104285,0.37333333333333335,0.4311111111111111,-0.6088888888888889,0.019142835489086504,-0.0675714935327405,0.019142835489086504
1589997913.5222266,-0.2534978540772532,-4.36,8.654828326180258,0.37333333333333335,0.4311111111111111,-0.6088888888888889,0.0979077253218884,0.11976931330472101,0.0489538626609442
1589997913.5322266,-0.2544564061893593,-4.365543593810641,8.703261562863844,0.37333333333333335,0.4311111111111111,-0.6088888888888889,0.0903525386834956,0.1875,-0.04144238394951319
1589997913.5422266,-0.2448060589848191,-4.354418176954457,8.735193941015181,0.3767959606767873,0.42764848376765724,-0.6088888888888889,0.09496213134488063,0.15503786865511937,-0.06007573731023874
1589997913.5522265,-0.24501528050643964,-4.350030561012879,8.724954158480681,0.38,0.4244444444444445,-0.6088888888888889,0.09365449683475224,0.030963490504256716,0.031345503165247764
1589997913.5622265,-0.24451676156717825,-4.3545167615671785,8.666134092537426,0.38,0.4244444444444445,-0.6088888888888889,0.0625,-0.0625,0.1310404804102719
1589997913.5722265,-0.24547385919403747,-4.3445261408059626,8.668317014358262,0.38,0.4244444444444445,-0.6088888888888889,0.02828838003726572,-0.0625,0.11907676007453144
1589997913.5822265,-0.25392383651824085,-4.34,8.70784767303648,0.38,0.4244444444444445,-0.6088888888888889,-0.024523978239005213,-0.0870239782390052,0.013452043521989573
1589997913.5922265,-0.26,-4.336216129667948,8.716216129667949,0.38546559047963125,0.43201218510854933,-0.6088888888888889,-0.01520162084934476,-0.07770162084934476,-0.0625
1589997913.6022265,-0.26,-4.335612738511153,8.726838215533459,0.3944444444444444,0.4444444444444444,-0.6088888888888889,0.027420384305294282,0.07015923138941144,0.07781846277882287
1589997913.6122265,-0.2495618077013426,-4.345219096149329,8.666932653909399,0.3944444444444444,0.4444444444444444,-0.6088888888888889,0.0,0.09238064906669557,0.15488064906669557
1589997913.6222265,-0.25173728492382325,-4.35,8.64108049723338,0.3944444444444444,0.4444444444444444,-0.6088888888888889,-0.03667901538694762,0.0625,-0.02171606154779049
1589997913.6322265,-0.2541711732011417,-4.35,8.693315307195434,0.3944444444444444,0.4444444444444444,-0.6088888888888889,0.010360334985729303,-0.010360334985729303,-0.08856983250713535
1589997913.6422265,-0.23813543013500918,-4.35,8.733729139729983,0.3944444444444444,0.4444444444444444,-0.6135028882808298,-0.011653561656192676,-0.09957678082809635,0.04873034248428902
1589997913.6522264,-0.2504994709503655,-4.343166843016545,8.729500529049634,0.3944444444444444,0.4444444444444444,-0.6166666666666667,0.02291446229318969,-0.03958553770681031,0.03958553770681031
1589997913.6622264,-0.2465353299017314,-4.333267664950866,8.666141319606925,0.3944444444444444,0.4444444444444444,-0.6166666666666667,0.10457709405708937,0.08415418811417875,-0.04207709405708938
1589997913.6722264,-0.24,-4.343540315555125,8.653540315555126,0.3944444444444444,0.4444444444444444,-0.6166666666666667,0.08268651389023328,0.08268651389023328,-0.02018651389023328
1589997913.6822264,-0.24501095203883155,-4.35,8.69006571223299,0.3944444444444444,0.4444444444444444,-0.6166666666666667,0.09381845024269718,0.03118154975730282,-0.06263690048539436
1589997913.6922264,-0.25,-4.35,8.72659244941401,0.3918807141167739,0.4400494781684378,-0.6141029363389962,0.10439859558121896,0.0,-0.06319578674365688
1589997913.7022264,-0.25284969727844503,-4.352849697278445,8.742849697278444,0.38666666666666666,0.4311111111111111,-0.6088888888888889,0.02687878401943688,0.0,0.04468939200971844
1589997913.7122264,-0.25323849303171914,-4.36,8.722953972126877,0.38666666666666666,0.4311111111111111,-0.6088888888888889,-0.0625,0.0,0.0
1589997913.7222264,-0.24240156007907251,-4.353799219960464,8.654803120158146,0.38666666666666666,0.4311111111111111,-0.6088888888888889,-0.023745124752898437,0.03875487524710156,-0.1162646257413047
1589997913.7322264,-0.25,-4.355237393489391,8.70666175442574,0.38666666666666666,0.4311111111111111,-0.6088888888888889,-0.06546741861739311,0.0625,-0.023831453456517215
1589997913.7422264,-0.25,-4.349192999827794,8.729192999827795,0.38946848152612745,0.4311111111111111,-0.6040857777012418,-0.10248541630790425,0.0625,0.05745624892371276
1589997913.7522264,-0.25,-4.343119833971446,8.701253444019036,0.3944444444444444,0.4311111111111111,-0.5955555555555555,-0.007834025118975206,-0.019498962321537194,-0.035167012559487607
1589997913.7622263,-0.24535026424999112,-4.355350264249991,8.662101585499947,0.3944444444444444,0.4311111111111111,-0.5955555555555555,0.0625,-0.09593915156244458,0.05812169687511084
1589997913.7722263,-0.2441392765493725,-4.337582170351882,8.642417829648117,0.3944444444444444,0.4311111111111111,-0.5955555555555555,0.03662952156642177,0.015111435300734707,0.07325904313284354
1589997913.7822263,-0.25426428402686374,-4.332792852080591,8.685585704161182,0.3944444444444444,0.4311111111111111,-0.5955555555555555,0.053303550335796965,0.125,-0.026651775167898482
1589997913.7922263,-0.2541613128235251,-4.347080656411762,8.728758030764713,0.3944444444444444,0.4311111111111111,-0.5994480136732054,0.16149179485296816,0.125,-0.0625
1589997913.8022263,-0.24441319126555894,-4.348826382531118,8.741173617468883,0.3944444444444444,0.4311111111111111,-0.6088888888888889,0.19483510918051308,0.15258244540974347,0.020247336229230375
1589997913.8122263,-0.25,-4.350642441347681,8.683212206738402,0.3944444444444444,0.4311111111111111,-0.6088888888888889,0.03727288763450344,0.09977288763450344,0.0665152584230023
1589997913.8222263,-0.2557000976189466,-4.345700097618947,8.669900683332626,0.3944444444444444,0.4311111111111111,-0.6088888888888889,-0.0625,0.03562561011841603,0.07125122023683206
1589997913.8322263,-0.25698540044493884,-4.353014599555061,8.703014599555061,0.3944444444444444,0.4311111111111111,-0.6088888888888889,-0.04365875278086763,0.08134124721913237,0.10615875278086763
1589997913.8422263,-0.25115350389321467,-4.358846496106786,8.708846496106785,0.3944444444444444,0.4311111111111111,-0.6088888888888889,-0.007209399332591765,0.11779060066740824,0.06970939933259176
1589997913.8522263,-0.26,-4.351654783855767,8.734964351567301,0.3944444444444444,0.4244444444444445,-0.6166666666666667,-0.0625,0.05215760090145462,0.05215760090145462
1589997913.8622262,-0.2590261961289284,-4.358539294193393,8.753670274838035,0.3944444444444444,0.4244444444444445,-0.6166666666666667,-0.05337058870870388,0.006086274194197417,-0.0030431370970987084
1589997913.8722262,-0.24,-4.33,8.64553386521813,0.3944444444444444,0.4244444444444445,-0.6166666666666667,0.06027556159112771,-0.03681109602218072,0.0022244384088722924
1589997913.8822262,-0.24469606382376793,-4.344088191471304,8.688176382942608,0.3944444444444444,0.4244444444444445,-0.6166666666666667,0.0,-0.15814960110145038,0.0037992022029007394
1589997913.8922262,-0.25,-4.3544095459601575,8.722795227019922,0.3904068943045583,0.4244444444444445,-0.618530151346614,-0.017470168874507027,-0.09005966225098594,-0.010089493376478915
1589997913.9022262,-0.25,-4.350010693492812,8.727497326626798,0.38,0.4244444444444445,-0.6233333333333333,-0.04685829141748188,0.031283417165036236,0.06243316566992753
1589997913.9122262,-0.25,-4.375963268957533,8.687706151660265,0.38,0.4244444444444445,-0.6233333333333333,0.0,0.09977043098458138,-0.049311292953744146
1589997913.9222262,-0.24682399488450163,-4.363647989769003,8.646352010230997,0.38,0.4244444444444445,-0.6233333333333333,0.03970006394372952,0.02279993605627048,0.08235003197186476
1589997913.9322262,-0.24438086849290935,-4.35,8.677523473971638,0.38,0.4244444444444445,-0.6233333333333333,0.125,0.019641284242050555,0.015478287677265917
1589997913.9422262,-0.24647310770959135,-4.353526892290408,8.714107569161634,0.3870537845808173,0.4338494905522009,-0.6233333333333333,0.10295692318494593,0.08091384636989186,-0.058870769554837804
1589997913.9522262,-0.2457783076847436,-4.348443384630513,8.74,0.4,0.4511111111111111,-0.6233333333333333,0.09861442302964747,0.07222884605929494,0.0625
1589997913.9622262,-0.2441155509098684,-4.351768898180263,8.687039958188816,0.4,0.4511111111111111,-0.6233333333333333,0.16177780681332257,0.125,0.025722193186677435
1589997913.9722261,-0.24,-4.354546924491107,8.671812302035573,0.4,0.4511111111111111,-0.6233333333333333,0.15341827806941769,0.09091827806941769,0.0
1589997913.9822261,-0.24421356052258775,-4.35,8.702640681567763,0.4,0.4511111111111111,-0.6233333333333333,0.15133475326617346,0.03616524673382654,0.02633475326617346
1589997913.9922261,-0.2447426701900088,-4.3447426701900085,8.72,0.3964951134600059,0.44731415069278413,-0.6215808900633363,0.10535422171888763,0.032858311312444946,0.07892915565622247
1589997914.002226,-0.23516102081118032,-4.33258051040559,8.71225846878323,0.38666666666666666,0.43666666666666665,-0.6166666666666667,-0.10887180996506152,0.125,0.125
1589997914.012226,-0.24540087852539103,-4.344599121474609,8.648607906728518,0.38666666666666666,0.43666666666666665,-0.6166666666666667,-0.033755490783693914,0.09625549078369391,0.03876647235108173
1589997914.022226,-0.24432428693944172,-4.354324286939442,8.612972860818326,0.38666666666666666,0.43666666666666665,-0.6166666666666667,-0.027026793371510774,0.035473206628489226,-0.035473206628489226
1589997914.032226,-0.2458386902565497,-4.3516773805131,8.667451787691054,0.38666666666666666,0.43666666666666665,-0.6166666666666667,-0.08850818589656445,0.07802455768969334,0.026008185896564447
1589997914.042226,-0.24339235228603248,-4.346784704572065,8.733569409144131,0.38930516288913636,0.4347820265077597,-0.6166666666666667,-0.08259559642459377,0.12389339463689066,0.0625
1589997914.052226,-0.25,-4.36,8.747239312372766,0.3944444444444444,0.4311111111111111,-0.6166666666666667,-0.026584765890070118,-0.053169531780140236,0.009330468219859764
1589997914.062226,-0.2471213228894691,-4.357121322889469,8.706970583115753,0.3944444444444444,0.4311111111111111,-0.6166666666666667,-0.0625,-0.1070082680591819,-0.026516536118363798
1589997914.072226,-0.24,-4.350381555086784,8.651144665260354,0.3944444444444444,0.4311111111111111,-0.6166666666666667,-0.06011528070759779,-0.05057640353798897,0.06011528070759779
1589997914.082226,-0.2368996210280828,-4.36,8.692401515887669,0.3944444444444444,0.4311111111111111,-0.6166666666666667,-0.019377368574482558,0.23062263142551745,0.019377368574482558
1589997914.092226,-0.23232880179333285,-4.355342396413334,8.724657603586666,0.39263315416074107,0.4311111111111111,-0.6187367127051848,-0.04794498879166968,0.1875,0.004279955166678721
1589997914.102226,-0.24,-4.354890170088187,8.743722542522047,0.38666666666666666,0.4311111111111111,-0.6255555555555555,0.04653178152558507,0.09443643694882986,-0.09443643694882986
1589997914.112226,-0.23746547286765504,-4.3749309457353105,8.71958567441186,0.38666666666666666,0.4311111111111111,-0.6255555555555555,0.1091592054228441,-0.03081841084568819,0.0625
1589997914.122226,-0.23383611859838274,-4.356163881401617,8.641508355795148,0.38666666666666666,0.4311111111111111,-0.6255555555555555,0.014548517520215631,0.0625,0.038524258760107816
1589997914.132226,-0.24192915572611592,-4.35,8.673504090082812,0.38666666666666666,0.4311111111111111,-0.6255555555555555,-0.0504427767117754,0.038385553423550794,0.012057223288224601
1589997914.142226,-0.25216361585841934,-4.34783638414158,8.73432723171684,0.3883494790009928,0.42966870053883155,-0.6236323414591828,0.0,-0.0625,0.04897740088487898
1589997914.152226,-0.2580855900375568,-4.345743229887329,8.742342360150227,0.3944444444444444,0.4244444444444445,-0.6166666666666667,-0.011965062265269817,-0.07446506226526982,0.023930124530539634
1589997914.162226,-0.246485913359588,-4.37,8.67485913359588,0.3944444444444444,0.4244444444444445,-0.6166666666666667,-0.04053695849742502,-0.10303695849742503,0.08107391699485005
1589997914.172226,-0.24307769392164844,-4.37,8.625388469608241,0.3944444444444444,0.4244444444444445,-0.6166666666666667,0.0,-0.10097117402060564,0.01923558701030282
1589997914.182226,-0.24644499399673853,-4.366444993996739,8.684885042022831,0.3944444444444444,0.4244444444444445,-0.6166666666666667,-0.022218787520384208,-0.03196848735731053,0.04028121247961579
1589997914.192226,-0.24,-4.36,8.732146884539414,0.3944444444444444,0.42587570080405424,-0.6211989784720976,-0.035663943257317296,0.18290985814329322,-0.013418028371341352
1589997914.202226,-0.24962970069071375,-4.355185149654643,8.744814850345357,0.3944444444444444,0.4311111111111111,-0.6377777777777778,0.0023143706830391422,-0.0625,-0.0625
1589997914.212226,-0.245613732892874,-4.354795422369042,8.692454931571497,0.3944444444444444,0.4311111111111111,-0.6377777777777778,0.027414169419537518,-0.1524141694195375,-0.0025572203869749857
1589997914.222226,-0.2341577285747141,-4.355842271425286,8.659104100022999,0.3944444444444444,0.4311111111111111,-0.6377777777777778,0.047042589224110906,-0.14605678563214786,0.036514196408036964
1589997914.232226,-0.24627418174213112,-4.352091393914043,8.702091393914044,0.3944444444444444,0.4311111111111111,-0.6377777777777778,-0.04942878803722681,-0.013071211962773189,0.026142423925546377
1589997914.242226,-0.2650711820857173,-4.358357060695239,8.70835706069524,0.3944444444444444,0.4311111111111111,-0.6377777777777778,-0.010268370654755679,-0.05223162934524432,0.10446325869048864
1589997914.2522259,-0.2567208373215698,-4.342186108452287,8.727813891547713,0.38666666666666666,0.43666666666666665,-0.6233333333333333,-0.10450523325981106,-0.125,0.1318315889133963
1589997914.2622259,-0.23053809979607975,-4.359641266802614,8.710358733197387,0.38666666666666666,0.43666666666666665,-0.6233333333333333,0.05913687627450162,-0.125,0.1863789587581672
1589997914.2722259,-0.24,-4.342783263812037,8.602266110496297,0.38666666666666666,0.43666666666666665,-0.6233333333333333,0.017395398825231972,-0.05218619647569592,0.0
1589997914.2822258,-0.24,-4.353554660707569,8.668886651768924,0.38666666666666666,0.43666666666666665,-0.6233333333333333,0.04028337057769321,-0.1875,0.03332494413346019
1589997914.2922258,-0.23893858967240422,-4.368938589672404,8.714245641310384,0.3894970942069221,0.4374922080325745,-0.6218001850823616,-0.0625,-0.17423237090505275,0.17423237090505275
1589997914.3022258,-0.2313070435552817,-4.359346478222359,8.74869295644472,0.4133333333333333,0.4444444444444444,-0.6088888888888889,-0.058415488889744675,-0.06658451111025532,0.058415488889744675
1589997914.3122258,-0.25,-4.356709439835994,8.69645280082003,0.4133333333333333,0.4444444444444444,-0.6088888888888889,0.0,-0.04113200205007499,0.04193399897496251
1589997914.3222258,-0.2479663352980851,-4.361865341192341,8.64626931761532,0.4133333333333333,0.4444444444444444,-0.6088888888888889,-0.012710404386968124,0.09957919122606375,0.125
1589997914.3322258,-0.2428284046320222,-4.335656809264044,8.715656809264045,0.4133333333333333,0.4444444444444444,-0.6088888888888889,-0.027144942099722458,0.0,0.10732247104986123
1589997914.3422258,-0.25,-4.351406215630204,8.731406215630205,0.410677148254058,0.4425694902708383,-0.6088888888888889,0.044922304622442885,-0.017577695377557115,0.044922304622442885
1589997914.3522258,-0.25,-4.3524893863373215,8.74375530683134,0.3944444444444444,0.4311111111111111,-0.6088888888888889,-0.03902933230412968,-0.10152933230412968,-0.03902933230412968
1589997914.3622258,-0.2564362583535153,-4.3432181291767575,8.714600579055666,0.3944444444444444,0.4311111111111111,-0.6088888888888889,0.04022661470947066,-0.0625,-0.02011330735473533
1589997914.3722258,-0.265380758896389,-4.35,8.646158988138149,0.3944444444444444,0.4311111111111111,-0.6088888888888889,0.10575316206828757,-0.0625,-0.03362974310243135
1589997914.3822258,-0.24222836452085464,-4.35,8.686685093562565,0.3944444444444444,0.4311111111111111,-0.6088888888888889,0.013927278255341497,-0.0625,0.097145443489317
1589997914.3922257,-0.24802495923049284,-4.35,8.704074877691479,0.3944444444444444,0.4311111111111111,-0.6088888888888889,0.05015599519058017,-0.0625,0.024688009618839657
1589997914.4022257,-0.24946865971611606,-4.3402656701419415,8.749202989574174,0.38666666666666666,0.4311111111111111,-0.6233333333333333,0.0625,-0.18085824645145082,-0.060839561612862705
1589997914.4122257,-0.23668016194331984,-4.35,8.697732793522267,0.38666666666666666,0.4311111111111111,-0.6233333333333333,0.048582995951417005,0.03466599190283401,0.013917004048582995
1589997914.4222257,-0.25921875,-4.35078125,8.623125,0.38666666666666666,0.4311111111111111,-0.6233333333333333,-0.0048828125,-0.0625,0.0673828125
1589997914.4322257,-0.25044553212851406,-4.359554467871487,8.658217871485943,0.38666666666666666,0.4311111111111111,-0.6233333333333333,-0.059715424196787145,-0.0625,0.12221542419678715
1589997914.4422257,-0.2414296404073997,-4.3492851797963,8.7114296404074,0.3876197602715998,0.4311111111111111,-0.6218242684588559,-0.004467626273124091,-0.0625,-0.04909712118062773
1589997914.4522257,-0.25886593223861987,-4.34056703388069,8.72886593223862,0.3992439548257466,0.4311111111111111,-0.6034192937481235,-0.05895603824568697,-0.0625,0.1143681147370609
1589997914.4622257,-0.25251116980083005,-4.34,8.72237713219087,0.4,0.4311111111111111,-0.6022222222222222,0.07791556623443674,0.12472075497924899,0.125
1589997914.4722257,-0.2575420552601761,-4.342457944739824,8.64614486184956,0.4,0.4311111111111111,-0.6022222222222222,-0.04713784537610041,-0.054818922688050206,0.125
1589997914.4822257,-0.2468577763083685,-4.362285925436123,8.692285925436122,0.4,0.4311111111111111,-0.6022222222222222,0.03392593204846458,-0.01428703397576771,0.08213889807269686
1589997914.4922256,-0.2693033639143731,-4.369303363914373,8.700696636085626,0.3996129799524295,0.43064668705402653,-0.6026866462793068,-0.049438073394495415,-0.0712079510703364,-0.0625
1589997914.5022256,-0.2570641149788492,-4.36,8.70706411497885,0.3944444444444444,0.4244444444444445,-0.6088888888888889,0.0516028744712298,-0.1875,-0.0258014372356149
1589997914.5122256,-0.25,-4.356801457358762,8.668014573587621,0.3944444444444444,0.4244444444444445,-0.6088888888888889,-0.045036433969053616,-0.10753643396905362,0.0425091084922634
1589997914.5222256,-0.2441264463017343,-4.352936776849132,8.617620661094797,0.3944444444444444,0.4244444444444445,-0.6088888888888889,0.1066451446929197,0.0625,0.0
1589997914.5322256,-0.23567172153043192,-4.356218852313045,8.673234016904342,0.3944444444444444,0.4244444444444445,-0.6088888888888889,0.07431608652173317,0.027051740434800478,0.0
1589997914.5422256,-0.2529088069699585,-4.344727462020027,8.713453882929903,0.3944444444444444,0.4244444444444445,-0.6088888888888889,0.11022668118741352,-0.08068004356224057,0.0
1589997914.5522256,-0.2483412434181011,-4.34,8.747488134872848,0.3944444444444444,0.4244444444444445,-0.6050026366949226,0.015699157044697876,-0.125,-0.03643361431843404
1589997914.5622256,-0.24,-4.345326897762176,8.74401930671347,0.3944444444444444,0.4244444444444445,-0.6022222222222222,-0.02920688898639754,-0.05841377797279508,-0.02920688898639754
1589997914.5722256,-0.24,-4.358714171134282,8.651572459791465,0.3944444444444444,0.4244444444444445,-0.6022222222222222,0.1633907087677825,0.05446356958926084,0.0
1589997914.5822256,-0.23157528045660303,-4.35,8.693150560913205,0.3944444444444444,0.4244444444444445,-0.6022222222222222,0.125,-0.009845502853768943,-0.05265449714623106
1589997914.5922256,-0.23983015154497145,-4.35,8.709660303089944,0.3944444444444444,0.4244444444444445,-0.6022222222222222,0.125,-0.06143844715607164,-0.001061552843928358
1589997914.6022255,-0.24844311992600965,-4.366886239852019,8.72688623985202,0.38787757339088136,0.4244444444444445,-0.6022222222222222,-0.08607799815024147,0.04303899907512074,0.0
1589997914.6122255,-0.23159193087426672,-4.368408069125733,8.730896829508799,0.38666666666666666,0.4244444444444445,-0.6022222222222222,0.0,0.08239913592833387,0.05255043203583307
1589997914.6222255,-0.23860194207210067,-4.361398057927899,8.646776695134793,0.38666666666666666,0.4244444444444445,-0.6022222222222222,0.0,0.17002427590125851,0.008737862049370743
1589997914.6322255,-0.2612259894534448,-4.358774010546555,8.684903957813779,0.38666666666666666,0.4244444444444445,-0.6022222222222222,0.007662434084029774,0.11733756591597022,-0.0625
1589997914.6422255,-0.26921072169658666,-4.350789278303413,8.716842886786347,0.38666666666666666,0.4244444444444445,-0.6022222222222222,0.05756701060366654,0.06743298939633346,-0.0625
1589997914.6522255,-0.24203247001437853,-4.352032470014378,8.72203247001438,0.38666666666666666,0.43666666666666665,-0.6166666666666667,0.011688249640536552,0.07520293758986586,0.0
1589997914.6622255,-0.24966638152266896,-4.359666381522669,8.72966638152267,0.38666666666666666,0.43666666666666665,-0.6166666666666667,-0.17915953806672372,0.12291488451668092,0.0
1589997914.6722255,-0.24,-4.347208277580399,8.615583444839201,0.38666666666666666,0.43666666666666665,-0.6166666666666667,-0.10755173487749735,0.0,-0.01744826512250265
1589997914.6822255,-0.2386116410356239,-4.34,8.64110687171501,0.38666666666666666,0.43666666666666665,-0.6166666666666667,-0.0711772435273506,-0.017354487054701186,-0.053822756472649405
1589997914.6922255,-0.23316838621763675,-4.34,8.684652910258906,0.38666666666666666,0.43666666666666665,-0.6166666666666667,-0.10519758613977029,-0.08539517227954059,-0.019802413860229705
1589997914.7022254,-0.24450895998013492,-4.361763439970202,8.717254479990068,0.3963393066534233,0.43263640000551806,-0.6166666666666667,-0.07965950006207839,-0.07965950006207839,0.09068099987584323
1589997914.7122254,-0.26316853492584075,-4.3631685349258404,8.709505604777522,0.4,0.4311111111111111,-0.6166666666666667,-0.13057112438200597,-0.125,0.09096443780899702
1589997914.7222254,-0.24211554125600715,-4.342115541256007,8.648462165024029,0.4,0.4311111111111111,-0.6166666666666667,0.049277867149955204,-0.07211146859982082,0.13461146859982082
1589997914.7322254,-0.24931856611430503,-4.35136286777139,8.681362867771389,0.4,0.4311111111111111,-0.6166666666666667,-0.008517923571187013,0.12074103821440649,-0.058241038214406494
1589997914.7422254,-0.24045337335136963,-4.369093253297261,8.69909325329726,0.4,0.4311111111111111,-0.6166666666666667,-0.11933283310787961,0.06533358344606019,-0.0028335834460601964
1589997914.7522254,-0.2548547113823414,-4.3625726443088295,8.722282067073513,0.39009685907843905,0.4311111111111111,-0.6166666666666667,-0.0785790269301831,0.016079026930183087,-0.09284194613963383
1589997914.7622254,-0.24006563456011865,-4.340043756373412,8.709759339946233,0.38666666666666666,0.4311111111111111,-0.6166666666666667,-0.18722652266617223,0.00027347733382775564,0.00013673866691387782
1589997914.7722254,-0.2633953833317883,-4.355596922221192,8.624216927783444,0.38666666666666666,0.4311111111111111,-0.6166666666666667,-0.0900192361175489,0.0974807638824511,0.04874038194122555
1589997914.7822254,-0.25925876202359704,-4.35,8.692223713929208,0.38666666666666666,0.4311111111111111,-0.6166666666666667,0.05323452529496312,0.00463273735251844,0.05786726264748156
1589997914.7922254,-0.2526340561969896,-4.35,8.712097831409032,0.38666666666666666,0.4311111111111111,-0.6166666666666667,-0.029574297537630495,0.04603714876881525,0.016462851231184752
1589997914.8022254,-0.25983499009940597,-4.350110006600396,8.73,0.4066666666666667,0.4244444444444445,-0.6166666666666667,0.0625,0.18681245874752486,0.0
1589997914.8122253,-0.23466768006080366,-4.366888213292798,8.73,0.4066666666666667,0.4244444444444445,-0.6166666666666667,0.0625,0.0819486669200152,0.0
1589997914.8222253,-0.2523405938853111,-4.36,8.65765940611469,0.4066666666666667,0.4244444444444445,-0.6166666666666667,-0.050532177945798624,0.011967822054201376,-0.16356435589159724
1589997914.8322253,-0.22196964200477326,-4.358030357995227,8.690984821002386,0.4066666666666667,0.4244444444444445,-0.6166666666666667,-0.0061551312649164676,0.056344868735083535,-0.0625
1589997914.8422253,-0.23798606205250597,-4.342013937947494,8.698993031026252,0.4066666666666667,0.4244444444444445,-0.6166666666666667,-0.056206443914081146,0.006293556085918854,-0.0625
1589997914.8522253,-0.24125418872944004,-4.34,8.732508377458881,0.4,0.4244444444444445,-0.6233333333333333,-0.101483961322999,0.05466132044099967,-0.05466132044099967
1589997914.8622253,-0.25,-4.345552399140606,8.725939603724038,0.4,0.4244444444444445,-0.6233333333333333,0.0625,0.0,0.023134996419193126
1589997914.8722253,-0.25,-4.368119579880517,8.629402100597417,0.4,0.4244444444444445,-0.6233333333333333,0.050747374253227985,0.0,0.11324737425322798
1589997914.8822253,-0.25,-4.358527976839359,8.677360115803205,0.4,0.4244444444444445,-0.6233333333333333,0.00920014475400754,0.01840028950801508,0.0625
1589997914.8922253,-0.25,-4.351032399878478,8.71483800060761,0.4,0.4244444444444445,-0.6233333333333333,0.056047500759511766,0.11209500151902353,0.0625
1589997914.9022253,-0.22704474769914312,-4.342348249233048,8.742955252300858,0.38469649846609544,0.42954561162241267,-0.6071796372697674,-0.033146884586903624,0.07717655770654819,-0.08097032688035544
1589997914.9122252,-0.26927855209848733,-4.368557104196975,8.694949864689411,0.38,0.4311111111111111,-0.6022222222222222,-0.04897285184663757,0.06700904938445415,0.0
1589997914.9222252,-0.26271747461948786,-4.355434949238975,8.649022322336416,0.38,0.4311111111111111,-0.6022222222222222,0.07404735088460276,0.10801578362820091,0.0
1589997914.9322252,-0.2500943358193913,-4.3400943358193915,8.63990566418061,0.38,0.4311111111111111,-0.6022222222222222,-0.12264160451521872,-0.06073120338641402,-0.12382080225760936
1589997914.9422252,-0.23651503394762366,-4.353484966052377,8.71416731328807,0.38,0.4311111111111111,-0.6022222222222222,-0.04071896217264792,-0.02035948108632396,0.08570259456838022
1589997914.9522252,-0.24544765010278585,-4.3445523498972145,8.734552349897214,0.3851492167009286,0.43540212502855163,-0.6185280751084962,-0.09654781314241158,-0.09654781314241158,0.09095218685758842
1589997914.9622252,-0.25,-4.362953796445881,8.722348734518041,0.38666666666666666,0.43666666666666665,-0.6233333333333333,-0.125,0.06628163704900375,-0.033140818524501875
1589997914.9722252,-0.221913471326773,-4.35,8.624783678316932,0.38666666666666666,0.43666666666666665,-0.6233333333333333,-0.125,-0.044561206311503225,-0.005979597896165592
1589997914.9822252,-0.23614591109602986,-4.35,8.660364777740075,0.38666666666666666,0.43666666666666665,-0.6233333333333333,-0.125,0.08886791652527995,-0.05045597217509332
1589997914.9922252,-0.24,-4.380606424497148,8.708258030621435,0.38666666666666666,0.43666666666666665,-0.6233333333333333,-0.02935492344641248,0.125,0.08096761483038126
1589997915.0022252,-0.2545472418954847,-4.375452758104515,8.734547241895484,0.38181758603483845,0.4423239274037996,-0.6128269919643722,0.0,-0.05684052369355885,0.125
1589997915.0122252,-0.25096688198503025,-4.37,8.696132472059878,0.38,0.4444444444444444,-0.6088888888888889,-0.11593548139034143,0.0,0.0
1589997915.0222251,-0.2677359998119992,-4.366603999717999,8.626792000564002,0.38,0.4444444444444444,-0.6088888888888889,0.034199997649989426,0.0,-0.0070750005875026434
1589997915.0322251,-0.24927590361445784,-4.340724096385542,8.682172289156627,0.38,0.4444444444444444,-0.6088888888888889,-0.1784487951807229,-0.004525602409638555,-0.057974397590361444
1589997915.0422251,-0.24205679862306367,-4.347943201376936,8.70382960413081,0.38,0.4444444444444444,-0.6088888888888889,-0.08820998278829603,-0.049645008605851984,-0.012854991394148016
1589997915.052225,-0.23977517751427926,-4.35022482248572,8.73,0.3944444444444444,0.4311111111111111,-0.6233333333333333,0.058284578392736236,0.11656915678547247,-0.0014051405357545876
1589997915.062225,-0.23249353309838372,-4.357506466901617,8.73,0.3944444444444444,0.4311111111111111,-0.6233333333333333,-0.07824625440530547,-0.15649250881061094,-0.04691541813510182
1589997915.072225,-0.22047750311221767,-4.3598408322959274,8.65063667081629,0.3944444444444444,0.4311111111111111,-0.6233333333333333,-0.06349479815045349,0.24701560554863952,0.0009947981504534946
1589997915.082225,-0.24844944869286859,-4.35051685043571,8.687932598257158,0.3944444444444444,0.4311111111111111,-0.6233333333333333,-0.12176968477680952,0.0721909456695714,0.05926968477680953
1589997915.092225,-0.2440963819514812,-4.35,8.713614472194076,0.3944444444444444,0.4311111111111111,-0.6233333333333333,-0.08810238719675746,0.0625,-0.011295225606485076
1589997915.102225,-0.24553882118494672,-4.355538821184947,8.724461178815053,0.3975215673249704,0.4341882339916371,-0.6079477189307034,-0.0625,-0.041352897217751206,0.006735264811834132
1589997915.112225,-0.24385566843076423,-4.36,8.732288663138473,0.4,0.43666666666666665,-0.5955555555555555,0.05270621692317051,0.0670103615386175,0.024097927692276498
1589997915.122225,-0.24838962274506934,-4.35161037725493,8.639324527059168,0.4,0.43666666666666665,-0.5955555555555555,0.020129715686633257,0.13506485784331662,0.05243514215668337
1589997915.132225,-0.23660195214218163,-4.336601952142182,8.653495119644546,0.4,0.43666666666666665,-0.5955555555555555,0.041868899555682446,0.125,-0.06310669866704735
1589997915.142225,-0.2513385922330097,-4.344225728155339,8.69845145631068,0.4,0.43666666666666665,-0.5955555555555555,-0.11532160194174756,-0.18618780339805824,0.09727700242718446
1589997915.152225,-0.2466673519314187,-4.363332648068582,8.743331620171453,0.40888843204572084,0.432963153314283,-0.599999771578416,-0.1041709495713669,-0.18750642435705034,0.1041709495713669
1589997915.162225,-0.25808131566925535,-4.342878026496117,8.72383736866149,0.4133333333333333,0.4311111111111111,-0.6022222222222222,-0.005995888533576979,0.15752055733211512,0.005995888533576979
1589997915.172225,-0.23027441566645612,-4.369725584333544,8.64073177511055,0.4133333333333333,0.4311111111111111,-0.6022222222222222,0.0,0.06364339861023373,0.0
1589997915.182225,-0.24961561358626572,-4.340768772827468,8.652306318482406,0.4133333333333333,0.4311111111111111,-0.6022222222222222,0.0625,0.18509758491416067,-0.12019516982832135
1589997915.192225,-0.24286704960499428,-4.354265900790011,8.692797702370035,0.4133333333333333,0.4311111111111111,-0.6022222222222222,0.0625,0.1429190600312143,-0.035838120062428605
1589997915.202225,-0.23118951097476353,-4.36,8.73643146707571,0.38396503658254505,0.4360058272362425,-0.6022222222222222,0.11756555640772798,0.01486888718454403,0.055065556407727985
1589997915.212225,-0.24947837470419415,-4.36,8.749739187352096,0.38,0.43666666666666665,-0.6022222222222222,0.24673984190121345,0.12173984190121344,0.24510976285182015
1589997915.222225,-0.25,-4.35,8.64122938858894,0.38,0.43666666666666665,-0.6022222222222222,0.18135305705530425,0.18288979279147818,-0.0015367357361739384
1589997915.232225,-0.25032460529340006,-4.350649210586799,8.6909738158802,0.38,0.43666666666666665,-0.6022222222222222,-0.0625,0.0040575661675005745,-0.05438486766499885
1589997915.242225,-0.25774013896501125,-4.365480277930023,8.713220416895034,0.38,0.43666666666666665,-0.6022222222222222,-0.0625,0.09675173706264034,0.13100347412528068
1589997915.252225,-0.241907804938578,-4.357938536625719,8.72,0.3887110568814254,0.43666666666666665,-0.6196443359850731,-0.0625,0.125,0.03673170782148322
1589997915.262225,-0.23749810487459214,-4.35,8.705003790250815,0.3944444444444444,0.43666666666666665,-0.6311111111111111,-0.015636844533799148,0.17186315546620085,-0.015636844533799148
1589997915.272225,-0.2684960597262547,-4.3310026268491635,8.605013134245818,0.3944444444444444,0.43666666666666665,-0.6311111111111111,0.05936679109636389,0.1281332089036361,-0.11873358219272778
1589997915.282225,-0.24456061110318705,-4.34907954167261,8.644518930569422,0.3944444444444444,0.43666666666666665,-0.6311111111111111,0.10224904515127023,0.125,-0.125
1589997915.292225,-0.24068265630718128,-4.36,8.696706640767953,0.3944444444444444,0.43666666666666665,-0.6311111111111111,0.09161669904005856,0.024850097120175663,0.008533203839765774
1589997915.3022249,-0.25509010002204896,-4.36,8.735270300066148,0.3904854777606286,0.43044543330638463,-0.6164063777140808,-0.001126250275611862,0.001126250275611862,0.06137374972438814
1589997915.3122249,-0.26,-4.3461808965626485,8.743090448281324,0.38666666666666666,0.4244444444444445,-0.6022222222222222,-0.019315301758276573,0.0625,0.08636939648344685
1589997915.3222249,-0.23330596606458676,-4.353347016967707,8.673264915161468,0.38666666666666666,0.4244444444444445,-0.6022222222222222,0.0,-0.020918856048166387,0.0832905719759168
1589997915.3322248,-0.237776351447725,-4.3511118242761375,8.693329054343174,0.38666666666666666,0.4244444444444445,-0.6022222222222222,0.11110219654828127,-0.0625,-0.10415329482242192
1589997915.3422248,-0.262254384959303,-4.342581871680232,8.714836256639536,0.38666666666666666,0.4244444444444445,-0.6022222222222222,0.1713633019985479,0.0302266039970958,-0.0786366980014521
1589997915.3522248,-0.25297349902680044,-4.34,8.737026500973199,0.38666666666666666,0.43484952837251084,-0.6145191395917553,0.08108436891750262,0.00929218445875131,0.04391563108249738
1589997915.3622248,-0.24098185542873865,-4.34,8.749018144571261,0.38666666666666666,0.43666666666666665,-0.6166666666666667,-0.05022680714076676,-0.05636340357038338,0.006136596429616621
1589997915.3722248,-0.25945010131062607,-4.359450101310626,8.633299392136244,0.38666666666666666,0.43666666666666665,-0.6166666666666667,0.11984469978711942,-0.0625,0.18234469978711942
1589997915.3822248,-0.26,-4.369601794859747,8.668407179438988,0.38666666666666666,0.43666666666666665,-0.6166666666666667,0.18501121787342012,0.05752243574684021,0.007466346379739697
1589997915.3922248,-0.24622893606829419,-4.363114468034147,8.697542127863413,0.38666666666666666,0.43666666666666665,-0.6166666666666667,0.05839627564025798,-0.023569149573161335,0.0
1589997915.4022248,-0.2574912806405659,-4.36,8.721660853760378,0.38666666666666666,0.4334275406221174,-0.6205536179201258,-0.036440168001178955,0.046820504003536864,-0.036440168001178955
1589997915.4122248,-0.24185310447845326,-4.36,8.722963276119614,0.38666666666666666,0.4311111111111111,-0.6233333333333333,-0.0625,0.125,-0.0625
1589997915.4222248,-0.24685924257053965,-4.3515703787147295,8.652563029717841,0.38666666666666666,0.4311111111111111,-0.6233333333333333,-0.009814866967063622,0.07231486696706363,-0.009814866967063622
1589997915.4322248,-0.23800505218373996,-4.35,8.64599747390813,0.38666666666666666,0.4311111111111111,-0.6233333333333333,-0.07496842385162533,0.0625,0.037484211925812666
1589997915.4422247,-0.24665847895031404,-4.35,8.6888697842174,0.38666666666666666,0.4311111111111111,-0.6233333333333333,-0.02088450656053728,0.0625,0.0972051644798209
1589997915.4522247,-0.2678094538468059,-4.357809453846806,8.727809453846806,0.38666666666666666,0.4311111111111111,-0.606846708545632,0.013690913457463344,0.1601181730850733,-0.07023634617014662
1589997915.4622247,-0.24747644875820723,-4.36,8.73750785041393,0.38666666666666666,0.4311111111111111,-0.6022222222222222,0.0,-0.00019626034827291416,0.06269626034827291
1589997915.4722247,-0.24,-4.36,8.642626081421255,0.38666666666666666,0.4311111111111111,-0.6022222222222222,-0.05532609010155956,-0.0625,0.06967390989844044
1589997915.4822247,-0.2671438101591537,-4.350952063280282,8.693335557038024,0.38666666666666666,0.4311111111111111,-0.6022222222222222,-0.0625,-0.0625,0.11904960449823693
1589997915.4922247,-0.2560033565092304,-4.343001678254615,8.706998321745385,0.38666666666666666,0.4311111111111111,-0.6022222222222222,-0.106239510908655,0.02497902181731,-0.006218532725965009
1589997915.5022247,-0.24169433388344172,-4.364916998349675,8.718305666116558,0.4032779988997832,0.4311111111111111,-0.6022222222222222,-0.02117917354302172,0.0625,-0.01058958677151086
1589997915.5122247,-0.25234761840688913,-4.363826190796556,8.713826190796556,0.4066666666666667,0.4311111111111111,-0.6022222222222222,0.03858630752152852,-0.014672615043057044,0.07717261504305704
1589997915.5222247,-0.2532334484946767,-4.36,8.662634139462737,0.4066666666666667,0.4311111111111111,-0.6022222222222222,0.02020905309172954,0.06437284072481139,0.08270905309172955
1589997915.5322247,-0.24337584896507114,-4.346751697930142,8.64662415103493,0.4066666666666667,0.4311111111111111,-0.6022222222222222,0.0,0.125,0.0625
1589997915.5422246,-0.24612833523513558,-4.346128335235135,8.692898346645949,0.4066666666666667,0.4311111111111111,-0.6022222222222222,0.07660419043919493,0.010093714341207607,0.024197904780402534
1589997915.5522246,-0.25,-4.344324884842928,8.725675115157072,0.4066666666666667,0.4311111111111111,-0.6022222222222222,0.054061060536599204,0.008438939463400796,0.0354694697317004
1589997915.5622246,-0.2426293002963999,-4.3473706997036,8.7152586005928,0.4066666666666667,0.4311111111111111,-0.6022222222222222,0.04606687314750058,0.016433126852499418,-0.029633746295001165
1589997915.5722246,-0.2319629874421679,-4.35,8.645703899537343,0.4066666666666667,0.4311111111111111,-0.6022222222222222,0.0625,0.0,-0.0625
1589997915.5822246,-0.24680971781349198,-4.3752145767202375,8.697238871253969,0.4066666666666667,0.4311111111111111,-0.6022222222222222,0.11503036816716239,0.10506073633432478,0.14762147266864956
1589997915.5922246,-0.2436245473125605,-4.3608736419376815,8.71637545268744,0.4066666666666667,0.4311111111111111,-0.6022222222222222,0.125,0.08515342070350318,0.06796026211050953
1589997915.6022246,-0.24,-4.35,8.727023340014224,0.3879377599620698,0.42642888443496196,-0.6022222222222222,0.03720824982220211,0.0625,-0.043895875088898945
1589997915.6122246,-0.2465557847515671,-4.356555784751567,8.736555784751568,0.38,0.4244444444444445,-0.6022222222222222,-0.08194730939458875,-0.019447309394588747,0.019447309394588747
1589997915.6222246,-0.2577180998721188,-4.344563800255762,8.655100901406694,0.38,0.4244444444444445,-0.6022222222222222,0.019714372602227026,-0.0625,0.11073812420074233
1589997915.6322246,-0.2529826730165164,-4.354034653966967,8.679121288884385,0.38,0.4244444444444445,-0.6022222222222222,-0.06907488094031816,-0.01864170635322728,-0.006574880940318162
1589997915.6422246,-0.2453022276672476,-4.36,8.704697772332752,0.38,0.4244444444444445,-0.6022222222222222,-0.06627784584059496,-0.029361077079702518,-0.0037778458405949636
1589997915.6522245,-0.24870662215666486,-4.364353311078332,8.718706622156665,0.38290220738555497,0.4244444444444445,-0.6051244296077772,0.027208194239577675,-0.14412458271873302,0.11691638847915535
1589997915.6622245,-0.24992497793468668,-4.3599249779346865,8.724962488967344,0.38666666666666666,0.4244444444444445,-0.6088888888888889,0.0625,-0.12406222418358342,0.12453111209179171
1589997915.6722245,-0.2461619283065513,-4.362323856613102,8.658380716934486,0.38666666666666666,0.4244444444444445,-0.6088888888888889,0.10101205191594562,0.038512051915945616,0.0625
1589997915.6822245,-0.24426945571421044,-4.3642694557142105,8.642922177143157,0.38666666666666666,0.4244444444444445,-0.6088888888888889,0.08918409821381526,-0.08076360714473893,-0.009131803572369465
1589997915.6922245,-0.24889774705451978,-4.36,8.695590988218079,0.38666666666666666,0.4244444444444445,-0.6088888888888889,0.006889080909251458,-0.13188908090925144,-0.006889080909251458
1589997915.7022245,-0.24957549142618152,-4.365212254286909,8.73478774571309,0.3907206422231516,0.430814977461778,-0.6088888888888889,0.035229767879548304,-0.0625,-0.0026531785863655316
1589997915.7122245,-0.23265398128284054,-4.355307962565681,8.722653981282841,0.3944444444444444,0.43666666666666665,-0.6088888888888889,0.07908738301775332,0.029325233964493352,0.07523785094674004
1589997915.7222245,-0.2471887970363256,-4.344270400987892,8.674163207903133,0.3944444444444444,0.43666666666666665,-0.6088888888888889,0.09830999382567832,0.0625,0.125
1589997915.7322245,-0.26611707282058644,-4.34,8.676702436923518,0.3944444444444444,0.43666666666666665,-0.6088888888888889,0.08676829487133475,0.10073170512866525,-0.06615852564332628
1589997915.7422245,-0.2520490243199077,-4.357950975680092,8.705983658560031,0.3944444444444444,0.43666666666666665,-0.6088888888888889,0.09989786600019225,0.0502042679996155,-0.0005106699990387598
1589997915.7522244,-0.24660040758739615,-4.350198777237812,8.71,0.40251160927348417,0.43666666666666665,-0.6140225392346415,0.042494905157548196,-0.12375764226367769,0.125
1589997915.7622244,-0.2558559915643594,-4.351711983128719,8.686576033742563,0.4066666666666667,0.43666666666666665,-0.6166666666666667,0.0,-0.04110021089101454,0.05180010544550727
1589997915.7722244,-0.2533135439726303,-4.3533135439726305,8.629881263835781,0.4066666666666667,0.43666666666666665,-0.6166666666666667,0.04179035017106058,0.18787105051318173,0.08358070034212116
1589997915.7822244,-0.22739424703891709,-4.342464749012972,8.647676254935138,0.4066666666666667,0.43666666666666665,-0.6166666666666667,0.0625,-0.03257191201353643,0.07790468133107727
1589997915.7922244,-0.22455295496982067,-4.344552954969821,8.696423639758565,0.4066666666666667,0.43666666666666665,-0.6166666666666667,0.005588062877241742,-0.06808806287724174,0.03404403143862087
1589997915.8022244,-0.23306461932181702,-4.35,8.741532309660908,0.4066666666666667,0.4358153835217175,-0.6188800028435345,-0.052923064619321815,0.009576935380678183,-0.019153870761356367
1589997915.8122244,-0.24645609231371016,-4.35354390768629,8.74291218462742,0.4066666666666667,0.4311111111111111,-0.6311111111111111,0.06644826911793468,0.018201153921376882,-0.10285057696068844
1589997915.8222244,-0.24690793798089936,-4.35654603100955,8.695460310095504,0.4066666666666667,0.4311111111111111,-0.6311111111111111,0.1659126938096895,-0.04091269380968952,-0.08408730619031049
1589997915.8322244,-0.25052645532704615,-4.345263227663523,8.653683861682385,0.4066666666666667,0.4311111111111111,-0.6311111111111111,0.06579034579403856,0.05920965420596145,-0.09539517289701928
1589997915.8422244,-0.24,-4.343634822368927,8.687269644737855,0.4066666666666667,0.4311111111111111,-0.6311111111111111,0.022717639805800303,0.1477176398058003,-0.0625
1589997915.8522243,-0.2362237916089147,-4.353776208391086,8.711328625173255,0.4020513008553402,0.433209004661714,-0.6256565878795435,0.1097026048885662,0.11669609266715068,-0.0388986975557169
1589997915.8622243,-0.23548199301401213,-4.3490360139719755,8.740963986028024,0.3944444444444444,0.43666666666666665,-0.6166666666666667,0.1532375436624242,0.06852491267515157,0.10278736901272735
1589997915.8722243,-0.25054983585706675,-4.34,8.681426066929065,0.3944444444444444,0.43666666666666665,-0.6166666666666667,0.026095288839999314,0.09203176294666643,0.08859528883999931
1589997915.8822243,-0.24892948791604427,-4.334464743958022,8.64767628020989,0.3944444444444444,0.43666666666666665,-0.6166666666666667,-0.0625,0.027904649737638364,0.034595350262361636
1589997915.8922243,-0.24541314411338896,-4.346239432340167,8.686239432340166,0.3944444444444444,0.43666666666666665,-0.6166666666666667,-0.02866784929131888,0.06766430141736224,-0.005164301417362238
1589997915.9022243,-0.25,-4.3440120466151635,8.731975906769673,0.39029941949282,0.43370593455836354,-0.6166666666666667,0.03330823621841037,-0.008232944873641485,0.037424708655231106
1589997915.9122243,-0.236438809261301,-4.343561190738699,8.739658213891952,0.38666666666666666,0.4311111111111111,-0.6166666666666667,0.0625,0.002136163175303185,0.040242557883131205
1589997915.9222243,-0.23665795982524676,-4.363315919650494,8.650104482097039,0.38666666666666666,0.4311111111111111,-0.6166666666666667,-0.020724497815584483,0.10411224890779225,-0.04161224890779224
1589997915.9322243,-0.24689261711305047,-4.36310738288695,8.658248319791353,0.38666666666666666,0.4311111111111111,-0.6166666666666667,-0.0625,0.03884228608686929,-0.0625
1589997915.9422243,-0.25,-4.349374752813433,8.69593787077985,0.38666666666666666,0.4311111111111111,-0.6166666666666667,-0.0625,0.06640779491604645,0.03711169237406968
1589997915.9522243,-0.25375597633136093,-4.3437559763313605,8.721267928994083,0.38666666666666666,0.42860712689020386,-0.6166666666666667,-0.015550295857988165,0.125,0.07805029585798817
1589997915.9622242,-0.2500967290314369,-4.359903270968563,8.74,0.38666666666666666,0.4244444444444445,-0.6166666666666667,0.03155227822324042,0.001209112892961689,0.030947721776759578
1589997915.9722242,-0.24578961390732887,-4.358420772185342,8.682103860926711,0.38666666666666666,0.4244444444444445,-0.6166666666666667,0.03618508692080549,-0.016444739237583522,0.026314913079194507
1589997915.9822242,-0.25,-4.3442900805088955,8.674259516946625,0.38666666666666666,0.4244444444444445,-0.6166666666666667,0.02681300318059835,-0.11593498409700828,0.0
1589997915.9922242,-0.24525523446963143,-4.344744765530368,8.714234296591105,0.38666666666666666,0.4244444444444445,-0.6166666666666667,0.029654784564803596,-0.1610356463055892,0.0889643536944108
1589997916.0022242,-0.24359887673662428,-4.3535988767366245,8.73,0.38946579301737444,0.4244444444444445,-0.6138675403159589,0.08499297960390187,-0.04000702039609814,0.14251404079219626
1589997916.0122242,-0.24467958122165911,-4.36,8.708718324886636,0.3944444444444444,0.4244444444444445,-0.6088888888888889,-0.008010469458522268,0.0,0.09575261736463056
1589997916.0222242,-0.24,-4.364695154777928,8.657133916554509,0.3944444444444444,0.4244444444444445,-0.6088888888888889,-0.03696584791386272,0.0,0.06631056527590848
1589997916.0322242,-0.24,-4.365921413460785,8.63631434615686,0.3944444444444444,0.4244444444444445,-0.6088888888888889,0.08799116587009323,-0.07647349761027972,0.0
1589997916.0422242,-0.24,-4.355210055526791,8.688739666839258,0.3944444444444444,0.4244444444444445,-0.6088888888888889,0.06512569408487923,-0.09768854112731883,0.0
1589997916.0522242,-0.23559596935606322,-4.35,8.733212091931811,0.391019087276938,0.42982714856481163,-0.6088888888888889,-0.02752519152460487,0.05505038304920974,-0.02752519152460487
1589997916.0622241,-0.23611688342566395,-4.356116883425664,8.75,0.38666666666666666,0.43666666666666665,-0.6088888888888889,-0.0625,0.010308435768800972,-0.13896104282079935
1589997916.0722241,-0.24652825571614284,-4.36,8.684717442838572,0.38666666666666666,0.43666666666666665,-0.6088888888888889,-0.021698401774107215,0.14150799112946397,-0.1466984017741072
1589997916.0822241,-0.2437281604995682,-4.353728160499568,8.68763103700259,0.38666666666666666,0.43666666666666665,-0.6088888888888889,0.0,0.09320401248920479,-0.046602006244602395
1589997916.0922241,-0.24,-4.345625043563114,8.714374956436886,0.38666666666666666,0.43666666666666665,-0.6088888888888889,-0.027343477730536,0.054686955461072,0.054686955461072
1589997916.102224,-0.24226999342167088,-4.344539986843341,8.726809980265013,0.39120665351000844,0.43389223026240226,-0.6073755599411084,-0.0766874588854431,0.0824376233436707,0.125
1589997916.112224,-0.25,-4.36,8.753801774525883,0.4066666666666667,0.4244444444444445,-0.6022222222222222,-0.02995563685294983,-0.03873890921323746,0.14876109078676253
1589997916.122224,-0.24431256533556345,-4.354312565335563,8.686063349362325,0.4066666666666667,0.4244444444444445,-0.6022222222222222,0.018360600041814765,-0.07109293330545682,0.11640706669454318
1589997916.132224,-0.24,-4.35,8.664184908988855,0.4066666666666667,0.4244444444444445,-0.6022222222222222,-0.0625,-0.125,0.02689071980327693
1589997916.142224,-0.2448041785163293,-4.359608357032658,8.69,0.4066666666666667,0.4244444444444445,-0.6022222222222222,-0.09252611572705813,-0.09497388427294187,0.0
1589997916.152224,-0.25,-4.360928837737072,8.717213486788783,0.4011231786170998,0.4244444444444445,-0.599198501467913,-0.15334738207164855,-0.034152617928351434,-0.0850421462149457
1589997916.162224,-0.25479290845178054,-4.35,8.726035457741098,0.3944444444444444,0.4244444444444445,-0.5955555555555555,-0.1275886443527434,-0.05991135564725661,-0.007765933058230173
1589997916.172224,-0.2571223402170931,-4.347122340217092,8.674101061953838,0.3944444444444444,0.4244444444444445,-0.5955555555555555,-0.04451462635683216,-0.125,0.09757313178416083
1589997916.182224,-0.24574655815014831,-4.346380162774778,8.622760325549555,0.3944444444444444,0.4244444444444445,-0.5955555555555555,0.013292005780786492,-0.11170799421921351,-0.11170799421921351
1589997916.192224,-0.23798068794499447,-4.358028968082508,8.689951719862487,0.3944444444444444,0.4244444444444445,-0.5955555555555555,0.03756035017189232,-0.0625,-0.03756035017189232
1589997916.202224,-0.25,-4.336381648307704,8.727236703384593,0.39163017090599156,0.4288668742905847,-0.5979677900170866,0.045229396153706324,-0.039885301923146835,-0.022614698076853162
1589997916.212224,-0.2541871684378595,-4.334187168437859,8.735812831562141,0.38666666666666666,0.43666666666666665,-0.6022222222222222,0.04649059179013511,-0.026169802736621627,-0.0625
1589997916.222224,-0.2568683425649766,-4.346263314870047,8.701815083084789,0.38666666666666666,0.43666666666666665,-0.6022222222222222,-0.04292714103110354,-0.0625,-0.0037814230933106083
1589997916.232224,-0.24565113522057766,-4.36,8.657395459117689,0.38666666666666666,0.43666666666666665,-0.6022222222222222,0.0,-0.0625,0.09781959512861044
1589997916.242224,-0.24263089202349278,-4.354738215953015,8.693154460117464,0.38666666666666666,0.43666666666666665,-0.6022222222222222,0.0,-0.04605692485317002,0.0625
1589997916.252224,-0.24415206580843055,-4.342923967095785,8.727076032904217,0.38894086329672145,0.4350422405023418,-0.6064457302494668,0.01827479434865455,0.0365495886973091,0.04422520565134545
1589997916.262224,-0.24185557083906467,-4.35,8.700240715268226,0.3944444444444444,0.4311111111111111,-0.6166666666666667,0.03780089408528198,0.026203576341127924,0.0
1589997916.272224,-0.24861224108103053,-4.35,8.641530602702575,0.3944444444444444,0.4311111111111111,-0.6166666666666667,0.0,-0.125,-0.07117349324355916
1589997916.282224,-0.25070221332544756,-4.360702213325448,8.630702213325447,0.3944444444444444,0.4311111111111111,-0.6166666666666667,0.03344441664202361,-0.0915555833579764,-0.02466675007392917
1589997916.292224,-0.26,-4.361956013540049,8.668153952609826,0.3944444444444444,0.4311111111111111,-0.6166666666666667,0.037362542312655456,0.03804983074937816,0.037362542312655456
1589997916.302224,-0.26,-4.347128963572538,8.718613109282385,0.3944444444444444,0.4349391596810599,-0.6125196140492222,0.053831933014904756,0.07983613397019049,0.01794397767163492
1589997916.312224,-0.2552090310337129,-4.349581937932574,8.735209031033714,0.3944444444444444,0.4444444444444444,-0.6022222222222222,0.127612887921411,-0.09766933188211654,0.03255644396070551
1589997916.322224,-0.24222680446796788,-4.36,8.69113402233984,0.3944444444444444,0.4444444444444444,-0.6022222222222222,0.03820876396239961,-0.04858247207520078,0.0
1589997916.332224,-0.23216743958994387,-4.357832560410056,8.647339516719551,0.3944444444444444,0.4444444444444444,-0.6022222222222222,0.0,-0.11145350256285087,0.0
1589997916.342224,-0.24310812476883245,-4.356216249537665,8.71,0.3944444444444444,0.4444444444444444,-0.6022222222222222,-0.01942577980520281,-0.0625,0.03885155961040562
1589997916.3522239,-0.2488538199153413,-4.367707639830683,8.71,0.3944444444444444,0.4444444444444444,-0.6022222222222222,-0.055336374470883166,-0.0625,0.11067274894176633
1589997916.3622239,-0.26,-4.36,8.746056018168055,0.4,0.4511111111111111,-0.6088888888888889,0.06822482967448902,0.08714988644965935,-0.08714988644965935
1589997916.3722239,-0.2557280361757106,-4.3514560723514215,8.700192506459947,0.4,0.4511111111111111,-0.6088888888888889,-0.0625,0.026699773901808783,0.026699773901808783
1589997916.3822238,-0.25,-4.34,8.63999813787196,0.4,0.4511111111111111,-0.6088888888888889,-0.08035548024282149,0.08035548024282149,0.02678903951435701
1589997916.3922238,-0.2490351680310211,-4.341929663937957,8.692894495906936,0.4,0.4511111111111111,-0.6088888888888889,-0.11293960038776389,0.11293960038776389,-0.044409400581645844
1589997916.4022238,-0.24,-4.36,8.72179446048551,0.4,0.4475221901400919,-0.6102845803776186,0.0,-0.02243075606886964,0.125
1589997916.4122238,-0.2442960057632274,-4.36,8.724271992315698,0.4,0.4311111111111111,-0.6166666666666667,0.01790002401344753,-0.14290002401344754,0.0981499639798287
1589997916.4222238,-0.25467279953723576,-4.367663600231382,8.678504599652927,0.4,0.4311111111111111,-0.6166666666666667,0.029204997107723313,-0.20210249855386164,-0.03855124927693083
1589997916.4322238,-0.2355425969814145,-4.374457403018585,8.662771298490707,0.4,0.4311111111111111,-0.6166666666666667,-0.07303815329923913,-0.1076793844330797,0.017320615566920296
1589997916.4422238,-0.23945816867379618,-4.356486056224599,8.684055775101605,0.4,0.4311111111111111,-0.6166666666666667,0.04053785140374207,-0.1283864457887738,0.0625
1589997916.4522238,-0.22732591924656848,-4.3475580269178105,8.712441973082191,0.396744035890414,0.4311111111111111,-0.6182946487214597,0.015262331763684333,-0.18895067294526266,0.03197533647263133
1589997916.4622238,-0.24572724456834372,-4.344272755431656,8.73281826629497,0.38666666666666666,0.4311111111111111,-0.6233333333333333,0.009090557104296647,0.0,-0.03579527855214833
1589997916.4722238,-0.24552641541903286,-4.35,8.725131130614352,0.38666666666666666,0.4311111111111111,-0.6233333333333333,-0.045229951815522286,0.03454009636895543,-0.03454009636895543
1589997916.4822237,-0.2599621407675099,-4.35,8.660170366546206,0.38666666666666666,0.4311111111111111,-0.6233333333333333,-0.00011831010153157823,0.12476337979693684,-0.12476337979693684
1589997916.4922237,-0.23275277389962526,-4.347247226100374,8.688258321698875,0.38666666666666666,0.4311111111111111,-0.6233333333333333,0.0,0.0516145106179734,0.0625
1589997916.5022237,-0.24,-4.341783375675385,8.713566751350772,0.38904450090051407,0.4311111111111111,-0.6233333333333333,0.0,0.17078085304326046,0.0625
1589997916.5122237,-0.2485623036377327,-4.351437696362267,8.732875392724536,0.4133333333333333,0.4311111111111111,-0.6233333333333333,0.0,0.05351439773582946,0.03574280113208527
1589997916.5222237,-0.251282197176934,-4.348717802823066,8.67948769011927,0.4133333333333333,0.4311111111111111,-0.6233333333333333,-0.02724313382208119,0.043270598533756435,-0.02724313382208119
1589997916.5322237,-0.24,-4.356403719523047,8.647192560953906,0.4133333333333333,0.4311111111111111,-0.6233333333333333,-0.0625,-0.08497675298095747,-0.0625
1589997916.5422237,-0.23732401814224988,-4.34732401814225,8.6653519637155,0.4133333333333333,0.4311111111111111,-0.6233333333333333,-0.07922488661093822,-0.09155022677812355,-0.045775113389061775
1589997916.5522237,-0.2337827556160075,-4.337478162922662,8.687565511232014,0.41165210861510776,0.43181162141037177,-0.6206713941961428,-0.093477036533271,-0.023642222600046756,0.007880740866682251
1589997916.5622237,-0.25904950723744996,-4.32158415460425,8.73968316907915,0.4,0.43666666666666665,-0.6022222222222222,0.12103961348937481,-0.1815594202340622,0.0625
1589997916.5722237,-0.2330702556412976,-4.3669297443587025,8.702367699228322,0.4,0.43666666666666665,-0.6022222222222222,0.0,-0.038378195516219876,0.0625
1589997916.5822237,-0.24129649207111964,-4.356110523786642,8.64518596828448,0.4,0.43666666666666665,-0.6022222222222222,0.008103075444497837,-0.10879384911100433,0.038190773666506486
1589997916.5922236,-0.2473179276793494,-4.338046216961952,8.698774506244554,0.4,0.43666666666666665,-0.6022222222222222,0.02897409599186756,0.0,-0.09147409599186757
1589997916.6022236,-0.2405457893855684,-4.358908421228864,8.74945421061443,0.4,0.4363634503413509,-0.6025860818126011,-0.0625,0.0034111836598024444,-0.0034111836598024444
1589997916.6122236,-0.25,-4.336474279835391,8.74,0.4,0.4311111111111111,-0.6088888888888889,-0.0625,0.01842849794238683,-0.01842849794238683
1589997916.6222236,-0.25,-4.333903500605158,8.697061493343265,0.4,0.4311111111111111,-0.6088888888888889,-0.01370624243552742,-0.0625,0.01370624243552742
1589997916.6322236,-0.2532533256217467,-4.34975997686524,8.643013302486986,0.4,0.4311111111111111,-0.6088888888888889,0.0625,-0.0625,-0.02183342972816657
1589997916.6422236,-0.26,-4.367346010866457,8.673980983700314,0.4,0.4311111111111111,-0.6088888888888889,0.0625,-0.05420628395767801,0.045912567915356015
1589997916.6522236,-0.26,-4.355352016013726,8.69197197597941,0.4,0.4311111111111111,-0.6088888888888889,0.0625,-0.01672505004289391,-0.029049899914212182
1589997916.6622236,-0.2693112848266186,-4.359311284826619,8.718622569653238,0.4,0.4311111111111111,-0.6161309993095923,0.120695530166366,0.05819553016636601,0.11208659049909803
1589997916.6722236,-0.25,-4.362915957533025,8.695008509603696,0.4,0.4311111111111111,-0.6166666666666667,-0.007825796255774377,0.018224734581408542,-0.04427526541859146
1589997916.6822236,-0.24697407214706904,-4.368487036073534,8.61302592785293,0.4,0.4311111111111111,-0.6166666666666667,0.1155439754595907,0.0719560245404093,-0.009456024540409296
1589997916.6922235,-0.2320271348762969,-4.358648576749136,8.636757116254323,0.4,0.4311111111111111,-0.6166666666666667,0.0709463953179037,0.10388401170524075,-0.04983040702314445
1589997916.7022235,-0.25934329631137215,-4.340656703688627,8.730656703688629,0.4004378024590853,0.4311111111111111,-0.6166666666666667,0.17108240778430348,-0.17929120389215172,0.11679120389215174
1589997916.7122235,-0.25121338993235254,-4.3487866100676476,8.738786610067647,0.40585774004509834,0.4311111111111111,-0.6166666666666667,-0.03216525169118645,-0.07766737415440678,0.015167374154406776
1589997916.7222235,-0.2583904940881685,-4.35,8.715514446793517,0.4066666666666667,0.4311111111111111,-0.6166666666666667,0.125,-0.052440588051053165,-0.020118823897893667
1589997916.7322235,-0.25017989977292304,-4.35,8.641619097956308,0.4066666666666667,0.4311111111111111,-0.6166666666666667,0.125,-0.001124373580768931,-0.12275125283846214
1589997916.7422235,-0.21982194006599776,-4.3475445149835,8.704910970032998,0.4066666666666667,0.4311111111111111,-0.6166666666666667,-0.015346781353121492,-0.047153218646878506,-0.11076609323439253
1589997916.7522235,-0.2479249233655505,-4.340518769158612,8.718962461682775,0.4066666666666667,0.4311111111111111,-0.6166666666666667,-0.059257692758672674,-0.003242307241327326,0.10878846379336338
1589997916.7622235,-0.22493923932066356,-4.347408858980995,8.720121521358672,0.4133333333333333,0.4311111111111111,-0.6166666666666667,-0.20369463136877913,-0.031629754245852744,-0.10956487712292637
1589997916.7722235,-0.24865597933444766,-4.364229347110368,8.67557336777592,0.4133333333333333,0.4311111111111111,-0.6166666666666667,-0.04446670971990072,0.04446670971990072,-0.026433419439801445
1589997916.7822235,-0.2648274574245593,-4.35517254257544,8.64258627128772,0.4133333333333333,0.4311111111111111,-0.6166666666666667,0.016164195548252165,-0.048492586644756495,0.046335804451747835
1589997916.7922235,-0.25,-4.368448195273955,8.651939755907557,0.4133333333333333,0.4311111111111111,-0.6166666666666667,0.0600753051155544,-0.1850753051155544,-0.0024246948844455986
1589997916.8022234,-0.25,-4.339404310568684,8.688244611789145,0.4133333333333333,0.4311111111111111,-0.6166666666666667,0.014694235263567904,-0.1396942352635679,-0.047805764736432096
1589997916.8122234,-0.2599659158789838,-4.359897747636952,8.719931831757968,0.3867575576560432,0.4311111111111111,-0.6166666666666667,-0.06228697424364876,-0.18728697424364876,-0.0625
1589997916.8222234,-0.2537849605195189,-4.35,8.698924802597595,0.38666666666666666,0.4311111111111111,-0.6166666666666667,0.023656003246992845,-0.10981200649398569,-0.043078001623496426
1589997916.8322234,-0.2461636194607995,-4.3469181902696,8.648490858382399,0.38666666666666666,0.4311111111111111,-0.6166666666666667,-0.0625,0.08176131081499845,0.0
1589997916.8422234,-0.2579193677120442,-4.3420806322879555,8.696241896863867,0.38666666666666666,0.4311111111111111,-0.6166666666666667,-0.0625,0.13800395179972358,-0.01300395179972357
1589997916.8522234,-0.2502344983927012,-4.35,8.720937993570805,0.38713566345206907,0.4311111111111111,-0.6164842790278992,-0.058103155136852665,0.18456877009123512,-0.0625
1589997916.8622234,-0.2580281323745285,-4.35,8.752112529498113,0.4027229314157237,0.4311111111111111,-0.6104225637087001,0.08802748202240929,0.08714834531839381,-0.0625
1589997916.8722234,-0.2509208414736255,-4.352762524420876,8.73987074379012,0.4066666666666667,0.4311111111111111,-0.6088888888888889,0.11348948157968183,0.0,0.11348948157968183
1589997916.8822234,-0.25823716159642757,-4.374711484789283,8.659391222439297,0.4066666666666667,0.4311111111111111,-0.6088888888888889,0.022035480044655317,0.0,0.022035480044655317
1589997916.8922234,-0.24235967262982544,-4.348820163685087,8.665899181574565,0.4066666666666667,0.4311111111111111,-0.6088888888888889,0.04775204606359093,-0.04775204606359093,-0.040378069095386396
1589997916.9022233,-0.25754870717751865,-4.341225646411241,8.703871767943797,0.4066666666666667,0.4311111111111111,-0.6088888888888889,-0.04717941985949156,0.04717941985949156,0.10201912978923736
1589997916.9122233,-0.24,-4.385956307792138,8.744608410389517,0.4,0.4311111111111111,-0.6022222222222222,-0.16222692370085978,0.016848717532760144,-0.0625
1589997916.9222233,-0.24,-4.363275834099389,8.714367778799186,0.4,0.4311111111111111,-0.6022222222222222,-0.020473963121180994,0.11135069125254601,-0.0625
1589997916.9322233,-0.2364483675348821,-4.343551632465118,8.64177581623256,0.4,0.4311111111111111,-0.6022222222222222,0.05140114854650658,0.09170344563951974,0.05140114854650658
1589997916.9422233,-0.2218724261958958,-4.358127573804104,8.649063786902053,0.4,0.4311111111111111,-0.6022222222222222,0.0058513318621744165,-0.04494600441347674,0.0058513318621744165
1589997916.9522233,-0.25745293409492587,-4.36,8.724905868189852,0.4,0.4311111111111111,-0.6022222222222222,0.11704041904664328,0.05454041904664328,0.0
1589997916.9622233,-0.25913590112407436,-4.340432049437963,8.749567950562037,0.4,0.4244444444444445,-0.6255555555555555,0.1820993820254648,-0.057099382025464815,0.057099382025464815
1589997916.9722233,-0.24127040708711242,-4.35,8.728566336215989,0.4,0.4244444444444445,-0.6255555555555555,0.0625,0.0783800885889053,-0.0625
1589997916.9822233,-0.25013895483967713,-4.35,8.650694774198385,0.4,0.4244444444444445,-0.6255555555555555,0.0625,0.18489459675605427,-0.0642369354959638
1589997916.9922233,-0.2589408205871075,-4.350529589706446,8.7,0.4,0.4244444444444445,-0.6255555555555555,0.06580993566528907,-0.01323974266115632,-0.18088012866942185
1589997917.0022233,-0.24107068297047418,-4.359464658514764,8.7,0.4,0.4244444444444445,-0.6255555555555555,0.12165411571726811,-0.23661646286907245,-0.06919176856546377
1589997917.0122232,-0.25,-4.35,8.744724794398525,0.38,0.4311111111111111,-0.6311111111111111,-0.04931198599631264,-0.11181198599631265,0.05590599299815632
1589997917.0222232,-0.25,-4.35,8.701281254531517,0.38,0.4311111111111111,-0.6311111111111111,0.05929686367120336,-0.003203136328796638,0.001601568164398319
1589997917.0322232,-0.2625084103003242,-4.351872897424919,8.633110281974432,0.38,0.4311111111111111,-0.6311111111111111,0.0898831732827696,0.0,0.0
1589997917.0422232,-0.23069536755619385,-4.359652316221903,8.690695367556193,0.38,0.4311111111111111,-0.6311111111111111,-0.055980929160682674,0.002173023613105775,0.0
1589997917.0522232,-0.24470391770481947,-4.3526480411475905,8.704703917704819,0.38,0.4311111111111111,-0.6311111111111111,0.0753492284826826,0.045949742827560876,0.0
1589997917.0622232,-0.2403950808203542,-4.378814757538938,8.738814757538938,0.3992098383592916,0.4311111111111111,-0.5969602873612594,0.004938510254427625,-0.057561489745572375,0.06003074487278619
1589997917.0722232,-0.24799913882527938,-4.364001722349442,8.74799913882528,0.4,0.4311111111111111,-0.5955555555555555,0.0,-0.012505382342003796,0.012505382342003796
1589997917.0822232,-0.25,-4.36,8.670363758089712,0.4,0.4311111111111111,-0.5955555555555555,0.05530294577103325,0.0,-0.05530294577103325
1589997917.0922232,-0.24183508226454203,-4.36,8.692659670941831,0.4,0.4311111111111111,-0.5955555555555555,0.011469264153387747,0.0,0.09059220753983677
1589997917.1022232,-0.24,-4.351872858496756,8.724381424509733,0.4,0.4311111111111111,-0.5955555555555555,0.10158926879055187,0.0,-0.027383903185827785
1589997917.1122231,-0.23175612222784078,-4.35,8.73824387777216,0.3890081629704544,0.4421029481406567,-0.6010514740703283,0.1765242360759951,0.051524236075995086,0.04054847215199017
1589997917.1222231,-0.23403204207348252,-4.368655985975506,8.741183803657082,0.38666666666666666,0.4444444444444444,-0.6022222222222222,-0.04569982469382289,0.028899649387645783,-0.01680017530617711
1589997917.1322231,-0.2571000816622811,-4.357100081662281,8.624349877506578,0.38666666666666666,0.4444444444444444,-0.6022222222222222,0.0625,-0.1603132655838853,-0.11593775519462844
1589997917.1422231,-0.24152079420445396,-4.3422811913066806,8.654562382613362,0.38666666666666666,0.4444444444444444,-0.6022222222222222,0.0577475181110813,-0.004752481888918701,-0.052995036222162596
1589997917.152223,-0.2565258921384492,-4.364788838207674,8.699577676415348,0.38666666666666666,0.4444444444444444,-0.6022222222222222,0.010856587067346393,-0.05164341293265361,0.040786825865307214
1589997917.162223,-0.24,-4.358734933950439,8.728102400925659,0.4066666666666667,0.4444444444444444,-0.6088888888888889,-0.125,0.11709333719024202,0.121046668595121
1589997917.172223,-0.24,-4.340718296405023,8.694971925164838,0.4066666666666667,0.4444444444444444,-0.6088888888888889,-0.12948935253139487,-0.013468057594184665,0.05352129493721022
1589997917.182223,-0.24042343900869004,-4.349576560991309,8.630846878017381,0.4066666666666667,0.4444444444444444,-0.6088888888888889,-0.17956051858706149,-0.18485350619568716,-0.0625
1589997917.192223,-0.2488606372706791,-4.34113936272932,8.64772127454136,0.4066666666666667,0.4444444444444444,-0.6088888888888889,-0.021363051174766667,-0.13212101705825555,-0.0625
1589997917.202223,-0.2437011250781304,-4.358896624765609,8.681494374609347,0.4066666666666667,0.4444444444444444,-0.6088888888888889,-0.03936796826168484,-0.125,0.05560390478505452
1589997917.212223,-0.2475803013597942,-4.354839397280411,8.722740904079382,0.4016131324268039,0.4292838417248561,-0.6198382130752582,-0.015123116501286296,-0.0776231165012863,0.125
1589997917.222223,-0.2429968310556546,-4.364006337888691,8.73,0.4,0.4244444444444445,-0.6233333333333333,0.04376980590215884,-0.19380941770647653,0.08123019409784116
1589997917.232223,-0.23980005627264095,-4.330599831182077,8.631199662364155,0.4,0.4244444444444445,-0.6233333333333333,0.0,-0.0625,-0.125
1589997917.242223,-0.23242429571272819,-4.352727112861816,8.67545422572363,0.4,0.4244444444444445,-0.6233333333333333,0.0,-0.0625,-0.125
1589997917.252223,-0.2534088956630179,-4.36,8.705605930442012,0.4,0.4244444444444445,-0.6233333333333333,-0.09753706526257448,-0.0625,-0.027462934737425518
1589997917.262223,-0.26,-4.352161719974191,8.741353120103236,0.38954895996558825,0.42966996446165034,-0.6181078133161274,-0.07601074983869482,0.08446775048391558,0.04898925016130518
1589997917.272223,-0.26,-4.36,8.695551631148128,0.38666666666666666,0.4311111111111111,-0.6166666666666667,-0.0625,0.11457413550342457,0.0625
1589997917.282223,-0.26,-4.35943089040438,8.6228455479781,0.38666666666666666,0.4311111111111111,-0.6166666666666667,-0.0625,-0.0660569349726251,0.05894306502737489
1589997917.292223,-0.25955486991327553,-4.350445130086724,8.672225650433623,0.38666666666666666,0.4311111111111111,-0.6166666666666667,-0.05415381087391594,-0.13056412608405604,0.0
1589997917.302223,-0.25255970647098064,-4.357440293529019,8.707201467645097,0.38666666666666666,0.4311111111111111,-0.6166666666666667,0.07700550366911274,-0.21800366911274183,0.0
1589997917.312223,-0.25,-4.3502785920789275,8.739721407921072,0.4,0.4177777777777778,-0.6166666666666667,0.06075879950670198,0.0017412004932980207,0.06075879950670198
1589997917.322223,-0.25,-4.358758263752704,8.731241736247297,0.4,0.4177777777777778,-0.6166666666666667,0.007760851545599738,0.05473914845440026,0.007760851545599738
1589997917.332223,-0.24980796958972343,-4.340384060820553,8.641536243282212,0.4,0.4177777777777778,-0.6166666666666667,-0.1225996198715428,0.0,0.0
1589997917.342223,-0.24064490758946125,-4.358710184821078,8.71484073928431,0.4,0.4177777777777778,-0.6166666666666667,-0.008061344868265818,0.0,0.0
1589997917.352223,-0.24,-4.354083936455915,8.725916063544085,0.4,0.4177777777777778,-0.6166666666666667,-0.0739507943010606,0.0,0.0369753971505303
1589997917.362223,-0.23414859234453486,-4.35,8.74170281531093,0.4,0.4255796546517313,-0.6082146333865504,0.02128519138662824,0.03657129784665706,0.0625
1589997917.372223,-0.2372941533010071,-4.35,8.764588306602015,0.4,0.4311111111111111,-0.6022222222222222,0.0794115418687057,-0.028676916262588587,0.016911541868705707
1589997917.382223,-0.24,-4.359193775848136,8.631612448303729,0.4,0.4311111111111111,-0.6022222222222222,-0.0625,0.0625,-0.057461099050848535
1589997917.392223,-0.24,-4.345901535438686,8.65819692912263,0.4,0.4311111111111111,-0.6022222222222222,-0.0625,0.0625,0.025615403508215936
1589997917.4022229,-0.2466803208249785,-4.3533606416499575,8.696721283299915,0.4,0.4311111111111111,-0.6022222222222222,-0.020747994843884274,0.020747994843884274,0.020747994843884274
1589997917.4122229,-0.25,-4.3342418906591424,8.748637164011287,0.38712094532957125,0.4311111111111111,-0.5979292039987459,0.0,-0.04024704584508984,-0.04024704584508984
1589997917.4222229,-0.25890745592296255,-4.337814911845925,8.743277632231113,0.38,0.4311111111111111,-0.5955555555555555,-0.0556715995185159,-0.0625,-0.006828400481484101
1589997917.4322228,-0.2529003672507354,-4.347099632749265,8.654804407008825,0.38,0.4311111111111111,-0.5955555555555555,0.07061811404871099,-0.10687270468290366,0.044372704682903656
1589997917.4422228,-0.2499431502597445,-4.330113699480511,8.650227398961022,0.38,0.4311111111111111,-0.5955555555555555,0.12446703368510471,-0.00017765543829842845,0.00017765543829842845
1589997917.4522228,-0.23623942235436338,-4.357521155291273,8.705042310582547,0.38,0.4311111111111111,-0.5955555555555555,-0.004005415427843301,-0.04300180514261443,0.04300180514261443
1589997917.4622228,-0.23841349340796936,-4.3615865065920305,8.72158650659203,0.3856089956053129,0.4311111111111111,-0.6189263705776926,-0.0625,-0.009915666200191499,0.009915666200191499
1589997917.4722228,-0.24742952463676562,-4.36,8.734859049273531,0.38666666666666666,0.4311111111111111,-0.6233333333333333,-0.016065471020214786,0.046434528979785214,0.046434528979785214
1589997917.4822228,-0.24014951806818569,-4.36,8.641495180681858,0.38666666666666666,0.4311111111111111,-0.6233333333333333,-0.12313102414767889,0.0009344879261605557,-0.06063102414767889
1589997917.4922228,-0.25639113779076655,-4.3518044311046165,8.672782275581532,0.38666666666666666,0.4311111111111111,-0.6233333333333333,-0.125,-0.10244461119229098,-0.01127769440385451
1589997917.5022228,-0.24571179685968772,-4.3428558984298435,8.701432304710469,0.38666666666666666,0.4311111111111111,-0.6233333333333333,-0.0356987303730482,0.09825317406737952,0.0446506348134759
1589997917.5122228,-0.24,-4.346013433178281,8.740067165891409,0.3826577112144789,0.43445190732126754,-0.6146472631869265,-0.037583957364260234,0.14991604263573977,0.024916042635739766
1589997917.5222228,-0.25597802505423756,-4.357989012527119,8.712065924837287,0.38,0.43666666666666665,-0.6088888888888889,0.037362656588984536,-0.07472531317796907,-0.04993132829449227
1589997917.5322227,-0.2307231059584794,-4.330723105958479,8.612169317875438,0.38,0.43666666666666665,-0.6088888888888889,0.0015064707468320296,-0.003012941493664059,-0.12349352925316798
1589997917.5422227,-0.24823481505611988,-4.336078271685373,8.64646963011224,0.38,0.43666666666666665,-0.6088888888888889,-0.07597839606716617,0.07597839606716617,-0.049021603932833835
1589997917.5522227,-0.24886110610700773,-4.34,8.692277787785985,0.38,0.43666666666666665,-0.6088888888888889,-0.1598090434156008,0.1598090434156008,0.034809043415600795
1589997917.5622227,-0.24,-4.330814846945098,8.737555459164705,0.38,0.43156380385838805,-0.6160328968204789,-0.13009279340686578,-0.0995360329656711,0.005092793406865782
1589997917.5722227,-0.26710929778186415,-4.33,8.74,0.38,0.4311111111111111,-0.6166666666666667,-0.012044592575566032,0.044433111136650966,0.056477703712216984
1589997917.5822227,-0.27,-4.362671270813861,8.674657458372279,0.38,0.4311111111111111,-0.6166666666666667,0.0,0.02166091148267387,0.10333908851732612
1589997917.5922227,-0.27,-4.358692070281173,8.67196189457824,0.38,0.4311111111111111,-0.6166666666666667,0.033293640185666724,-0.06658728037133345,0.09170635981433328
1589997917.6022227,-0.2589999515715047,-4.345500024214247,8.716500072642743,0.38,0.4311111111111111,-0.6166666666666667,-0.006250302678095787,0.012500605356191574,0.0625
1589997917.6122227,-0.23273157388925853,-4.358634213055371,8.721365786944629,0.38,0.4311111111111111,-0.6224228087035805,-0.00853616840393287,-0.03689149478820136,-0.04542766319213426
1589997917.6222227,-0.24323528902884234,-4.340147066456737,8.739852933543263,0.38,0.4311111111111111,-0.6233333333333333,-0.04136027821513227,-0.0625,-0.021139721784867727
1589997917.6322227,-0.25895831666533325,-4.356874949996,8.633541883350667,0.38,0.4311111111111111,-0.6233333333333333,-0.0625,-0.11848947915833266,0.0
1589997917.6422226,-0.23421069883309298,-4.368596433722303,8.671578602333813,0.38,0.4311111111111111,-0.6233333333333333,-0.008772289235610332,-0.017544578471220665,-0.10745542152877934
1589997917.6522226,-0.25158833063209074,-4.355607779578606,8.694392220421394,0.38,0.4311111111111111,-0.6233333333333333,-0.04497568881685575,0.04497568881685575,0.054902755267423
1589997917.6622226,-0.24369990139783074,-4.35,8.740750246505423,0.3854333662007231,0.4356389162783803,-0.625144455400241,-0.011562191868221099,-0.09031342439533671,-0.02781342439533671
1589997917.6722226,-0.24869152940026393,-4.341308470599736,8.72392541179921,0.38666666666666666,0.43666666666666665,-0.6255555555555555,0.0,0.09228823500659855,-0.008177941248350362
1589997917.6822226,-0.25,-4.33084588441331,8.63761295971979,0.38666666666666666,0.43666666666666665,-0.6255555555555555,0.0,-0.04663966725043783,-0.05721322241681261
1589997917.6922226,-0.24162205613974103,-4.3467558877205175,8.63837794386026,0.38666666666666666,0.43666666666666665,-0.6255555555555555,-0.10472429825323716,-0.11486214912661857,-0.11486214912661857
1589997917.7022226,-0.24656242267354436,-4.336875154652911,8.692499381388355,0.38666666666666666,0.43666666666666665,-0.6255555555555555,-0.08398485829034776,-0.125,-0.08398485829034776
1589997917.7122226,-0.2414012601260126,-4.355796219621962,8.737197479747975,0.40386414641464147,0.4318895889588959,-0.6112243224322432,-0.0625,-0.017515751575157515,-0.008757875787578757
1589997917.7222226,-0.2484937163775977,-4.351506283622402,8.748493716377597,0.4066666666666667,0.4311111111111111,-0.6088888888888889,-0.009414272640014286,0.0,-0.10617145471997143
1589997917.7322226,-0.25,-4.35,8.653563332918171,0.4066666666666667,0.4311111111111111,-0.6088888888888889,-0.05479356084194794,-0.05479356084194794,-0.07020643915805205
1589997917.7422225,-0.256787457341015,-4.343212542658985,8.673937286705074,0.4066666666666667,0.4311111111111111,-0.6088888888888889,-0.0625,-0.020078391618656197,-0.020078391618656197
1589997917.7522225,-0.24661566271659943,-4.344461445761134,8.698922891522267,0.4066666666666667,0.4311111111111111,-0.6088888888888889,-0.09038403600708456,0.05576807201416912,0.0
1589997917.7622225,-0.23,-4.341445308182588,8.731386729543528,0.4066666666666667,0.42825954717197395,-0.6060373249497517,-0.125,0.044799764211767304,0.0
1589997917.7722225,-0.2408613847134544,-4.340861384713454,8.716554461146183,0.4066666666666667,0.4244444444444445,-0.6022222222222222,-0.09105817277045505,-0.02855817277045506,0.0
1589997917.7822225,-0.24211593044173496,-4.35,8.640579652208675,0.4066666666666667,0.4244444444444445,-0.6022222222222222,-0.0625,0.0,0.0
1589997917.7922225,-0.2525754872357947,-4.356287743617897,8.667726461707383,0.4066666666666667,0.4244444444444445,-0.6022222222222222,-0.0625,-0.07859679522371671,-0.039298397611858354
1589997917.8022225,-0.24938772310345728,-4.365306138448272,8.700612276896543,0.4066666666666667,0.4244444444444445,-0.6022222222222222,0.003826730603391962,-0.19132673060339195,-0.02933663469830402
1589997917.8122225,-0.2508212625784035,-4.353768106132395,8.720821262578404,0.4030595791405322,0.42083735691831,-0.610037578528847,0.02868355444248906,-0.04710132665493433,-0.03381644555751094
1589997917.8222225,-0.252140440240131,-4.355719119519739,8.737859559759869,0.4,0.4177777777777778,-0.6166666666666667,-0.1473667454975441,0.02675550300163726,-0.01337775150081863
1589997917.8322225,-0.25,-4.3449171825330435,8.664585912665217,0.4,0.4177777777777778,-0.6166666666666667,-0.09323239083152082,-0.04713380458423959,0.04713380458423959
1589997917.8422225,-0.24222725751216623,-4.324454515024333,8.678863712439169,0.4,0.4177777777777778,-0.6166666666666667,0.08323892164688312,-0.013920359451038956,-0.03465928109792209
1589997917.8522224,-0.24,-4.339202330141885,8.715603106855847,0.4,0.4177777777777778,-0.6166666666666667,0.08499514553773985,-0.04000485446226016,-0.02249514553773984
1589997917.8622224,-0.24,-4.35,8.73,0.4,0.4177777777777778,-0.623573967489106,0.013933041092223264,-0.013933041092223264,0.048566958907776736
1589997917.8722224,-0.24,-4.366862707611423,8.755294061417134,0.4,0.4177777777777778,-0.6255555555555555,-0.10539192257139443,0.052695961285697215,0.11519596128569722
1589997917.8822224,-0.24732970083699346,-4.37,8.65738418828209,0.4,0.4177777777777778,-0.6255555555555555,-0.033378739537581845,-0.029121260462418155,0.033378739537581845
1589997917.8922224,-0.25,-4.362861775834111,8.662829344995332,0.4,0.4177777777777778,-0.6255555555555555,0.0,-0.19634170311041224,0.04461390103680409
1589997917.9022224,-0.25,-4.354322207020634,8.708388964896827,0.4,0.4177777777777778,-0.6255555555555555,0.03548620612103379,-0.17902758775793243,0.027013793878966207
1589997917.9122224,-0.25,-4.344113116951953,8.747660649144139,0.4,0.4177777777777778,-0.6288260461378037,0.025706980949708476,-0.08820698094970847,-0.036793019050291524
1589997917.9222224,-0.25,-4.350724383602522,8.749275616397478,0.4,0.4177777777777778,-0.6311111111111111,0.0,-0.0625,-0.028986301242120184
1589997917.9322224,-0.25,-4.36,8.679696291936434,0.4,0.4177777777777778,-0.6311111111111111,-0.04187757504414361,-0.020622424955856387,0.04187757504414361
1589997917.9422224,-0.25772227979274615,-4.367722279792746,8.642277720207254,0.4,0.4177777777777778,-0.6311111111111111,-0.11076424870466321,-0.14479274611398965,-0.08229274611398965
1589997917.9522223,-0.24773082223242995,-4.363865411116215,8.701345888837851,0.4,0.4177777777777778,-0.6311111111111111,-0.048317638952687175,-0.11081763895268718,-0.08665881947634359
1589997917.9622223,-0.2485881841876629,-4.36,8.73570590790617,0.4028627280625543,0.4235032339028864,-0.6249085336422434,-0.08051422675933971,-0.0625,-0.035661924413553425
1589997917.9722223,-0.2506564010743062,-4.36,8.739343598925695,0.4066666666666667,0.4311111111111111,-0.6166666666666667,-0.07070501342882722,-0.00410250671441361,0.0
1589997917.9822223,-0.24,-4.36,8.688824593128391,0.4066666666666667,0.4311111111111111,-0.6166666666666667,0.03063780892103677,0.09436219107896324,0.03186219107896323
1589997917.9922223,-0.24617781744799752,-4.36,8.65471126979199,0.4066666666666667,0.4311111111111111,-0.6166666666666667,-0.07722271809996895,0.047777281900031054,-0.014722718099968946
1589997918.0022223,-0.24415484364470832,-4.348309687289417,8.699225781776459,0.4066666666666667,0.4311111111111111,-0.6166666666666667,-0.015403318338281097,0.07306445444114594,0.01056445444114594
1589997918.0122223,-0.2464473728556503,-4.34644737285565,8.7328947457113,0.3894736723849325,0.42681286254067763,-0.6403070338040511,-0.09868432139125746,-0.03618432139125746,-0.09868432139125746
1589997918.0222223,-0.2344239974206989,-4.35,8.708847994841397,0.38,0.4244444444444445,-0.6533333333333333,-0.09014998387936807,-0.027649983879368067,-0.13882499193968403
1589997918.0322223,-0.24524688935570996,-4.35,8.646635887255016,0.38,0.4244444444444445,-0.6533333333333333,0.03279305847318728,0.0,0.017939587709780935
1589997918.0422223,-0.25,-4.35,8.667567958975333,0.38,0.4244444444444445,-0.6533333333333333,0.015540051280833786,-0.046959948719166214,-0.03141989743833243
1589997918.0522223,-0.24488450722541003,-4.33976901445082,8.69534647832377,0.38,0.4244444444444445,-0.6533333333333333,-0.03197182984118728,-0.12644365968237456,0.0014436596823745595
1589997918.0622222,-0.2483748767779186,-4.338374876777919,8.72256231516688,0.3772083744073605,0.4244444444444445,-0.6347224960490698,-0.036328510069004366,-0.21367148993099563,0.010157020138008732
1589997918.0722222,-0.25564010697020606,-4.358719786059588,8.744359893029793,0.37333333333333335,0.4244444444444445,-0.6088888888888889,0.02724933143621216,-0.1682520056913635,-0.03525066856378784
1589997918.0822222,-0.25352927400468384,-4.366470725995316,8.718236533957846,0.37333333333333335,0.4244444444444445,-0.6088888888888889,0.040442037470726,-0.040442037470726,0.04411592505854801
1589997918.0922222,-0.2556345518380834,-4.36,8.677461792647666,0.37333333333333335,0.4244444444444445,-0.6088888888888889,0.02728405101197852,0.0,0.07043189797604296
1589997918.1022222,-0.24736229724307904,-4.357362297243079,8.705275405513841,0.37333333333333335,0.4244444444444445,-0.6088888888888889,0.029528715538487994,-0.016485642230756003,0.032971284461512006
1589997918.1122222,-0.2365399271922168,-4.353460072807783,8.72,0.38256019415408854,0.4244444444444445,-0.6146556769018608,-0.019249089902710063,-0.10575091009728993,0.08174908990271007
1589997918.1222222,-0.2431725352112676,-4.36,8.728781690140845,0.4,0.4244444444444445,-0.6255555555555555,0.0625,-0.07772887323943663,0.027442781690140843
1589997918.1322222,-0.25045600691443387,-4.355228003457217,8.687508038029387,0.4,0.4244444444444445,-0.6255555555555555,-0.02697493517718237,0.09232497839239412,0.032675021607605874
1589997918.1422222,-0.24486627012187512,-4.354866270121875,8.654331350609375,0.4,0.4244444444444445,-0.6255555555555555,-0.125,0.09458581173828044,-0.06082837652343912
1589997918.1522222,-0.2608430557336215,-4.36,8.701686111467243,0.4,0.4244444444444445,-0.6255555555555555,-0.05723090166486565,0.028615450832432825,-0.05723090166486565
1589997918.1622221,-0.25878705664372686,-4.348787056643727,8.73681941503441,0.38878705664372687,0.42818209222986886,-0.6205720251749897,0.03504044798835363,0.10512134396506088,0.0
1589997918.1722221,-0.25,-4.346744787990023,8.729765636029931,0.38,0.4311111111111111,-0.6166666666666667,0.0625,0.1875,0.0
1589997918.1822221,-0.25,-4.356512139746084,8.654878602539153,0.38,0.4311111111111111,-0.6166666666666667,0.02179912658697062,0.06539737976091187,-0.04070087341302938
1589997918.192222,-0.24371746343287068,-4.36,8.62628253656713,0.38,0.4311111111111111,-0.6166666666666667,-0.0785317070891163,0.0,-0.0625
1589997918.202222,-0.23527985784998096,-4.355279857849981,8.677201421500191,0.38,0.4311111111111111,-0.6166666666666667,-0.154500888437619,0.05900177687523797,-0.032999111562381014
1589997918.212222,-0.23,-4.35,8.732881184559385,0.3857623691187705,0.4311111111111111,-0.6185874563729236,-0.15148519300768437,0.10699259650384219,-0.01800740349615782
1589997918.222222,-0.22647834145671725,-4.357043317086565,8.74,0.4,0.4311111111111111,-0.6233333333333333,-0.04048963410448274,0.04048963410448274,-0.0625
1589997918.232222,-0.2387187601428108,-4.365320309964297,8.693203099642973,0.4,0.4311111111111111,-0.6233333333333333,-0.029248062723141836,0.0,-0.033251937276858164
1589997918.242222,-0.25469591630104627,-4.354695916301046,8.666520418494768,0.4,0.4311111111111111,-0.6233333333333333,-0.095650523118461,-0.03315052311846101,0.0
1589997918.252222,-0.23979836214740674,-4.35,8.70530245677889,0.4,0.4311111111111111,-0.6233333333333333,-0.09311988171064604,-0.030619881710646044,0.0
1589997918.262222,-0.23892148711248368,-4.347026170962505,8.728921487112483,0.4039651053833261,0.42714600572778505,-0.6190378025013967,-0.0625,-0.018586431484340974,0.0
1589997918.272222,-0.26,-4.3422904313864725,8.736257411681164,0.4133333333333333,0.4177777777777778,-0.6088888888888889,-0.0625,-0.005239215338185693,-0.014315196165453577
1589997918.282222,-0.26381953098447947,-4.353819530984479,8.667082814093124,0.4133333333333333,0.4177777777777778,-0.6088888888888889,-0.0625,0.13975586269400703,-0.01475586269400702
1589997918.292222,-0.26662760893445625,-4.36,8.636744782131089,0.4133333333333333,0.4177777777777778,-0.6088888888888889,-0.10465488831929695,0.0625,-0.0007323324789454411
1589997918.302222,-0.2513457106041633,-4.351345710604163,8.684617157583347,0.4133333333333333,0.4177777777777778,-0.6088888888888889,-0.0793213825520408,0.1436339630859694,-0.0979553456380102
1589997918.312222,-0.24358689449125515,-4.34,8.73717378898251,0.40137701836248274,0.42256030376611803,-0.6116786957154207,0.0625,0.20516381885931048,-0.10733618114068952
1589997918.322222,-0.25,-4.3515153654170975,8.732726951874355,0.38,0.4311111111111111,-0.6166666666666667,-0.009471033856858352,0.08901448307157082,-0.07954344921471249
1589997918.332222,-0.24392212380814093,-4.36,8.677454866656987,0.38,0.4311111111111111,-0.6166666666666667,-0.10048672619911911,0.02451327380088089,-0.03798672619911911
1589997918.342222,-0.23423114856989152,-4.354231148569891,8.673075405720434,0.38,0.4311111111111111,-0.6166666666666667,-0.16105532143817808,-0.07211064287635614,0.04566596431453422
1589997918.352222,-0.2390433998510213,-4.3545216999255105,8.708086799702043,0.38,0.4311111111111111,-0.6166666666666667,-0.13097875093111694,-0.09673937546555847,0.09673937546555847
